time,seconds_elapsed,z,y,x
1772656070911255600,0.066255615234375,-0.99493408203125,-0.014739990234375,-0.0087432861328125
1772656070921237800,0.07623779296875,-0.9954681396484375,-0.015350341796875,-0.0076141357421875
1772656070931220500,0.086220458984375,-1.00445556640625,-0.0165252685546875,-0.006378173828125
1772656070941202700,0.09620263671875,-1.0005645751953125,-0.0162506103515625,-0.007415771484375
1772656070951185700,0.106185546875,-0.9948883056640625,-0.01580810546875,-0.0088653564453125
1772656070961167600,0.116167724609375,-0.9990081787109375,-0.016510009765625,-0.0088653564453125
1772656070971150600,0.126150634765625,-1.0038299560546875,-0.01690673828125,-0.005828857421875
1772656070981132800,0.1361328125,-0.999267578125,-0.016143798828125,-0.0077362060546875
1772656070991115500,0.146115478515625,-0.99737548828125,-0.0157470703125,-0.008544921875
1772656071001097700,0.15609765625,-1.00128173828125,-0.0161590576171875,-0.006683349609375
1772656071011080700,0.166080810546875,-1.0024261474609375,-0.0162506103515625,-0.0066070556640625
1772656071021062700,0.176062744140625,-0.99786376953125,-0.0168609619140625,-0.0088043212890625
1772656071031044600,0.186044677734375,-0.9991455078125,-0.016082763671875,-0.007904052734375
1772656071041027600,0.196027587890625,-1.0007171630859375,-0.016204833984375,-0.006988525390625
1772656071051009500,0.206009521484375,-0.9992218017578125,-0.016082763671875,-0.00738525390625
1772656071060992800,0.21599267578125,-0.9985809326171875,-0.01605224609375,-0.0080108642578125
1772656071070974500,0.225974365234375,-0.9989013671875,-0.015380859375,-0.0080413818359375
1772656071080957700,0.235957763671875,-0.99981689453125,-0.015228271484375,-0.007293701171875
1772656071090939600,0.245939697265625,-0.9997711181640625,-0.0159454345703125,-0.007110595703125
1772656071100922600,0.255922607421875,-0.99853515625,-0.0157623291015625,-0.0084991455078125
1772656071110904600,0.265904541015625,-0.9996185302734375,-0.0155029296875,-0.0070953369140625
1772656071120887800,0.2758876953125,-0.9989776611328125,-0.0164337158203125,-0.007293701171875
1772656071130869500,0.285869384765625,-0.9984893798828125,-0.01568603515625,-0.00738525390625
1772656071140852700,0.295852783203125,-0.999908447265625,-0.0155029296875,-0.00701904296875
1772656071150834700,0.305834716796875,-1.000030517578125,-0.016448974609375,-0.007110595703125
1772656071160817700,0.315817626953125,-0.9994049072265625,-0.016204833984375,-0.007781982421875
1772656071170799600,0.325799560546875,-0.999298095703125,-0.0160980224609375,-0.007781982421875
1772656071180781600,0.335781494140625,-0.9988861083984375,-0.01605224609375,-0.007293701171875
1772656071190764500,0.3457646484375,-0.9994354248046875,-0.015289306640625,-0.007171630859375
1772656071200746500,0.35574658203125,-0.9987945556640625,-0.015594482421875,-0.00811767578125
1772656071210729500,0.3657294921875,-0.9994354248046875,-0.015716552734375,-0.007904052734375
1772656071220711700,0.375711669921875,-1.0000152587890625,-0.015289306640625,-0.0072784423828125
1772656071230694700,0.385694580078125,-0.9986419677734375,-0.015838623046875,-0.0082855224609375
1772656071240676600,0.395676513671875,-1.00018310546875,-0.016326904296875,-0.0079803466796875
1772656071250659600,0.40565966796875,-1.0002593994140625,-0.0164642333984375,-0.00787353515625
1772656071260641500,0.4156416015625,-0.9997711181640625,-0.016021728515625,-0.007110595703125
1772656071270624500,0.42562451171875,-0.9999542236328125,-0.016387939453125,-0.0065155029296875
1772656071280606700,0.435606689453125,-0.9997406005859375,-0.0160064697265625,-0.0080108642578125
1772656071290589700,0.445589599609375,-0.99969482421875,-0.01593017578125,-0.0081939697265625
1772656071300571600,0.455571533203125,-0.999237060546875,-0.0164794921875,-0.00750732421875
1772656071310553600,0.4655537109375,-0.9995269775390625,-0.0157012939453125,-0.0075531005859375
1772656071320536600,0.47553662109375,-0.9992523193359375,-0.016448974609375,-0.0084075927734375
1772656071330518800,0.485518798828125,-1,-0.016326904296875,-0.0078887939453125
1772656071340501500,0.49550146484375,-0.9995574951171875,-0.01556396484375,-0.00787353515625
1772656071350483700,0.505483642578125,-0.999298095703125,-0.0159149169921875,-0.0074005126953125
1772656071360466700,0.515466796875,-0.9991302490234375,-0.0159149169921875,-0.0070037841796875
1772656071370448600,0.52544873046875,-0.9991302490234375,-0.015625,-0.0081939697265625
1772656071380431600,0.535431640625,-0.9995574951171875,-0.0153656005859375,-0.0084381103515625
1772656071390413600,0.54541357421875,-0.999755859375,-0.0157318115234375,-0.0074462890625
1772656071400396500,0.555396484375,-0.999847412109375,-0.0157012939453125,-0.0072174072265625
1772656071410378800,0.565378662109375,-0.9999542236328125,-0.0160675048828125,-0.0078582763671875
1772656071420361500,0.575361572265625,-1.0000457763671875,-0.015594482421875,-0.0079193115234375
1772656071430343700,0.58534375,-0.9992218017578125,-0.01593017578125,-0.0070037841796875
1772656071440326700,0.59532666015625,-0.9988555908203125,-0.0159912109375,-0.0077667236328125
1772656071450308600,0.60530859375,-0.9992523193359375,-0.0161895751953125,-0.0074920654296875
1772656071460290600,0.61529052734375,-0.9991455078125,-0.015777587890625,-0.0074920654296875
1772656071470273800,0.625273681640625,-0.9998931884765625,-0.0158843994140625,-0.008453369140625
1772656071480255500,0.63525537109375,-1.0001068115234375,-0.0165863037109375,-0.00726318359375
1772656071490238700,0.64523876953125,-1.0002593994140625,-0.015594482421875,-0.0081329345703125
1772656071500220400,0.655220458984375,-0.9994354248046875,-0.015899658203125,-0.0074920654296875
1772656071510203600,0.66520361328125,-0.999603271484375,-0.01617431640625,-0.0073699951171875
1772656071520185600,0.675185546875,-0.9994964599609375,-0.01611328125,-0.0079498291015625
1772656071530168600,0.68516845703125,-0.9991912841796875,-0.0161285400390625,-0.00787353515625
1772656071540150500,0.695150634765625,-0.9995269775390625,-0.0158843994140625,-0.0076141357421875
1772656071550133800,0.7051337890625,-0.9991302490234375,-0.016143798828125,-0.007720947265625
1772656071560115500,0.715115478515625,-0.9992218017578125,-0.0166015625,-0.0079803466796875
1772656071570098700,0.7250986328125,-1.000335693359375,-0.0154876708984375,-0.0079498291015625
1772656071580080600,0.73508056640625,-0.9991607666015625,-0.0162200927734375,-0.008270263671875
1772656071590062600,0.7450625,-0.99932861328125,-0.016204833984375,-0.007904052734375
1772656071600045600,0.755045654296875,-0.9992828369140625,-0.0155029296875,-0.0091552734375
1772656071610027500,0.765027587890625,-0.9991455078125,-0.016387939453125,-0.0079345703125
1772656071620010500,0.775010498046875,-0.9986419677734375,-0.01580810546875,-0.0068511962890625
1772656071629992700,0.78499267578125,-0.99969482421875,-0.0162353515625,-0.0075225830078125
1772656071639975400,0.794975341796875,-1.00006103515625,-0.0162811279296875,-0.007781982421875
1772656071649957600,0.80495751953125,-0.9998016357421875,-0.01611328125,-0.0081329345703125
1772656071659940600,0.814940673828125,-0.9985504150390625,-0.0154571533203125,-0.0072479248046875
1772656071669922600,0.824922607421875,-0.999237060546875,-0.0156707763671875,-0.0075225830078125
1772656071679905500,0.834905517578125,-1.000640869140625,-0.0165863037109375,-0.0080413818359375
1772656071689887500,0.844887451171875,-0.9992523193359375,-0.0160980224609375,-0.0073089599609375
1772656071699870500,0.854870361328125,-0.998779296875,-0.015716552734375,-0.007110595703125
1772656071709852700,0.864852783203125,-0.9997711181640625,-0.0159912109375,-0.00714111328125
1772656071719834600,0.874834716796875,-1.0000762939453125,-0.0163726806640625,-0.00823974609375
1772656071729817600,0.884817626953125,-1.0005950927734375,-0.0159149169921875,-0.007720947265625
1772656071739799800,0.8947998046875,-1.0000762939453125,-0.0150299072265625,-0.0070037841796875
1772656071749782500,0.904782470703125,-0.9998321533203125,-0.0160980224609375,-0.0083160400390625
1772656071759764700,0.9147646484375,-0.99920654296875,-0.01513671875,-0.006134033203125
1772656071769747700,0.924747802734375,-0.998291015625,-0.015899658203125,-0.0067138671875
1772656071779729700,0.934729736328125,-1.000091552734375,-0.0165557861328125,-0.0081634521484375
1772656071789712600,0.944712646484375,-0.99951171875,-0.0161590576171875,-0.00762939453125
1772656071799694600,0.954694580078125,-0.9999847412109375,-0.0163726806640625,-0.006805419921875
1772656071809677600,0.964677490234375,-1,-0.01556396484375,-0.0084228515625
1772656071819659800,0.97465966796875,-0.9997406005859375,-0.0164337158203125,-0.007965087890625
1772656071829642500,0.984642578125,-0.998870849609375,-0.0166473388671875,-0.008087158203125
1772656071839624700,0.994624755859375,-0.9993438720703125,-0.016143798828125,-0.0071563720703125
1772656071849606700,1.004606689453125,-0.9998016357421875,-0.0159149169921875,-0.00714111328125
1772656071859589600,1.014589599609375,-1.000091552734375,-0.0161895751953125,-0.0078125
1772656071869571800,1.02457177734375,-0.999603271484375,-0.01617431640625,-0.0072479248046875
1772656071879555000,1.03455517578125,-0.9983062744140625,-0.016265869140625,-0.007598876953125
1772656071889537000,1.044537109375,-1.000091552734375,-0.0155792236328125,-0.0072784423828125
1772656071899520000,1.05452001953125,-1.0004425048828125,-0.0157318115234375,-0.0072021484375
1772656071909502000,1.064501953125,-0.99951171875,-0.0158538818359375,-0.00726318359375
1772656071919485200,1.074485107421875,-0.9994354248046875,-0.0166168212890625,-0.00811767578125
1772656071929467000,1.084466796875,-0.9998931884765625,-0.016021728515625,-0.0076904296875
1772656071939450000,1.0944501953125,-0.99932861328125,-0.0159912109375,-0.007293701171875
1772656071949431800,1.104431884765625,-1.000152587890625,-0.0160369873046875,-0.0078582763671875
1772656071959414000,1.1144140625,-0.999359130859375,-0.0158233642578125,-0.0085906982421875
1772656071969397000,1.12439697265625,-0.9990997314453125,-0.0159759521484375,-0.00848388671875
1772656071979379000,1.13437890625,-0.999603271484375,-0.0162353515625,-0.0084075927734375
1772656071989362000,1.14436181640625,-0.9996795654296875,-0.01580810546875,-0.007476806640625
1772656071999344000,1.15434423828125,-0.9987945556640625,-0.0159912109375,-0.0084686279296875
1772656072009326800,1.164326904296875,-0.9994354248046875,-0.016448974609375,-0.00775146484375
1772656072019309000,1.17430908203125,-1.0004119873046875,-0.0159912109375,-0.00732421875
1772656072029292000,1.1842919921875,-1.000335693359375,-0.016815185546875,-0.007720947265625
1772656072039274000,1.19427392578125,-0.9996185302734375,-0.0158843994140625,-0.0075836181640625
1772656072049257000,1.204257080078125,-1,-0.015594482421875,-0.0071868896484375
1772656072059239000,1.214239013671875,-1.000244140625,-0.0159454345703125,-0.00762939453125
1772656072069222000,1.224221923828125,-0.9995269775390625,-0.0164031982421875,-0.0073394775390625
1772656072079204000,1.2342041015625,-0.999542236328125,-0.0170135498046875,-0.008087158203125
1772656072089186000,1.24418603515625,-0.9999542236328125,-0.0157470703125,-0.0078277587890625
1772656072099169000,1.2541689453125,-0.99908447265625,-0.0157318115234375,-0.0081024169921875
1772656072109151200,1.264151123046875,-0.999176025390625,-0.015594482421875,-0.0077362060546875
1772656072119134000,1.274134033203125,-0.999176025390625,-0.01593017578125,-0.0075836181640625
1772656072129116200,1.2841162109375,-0.9998931884765625,-0.016448974609375,-0.0081939697265625
1772656072139099100,1.29409912109375,-0.9983673095703125,-0.0160064697265625,-0.0072021484375
1772656072149081000,1.3040810546875,-0.999237060546875,-0.016326904296875,-0.007904052734375
1772656072159064000,1.31406396484375,-0.9995574951171875,-0.0168304443359375,-0.007476806640625
1772656072169046000,1.3240458984375,-0.999176025390625,-0.0160980224609375,-0.00738525390625
1772656072179029000,1.334029052734375,-0.99993896484375,-0.0158538818359375,-0.0073089599609375
1772656072189011200,1.34401123046875,-1.0004119873046875,-0.0158843994140625,-0.0078887939453125
1772656072198993000,1.353992919921875,-0.9988250732421875,-0.0158233642578125,-0.0080413818359375
1772656072208976100,1.36397607421875,-0.9996490478515625,-0.015594482421875,-0.0075836181640625
1772656072218957800,1.373957763671875,-0.9999237060546875,-0.016571044921875,-0.0080413818359375
1772656072228941000,1.383941162109375,-0.9994964599609375,-0.0159759521484375,-0.00787353515625
1772656072238923000,1.393923095703125,-0.9999542236328125,-0.0162506103515625,-0.00787353515625
1772656072248906000,1.403906005859375,-0.9983367919921875,-0.016143798828125,-0.0080413818359375
1772656072258888000,1.413887939453125,-0.9999542236328125,-0.01568603515625,-0.0084381103515625
1772656072268871200,1.42387109375,-1.00042724609375,-0.0160675048828125,-0.007293701171875
1772656072278852900,1.433852783203125,-0.998931884765625,-0.0159912109375,-0.0074005126953125
1772656072288836000,1.443836181640625,-0.999237060546875,-0.01641845703125,-0.00762939453125
1772656072298818000,1.453818115234375,-1.0008087158203125,-0.0161285400390625,-0.007232666015625
1772656072308801000,1.463801025390625,-1.0003509521484375,-0.0160064697265625,-0.008880615234375
1772656072318783000,1.473782958984375,-0.998931884765625,-0.0157318115234375,-0.0090789794921875
1772656072328765000,1.483764892578125,-1.00006103515625,-0.0162506103515625,-0.0070037841796875
1772656072338748000,1.493747802734375,-1.000213623046875,-0.0155487060546875,-0.007598876953125
1772656072348730000,1.503730224609375,-0.9991912841796875,-0.0161285400390625,-0.008087158203125
1772656072358712800,1.513712890625,-0.998504638671875,-0.0165252685546875,-0.0087432861328125
1772656072368695000,1.523695068359375,-0.9986572265625,-0.016387939453125,-0.00823974609375
1772656072378678000,1.533677978515625,-1.000335693359375,-0.0162353515625,-0.008331298828125
1772656072388660000,1.543659912109375,-0.999847412109375,-0.0164794921875,-0.0080108642578125
1772656072398643000,1.553642822265625,-0.999114990234375,-0.0157470703125,-0.00762939453125
1772656072408625200,1.563625244140625,-0.999298095703125,-0.01629638671875,-0.0086822509765625
1772656072418607900,1.57360791015625,-1.0004119873046875,-0.0158843994140625,-0.0077667236328125
1772656072428590000,1.583590087890625,-1.0000152587890625,-0.016326904296875,-0.0077056884765625
1772656072438572000,1.593572021484375,-0.9986419677734375,-0.0165557861328125,-0.0081939697265625
1772656072448555000,1.603554931640625,-1.0002288818359375,-0.015960693359375,-0.0081634521484375
1772656072458537200,1.613537109375,-0.9995880126953125,-0.01519775390625,-0.00726318359375
1772656072468520000,1.62352001953125,-0.99896240234375,-0.016082763671875,-0.0080108642578125
1772656072478502100,1.633502197265625,-0.9990081787109375,-0.0161895751953125,-0.0080108642578125
1772656072488485000,1.643485107421875,-1.001007080078125,-0.01556396484375,-0.007965087890625
1772656072498467000,1.653467041015625,-0.9998931884765625,-0.016021728515625,-0.007843017578125
1772656072508450000,1.663449951171875,-0.9993743896484375,-0.0160064697265625,-0.006622314453125
1772656072518432000,1.673431884765625,-0.9985504150390625,-0.0162353515625,-0.007080078125
1772656072528415000,1.6834150390625,-0.9994354248046875,-0.0164794921875,-0.007568359375
1772656072538397200,1.693397216796875,-1.0001678466796875,-0.01556396484375,-0.00872802734375
1772656072548380000,1.7033798828125,-0.9981689453125,-0.01556396484375,-0.0077362060546875
1772656072558362000,1.713362060546875,-0.9994354248046875,-0.0164794921875,-0.008148193359375
1772656072568344000,1.723343994140625,-0.9998931884765625,-0.016845703125,-0.0075531005859375
1772656072578327000,1.7333271484375,-0.9998931884765625,-0.0163116455078125,-0.0071868896484375
1772656072588309000,1.74330908203125,-0.9991455078125,-0.016082763671875,-0.00823974609375
1772656072598292200,1.753292236328125,-0.9999542236328125,-0.0162811279296875,-0.006866455078125
1772656072608274000,1.76327392578125,-0.9989776611328125,-0.0157012939453125,-0.0076751708984375
1772656072618257200,1.773257080078125,-0.9989471435546875,-0.015625,-0.0082244873046875
1772656072628238800,1.78323876953125,-0.9994964599609375,-0.0153656005859375,-0.00811767578125
1772656072638222000,1.79322216796875,-0.998809814453125,-0.0161895751953125,-0.0081329345703125
1772656072648204000,1.8032041015625,-0.9989776611328125,-0.0160369873046875,-0.00762939453125
1772656072658187000,1.81318701171875,-0.9991455078125,-0.0165863037109375,-0.00787353515625
1772656072668169000,1.8231689453125,-1.0000762939453125,-0.0169677734375,-0.00775146484375
1772656072678151200,1.833151123046875,-0.998992919921875,-0.0162200927734375,-0.00799560546875
1772656072688134000,1.8431337890625,-0.9987640380859375,-0.016082763671875,-0.007965087890625
1772656072698116000,1.8531162109375,-1.000152587890625,-0.015380859375,-0.007537841796875
1772656072708099000,1.86309912109375,-0.9997406005859375,-0.016326904296875,-0.0076446533203125
1772656072718081000,1.8730810546875,-0.9988861083984375,-0.0155029296875,-0.007537841796875
1772656072728064000,1.88306396484375,-0.9990234375,-0.0160369873046875,-0.0072021484375
1772656072738046000,1.8930458984375,-0.999755859375,-0.0154876708984375,-0.0064239501953125
1772656072748029000,1.90302880859375,-0.9988555908203125,-0.0159759521484375,-0.0071868896484375
1772656072758011100,1.91301123046875,-0.999664306640625,-0.015869140625,-0.0079803466796875
1772656072767993900,1.922993896484375,-0.9994964599609375,-0.0163726806640625,-0.0073394775390625
1772656072777976000,1.93297607421875,-0.998443603515625,-0.016021728515625,-0.0081634521484375
1772656072787958000,1.9429580078125,-0.9998626708984375,-0.016571044921875,-0.007781982421875
1772656072797941000,1.95294091796875,-0.99981689453125,-0.0166473388671875,-0.0087890625
1772656072807923200,1.962923095703125,-0.9985809326171875,-0.0165557861328125,-0.0078582763671875
1772656072817906000,1.972906005859375,-0.9992828369140625,-0.0160369873046875,-0.0065765380859375
1772656072827888000,1.98288818359375,-0.9998931884765625,-0.0162353515625,-0.0077362060546875
1772656072837871000,1.99287109375,-0.9996337890625,-0.0161590576171875,-0.008209228515625
1772656072847853000,2.00285302734375,-0.9992523193359375,-0.015594482421875,-0.0077972412109375
1772656072857836000,2.0128359375,-0.9989013671875,-0.0155181884765625,-0.0069122314453125
1772656072867817500,2.0228173828125,-0.9989166259765625,-0.0161590576171875,-0.0077972412109375
1772656072877800400,2.032800537109375,-0.999114990234375,-0.015625,-0.008636474609375
1772656072887782400,2.042782470703125,-0.99957275390625,-0.0161285400390625,-0.0083465576171875
1772656072897765400,2.052765380859375,-1,-0.01544189453125,-0.007293701171875
1772656072907747300,2.062747314453125,-0.99835205078125,-0.0162353515625,-0.00799560546875
1772656072917729300,2.072729248046875,-0.9983978271484375,-0.01617431640625,-0.008148193359375
1772656072927712500,2.08271240234375,-0.9985809326171875,-0.0160064697265625,-0.008026123046875
1772656072937694200,2.092694091796875,-0.999237060546875,-0.0157470703125,-0.008453369140625
1772656072947677400,2.102677490234375,-0.9998016357421875,-0.0165252685546875,-0.00787353515625
1772656072957659400,2.112659423828125,-0.999481201171875,-0.0156402587890625,-0.0084991455078125
1772656072967642400,2.122642333984375,-0.9991302490234375,-0.0166473388671875,-0.007232666015625
1772656072977624300,2.132624267578125,-0.998779296875,-0.0160675048828125,-0.008056640625
1772656072987607600,2.142607666015625,-0.9999237060546875,-0.0162811279296875,-0.007110595703125
1772656072997589200,2.15258935546875,-0.9984130859375,-0.0159149169921875,-0.0064544677734375
1772656073007572500,2.162572509765625,-1.000091552734375,-0.015960693359375,-0.0079345703125
1772656073017554200,2.17255419921875,-0.9996795654296875,-0.0157928466796875,-0.007110595703125
1772656073027536400,2.182536376953125,-0.9994354248046875,-0.0160675048828125,-0.0081329345703125
1772656073037519400,2.192519287109375,-0.9990081787109375,-0.015625,-0.006591796875
1772656073047501300,2.202501220703125,-0.9998931884765625,-0.015869140625,-0.007080078125
1772656073057484300,2.212484375,-0.9995574951171875,-0.0159759521484375,-0.0075531005859375
1772656073067466500,2.222466552734375,-0.9988861083984375,-0.01605224609375,-0.00714111328125
1772656073077449200,2.23244921875,-0.9998321533203125,-0.015838623046875,-0.007354736328125
1772656073087431400,2.242431396484375,-0.998809814453125,-0.016510009765625,-0.0076141357421875
1772656073097414400,2.252414306640625,-0.9995574951171875,-0.015869140625,-0.0073394775390625
1772656073107396400,2.262396240234375,-1.000152587890625,-0.015106201171875,-0.00762939453125
1772656073117379300,2.27237939453125,-0.999908447265625,-0.0162811279296875,-0.008087158203125
1772656073127361300,2.282361328125,-0.999053955078125,-0.0163116455078125,-0.0076141357421875
1772656073137344300,2.29234423828125,-0.9983978271484375,-0.016265869140625,-0.00628662109375
1772656073147326500,2.302326416015625,-0.99951171875,-0.0170135498046875,-0.007568359375
1772656073157308400,2.312308349609375,-0.9995574951171875,-0.0170745849609375,-0.0083160400390625
1772656073167291400,2.32229150390625,-0.9992828369140625,-0.01556396484375,-0.007476806640625
1772656073177273300,2.3322734375,-0.99896240234375,-0.0160675048828125,-0.008148193359375
1772656073187256300,2.34225634765625,-0.999725341796875,-0.0157928466796875,-0.0079803466796875
1772656073197238500,2.352238525390625,-0.998870849609375,-0.0158843994140625,-0.0084228515625
1772656073207221200,2.36222119140625,-0.9985504150390625,-0.016357421875,-0.0072174072265625
1772656073217203500,2.372203369140625,-0.99951171875,-0.016326904296875,-0.0070953369140625
1772656073227186400,2.3821865234375,-0.9998779296875,-0.0168304443359375,-0.0075531005859375
1772656073237168400,2.39216845703125,-0.9991607666015625,-0.015777587890625,-0.00823974609375
1772656073247151400,2.4021513671875,-0.999114990234375,-0.0162353515625,-0.008148193359375
1772656073257133600,2.412133544921875,-0.999176025390625,-0.016693115234375,-0.007720947265625
1772656073267115300,2.422115234375,-1.0000457763671875,-0.015960693359375,-0.0079803466796875
1772656073277098500,2.432098388671875,-0.9999237060546875,-0.0157318115234375,-0.0085296630859375
1772656073287080200,2.442080078125,-0.9991302490234375,-0.0164642333984375,-0.008148193359375
1772656073297063400,2.4520634765625,-0.999755859375,-0.0172576904296875,-0.0082855224609375
1772656073307045400,2.46204541015625,-0.998291015625,-0.016082763671875,-0.008514404296875
1772656073317028400,2.4720283203125,-0.999176025390625,-0.0152740478515625,-0.00787353515625
1772656073327010300,2.48201025390625,-0.99981689453125,-0.0153961181640625,-0.006988525390625
1772656073336993500,2.49199365234375,-0.999114990234375,-0.016387939453125,-0.00732421875
1772656073346975200,2.501975341796875,-0.9987640380859375,-0.0161285400390625,-0.0081787109375
1772656073356958500,2.51195849609375,-0.9989471435546875,-0.0153350830078125,-0.00750732421875
1772656073366940400,2.5219404296875,-0.9991455078125,-0.0160369873046875,-0.009063720703125
1772656073376922400,2.53192236328125,-0.998809814453125,-0.0157623291015625,-0.0075531005859375
1772656073386905300,2.5419052734375,-0.99908447265625,-0.016571044921875,-0.00811767578125
1772656073396887300,2.55188720703125,-0.999725341796875,-0.0163726806640625,-0.0069122314453125
1772656073406870300,2.561870361328125,-0.998992919921875,-0.015472412109375,-0.007293701171875
1772656073416852500,2.5718525390625,-0.9989013671875,-0.01605224609375,-0.0076751708984375
1772656073426835200,2.581835205078125,-0.999481201171875,-0.01593017578125,-0.00726318359375
1772656073436817400,2.5918173828125,-1.0005645751953125,-0.0166168212890625,-0.00714111328125
1772656073446800400,2.60180029296875,-1.000335693359375,-0.0156402587890625,-0.0072021484375
1772656073456782300,2.6117822265625,-0.9994964599609375,-0.0159759521484375,-0.0072479248046875
1772656073466765300,2.621765380859375,-1.0003662109375,-0.0161285400390625,-0.0074310302734375
1772656073476747300,2.631747314453125,-1.0000762939453125,-0.0159149169921875,-0.0090789794921875
1772656073486730200,2.641730224609375,-0.9994659423828125,-0.0160675048828125,-0.0085906982421875
1772656073496712400,2.65171240234375,-0.999114990234375,-0.016357421875,-0.0078582763671875
1772656073506694400,2.6616943359375,-0.999786376953125,-0.0162506103515625,-0.0067901611328125
1772656073516677400,2.671677490234375,-0.9990997314453125,-0.01617431640625,-0.008209228515625
1772656073526659600,2.68165966796875,-0.9996185302734375,-0.0167388916015625,-0.00823974609375
1772656073536642300,2.691642333984375,-0.9990081787109375,-0.016082763671875,-0.0077667236328125
1772656073546624500,2.70162451171875,-0.998992919921875,-0.0160064697265625,-0.0078887939453125
1772656073556607500,2.711607421875,-0.999298095703125,-0.0153045654296875,-0.007476806640625
1772656073566589400,2.72158935546875,-0.9994659423828125,-0.0160369873046875,-0.0070343017578125
1772656073576572400,2.731572509765625,-0.99920654296875,-0.0162200927734375,-0.0077667236328125
1772656073586554400,2.741554443359375,-0.9993743896484375,-0.0155181884765625,-0.0076141357421875
1772656073596537300,2.751537353515625,-0.9998779296875,-0.015838623046875,-0.007659912109375
1772656073606519600,2.76151953125,-0.999664306640625,-0.0164947509765625,-0.0081939697265625
1772656073616501200,2.771501220703125,-1.00048828125,-0.0163421630859375,-0.008148193359375
1772656073626484500,2.781484375,-0.9993743896484375,-0.015655517578125,-0.0079803466796875
1772656073636466400,2.791466552734375,-0.9992828369140625,-0.015716552734375,-0.0081329345703125
1772656073646449400,2.801449462890625,-0.9990997314453125,-0.016143798828125,-0.007049560546875
1772656073656431400,2.811431396484375,-0.9997100830078125,-0.016876220703125,-0.0076751708984375
1772656073666414600,2.82141455078125,-0.9991455078125,-0.016204833984375,-0.0080718994140625
1772656073676396300,2.831396240234375,-0.999237060546875,-0.0160064697265625,-0.00665283203125
1772656073686379500,2.841379638671875,-0.9994354248046875,-0.0165863037109375,-0.007171630859375
1772656073696361200,2.851361328125,-0.999969482421875,-0.0162200927734375,-0.00799560546875
1772656073706344400,2.861344482421875,-0.9998626708984375,-0.0164337158203125,-0.0083465576171875
1772656073716326400,2.871326416015625,-0.9993743896484375,-0.01629638671875,-0.0072479248046875
1772656073726309400,2.881309326171875,-1.0003814697265625,-0.0157928466796875,-0.008697509765625
1772656073736291300,2.891291259765625,-0.9992523193359375,-0.0157318115234375,-0.007049560546875
1772656073746273300,2.901273193359375,-0.999542236328125,-0.015838623046875,-0.00677490234375
1772656073756256300,2.91125634765625,-0.9997100830078125,-0.0158843994140625,-0.007568359375
1772656073766238500,2.921238525390625,-0.998687744140625,-0.0159454345703125,-0.0080413818359375
1772656073776221200,2.93122119140625,-0.9989166259765625,-0.0162353515625,-0.0075225830078125
1772656073786203400,2.941203369140625,-0.99920654296875,-0.01605224609375,-0.0072479248046875
1772656073796186400,2.951186279296875,-1.00030517578125,-0.0160064697265625,-0.007080078125
1772656073806168300,2.961168212890625,-0.999908447265625,-0.015869140625,-0.0074920654296875
1772656073816151300,2.9711513671875,-0.9993896484375,-0.0164337158203125,-0.0084228515625
1772656073826133500,2.981133544921875,-0.9988250732421875,-0.0157623291015625,-0.008270263671875
1772656073836116200,2.9911162109375,-0.9994659423828125,-0.015777587890625,-0.0071563720703125
1772656073846098400,3.001098388671875,-0.999359130859375,-0.0160980224609375,-0.0072021484375
1772656073856080400,3.011080322265625,-1.000091552734375,-0.0166015625,-0.00787353515625
1772656073866067500,3.0210673828125,-0.9992218017578125,-0.016357421875,-0.00738525390625
1772656073876049400,3.03104931640625,-0.998138427734375,-0.0154266357421875,-0.0073394775390625
1772656073886032600,3.04103271484375,-0.9998779296875,-0.0162353515625,-0.00750732421875
1772656073896014300,3.051014404296875,-0.9998321533203125,-0.0157318115234375,-0.0078582763671875
1772656073905997600,3.06099755859375,-0.99957275390625,-0.0155181884765625,-0.0083160400390625
1772656073915979500,3.0709794921875,-0.999725341796875,-0.015960693359375,-0.0086669921875
1772656073925962500,3.08096240234375,-0.9991607666015625,-0.0160675048828125,-0.0075836181640625
1772656073935944400,3.0909443359375,-0.9990997314453125,-0.0156097412109375,-0.006622314453125
1772656073945927700,3.100927734375,-0.9992218017578125,-0.016510009765625,-0.0077362060546875
1772656073955909400,3.110909423828125,-0.998748779296875,-0.015899658203125,-0.0080413818359375
1772656073965892600,3.120892578125,-0.9998016357421875,-0.0157470703125,-0.00860595703125
1772656073975874300,3.130874267578125,-0.9997711181640625,-0.0157470703125,-0.0066986083984375
1772656073985856500,3.1408564453125,-0.9990386962890625,-0.0157470703125,-0.007781982421875
1772656073995839500,3.150839599609375,-0.9998016357421875,-0.0160675048828125,-0.0068817138671875
1772656074005821400,3.160821533203125,-0.9991912841796875,-0.015960693359375,-0.007781982421875
1772656074015804400,3.170804443359375,-1.0011138916015625,-0.0153350830078125,-0.0081329345703125
1772656074025786400,3.180786376953125,-1.0005950927734375,-0.0158538818359375,-0.0079345703125
1772656074035769300,3.190769287109375,-0.9984588623046875,-0.0161590576171875,-0.0080108642578125
1772656074045751600,3.20075146484375,-0.9989776611328125,-0.015777587890625,-0.0081939697265625
1772656074055734300,3.210734375,-0.999298095703125,-0.0158538818359375,-0.0074005126953125
1772656074065716500,3.220716552734375,-0.9992828369140625,-0.0157623291015625,-0.007720947265625
1772656074075699500,3.230699462890625,-0.999664306640625,-0.01593017578125,-0.007598876953125
1772656074085681400,3.240681396484375,-0.999603271484375,-0.0161285400390625,-0.0081939697265625
1772656074095663600,3.25066357421875,-0.999969482421875,-0.01666259765625,-0.0077362060546875
1772656074105646600,3.260646484375,-0.9996185302734375,-0.0166778564453125,-0.0078582763671875
1772656074115628500,3.270628662109375,-0.9999542236328125,-0.0157012939453125,-0.006988525390625
1772656074125611500,3.280611572265625,-0.9980316162109375,-0.0161895751953125,-0.00750732421875
1772656074135593500,3.290593505859375,-0.9987945556640625,-0.0163116455078125,-0.00677490234375
1772656074145576400,3.300576416015625,-0.9993896484375,-0.0165863037109375,-0.007049560546875
1772656074155558700,3.31055859375,-0.999359130859375,-0.0159149169921875,-0.0080413818359375
1772656074165541400,3.320541259765625,-0.998809814453125,-0.0166168212890625,-0.00775146484375
1772656074175523600,3.330523681640625,-0.9990081787109375,-0.0161895751953125,-0.0065765380859375
1772656074185506600,3.340506591796875,-0.998443603515625,-0.016265869140625,-0.0076446533203125
1772656074195488500,3.350488525390625,-0.9992523193359375,-0.01568603515625,-0.0072784423828125
1772656074205471500,3.360471435546875,-0.99896240234375,-0.0159454345703125,-0.007080078125
1772656074215453700,3.37045361328125,-0.9990234375,-0.0160369873046875,-0.0073089599609375
1772656074225435400,3.380435302734375,-0.9991912841796875,-0.01605224609375,-0.00738525390625
1772656074235418600,3.390418701171875,-0.9994659423828125,-0.0161285400390625,-0.0077972412109375
1772656074245400300,3.400400390625,-0.99932861328125,-0.0157928466796875,-0.008148193359375
1772656074255383600,3.410383544921875,-0.9993438720703125,-0.015655517578125,-0.00726318359375
1772656074265365500,3.420365478515625,-0.9995574951171875,-0.015899658203125,-0.007904052734375
1772656074275348500,3.430348388671875,-0.9990081787109375,-0.016632080078125,-0.0077362060546875
1772656074285330400,3.440330322265625,-0.9996490478515625,-0.01641845703125,-0.007110595703125
1772656074295313700,3.450313720703125,-0.9996185302734375,-0.0159759521484375,-0.008270263671875
1772656074305295400,3.46029541015625,-0.99957275390625,-0.016204833984375,-0.0078277587890625
1772656074315278600,3.470278564453125,-0.99932861328125,-0.0160369873046875,-0.0069122314453125
1772656074325260300,3.48026025390625,-0.998931884765625,-0.0166168212890625,-0.00799560546875
1772656074335242500,3.490242431640625,-0.9988250732421875,-0.0169677734375,-0.0074462890625
1772656074345225500,3.5002255859375,-0.999053955078125,-0.0165863037109375,-0.0074310302734375
1772656074355207400,3.51020751953125,-0.99957275390625,-0.0155792236328125,-0.0081787109375
1772656074365190400,3.5201904296875,-1.0000152587890625,-0.0161590576171875,-0.007232666015625
1772656074375172600,3.530172607421875,-0.99761962890625,-0.016357421875,-0.007659912109375
1772656074385155300,3.5401552734375,-0.99884033203125,-0.016448974609375,-0.0073089599609375
1772656074395137500,3.550137451171875,-0.9996185302734375,-0.015869140625,-0.0075836181640625
1772656074405120500,3.56012060546875,-0.9991302490234375,-0.01611328125,-0.0074920654296875
1772656074415102500,3.5701025390625,-1.0003509521484375,-0.015838623046875,-0.007476806640625
1772656074425085400,3.58008544921875,-0.99969482421875,-0.0165557861328125,-0.00750732421875
1772656074435067400,3.5900673828125,-0.9975738525390625,-0.0164947509765625,-0.0084381103515625
1772656074445050400,3.60005029296875,-0.998138427734375,-0.0159912109375,-0.0078887939453125
1772656074455032600,3.610032470703125,-0.9988250732421875,-0.01593017578125,-0.0078125
1772656074465014500,3.6200146484375,-0.9991455078125,-0.0166778564453125,-0.0076751708984375
1772656074474997500,3.62999755859375,-0.9994964599609375,-0.0155487060546875,-0.0086822509765625
1772656074484979700,3.639979736328125,-0.9987030029296875,-0.015899658203125,-0.008087158203125
1772656074494962400,3.64996240234375,-0.9990997314453125,-0.016693115234375,-0.0077667236328125
1772656074504944600,3.659944580078125,-0.9991912841796875,-0.016021728515625,-0.0076141357421875
1772656074514927600,3.669927734375,-0.9997100830078125,-0.0163726806640625,-0.0088348388671875
1772656074524909600,3.67990966796875,-0.9988861083984375,-0.015533447265625,-0.007568359375
1772656074534892500,3.689892578125,-0.9998016357421875,-0.01580810546875,-0.0068817138671875
1772656074544874500,3.69987451171875,-1.0005645751953125,-0.0157928466796875,-0.0074462890625
1772656074554857500,3.709857421875,-0.9991607666015625,-0.0166168212890625,-0.00872802734375
1772656074564839700,3.719839599609375,-0.999786376953125,-0.016448974609375,-0.0074310302734375
1772656074574821400,3.7298212890625,-0.999786376953125,-0.016021728515625,-0.0078277587890625
1772656074584804600,3.7398046875,-0.999114990234375,-0.01593017578125,-0.007598876953125
1772656074594786300,3.749786376953125,-0.998016357421875,-0.0162506103515625,-0.0076446533203125
1772656074604769500,3.75976953125,-0.999420166015625,-0.0160675048828125,-0.0079498291015625
1772656074614751500,3.76975146484375,-0.9995880126953125,-0.015899658203125,-0.0080413818359375
1772656074624734500,3.779734375,-0.9993743896484375,-0.0156707763671875,-0.00726318359375
1772656074634716400,3.78971630859375,-0.9985504150390625,-0.01580810546875,-0.0074462890625
1772656074644699600,3.79969970703125,-0.998321533203125,-0.0160980224609375,-0.0078887939453125
1772656074654681300,3.809681396484375,-0.9993896484375,-0.0160980224609375,-0.0078125
1772656074664664600,3.81966455078125,-1.0005645751953125,-0.01605224609375,-0.007232666015625
1772656074674646500,3.829646484375,-0.9995880126953125,-0.0160675048828125,-0.0081024169921875
1772656074684629500,3.83962939453125,-0.999267578125,-0.0159149169921875,-0.0081024169921875
1772656074694611500,3.849611572265625,-0.9996795654296875,-0.01678466796875,-0.0072021484375
1772656074704593400,3.859593505859375,-0.999725341796875,-0.016693115234375,-0.0077056884765625
1772656074714576400,3.869576416015625,-0.9998779296875,-0.0164642333984375,-0.0073089599609375
1772656074724558600,3.87955859375,-1.0004119873046875,-0.0157623291015625,-0.0073089599609375
1772656074734541300,3.889541259765625,-0.99871826171875,-0.01611328125,-0.00787353515625
1772656074744523500,3.8995234375,-0.9989166259765625,-0.0153656005859375,-0.0074615478515625
1772656074754506500,3.909506591796875,-0.9993133544921875,-0.016204833984375,-0.007537841796875
1772656074764488400,3.919488525390625,-0.9988861083984375,-0.016143798828125,-0.00836181640625
1772656074774471400,3.929471435546875,-0.9996185302734375,-0.0159759521484375,-0.0075836181640625
1772656074784453600,3.93945361328125,-0.999176025390625,-0.016265869140625,-0.0079193115234375
1772656074794436400,3.949436279296875,-0.9994354248046875,-0.0161590576171875,-0.006927490234375
1772656074804418600,3.95941845703125,-0.998504638671875,-0.016510009765625,-0.0075531005859375
1772656074814401500,3.969401611328125,-0.9993438720703125,-0.016326904296875,-0.0076904296875
1772656074824383500,3.979383544921875,-0.9998779296875,-0.0162506103515625,-0.0081787109375
1772656074834363400,3.98936328125,-0.999542236328125,-0.0161285400390625,-0.0083160400390625
1772656074844345600,3.999345703125,-0.999908447265625,-0.015594482421875,-0.007659912109375
1772656074854328300,4.009328369140625,-0.99951171875,-0.015594482421875,-0.0076751708984375
1772656074864310500,4.019310546875,-0.9998931884765625,-0.0163116455078125,-0.0084381103515625
1772656074874290000,4.0292900390625,-0.9990997314453125,-0.0157012939453125,-0.0082550048828125
1772656074884272000,4.039272216796875,-0.9987640380859375,-0.0151824951171875,-0.0080718994140625
1772656074894254800,4.0492548828125,-1,-0.0155487060546875,-0.0086212158203125
1772656074904237000,4.059237060546875,-0.9991607666015625,-0.0161895751953125,-0.0068817138671875
1772656074914220000,4.069219970703125,-1.000030517578125,-0.0166168212890625,-0.0065155029296875
1772656074924202000,4.079201904296875,-1.000244140625,-0.0160980224609375,-0.0079345703125
1772656074934185000,4.08918505859375,-0.9999847412109375,-0.0160980224609375,-0.0077056884765625
1772656074944167000,4.0991669921875,-0.9989471435546875,-0.01654052734375,-0.007720947265625
1772656074954150000,4.10914990234375,-0.9999237060546875,-0.016754150390625,-0.008087158203125
1772656074964132000,4.119132080078125,-0.9989013671875,-0.0161590576171875,-0.0077972412109375
1772656074974114000,4.129114013671875,-0.99896240234375,-0.0162353515625,-0.008056640625
1772656074984097000,4.139096923828125,-1.000457763671875,-0.01617431640625,-0.0086212158203125
1772656074994079200,4.149079345703125,-0.999420166015625,-0.016448974609375,-0.0087890625
1772656075004062000,4.15906201171875,-0.999267578125,-0.0163421630859375,-0.008270263671875
1772656075014044200,4.169044189453125,-0.999420166015625,-0.0159454345703125,-0.0084381103515625
1772656075024027100,4.179027099609375,-1.0000457763671875,-0.0154876708984375,-0.0073394775390625
1772656075034009000,4.189009033203125,-1.0000152587890625,-0.015533447265625,-0.0084991455078125
1772656075043992000,4.198991943359375,-1.0001373291015625,-0.0160675048828125,-0.008056640625
1772656075053974000,4.20897412109375,-0.9987335205078125,-0.016143798828125,-0.0071258544921875
1772656075063957000,4.21895703125,-0.99969482421875,-0.0157928466796875,-0.0079345703125
1772656075073939200,4.228939208984375,-0.999237060546875,-0.0160675048828125,-0.00775146484375
1772656075083921000,4.2389208984375,-0.9992218017578125,-0.0159149169921875,-0.00677490234375
1772656075093904100,4.248904052734375,-0.9992523193359375,-0.016387939453125,-0.0074005126953125
1772656075103886000,4.258885986328125,-0.9991455078125,-0.0162200927734375,-0.0087432861328125
1772656075113869000,4.268869140625,-0.9985504150390625,-0.016265869140625,-0.007110595703125
1772656075123851000,4.27885107421875,-0.9991302490234375,-0.015777587890625,-0.0081939697265625
1772656075133834200,4.288834228515625,-1.0003204345703125,-0.0162506103515625,-0.007415771484375
1772656075143816000,4.29881591796875,-0.99835205078125,-0.0154571533203125,-0.0074615478515625
1772656075153799200,4.308799072265625,-0.9997100830078125,-0.016387939453125,-0.007781982421875
1772656075163780900,4.31878076171875,-0.9998321533203125,-0.0154876708984375,-0.00811767578125
1772656075173764000,4.32876416015625,-0.9995269775390625,-0.0166168212890625,-0.0080413818359375
1772656075183746000,4.33874609375,-0.9996490478515625,-0.0155487060546875,-0.0076904296875
1772656075193729000,4.34872900390625,-0.9993896484375,-0.0155792236328125,-0.0074920654296875
1772656075203711000,4.3587109375,-0.9997406005859375,-0.01593017578125,-0.0069427490234375
1772656075213693000,4.36869287109375,-0.9997406005859375,-0.016143798828125,-0.0078277587890625
1772656075223676000,4.378676025390625,-0.9994659423828125,-0.015899658203125,-0.0081939697265625
1772656075233658000,4.388658203125,-0.999786376953125,-0.0156707763671875,-0.0076904296875
1772656075243643100,4.39864306640625,-0.99993896484375,-0.0157470703125,-0.007415771484375
1772656075253626000,4.408626220703125,-0.998321533203125,-0.016754150390625,-0.00799560546875
1772656075263608000,4.418608154296875,-0.99945068359375,-0.01519775390625,-0.0077667236328125
1772656075273591000,4.428591064453125,-0.99871826171875,-0.0160064697265625,-0.008056640625
1772656075283573000,4.438572998046875,-1.000244140625,-0.016387939453125,-0.00787353515625
1772656075293556000,4.448555908203125,-0.9997406005859375,-0.0161895751953125,-0.0080718994140625
1772656075303538200,4.4585380859375,-0.9993896484375,-0.0164031982421875,-0.0085601806640625
1772656075313519900,4.468519775390625,-0.999053955078125,-0.015533447265625,-0.0082244873046875
1772656075323503000,4.478503173828125,-0.998931884765625,-0.0164031982421875,-0.0074462890625
1772656075333485000,4.488485107421875,-0.9996795654296875,-0.0169219970703125,-0.0071563720703125
1772656075343468000,4.498468017578125,-0.999664306640625,-0.016357421875,-0.0067901611328125
1772656075353450000,4.508449951171875,-0.998748779296875,-0.0162811279296875,-0.0079193115234375
1772656075363433200,4.51843310546875,-0.9995574951171875,-0.01580810546875,-0.007904052734375
1772656075373415000,4.528414794921875,-0.99957275390625,-0.016357421875,-0.0079345703125
1772656075383398100,4.538398193359375,-0.998779296875,-0.0160980224609375,-0.0081329345703125
1772656075393379800,4.5483798828125,-0.9994049072265625,-0.016021728515625,-0.0080108642578125
1772656075403363000,4.558363037109375,-0.9989471435546875,-0.016387939453125,-0.007781982421875
1772656075413345000,4.568344970703125,-0.9987640380859375,-0.0158233642578125,-0.0080413818359375
1772656075423328000,4.578327880859375,-0.9992523193359375,-0.016265869140625,-0.00665283203125
1772656075433310000,4.58831005859375,-0.9990692138671875,-0.0160064697265625,-0.00799560546875
1772656075443292000,4.5982919921875,-0.9996185302734375,-0.01580810546875,-0.007659912109375
1772656075453275000,4.60827490234375,-0.9991912841796875,-0.0163421630859375,-0.00732421875
1772656075463257000,4.618257080078125,-0.999359130859375,-0.0160980224609375,-0.007110595703125
1772656075473239800,4.62823974609375,-1.000213623046875,-0.015625,-0.007781982421875
1772656075483222000,4.638221923828125,-0.9993743896484375,-0.0166168212890625,-0.006103515625
1772656075493205000,4.648205078125,-0.999664306640625,-0.0163421630859375,-0.0069122314453125
1772656075503187000,4.65818701171875,-0.9998321533203125,-0.015960693359375,-0.0074920654296875
1772656075513170000,4.668169921875,-1.0001373291015625,-0.0160064697265625,-0.0079193115234375
1772656075523152100,4.678152099609375,-0.99969482421875,-0.016815185546875,-0.008453369140625
1772656075533134800,4.688134765625,-0.99871826171875,-0.0156402587890625,-0.0071258544921875
1772656075543117000,4.698116943359375,-0.998992919921875,-0.0162811279296875,-0.0073394775390625
1772656075553099000,4.70809912109375,-1.000152587890625,-0.0164031982421875,-0.00726318359375
1772656075563082000,4.71808203125,-0.999359130859375,-0.015838623046875,-0.0079193115234375
1772656075573064200,4.728064208984375,-0.9994659423828125,-0.0158843994140625,-0.0071868896484375
1772656075583047000,4.738046875,-1.0001373291015625,-0.015411376953125,-0.006866455078125
1772656075593029000,4.748029052734375,-1.000579833984375,-0.0157928466796875,-0.008087158203125
1772656075603012000,4.75801220703125,-0.9986419677734375,-0.016815185546875,-0.0072784423828125
1772656075612994000,4.767994140625,-0.999298095703125,-0.0167999267578125,-0.0069732666015625
1772656075622977000,4.77797705078125,-1.0008392333984375,-0.015777587890625,-0.0074615478515625
1772656075632959200,4.787959228515625,-0.99945068359375,-0.01617431640625,-0.007659912109375
1772656075642942000,4.79794189453125,-0.9999237060546875,-0.016021728515625,-0.0080413818359375
1772656075652924200,4.807924072265625,-0.999237060546875,-0.016021728515625,-0.00830078125
1772656075662907100,4.8179072265625,-0.9990386962890625,-0.016357421875,-0.007415771484375
1772656075672889000,4.82788916015625,-0.99951171875,-0.016021728515625,-0.00811767578125
1772656075682871000,4.83787109375,-0.9987945556640625,-0.01605224609375,-0.008026123046875
1772656075692854000,4.84785400390625,-0.9985809326171875,-0.01690673828125,-0.0075531005859375
1772656075702836000,4.8578359375,-0.9994354248046875,-0.016082763671875,-0.0077056884765625
1772656075712819200,4.867819091796875,-0.9998931884765625,-0.0162200927734375,-0.00738525390625
1772656075722801000,4.87780078125,-1.0006866455078125,-0.0163726806640625,-0.0078582763671875
1772656075732784000,4.8877841796875,-1.0001220703125,-0.01593017578125,-0.0077362060546875
1772656075742765800,4.897765869140625,-0.99853515625,-0.0168609619140625,-0.0080718994140625
1772656075752749000,4.9077490234375,-0.999114990234375,-0.016845703125,-0.0076446533203125
1772656075762731000,4.91773095703125,-1.000335693359375,-0.01666259765625,-0.0079345703125
1772656075772714000,4.9277138671875,-0.9991607666015625,-0.0162811279296875,-0.0078125
1772656075782696000,4.937696044921875,-0.9983367919921875,-0.0162200927734375,-0.0077362060546875
1772656075792679200,4.94767919921875,-0.9998016357421875,-0.0167999267578125,-0.0075225830078125
1772656075802660900,4.957660888671875,-0.9991302490234375,-0.016510009765625,-0.0078125
1772656075812643000,4.96764306640625,-0.999481201171875,-0.016021728515625,-0.007293701171875
1772656075822626000,4.9776259765625,-0.9993438720703125,-0.016082763671875,-0.007568359375
1772656075832608000,4.98760791015625,-0.9998931884765625,-0.016021728515625,-0.0077667236328125
1772656075842591000,4.997591064453125,-0.9990692138671875,-0.01629638671875,-0.008636474609375
1772656075852573000,5.007572998046875,-1.0001373291015625,-0.016204833984375,-0.0084686279296875
1772656075862556000,5.017555908203125,-0.999359130859375,-0.0163726806640625,-0.0075836181640625
1772656075872538400,5.027538330078125,-0.9990081787109375,-0.01654052734375,-0.0072021484375
1772656075882521000,5.03752099609375,-1.0001983642578125,-0.0166168212890625,-0.008636474609375
1772656075892503300,5.04750341796875,-0.9989013671875,-0.016204833984375,-0.0074615478515625
1772656075902486300,5.057486328125,-0.99908447265625,-0.0161285400390625,-0.0078582763671875
1772656075912468200,5.06746826171875,-0.9990997314453125,-0.0162200927734375,-0.007781982421875
1772656075922450400,5.077450439453125,-0.99853515625,-0.01611328125,-0.007415771484375
1772656075932433400,5.087433349609375,-0.999420166015625,-0.016326904296875,-0.00787353515625
1772656075942415400,5.097415283203125,-0.9988250732421875,-0.015716552734375,-0.0076446533203125
1772656075952398300,5.1073984375,-1.00030517578125,-0.01641845703125,-0.00830078125
1772656075962380300,5.11738037109375,-0.9990081787109375,-0.016754150390625,-0.0077362060546875
1772656075972363300,5.12736328125,-0.9990081787109375,-0.015625,-0.0070648193359375
1772656075982345200,5.13734521484375,-0.9991302490234375,-0.016082763671875,-0.007965087890625
1772656075992328200,5.147328125,-0.9998321533203125,-0.016265869140625,-0.0076141357421875
1772656076002310400,5.157310302734375,-0.999420166015625,-0.016021728515625,-0.00762939453125
1772656076012293400,5.16729345703125,-0.9990081787109375,-0.0154266357421875,-0.00799560546875
1772656076022275300,5.177275390625,-0.9995880126953125,-0.0159759521484375,-0.008270263671875
1772656076032258300,5.18725830078125,-1.0001983642578125,-0.0160980224609375,-0.006439208984375
1772656076042240300,5.197240234375,-0.999298095703125,-0.0163116455078125,-0.0067901611328125
1772656076052222200,5.20722216796875,-0.999176025390625,-0.0155487060546875,-0.00714111328125
1772656076062205400,5.217205322265625,-0.998687744140625,-0.0164031982421875,-0.0074615478515625
1772656076072187100,5.227187255859375,-0.999053955078125,-0.01611328125,-0.00750732421875
1772656076082170400,5.23717041015625,-0.9993743896484375,-0.01605224609375,-0.00732421875
1772656076092152300,5.24715234375,-0.998687744140625,-0.017120361328125,-0.00823974609375
1772656076102135300,5.25713525390625,-0.9999542236328125,-0.0158538818359375,-0.0085906982421875
1772656076112117200,5.2671171875,-0.9999847412109375,-0.0160064697265625,-0.0080108642578125
1772656076122100500,5.2771005859375,-0.9991912841796875,-0.015960693359375,-0.0074310302734375
1772656076132082200,5.287082275390625,-0.9998626708984375,-0.016143798828125,-0.0080413818359375
1772656076142065400,5.2970654296875,-0.999237060546875,-0.015777587890625,-0.0087127685546875
1772656076152047000,5.307047119140625,-0.9988250732421875,-0.016510009765625,-0.0076446533203125
1772656076162030300,5.3170302734375,-0.999267578125,-0.01617431640625,-0.0074005126953125
1772656076172012300,5.32701220703125,-0.9987640380859375,-0.01678466796875,-0.0078277587890625
1772656076181994200,5.336994140625,-0.9986114501953125,-0.016082763671875,-0.0086669921875
1772656076191977200,5.346977294921875,-0.9996337890625,-0.0164794921875,-0.0077362060546875
1772656076201959400,5.35695947265625,-0.999755859375,-0.015655517578125,-0.00750732421875
1772656076211942100,5.366942138671875,-0.999786376953125,-0.01605224609375,-0.0081024169921875
1772656076221924400,5.37692431640625,-0.9995880126953125,-0.0160369873046875,-0.0069122314453125
1772656076231907300,5.3869072265625,-0.9993438720703125,-0.016143798828125,-0.0085601806640625
1772656076241889300,5.39688916015625,-0.99835205078125,-0.0163116455078125,-0.008331298828125
1772656076251872300,5.406872314453125,-0.9990081787109375,-0.0158843994140625,-0.0072174072265625
1772656076261854200,5.416854248046875,-0.999267578125,-0.016632080078125,-0.00830078125
1772656076271837200,5.426837158203125,-0.998687744140625,-0.01629638671875,-0.0078887939453125
1772656076281819400,5.4368193359375,-0.9990997314453125,-0.0162811279296875,-0.00750732421875
1772656076291801000,5.446801025390625,-0.9985809326171875,-0.0163421630859375,-0.0066375732421875
1772656076301784300,5.456784423828125,-0.9986724853515625,-0.01580810546875,-0.0073394775390625
1772656076311766300,5.466766357421875,-0.9998779296875,-0.0162200927734375,-0.0078582763671875
1772656076321749200,5.476749267578125,-0.999267578125,-0.0158538818359375,-0.00732421875
1772656076331731200,5.486731201171875,-0.9994049072265625,-0.0160369873046875,-0.0076141357421875
1772656076341714200,5.496714111328125,-1.0001220703125,-0.01617431640625,-0.0088958740234375
1772656076351696100,5.506696044921875,-0.9983062744140625,-0.0158233642578125,-0.007659912109375
1772656076361679400,5.516679443359375,-0.999603271484375,-0.015533447265625,-0.0082855224609375
1772656076371661300,5.526661376953125,-1.0002593994140625,-0.0157623291015625,-0.0079193115234375
1772656076381644300,5.536644287109375,-1.000732421875,-0.0163421630859375,-0.00750732421875
1772656076391626200,5.546626220703125,-1.0000762939453125,-0.016204833984375,-0.0072021484375
1772656076401609200,5.556609130859375,-0.998931884765625,-0.015411376953125,-0.0082855224609375
1772656076411591200,5.566591064453125,-0.9993438720703125,-0.016357421875,-0.0081024169921875
1772656076421573000,5.576572998046875,-0.998687744140625,-0.0157623291015625,-0.007965087890625
1772656076431556400,5.586556396484375,-0.9989776611328125,-0.0164031982421875,-0.0070953369140625
1772656076441538300,5.596538330078125,-0.998260498046875,-0.0159912109375,-0.007781982421875
1772656076451521300,5.606521240234375,-0.99981689453125,-0.016448974609375,-0.0087127685546875
1772656076461503200,5.616503173828125,-0.9991455078125,-0.0161895751953125,-0.007049560546875
1772656076471486200,5.626486328125,-0.9987030029296875,-0.01544189453125,-0.007659912109375
1772656076481468200,5.63646826171875,-0.9999847412109375,-0.0166778564453125,-0.0077056884765625
1772656076491451100,5.646451171875,-0.998748779296875,-0.0164642333984375,-0.0085296630859375
1772656076501433300,5.656433349609375,-0.999481201171875,-0.01568603515625,-0.007843017578125
1772656076511416300,5.666416259765625,-1.00006103515625,-0.015838623046875,-0.0079345703125
1772656076521398300,5.676398193359375,-0.9999847412109375,-0.015960693359375,-0.008209228515625
1772656076531380200,5.686380126953125,-1.000091552734375,-0.015625,-0.0069580078125
1772656076541363200,5.69636328125,-1.0000152587890625,-0.01556396484375,-0.0068817138671875
1772656076551345400,5.706345458984375,-0.9998016357421875,-0.016632080078125,-0.0070953369140625
1772656076561328000,5.716328125,-0.998565673828125,-0.0161285400390625,-0.00811767578125
1772656076571310300,5.726310302734375,-0.9991302490234375,-0.015899658203125,-0.0092620849609375
1772656076581293300,5.736293212890625,-0.9988555908203125,-0.0152435302734375,-0.0079193115234375
1772656076591275300,5.746275146484375,-0.99932861328125,-0.0158233642578125,-0.007354736328125
1772656076601258200,5.75625830078125,-0.9996337890625,-0.016387939453125,-0.007843017578125
1772656076611240200,5.766240234375,-0.99969482421875,-0.01568603515625,-0.007781982421875
1772656076621223200,5.77622314453125,-0.9996337890625,-0.0159912109375,-0.0078125
1772656076631205400,5.786205322265625,-0.99932861328125,-0.0164794921875,-0.0078887939453125
1772656076641188000,5.79618798828125,-0.999969482421875,-0.0165252685546875,-0.0085601806640625
1772656076651170300,5.80617041015625,-0.9994964599609375,-0.016326904296875,-0.0081329345703125
1772656076661152300,5.81615234375,-0.999908447265625,-0.0153961181640625,-0.0079193115234375
1772656076671135200,5.82613525390625,-0.9997406005859375,-0.0158538818359375,-0.007598876953125
1772656076681117200,5.8361171875,-0.9990692138671875,-0.01617431640625,-0.0082550048828125
1772656076691100400,5.846100341796875,-0.9990234375,-0.0160675048828125,-0.0073699951171875
1772656076701082000,5.85608203125,-0.9993743896484375,-0.015594482421875,-0.007568359375
1772656076711065300,5.8660654296875,-0.99981689453125,-0.015716552734375,-0.007476806640625
1772656076721047000,5.876047119140625,-0.99993896484375,-0.0157012939453125,-0.0073394775390625
1772656076731030300,5.8860302734375,-1.0003814697265625,-0.0159149169921875,-0.0078277587890625
1772656076741012200,5.89601220703125,-0.9998321533203125,-0.016326904296875,-0.007232666015625
1772656076750995200,5.9059951171875,-0.9994049072265625,-0.016937255859375,-0.00714111328125
1772656076760977200,5.91597705078125,-1.00067138671875,-0.015411376953125,-0.008514404296875
1772656076770959400,5.92595947265625,-0.9990081787109375,-0.01580810546875,-0.00836181640625
1772656076780942000,5.935942138671875,-0.999114990234375,-0.015716552734375,-0.0077972412109375
1772656076790924300,5.94592431640625,-0.9998626708984375,-0.0158233642578125,-0.0076141357421875
1772656076800907300,5.9559072265625,-0.9986419677734375,-0.0165557861328125,-0.0070648193359375
1772656076810889200,5.96588916015625,-0.9993896484375,-0.0165863037109375,-0.008087158203125
1772656076820872200,5.9758720703125,-0.9993438720703125,-0.0160980224609375,-0.00860595703125
1772656076830854100,5.985854248046875,-0.999114990234375,-0.015869140625,-0.0078277587890625
1772656076840837000,5.995837158203125,-0.999176025390625,-0.01654052734375,-0.0077972412109375
1772656076850819300,6.0058193359375,-0.9998016357421875,-0.0162506103515625,-0.0068511962890625
1772656076860802000,6.015802001953125,-0.9989166259765625,-0.0160064697265625,-0.0079345703125
1772656076870784300,6.0257841796875,-0.999755859375,-0.015380859375,-0.0085601806640625
1772656076880767200,6.035767333984375,-1.0001068115234375,-0.0157470703125,-0.0079498291015625
1772656076890749200,6.045749267578125,-1,-0.0158233642578125,-0.0085601806640625
1772656076900731100,6.055731201171875,-0.9994964599609375,-0.0156402587890625,-0.008392333984375
1772656076910714000,6.065714111328125,-1.000579833984375,-0.0161895751953125,-0.00799560546875
1772656076920696300,6.0756962890625,-0.999237060546875,-0.016387939453125,-0.007659912109375
1772656076930679000,6.085678955078125,-0.9988861083984375,-0.015960693359375,-0.0084228515625
1772656076940661200,6.0956611328125,-0.998291015625,-0.0164031982421875,-0.0078887939453125
1772656076950644200,6.105644287109375,-0.998626708984375,-0.01641845703125,-0.0076904296875
1772656076960626200,6.115626220703125,-0.999481201171875,-0.0163116455078125,-0.0080718994140625
1772656076970609200,6.125609130859375,-1.0000457763671875,-0.0162353515625,-0.0067291259765625
1772656076980591400,6.13559130859375,-0.9992828369140625,-0.01568603515625,-0.0085601806640625
1772656076990574000,6.145573974609375,-0.9980621337890625,-0.0161285400390625,-0.0077056884765625
1772656077000556300,6.155556396484375,-0.998992919921875,-0.0161895751953125,-0.0083160400390625
1772656077010539300,6.165539306640625,-0.9998931884765625,-0.016021728515625,-0.008331298828125
1772656077020521200,6.175521240234375,-0.9987640380859375,-0.01593017578125,-0.0081329345703125
1772656077030503200,6.185503173828125,-1.000335693359375,-0.016143798828125,-0.0081024169921875
1772656077040486100,6.195486083984375,-0.99969482421875,-0.0157623291015625,-0.0075531005859375
1772656077050468000,6.205468017578125,-0.9990692138671875,-0.01556396484375,-0.007843017578125
1772656077060451300,6.215451416015625,-0.9989471435546875,-0.01556396484375,-0.0076141357421875
1772656077070433000,6.22543310546875,-1.00054931640625,-0.0167083740234375,-0.0073699951171875
1772656077080416300,6.235416259765625,-0.9990692138671875,-0.016143798828125,-0.0069580078125
1772656077090398000,6.24539794921875,-0.99871826171875,-0.0163421630859375,-0.0074462890625
1772656077100381200,6.255381103515625,-0.9985809326171875,-0.0159912109375,-0.0089263916015625
1772656077110363100,6.265363037109375,-1.000244140625,-0.0155029296875,-0.0082550048828125
1772656077120346000,6.27534619140625,-0.9992218017578125,-0.015380859375,-0.0070953369140625
1772656077130328000,6.285328125,-0.9980926513671875,-0.0167236328125,-0.0084075927734375
1772656077140310300,6.295310302734375,-0.9990692138671875,-0.0167694091796875,-0.007659912109375
1772656077150293000,6.30529296875,-0.998992919921875,-0.01611328125,-0.0071258544921875
1772656077160275200,6.315275146484375,-0.9996337890625,-0.015594482421875,-0.0073394775390625
1772656077170258200,6.325258056640625,-1.0000457763671875,-0.01495361328125,-0.0086212158203125
1772656077180240100,6.335240234375,-0.9996185302734375,-0.0160369873046875,-0.0081024169921875
1772656077190223000,6.34522314453125,-0.99896240234375,-0.0156707763671875,-0.0068511962890625
1772656077200205000,6.355205078125,-0.999847412109375,-0.0159149169921875,-0.0077972412109375
1772656077210188000,6.36518798828125,-0.9989471435546875,-0.0154876708984375,-0.0080108642578125
1772656077220170200,6.375170166015625,-0.9996795654296875,-0.016448974609375,-0.007568359375
1772656077230153000,6.385153076171875,-0.9996185302734375,-0.0165863037109375,-0.008331298828125
1772656077240135200,6.39513525390625,-0.9993438720703125,-0.0159149169921875,-0.0070343017578125
1772656077250118100,6.4051181640625,-0.9989776611328125,-0.0154266357421875,-0.0078887939453125
1772656077260100000,6.41510009765625,-0.9992218017578125,-0.0160369873046875,-0.007904052734375
1772656077270082300,6.425082275390625,-0.9995880126953125,-0.015777587890625,-0.0078277587890625
1772656077280065300,6.435065185546875,-0.9996795654296875,-0.015594482421875,-0.0074615478515625
1772656077290047200,6.445047119140625,-0.9998626708984375,-0.0159759521484375,-0.0087127685546875
1772656077300030200,6.4550302734375,-0.9997406005859375,-0.0159454345703125,-0.007904052734375
1772656077310012200,6.46501220703125,-0.99945068359375,-0.016265869140625,-0.00732421875
1772656077319995100,6.4749951171875,-0.999114990234375,-0.0166168212890625,-0.0079193115234375
1772656077329977300,6.484977294921875,-0.9993133544921875,-0.01629638671875,-0.008209228515625
1772656077339960000,6.4949599609375,-0.9990386962890625,-0.0163116455078125,-0.0075225830078125
1772656077349942300,6.5049423828125,-0.99871826171875,-0.0158233642578125,-0.008148193359375
1772656077359925200,6.51492529296875,-0.999603271484375,-0.01580810546875,-0.007965087890625
1772656077369907200,6.5249072265625,-0.9993438720703125,-0.015289306640625,-0.008880615234375
1772656077379890200,6.53489013671875,-0.9997100830078125,-0.0160675048828125,-0.0077667236328125
1772656077389872000,6.5448720703125,-0.999267578125,-0.016510009765625,-0.007476806640625
1772656077399854000,6.55485400390625,-0.999847412109375,-0.0157623291015625,-0.0086212158203125
1772656077409837300,6.56483740234375,-0.999176025390625,-0.016143798828125,-0.0082855224609375
1772656077419819000,6.574819091796875,-0.99896240234375,-0.01593017578125,-0.0086669921875
1772656077429802200,6.58480224609375,-0.998992919921875,-0.015899658203125,-0.0081787109375
1772656077439784200,6.5947841796875,-0.9988861083984375,-0.0159149169921875,-0.0090484619140625
1772656077449767200,6.60476708984375,-0.999481201171875,-0.016693115234375,-0.0090179443359375
1772656077459749000,6.6147490234375,-0.99932861328125,-0.0166473388671875,-0.0086669921875
1772656077469732400,6.624732421875,-0.998779296875,-0.0162811279296875,-0.0086517333984375
1772656077479714000,6.634714111328125,-0.998870849609375,-0.0162506103515625,-0.0071258544921875
1772656077489697300,6.644697265625,-1.000091552734375,-0.0162506103515625,-0.00823974609375
1772656077499679000,6.654678955078125,-0.9991455078125,-0.0163726806640625,-0.0076141357421875
1772656077509661200,6.6646611328125,-0.9996337890625,-0.016143798828125,-0.0077667236328125
1772656077519644200,6.67464404296875,-0.9997711181640625,-0.0158843994140625,-0.008331298828125
1772656077529626000,6.684626220703125,-1,-0.0168304443359375,-0.008026123046875
1772656077539609000,6.694609130859375,-0.9990997314453125,-0.0165252685546875,-0.0069580078125
1772656077549591000,6.704591064453125,-0.9993438720703125,-0.015960693359375,-0.0064544677734375
1772656077559574000,6.714573974609375,-0.998931884765625,-0.015380859375,-0.008209228515625
1772656077569556200,6.72455615234375,-0.99957275390625,-0.016021728515625,-0.0074920654296875
1772656077579539000,6.7345390625,-0.998779296875,-0.015625,-0.0071563720703125
1772656077589521200,6.744521240234375,-0.9991607666015625,-0.015594482421875,-0.0081787109375
1772656077599504100,6.754504150390625,-0.9997406005859375,-0.0161895751953125,-0.0076141357421875
1772656077609486000,6.764486083984375,-0.9998626708984375,-0.0159454345703125,-0.008392333984375
1772656077619469000,6.774468994140625,-0.9995574951171875,-0.0161285400390625,-0.0082855224609375
1772656077629451300,6.784451171875,-0.9988250732421875,-0.0163726806640625,-0.00726318359375
1772656077639433200,6.79443310546875,-0.998565673828125,-0.015869140625,-0.0079193115234375
1772656077649416200,6.804416259765625,-0.9986419677734375,-0.0153350830078125,-0.0079345703125
1772656077659398100,6.814398193359375,-0.998779296875,-0.017059326171875,-0.0072021484375
1772656077669381000,6.824381103515625,-1,-0.015625,-0.0074920654296875
1772656077679363300,6.83436328125,-1.00006103515625,-0.0159149169921875,-0.0075836181640625
1772656077689346000,6.844345947265625,-0.999603271484375,-0.0159149169921875,-0.0088653564453125
1772656077699328300,6.854328369140625,-0.99981689453125,-0.0159759521484375,-0.008026123046875
1772656077709311200,6.864311279296875,-0.999725341796875,-0.016021728515625,-0.0078277587890625
1772656077719293200,6.874293212890625,-0.9980926513671875,-0.015228271484375,-0.0081329345703125
1772656077729276200,6.884276123046875,-1.0001373291015625,-0.0164031982421875,-0.0084228515625
1772656077739258400,6.89425830078125,-0.9991607666015625,-0.0158843994140625,-0.008331298828125
1772656077749241000,6.904240966796875,-0.9990081787109375,-0.0155487060546875,-0.0076904296875
1772656077759223300,6.914223388671875,-0.99951171875,-0.0164947509765625,-0.0072784423828125
1772656077769205000,6.924205078125,-0.99871826171875,-0.0164947509765625,-0.008087158203125
1772656077779188200,6.934188232421875,-0.9990081787109375,-0.0157928466796875,-0.0078887939453125
1772656077789170200,6.944170166015625,-0.9998931884765625,-0.0158233642578125,-0.0084075927734375
1772656077799153200,6.954153076171875,-0.999420166015625,-0.0163726806640625,-0.0076904296875
1772656077809135000,6.964135009765625,-0.9989013671875,-0.015655517578125,-0.00799560546875
1772656077819118300,6.974118408203125,-0.9998931884765625,-0.016143798828125,-0.0085906982421875
1772656077829100000,6.98410009765625,-1.000091552734375,-0.016143798828125,-0.008270263671875
1772656077839083300,6.994083251953125,-0.99969482421875,-0.01593017578125,-0.0071563720703125
1772656077849065000,7.00406494140625,-0.99908447265625,-0.0154266357421875,-0.0072021484375
1772656077859048200,7.014048095703125,-0.9994659423828125,-0.01605224609375,-0.008331298828125
1772656077869030100,7.024030029296875,-0.9996795654296875,-0.0162200927734375,-0.0081024169921875
1772656077879012600,7.0340126953125,-0.9997100830078125,-0.0157623291015625,-0.0083770751953125
1772656077888994600,7.04399462890625,-0.9998626708984375,-0.01605224609375,-0.00799560546875
1772656077898976500,7.0539765625,-0.99969482421875,-0.01593017578125,-0.0077972412109375
1772656077908959700,7.063959716796875,-0.9996185302734375,-0.015777587890625,-0.0077362060546875
1772656077918941400,7.07394140625,-0.99835205078125,-0.01654052734375,-0.0077056884765625
1772656077928924700,7.083924560546875,-0.9994659423828125,-0.015777587890625,-0.007568359375
1772656077938906400,7.09390625,-0.9989166259765625,-0.0163421630859375,-0.0078277587890625
1772656077948889600,7.1038896484375,-0.9993896484375,-0.01678466796875,-0.0084381103515625
1772656077958871600,7.11387158203125,-0.999298095703125,-0.015960693359375,-0.00799560546875
1772656077968854500,7.1238544921875,-1.00006103515625,-0.01617431640625,-0.007659912109375
1772656077978836500,7.13383642578125,-0.99871826171875,-0.016571044921875,-0.0079345703125
1772656077988819700,7.14381982421875,-0.9985504150390625,-0.0159912109375,-0.0074920654296875
1772656077998801400,7.153801513671875,-0.9994659423828125,-0.016143798828125,-0.0073699951171875
1772656078008783600,7.16378369140625,-0.999114990234375,-0.015777587890625,-0.0079193115234375
1772656078018766300,7.173766357421875,-0.999908447265625,-0.0157318115234375,-0.007598876953125
1772656078028748500,7.18374853515625,-1.0001068115234375,-0.01531982421875,-0.0066375732421875
1772656078038731500,7.1937314453125,-1.000030517578125,-0.0164794921875,-0.0081634521484375
1772656078048713500,7.20371337890625,-1.0005035400390625,-0.016815185546875,-0.007415771484375
1772656078058696400,7.213696533203125,-0.999481201171875,-0.015594482421875,-0.0076751708984375
1772656078068678700,7.2236787109375,-0.9997711181640625,-0.015594482421875,-0.0077056884765625
1772656078078661400,7.233661376953125,-0.998809814453125,-0.016387939453125,-0.0076141357421875
1772656078088643600,7.2436435546875,-0.999420166015625,-0.0153045654296875,-0.0080108642578125
1772656078098626600,7.25362646484375,-0.9999237060546875,-0.0165863037109375,-0.007965087890625
1772656078108608500,7.2636083984375,-0.9992523193359375,-0.0159759521484375,-0.007293701171875
1772656078118591500,7.273591552734375,-0.9992218017578125,-0.0158843994140625,-0.0071868896484375
1772656078128573400,7.283573486328125,-0.9989471435546875,-0.016021728515625,-0.0077667236328125
1772656078138555600,7.2935556640625,-0.999725341796875,-0.01641845703125,-0.00811767578125
1772656078148538600,7.30353857421875,-0.9993133544921875,-0.0158843994140625,-0.0077667236328125
1772656078158520600,7.3135205078125,-1.00006103515625,-0.0160369873046875,-0.007965087890625
1772656078168503600,7.323503662109375,-0.9998779296875,-0.015777587890625,-0.0081787109375
1772656078178485500,7.333485595703125,-0.9997406005859375,-0.015716552734375,-0.0072784423828125
1772656078188468500,7.343468505859375,-1.000152587890625,-0.0164031982421875,-0.0071563720703125
1772656078198450700,7.35345068359375,-0.9997711181640625,-0.0147705078125,-0.0082550048828125
1772656078208433700,7.36343359375,-0.999542236328125,-0.01617431640625,-0.00921630859375
1772656078218415600,7.37341552734375,-0.9983978271484375,-0.0162200927734375,-0.007171630859375
1772656078228398600,7.383398681640625,-0.9993743896484375,-0.0157623291015625,-0.006866455078125
1772656078238380500,7.393380615234375,-0.9998779296875,-0.0162200927734375,-0.0077972412109375
1772656078248363500,7.403363525390625,-1.0000762939453125,-0.0157928466796875,-0.0079498291015625
1772656078258345700,7.413345703125,-0.9991912841796875,-0.0154876708984375,-0.0084991455078125
1772656078268327400,7.423327392578125,-1.000091552734375,-0.016021728515625,-0.0077667236328125
1772656078278310700,7.433310546875,-0.99859619140625,-0.0159912109375,-0.00762939453125
1772656078288292400,7.443292236328125,-0.99957275390625,-0.0155181884765625,-0.008148193359375
1772656078298275600,7.453275634765625,-0.998992919921875,-0.016387939453125,-0.0084228515625
1772656078308257500,7.463257568359375,-0.9986724853515625,-0.0167999267578125,-0.00762939453125
1772656078318240500,7.473240478515625,-0.9990692138671875,-0.01611328125,-0.007232666015625
1772656078328222500,7.483222412109375,-0.999420166015625,-0.016510009765625,-0.00750732421875
1772656078338205700,7.493205810546875,-0.999053955078125,-0.01641845703125,-0.0072784423828125
1772656078348187400,7.5031875,-0.9996337890625,-0.0160369873046875,-0.0072021484375
1772656078358170600,7.513170654296875,-0.9981689453125,-0.016021728515625,-0.007049560546875
1772656078368152600,7.523152587890625,-0.9995880126953125,-0.0159912109375,-0.008087158203125
1772656078378135600,7.533135498046875,-1.0004119873046875,-0.0155029296875,-0.0087738037109375
1772656078388117500,7.543117431640625,-0.9998779296875,-0.014739990234375,-0.0076446533203125
1772656078398099500,7.553099365234375,-0.9994659423828125,-0.0158843994140625,-0.0073394775390625
1772656078408082400,7.56308251953125,-0.9999237060546875,-0.016632080078125,-0.0076141357421875
1772656078418064600,7.573064697265625,-0.998291015625,-0.01666259765625,-0.0085601806640625
1772656078428047400,7.58304736328125,-0.999542236328125,-0.01629638671875,-0.007476806640625
1772656078438029600,7.593029541015625,-0.9999542236328125,-0.01617431640625,-0.008758544921875
1772656078448012500,7.603012451171875,-0.99951171875,-0.0157623291015625,-0.0081329345703125
1772656078457994500,7.612994384765625,-1.0000762939453125,-0.0159454345703125,-0.0072174072265625
1772656078467977500,7.6229775390625,-1.000213623046875,-0.015716552734375,-0.0079345703125
1772656078477959400,7.63295947265625,-0.9999542236328125,-0.016021728515625,-0.0077362060546875
1772656078487942400,7.6429423828125,-0.999114990234375,-0.01593017578125,-0.0072174072265625
1772656078497924600,7.652924560546875,-0.998992919921875,-0.01617431640625,-0.0073394775390625
1772656078507907600,7.662907470703125,-0.9987030029296875,-0.0169677734375,-0.006591796875
1772656078517889500,7.6728896484375,-0.9991607666015625,-0.01605224609375,-0.00799560546875
1772656078527871500,7.68287158203125,-0.99853515625,-0.0163116455078125,-0.0073699951171875
1772656078537854500,7.6928544921875,-0.9996185302734375,-0.0162811279296875,-0.008026123046875
1772656078547836400,7.70283642578125,-0.9991912841796875,-0.016326904296875,-0.0084991455078125
1772656078557819600,7.712819580078125,-0.9986724853515625,-0.016143798828125,-0.0077362060546875
1772656078567801600,7.722801513671875,-0.999420166015625,-0.0159149169921875,-0.0076751708984375
1772656078577784600,7.73278466796875,-0.99957275390625,-0.016632080078125,-0.0072021484375
1772656078587766500,7.7427666015625,-0.9990234375,-0.016357421875,-0.007843017578125
1772656078597749500,7.75274951171875,-0.9987945556640625,-0.01593017578125,-0.0075225830078125
1772656078607731500,7.7627314453125,-1.000244140625,-0.01617431640625,-0.0079803466796875
1772656078617714400,7.77271435546875,-0.9987030029296875,-0.016265869140625,-0.007171630859375
1772656078627696600,7.782696533203125,-0.9991912841796875,-0.0162353515625,-0.0076751708984375
1772656078637679600,7.7926796875,-1.0001068115234375,-0.0155792236328125,-0.007171630859375
1772656078647661600,7.80266162109375,-0.9996795654296875,-0.01629638671875,-0.00665283203125
1772656078657643500,7.8126435546875,-1.0002288818359375,-0.0161285400390625,-0.0080413818359375
1772656078667626500,7.82262646484375,-0.9983062744140625,-0.0165863037109375,-0.007843017578125
1772656078677608400,7.8326083984375,-0.999298095703125,-0.0162506103515625,-0.00830078125
1772656078687591700,7.842591796875,-0.9994049072265625,-0.0164031982421875,-0.0072479248046875
1772656078697573400,7.852573486328125,-0.999725341796875,-0.0164642333984375,-0.0071563720703125
1772656078707556600,7.862556640625,-0.9994964599609375,-0.016387939453125,-0.008819580078125
1772656078717538600,7.87253857421875,-0.999603271484375,-0.0158843994140625,-0.007171630859375
1772656078727521500,7.882521484375,-0.99993896484375,-0.0161285400390625,-0.007720947265625
1772656078737503500,7.89250341796875,-0.9991302490234375,-0.016021728515625,-0.00811767578125
1772656078747486500,7.902486572265625,-0.9990692138671875,-0.0161285400390625,-0.008209228515625
1772656078757468400,7.912468505859375,-0.9992218017578125,-0.0160369873046875,-0.00750732421875
1772656078767451600,7.92245166015625,-0.999725341796875,-0.0159454345703125,-0.00738525390625
1772656078777433300,7.932433349609375,-1.0003814697265625,-0.0164031982421875,-0.0079345703125
1772656078787415600,7.94241552734375,-0.9994964599609375,-0.0162506103515625,-0.007537841796875
1772656078797398500,7.9523984375,-0.99993896484375,-0.0152587890625,-0.0086669921875
1772656078807380500,7.96238037109375,-1.000396728515625,-0.0167694091796875,-0.0075836181640625
1772656078817363500,7.972363525390625,-1.0002899169921875,-0.016754150390625,-0.00775146484375
1772656078827343400,7.98234326171875,-0.9994659423828125,-0.015594482421875,-0.0079498291015625
1772656078837325600,7.99232568359375,-0.998931884765625,-0.0157928466796875,-0.008270263671875
1772656078847308300,8.002308349609375,-0.999114990234375,-0.0164337158203125,-0.0078125
1772656078857290500,8.01229052734375,-0.9997100830078125,-0.0159912109375,-0.008514404296875
1772656078867273500,8.0222734375,-0.998626708984375,-0.0160980224609375,-0.0070343017578125
1772656078877256400,8.03225634765625,-0.99920654296875,-0.01605224609375,-0.0077056884765625
1772656078887239200,8.0422392578125,-0.999359130859375,-0.016326904296875,-0.00732421875
1772656078897221400,8.052221435546874,-0.999176025390625,-0.01629638671875,-0.00714111328125
1772656078907204400,8.062204345703124,-0.9986572265625,-0.0161895751953125,-0.00799560546875
1772656078917186300,8.072186279296876,-1.0000457763671875,-0.01593017578125,-0.0072021484375
1772656078927168300,8.082168212890625,-0.9994659423828125,-0.015899658203125,-0.0078125
1772656078937151200,8.092151123046875,-0.9992828369140625,-0.0163421630859375,-0.00677490234375
1772656078947133200,8.10213330078125,-0.999267578125,-0.0157470703125,-0.007659912109375
1772656078957116400,8.112116455078125,-0.999908447265625,-0.0156402587890625,-0.0074920654296875
1772656078967098000,8.12209814453125,-0.99896240234375,-0.015655517578125,-0.0077667236328125
1772656078977081300,8.132081298828124,-0.9996337890625,-0.016204833984375,-0.0076904296875
1772656078987063300,8.142063232421876,-0.9987640380859375,-0.0157012939453125,-0.007354736328125
1772656078997046300,8.15204638671875,-0.9993743896484375,-0.0164794921875,-0.00836181640625
1772656079007028200,8.1620283203125,-0.9985809326171875,-0.0161590576171875,-0.00848388671875
1772656079017011500,8.172011474609375,-0.9988555908203125,-0.016265869140625,-0.007659912109375
1772656079026993200,8.1819931640625,-1.000091552734375,-0.016326904296875,-0.008453369140625
1772656079036976400,8.191976318359375,-0.99932861328125,-0.016357421875,-0.0074310302734375
1772656079046958300,8.201958251953124,-0.9990997314453125,-0.0165863037109375,-0.0078277587890625
1772656079056940300,8.211940185546876,-0.999176025390625,-0.0167694091796875,-0.008026123046875
1772656079066923300,8.22192333984375,-0.999114990234375,-0.01617431640625,-0.0074920654296875
1772656079076905200,8.2319052734375,-0.9997406005859375,-0.015960693359375,-0.0070953369140625
1772656079086888200,8.24188818359375,-0.999359130859375,-0.01544189453125,-0.0073699951171875
1772656079096870400,8.251870361328125,-0.9986419677734375,-0.015411376953125,-0.0081787109375
1772656079106853000,8.26185302734375,-0.99896240234375,-0.0159149169921875,-0.007293701171875
1772656079116835300,8.27183544921875,-0.9983367919921875,-0.0162811279296875,-0.007354736328125
1772656079126818300,8.281818359375,-0.998046875,-0.0158538818359375,-0.0076751708984375
1772656079136800300,8.29180029296875,-0.9999847412109375,-0.01593017578125,-0.009552001953125
1772656079146783200,8.301783203125,-0.9986419677734375,-0.016387939453125,-0.0084381103515625
1772656079156765200,8.31176513671875,-1.0002288818359375,-0.01531982421875,-0.0071868896484375
1772656079166748200,8.321748046875,-1.0002593994140625,-0.01593017578125,-0.0079803466796875
1772656079176730400,8.33173046875,-0.9989776611328125,-0.0164642333984375,-0.0082855224609375
1772656079186712300,8.34171240234375,-0.9992523193359375,-0.0155181884765625,-0.0075836181640625
1772656079196695300,8.3516953125,-1.000579833984375,-0.01593017578125,-0.0074920654296875
1772656079206677200,8.36167724609375,-0.9981842041015625,-0.0166168212890625,-0.007110595703125
1772656079216660200,8.37166015625,-0.9985198974609375,-0.0161285400390625,-0.00848388671875
1772656079226642400,8.381642333984376,-1.000579833984375,-0.0167999267578125,-0.007537841796875
1772656079236625200,8.391625244140625,-0.9990386962890625,-0.01593017578125,-0.0075836181640625
1772656079246607400,8.401607421875,-0.9993438720703125,-0.016204833984375,-0.007110595703125
1772656079256591400,8.41159130859375,-0.9986419677734375,-0.0158843994140625,-0.0077362060546875
1772656079266573300,8.4215732421875,-0.9993438720703125,-0.015899658203125,-0.00762939453125
1772656079276555300,8.43155517578125,-0.99945068359375,-0.01654052734375,-0.0086212158203125
1772656079286538200,8.441538330078124,-0.9988555908203125,-0.015869140625,-0.00799560546875
1772656079296520200,8.451520263671876,-0.99859619140625,-0.015899658203125,-0.007720947265625
1772656079306503200,8.461503173828126,-0.998504638671875,-0.0157318115234375,-0.007354736328125
1772656079316485400,8.4714853515625,-0.9986419677734375,-0.0157012939453125,-0.007110595703125
1772656079326468400,8.48146826171875,-0.999725341796875,-0.015869140625,-0.007080078125
1772656079336450300,8.4914501953125,-0.9998016357421875,-0.0155181884765625,-0.007568359375
1772656079346433300,8.501433349609375,-1.00018310546875,-0.0157928466796875,-0.0081939697265625
1772656079356415200,8.511415283203124,-1.0006256103515625,-0.015899658203125,-0.0079345703125
1772656079366398200,8.521398193359374,-0.9989013671875,-0.01593017578125,-0.0080413818359375
1772656079376380200,8.531380126953126,-0.9986572265625,-0.01580810546875,-0.007476806640625
1772656079386362400,8.5413623046875,-0.999542236328125,-0.0166168212890625,-0.0073699951171875
1772656079396345300,8.551345458984375,-0.999969482421875,-0.0165252685546875,-0.0076141357421875
1772656079406327300,8.561327392578125,-0.999542236328125,-0.01611328125,-0.007965087890625
1772656079416310300,8.571310302734375,-0.999755859375,-0.0158233642578125,-0.0084991455078125
1772656079426292500,8.58129248046875,-0.998382568359375,-0.016204833984375,-0.00787353515625
1772656079436275200,8.591275146484374,-0.9978179931640625,-0.0162811279296875,-0.0078125
1772656079446257400,8.60125732421875,-1.0000762939453125,-0.015289306640625,-0.0076446533203125
1772656079456240400,8.611240478515626,-1.0005340576171875,-0.0158233642578125,-0.0070037841796875
1772656079466222300,8.621222412109375,-0.9993133544921875,-0.01617431640625,-0.0079193115234375
1772656079476205300,8.631205322265625,-0.998870849609375,-0.0162200927734375,-0.0079803466796875
1772656079486187300,8.641187255859375,-0.9989776611328125,-0.015533447265625,-0.008392333984375
1772656079496170200,8.651170166015625,-0.998870849609375,-0.016571044921875,-0.0074005126953125
1772656079506152400,8.66115234375,-0.999847412109375,-0.016357421875,-0.008026123046875
1772656079516134100,8.671134033203124,-0.9995269775390625,-0.016143798828125,-0.0068817138671875
1772656079526117400,8.681117431640626,-0.9994049072265625,-0.0164031982421875,-0.00714111328125
1772656079536099000,8.69109912109375,-0.999664306640625,-0.0159149169921875,-0.007080078125
1772656079546082300,8.701082275390625,-0.9995269775390625,-0.0163116455078125,-0.00775146484375
1772656079556064300,8.711064208984375,-0.999359130859375,-0.0162200927734375,-0.0070343017578125
1772656079566047200,8.721047119140625,-0.9994354248046875,-0.01629638671875,-0.007415771484375
1772656079576029200,8.731029296875,-0.9986572265625,-0.016510009765625,-0.0077972412109375
1772656079586012400,8.741012451171875,-0.9989776611328125,-0.016448974609375,-0.0080413818359375
1772656079595994000,8.750994140625,-0.9998931884765625,-0.01544189453125,-0.0074462890625
1772656079605977300,8.760977294921876,-1.0013885498046875,-0.0153350830078125,-0.007904052734375
1772656079615959300,8.770959228515625,-0.9993743896484375,-0.0157928466796875,-0.007843017578125
1772656079625942300,8.7809423828125,-0.9986724853515625,-0.01654052734375,-0.0072174072265625
1772656079635924200,8.79092431640625,-0.9991912841796875,-0.01654052734375,-0.0069580078125
1772656079645906200,8.80090625,-0.9991912841796875,-0.0157623291015625,-0.00677490234375
1772656079655889200,8.81088916015625,-0.99993896484375,-0.0160675048828125,-0.0075531005859375
1772656079665871400,8.820871337890624,-0.9984130859375,-0.0156402587890625,-0.007293701171875
1772656079675854000,8.83085400390625,-0.9989776611328125,-0.015777587890625,-0.0083770751953125
1772656079685836300,8.840836181640626,-0.9996337890625,-0.0169219970703125,-0.007659912109375
1772656079695819300,8.8508193359375,-1.0001678466796875,-0.016448974609375,-0.006805419921875
1772656079705801200,8.86080126953125,-0.998565673828125,-0.015960693359375,-0.0077056884765625
1772656079715784200,8.8707841796875,-1.0003662109375,-0.0164794921875,-0.008331298828125
1772656079725766400,8.880766357421875,-0.9998016357421875,-0.01580810546875,-0.0073394775390625
1772656079735749000,8.8907490234375,-0.99951171875,-0.0156402587890625,-0.00775146484375
1772656079745731300,8.9007314453125,-0.9989166259765625,-0.0162811279296875,-0.0073699951171875
1772656079755714300,8.91071435546875,-0.9997711181640625,-0.0171051025390625,-0.0071868896484375
1772656079765696300,8.9206962890625,-0.998565673828125,-0.0154876708984375,-0.0077056884765625
1772656079775679200,8.93067919921875,-1.00018310546875,-0.0160675048828125,-0.008209228515625
1772656079785661200,8.9406611328125,-0.9993438720703125,-0.015960693359375,-0.007537841796875
1772656079795643400,8.950643310546875,-0.9991302490234375,-0.016021728515625,-0.007843017578125
1772656079805626400,8.96062646484375,-0.999267578125,-0.01727294921875,-0.007476806640625
1772656079815608300,8.9706083984375,-0.9989776611328125,-0.0167388916015625,-0.007659912109375
1772656079825591300,8.98059130859375,-0.99871826171875,-0.015869140625,-0.0077056884765625
1772656079835573200,8.9905732421875,-0.998260498046875,-0.0161590576171875,-0.0079498291015625
1772656079845556200,9.00055615234375,-0.9992523193359375,-0.01617431640625,-0.0074005126953125
1772656079855538400,9.010538330078125,-0.999603271484375,-0.0163116455078125,-0.007354736328125
1772656079865521200,9.020521240234375,-0.999725341796875,-0.0164031982421875,-0.0081329345703125
1772656079875502800,9.0305029296875,-0.9978179931640625,-0.0166778564453125,-0.0072784423828125
1772656079885485800,9.04048583984375,-0.9993438720703125,-0.0161895751953125,-0.007293701171875
1772656079895468000,9.050468017578124,-0.9986114501953125,-0.0164947509765625,-0.0077667236328125
1772656079905450800,9.06045068359375,-0.9991607666015625,-0.0156097412109375,-0.0084228515625
1772656079915433000,9.070432861328126,-0.9995574951171875,-0.0154571533203125,-0.006561279296875
1772656079925415000,9.080414794921875,-0.9990234375,-0.0157318115234375,-0.007598876953125
1772656079935398000,9.09039794921875,-0.9995269775390625,-0.016632080078125,-0.0079498291015625
1772656079945380000,9.100380126953125,-1.000030517578125,-0.0166473388671875,-0.0067138671875
1772656079955362800,9.11036279296875,-0.99908447265625,-0.0148773193359375,-0.0069122314453125
1772656079965345000,9.120344970703124,-0.99896240234375,-0.016143798828125,-0.00787353515625
1772656079975328000,9.130327880859374,-0.998687744140625,-0.015777587890625,-0.008270263671875
1772656079985310000,9.14031005859375,-0.9993743896484375,-0.0156707763671875,-0.0075225830078125
1772656079995293000,9.15029296875,-0.9980926513671875,-0.016357421875,-0.009124755859375
1772656080005275000,9.16027490234375,-0.9989013671875,-0.0162200927734375,-0.0076141357421875
1772656080015257900,9.1702578125,-0.99932861328125,-0.0153961181640625,-0.0082244873046875
1772656080025240000,9.180239990234375,-0.9993896484375,-0.016387939453125,-0.0083160400390625
1772656080035222800,9.190222900390625,-0.9990692138671875,-0.015869140625,-0.0076904296875
1772656080045205000,9.200205078125,-0.998687744140625,-0.01605224609375,-0.0075531005859375
1772656080055187000,9.21018701171875,-0.9989776611328125,-0.0158538818359375,-0.0078887939453125
1772656080065170000,9.220169921875,-0.9998931884765625,-0.0164031982421875,-0.0071258544921875
1772656080075152000,9.23015185546875,-0.999664306640625,-0.015960693359375,-0.007476806640625
1772656080085135000,9.240135009765625,-0.998931884765625,-0.0165863037109375,-0.007781982421875
1772656080095116800,9.25011669921875,-0.9990234375,-0.0158538818359375,-0.0084075927734375
1772656080105100000,9.26010009765625,-0.9997100830078125,-0.015869140625,-0.007080078125
1772656080115081700,9.270081787109374,-0.9994659423828125,-0.0157470703125,-0.008270263671875
1772656080125065000,9.28006494140625,-0.9993133544921875,-0.0155487060546875,-0.0081939697265625
1772656080135047000,9.290046875,-0.99920654296875,-0.0162353515625,-0.007415771484375
1772656080145030000,9.30002978515625,-0.998382568359375,-0.01617431640625,-0.008026123046875
1772656080155011800,9.31001171875,-0.9983978271484375,-0.015289306640625,-0.00811767578125
1772656080164995000,9.3199951171875,-0.9998321533203125,-0.0159912109375,-0.0083770751953125
1772656080174976800,9.329976806640625,-1.0001983642578125,-0.0161285400390625,-0.0068206787109375
1772656080184959000,9.339958984375,-0.9994964599609375,-0.01617431640625,-0.0074005126953125
1772656080194942000,9.34994189453125,-0.999725341796875,-0.0158233642578125,-0.007415771484375
1772656080204924000,9.359923828125,-0.999420166015625,-0.0159759521484375,-0.0082550048828125
1772656080214907000,9.369906982421876,-0.9998321533203125,-0.0163726806640625,-0.008026123046875
1772656080224888800,9.379888916015625,-0.99932861328125,-0.01654052734375,-0.0074615478515625
1772656080234871800,9.389871826171875,-0.9991455078125,-0.0162353515625,-0.008758544921875
1772656080244854000,9.39985400390625,-0.999267578125,-0.015960693359375,-0.0084228515625
1772656080254836700,9.409836669921875,-0.9997406005859375,-0.0160369873046875,-0.0078582763671875
1772656080264819000,9.41981884765625,-0.9998016357421875,-0.016387939453125,-0.0076446533203125
1772656080274802000,9.429802001953124,-0.999755859375,-0.015869140625,-0.007781982421875
1772656080284783900,9.439783935546876,-0.99920654296875,-0.01611328125,-0.007843017578125
1772656080294766800,9.449766845703126,-0.99908447265625,-0.015411376953125,-0.0073089599609375
1772656080304748800,9.459748779296875,-0.99835205078125,-0.0161590576171875,-0.0079498291015625
1772656080314731000,9.46973095703125,-0.99884033203125,-0.0161285400390625,-0.00726318359375
1772656080324714000,9.4797138671875,-1.000030517578125,-0.01568603515625,-0.00811767578125
1772656080334696000,9.489696044921875,-0.9995880126953125,-0.0157318115234375,-0.0081329345703125
1772656080344679000,9.499678955078124,-0.9994659423828125,-0.0163421630859375,-0.0076141357421875
1772656080354660900,9.509660888671876,-0.9990692138671875,-0.0156097412109375,-0.0074920654296875
1772656080364643800,9.519643798828126,-1.0002899169921875,-0.0158843994140625,-0.008087158203125
1772656080374626000,9.5296259765625,-0.998870849609375,-0.01629638671875,-0.0074005126953125
1772656080384609000,9.539609130859375,-0.9992218017578125,-0.016510009765625,-0.0086822509765625
1772656080394591000,9.549591064453125,-1.00048828125,-0.0168609619140625,-0.0070343017578125
1772656080404574000,9.559573974609375,-0.999114990234375,-0.016143798828125,-0.0078277587890625
1772656080414556000,9.569555908203125,-0.99884033203125,-0.016265869140625,-0.0069580078125
1772656080424539000,9.579538818359374,-0.9985198974609375,-0.0163421630859375,-0.0070343017578125
1772656080434520800,9.589520751953126,-0.999237060546875,-0.016082763671875,-0.0078125
1772656080444503800,9.59950390625,-0.9996337890625,-0.0163421630859375,-0.0078887939453125
1772656080454486000,9.609486083984375,-0.9995574951171875,-0.0162353515625,-0.0079498291015625
1772656080464468000,9.619468017578125,-0.99853515625,-0.0169219970703125,-0.0081024169921875
1772656080474451000,9.629450927734375,-0.998748779296875,-0.0159149169921875,-0.0082550048828125
1772656080484433000,9.639432861328125,-0.9992218017578125,-0.0161590576171875,-0.007843017578125
1772656080494416000,9.649415771484374,-0.9987945556640625,-0.016937255859375,-0.00762939453125
1772656080504397800,9.659397705078124,-0.99981689453125,-0.016632080078125,-0.0070648193359375
1772656080514381000,9.669381103515626,-0.9993743896484375,-0.0164031982421875,-0.0079193115234375
1772656080524362800,9.67936279296875,-0.9981689453125,-0.016326904296875,-0.007232666015625
1772656080534346000,9.689345947265625,-0.998870849609375,-0.0162353515625,-0.008087158203125
1772656080544328000,9.699327880859375,-0.9990081787109375,-0.0166778564453125,-0.0074615478515625
1772656080554311000,9.709310791015625,-0.9993896484375,-0.0162506103515625,-0.007568359375
1772656080564292900,9.71929296875,-1,-0.0159149169921875,-0.007476806640625
1772656080574276000,9.729276123046875,-0.99945068359375,-0.01666259765625,-0.0073089599609375
1772656080584257800,9.7392578125,-0.9990081787109375,-0.016082763671875,-0.008758544921875
1772656080594240000,9.749239990234376,-0.9994659423828125,-0.015625,-0.008026123046875
1772656080604222700,9.75922265625,-0.9990692138671875,-0.0164794921875,-0.0081787109375
1772656080614205000,9.769204833984375,-0.9982757568359375,-0.0163421630859375,-0.007904052734375
1772656080624188000,9.77918798828125,-1.000579833984375,-0.015899658203125,-0.0075531005859375
1772656080634169900,9.789169921875,-1.000457763671875,-0.015899658203125,-0.0079498291015625
1772656080644152800,9.79915283203125,-1.0001373291015625,-0.015625,-0.0077056884765625
1772656080654135000,9.809135009765624,-0.999786376953125,-0.016632080078125,-0.007904052734375
1772656080664117800,9.81911767578125,-1.0001220703125,-0.0161590576171875,-0.006866455078125
1772656080674100000,9.829099853515626,-1.0001068115234375,-0.0160980224609375,-0.008209228515625
1772656080684083000,9.8390830078125,-0.999114990234375,-0.0157318115234375,-0.00811767578125
1772656080694065000,9.84906494140625,-0.999420166015625,-0.0157470703125,-0.0071258544921875
1772656080704047900,9.8590478515625,-0.9995269775390625,-0.01611328125,-0.007781982421875
1772656080714029800,9.86902978515625,-0.9991455078125,-0.01617431640625,-0.00762939453125
1772656080724011800,9.87901171875,-0.9993438720703125,-0.016357421875,-0.0071868896484375
1772656080733995000,9.8889951171875,-0.999267578125,-0.0158538818359375,-0.0072784423828125
1772656080743976700,9.898976806640626,-0.9996795654296875,-0.016448974609375,-0.0079193115234375
1772656080753960000,9.9089599609375,-0.9992828369140625,-0.0162506103515625,-0.00762939453125
1772656080763942000,9.91894189453125,-0.999786376953125,-0.016448974609375,-0.007354736328125
1772656080773924900,9.9289248046875,-0.999267578125,-0.0160675048828125,-0.0075836181640625
1772656080783906800,9.93890673828125,-0.998443603515625,-0.01641845703125,-0.008697509765625
1772656080793890000,9.94889013671875,-0.998779296875,-0.0154571533203125,-0.0081634521484375
1772656080803871700,9.958871826171874,-0.9990997314453125,-0.0154876708984375,-0.0081787109375
1772656080813855000,9.96885498046875,-0.9987335205078125,-0.0158538818359375,-0.00799560546875
1772656080823837000,9.9788369140625,-1.000457763671875,-0.016510009765625,-0.008270263671875
1772656080833820000,9.98881982421875,-0.9991302490234375,-0.0160064697265625,-0.00848388671875
1772656080843801900,9.9988017578125,-1.000152587890625,-0.0158843994140625,-0.0081329345703125
1772656080853783800,10.00878369140625,-0.999969482421875,-0.0152740478515625,-0.007781982421875
1772656080863766800,10.018766845703125,-0.999176025390625,-0.0161590576171875,-0.0086212158203125
1772656080873748700,10.028748779296874,-1.00006103515625,-0.0164031982421875,-0.0081024169921875
1772656080883731700,10.038731689453124,-0.9999847412109375,-0.0169525146484375,-0.00775146484375
1772656080893713700,10.048713623046876,-0.9988555908203125,-0.0161895751953125,-0.007354736328125
1772656080903696600,10.058696533203126,-0.99908447265625,-0.0160064697265625,-0.00750732421875
1772656080913678600,10.0686787109375,-1.0001220703125,-0.0165863037109375,-0.0079345703125
1772656080923661800,10.078661865234375,-0.9999237060546875,-0.01605224609375,-0.008941650390625
1772656080933643500,10.0886435546875,-0.9985504150390625,-0.0156707763671875,-0.008209228515625
1772656080943626800,10.098626708984375,-0.99957275390625,-0.0155792236328125,-0.0068206787109375
1772656080953608700,10.108608642578124,-1.0007781982421875,-0.0156402587890625,-0.0081329345703125
1772656080963591700,10.118591796875,-0.999237060546875,-0.0161285400390625,-0.0084075927734375
1772656080973573600,10.12857373046875,-0.9985809326171875,-0.014892578125,-0.00775146484375
1772656080983555600,10.1385556640625,-0.99920654296875,-0.0157623291015625,-0.00750732421875
1772656080993538600,10.14853857421875,-1.000091552734375,-0.015533447265625,-0.007720947265625
1772656081003520800,10.158520751953125,-0.999298095703125,-0.01544189453125,-0.0080413818359375
1772656081013503500,10.16850341796875,-0.99951171875,-0.0153656005859375,-0.00823974609375
1772656081023485700,10.178485595703124,-0.999359130859375,-0.015594482421875,-0.0084075927734375
1772656081033468700,10.18846875,-0.999755859375,-0.016021728515625,-0.006927490234375
1772656081043450600,10.19845068359375,-1.000274658203125,-0.016387939453125,-0.00836181640625
1772656081053433600,10.20843359375,-0.9998779296875,-0.0164642333984375,-0.00836181640625
1772656081063415600,10.21841552734375,-0.999542236328125,-0.0160369873046875,-0.00799560546875
1772656081073398500,10.2283984375,-0.9995269775390625,-0.01611328125,-0.008026123046875
1772656081083380700,10.238380615234375,-0.9988555908203125,-0.016326904296875,-0.0083160400390625
1772656081093363500,10.248363525390625,-0.9993743896484375,-0.015472412109375,-0.008056640625
1772656081103345700,10.258345703125,-0.9999237060546875,-0.0157928466796875,-0.0076751708984375
1772656081113328600,10.26832861328125,-0.999359130859375,-0.015869140625,-0.00750732421875
1772656081123310600,10.278310546875,-0.99853515625,-0.0163116455078125,-0.0079193115234375
1772656081133292800,10.288292724609375,-0.9997100830078125,-0.01611328125,-0.0076904296875
1772656081143275800,10.29827587890625,-1.0002288818359375,-0.016021728515625,-0.007659912109375
1772656081153257700,10.3082578125,-0.9991912841796875,-0.0152587890625,-0.00750732421875
1772656081163240700,10.31824072265625,-0.999298095703125,-0.015045166015625,-0.00799560546875
1772656081173222700,10.32822265625,-1.000244140625,-0.016326904296875,-0.0080413818359375
1772656081183205600,10.33820556640625,-1.00006103515625,-0.0155029296875,-0.00775146484375
1772656081193187800,10.348187744140626,-0.999725341796875,-0.0165252685546875,-0.0089263916015625
1772656081203170600,10.358170654296876,-0.99847412109375,-0.0167999267578125,-0.008209228515625
1772656081213152800,10.36815283203125,-0.99920654296875,-0.015655517578125,-0.007110595703125
1772656081223135700,10.3781357421875,-0.9993896484375,-0.0157318115234375,-0.007568359375
1772656081233117700,10.38811767578125,-0.9994354248046875,-0.016143798828125,-0.0075225830078125
1772656081243100700,10.3981005859375,-0.9994964599609375,-0.0154571533203125,-0.007293701171875
1772656081253083000,10.408082763671874,-0.9994964599609375,-0.016754150390625,-0.00665283203125
1772656081263064600,10.418064697265624,-0.998809814453125,-0.0164031982421875,-0.007659912109375
1772656081273047800,10.4280478515625,-0.9987640380859375,-0.0161590576171875,-0.00823974609375
1772656081283029500,10.438029541015625,-0.9991302490234375,-0.0164947509765625,-0.00830078125
1772656081293012700,10.4480126953125,-0.9988250732421875,-0.01605224609375,-0.0077362060546875
1772656081302994700,10.45799462890625,-0.9998016357421875,-0.016082763671875,-0.0092926025390625
1772656081312977700,10.467977783203125,-0.9990234375,-0.015869140625,-0.00799560546875
1772656081322959600,10.477959716796875,-0.998992919921875,-0.016204833984375,-0.00750732421875
1772656081332942800,10.48794287109375,-0.9990386962890625,-0.0157928466796875,-0.0071258544921875
1772656081342924500,10.497924560546876,-0.9997711181640625,-0.0155487060546875,-0.0076751708984375
1772656081352907800,10.50790771484375,-0.9994049072265625,-0.01544189453125,-0.0079193115234375
1772656081362889500,10.517889404296875,-0.999267578125,-0.015899658203125,-0.00762939453125
1772656081372872700,10.527872802734375,-1.0000762939453125,-0.01617431640625,-0.0078125
1772656081382854700,10.537854736328125,-0.9983673095703125,-0.016021728515625,-0.0087738037109375
1772656081392836600,10.547836669921875,-1.000030517578125,-0.0152435302734375,-0.0076141357421875
1772656081402819600,10.557819580078124,-1.000152587890625,-0.0155181884765625,-0.0081329345703125
1772656081412801800,10.5678017578125,-0.9983062744140625,-0.0159912109375,-0.008026123046875
1772656081422784500,10.577784423828126,-0.9987030029296875,-0.0159912109375,-0.0079498291015625
1772656081432766700,10.5877666015625,-0.9994354248046875,-0.0166778564453125,-0.0083465576171875
1772656081442749700,10.597749755859375,-0.9998016357421875,-0.015716552734375,-0.0082855224609375
1772656081452731600,10.607731689453125,-0.9996795654296875,-0.015716552734375,-0.0078125
1772656081462714600,10.617714599609375,-0.9994049072265625,-0.01617431640625,-0.007720947265625
1772656081472696600,10.627696533203125,-0.998779296875,-0.0162506103515625,-0.0074005126953125
1772656081482679600,10.637679443359374,-0.9985198974609375,-0.0162506103515625,-0.007598876953125
1772656081492661800,10.647661865234374,-0.9990234375,-0.016143798828125,-0.0069122314453125
1772656081502644500,10.65764453125,-0.9999847412109375,-0.01605224609375,-0.0080718994140625
1772656081512626700,10.667626708984375,-0.998809814453125,-0.0165557861328125,-0.0079803466796875
1772656081522609700,10.677609619140625,-0.9997100830078125,-0.0160980224609375,-0.0083465576171875
1772656081532591600,10.687591552734375,-1,-0.0162811279296875,-0.007720947265625
1772656081542573600,10.697573486328125,-0.99981689453125,-0.0159759521484375,-0.0083465576171875
1772656081552556800,10.707556884765625,-0.999786376953125,-0.015594482421875,-0.0077362060546875
1772656081562538500,10.71753857421875,-0.9993896484375,-0.016021728515625,-0.0079193115234375
1772656081572521700,10.727521728515624,-1.000213623046875,-0.01617431640625,-0.0084381103515625
1772656081582503700,10.737503662109376,-0.9859466552734375,-0.014495849609375,-0.0081939697265625
1772656081592486700,10.747486572265625,-0.9429168701171875,-0.0130767822265625,-0.025421142578125
1772656081602468600,10.757468505859375,-1.03118896484375,-0.0186004638671875,0.002960205078125
1772656081612451600,10.76745166015625,-1.03033447265625,-0.0229339599609375,0.00799560546875
1772656081622433500,10.77743359375,-1.01910400390625,-0.0169830322265625,-0.0021514892578125
1772656081632416800,10.787416748046875,-0.99432373046875,-0.01495361328125,-0.0068206787109375
1772656081642398700,10.797398681640624,-1.0412445068359375,-0.019439697265625,0.0059967041015625
1772656081652381700,10.807381591796876,-1.01947021484375,-0.0225067138671875,0.0042266845703125
1772656081662363600,10.81736376953125,-0.9590606689453125,-0.0123748779296875,-0.017730712890625
1772656081672345600,10.827345703125,-0.941375732421875,-0.0087890625,-0.02349853515625
1772656081682328600,10.83732861328125,-1.025604248046875,-0.0191192626953125,0.0000457763671875
