time,seconds_elapsed,z,y,x
1772656070921237800,0.07623779296875,0.0013273246586322784,0.007562949322164059,0.0013199031818658113
1772656070931220500,0.086220458984375,0.0019350580405443907,-0.009644533507525921,-0.004614152014255524
1772656070941202700,0.09620263671875,-0.0011216267012059689,-0.004267158918082714,-0.0006730309687554836
1772656070951185700,0.106185546875,-0.00024384865537285805,0.010532825253903866,0.0051339915953576565
1772656070961167600,0.116167724609375,0.0009901649318635464,0.002134813694283366,0.0027006615418940783
1772656070971150600,0.126150634765625,-0.001079910434782505,-0.005801406688988209,-0.0007633119821548462
1772656070981132800,0.1361328125,0.0016783801838755608,0.001553499954752624,0.0003191279247403145
1772656070991115500,0.146115478515625,-0.0007624069694429636,0.006420959252864122,0.001775610726326704
1772656071001097700,0.15609765625,0.0011090972693637013,-0.0033683371730148792,-0.0005610538646578789
1772656071011080700,0.166080810546875,0.001090455218218267,-0.004100440070033073,-0.00045692408457398415
1772656071021062700,0.176062744140625,0.0013036850141361356,0.004589672200381756,0.001454418757930398
1772656071031044600,0.186044677734375,0.00015160138718783855,0.0010420752223581076,-0.0015269899740815163
1772656071041027600,0.196027587890625,-0.001081325113773346,-0.0025758836418390274,-0.0008762441575527191
1772656071051009500,0.206009521484375,0.0007354831323027611,0.0014886329881846905,-0.004045139532536268
1772656071060992800,0.21599267578125,-0.0026553841307759285,0.004055751487612724,0.0004942324012517929
1772656071070974500,0.225974365234375,-0.0009120786562561989,0.00016247655730694532,-0.00247146375477314
1772656071080957700,0.235957763671875,-0.00016349973157048225,-0.0014627525815740228,0.0011439286172389984
1772656071090939600,0.245939697265625,-0.00038880319334566593,-0.0015905842883512378,0.00010715983808040619
1772656071100922600,0.255922607421875,-0.001608921680599451,0.0003667953424155712,0.0020086371805518866
1772656071110904600,0.265904541015625,-0.0008587092161178589,-0.0011077969102188945,-0.003967230208218098
1772656071120887800,0.2758876953125,-0.00014448445290327072,-0.0011678761802613735,0.0015031660441309214
1772656071130869500,0.285869384765625,0.0004597867373377085,0.00030884670559316874,-0.00005957670509815216
1772656071140852700,0.295852783203125,0.00022154883481562138,0.00006894173566251993,-0.0023833042941987514
1772656071150834700,0.305834716796875,0.0001951835583895445,-0.0010368026560172439,0.0007954449392855167
1772656071160817700,0.315817626953125,-0.001555176917463541,-0.0015685781836509705,-0.0026011597365140915
1772656071170799600,0.325799560546875,-0.001612701453268528,-0.0008551173377782106,-0.00005038408562541008
1772656071180781600,0.335781494140625,-0.001973416656255722,0.0022389614023268223,-0.0013315258547663689
1772656071190764500,0.3457646484375,-0.001151564996689558,-0.0005509662441909313,0.0009673144668340683
1772656071200746500,0.35574658203125,-0.00043045589700341225,0.0010129377478733659,0.001511947251856327
1772656071210729500,0.3657294921875,-0.00002432381734251976,-0.0011074710637331009,0.0020224752370268106
1772656071220711700,0.375711669921875,0.00021397671662271023,0.0005900120595470071,0.00002833036705851555
1772656071230694700,0.385694580078125,-0.002443858189508319,0.0012478127609938383,-0.00010482780635356903
1772656071240676600,0.395676513671875,-0.0008990128990262747,-0.0012340352404862642,0.0011033033952116966
1772656071250659600,0.40565966796875,-0.00018821493722498417,0.0018155506113544106,-0.0020248456858098507
1772656071260641500,0.4156416015625,-0.0023173452354967594,-0.00010911596473306417,-0.0008762241341173649
1772656071270624500,0.42562451171875,0.0016393131809309125,-0.00011923594865947962,0.0005155438557267189
1772656071280606700,0.435606689453125,0.0022652852348983288,-0.0004716713447123766,0.00017411354929208755
1772656071290589700,0.445589599609375,-0.00012809783220291138,0.00043966236989945173,0.0005253846757113934
1772656071300571600,0.455571533203125,-0.0013564338441938162,-0.000110225984826684,0.0001902240328490734
1772656071310553600,0.4655537109375,-0.0004525568801909685,0.0008826004923321307,-0.0012084683403372765
1772656071320536600,0.47553662109375,0.00020189117640256882,0.000800400273874402,-0.0018346784636378288
1772656071330518800,0.485518798828125,0.002419239142909646,0.0020901691168546677,0.002857012441381812
1772656071340501500,0.49550146484375,0.0014042467810213566,0.0006706129061058164,0.0005769147537648678
1772656071350483700,0.505483642578125,0.0017453976906836033,-0.001419435953721404,0.0022096990142017603
1772656071360466700,0.515466796875,-0.00029811635613441467,0.0006166418315842748,0.0015508695505559444
1772656071370448600,0.52544873046875,0.0010379916056990623,0.0008960074628703296,0.0018768406007438898
1772656071380431600,0.535431640625,0.000381226884201169,0.00025041087064892054,0.001271082554012537
1772656071390413600,0.54541357421875,0.002184186829254031,-0.0005831585731357336,-0.000573156401515007
1772656071400396500,0.555396484375,0.0001781985629349947,0.0014433452161028981,-0.00044785067439079285
1772656071410378800,0.565378662109375,-0.0026250449009239674,0.0011112489737570286,-0.0003559715114533901
1772656071420361500,0.575361572265625,0.0005510195624083281,0.0016021449118852615,0.000843878835439682
1772656071430343700,0.58534375,0.00015740422531962395,-0.0002761826617643237,0.0009578622411936522
1772656071440326700,0.59532666015625,0.0012628929689526558,-0.00039454828947782516,0.002881486900150776
1772656071450308600,0.60530859375,0.0006999007891863585,-0.0006358306854963303,-0.0015843678265810013
1772656071460290600,0.61529052734375,-0.00006115809082984924,-0.00014537968672811985,0.0007486888207495213
1772656071470273800,0.625273681640625,0.00032846233807504177,0.0005965769523754716,-0.0005208398215472698
1772656071480255500,0.63525537109375,0.0030495240353047848,0.00012865057215094566,0.0013926578685641289
1772656071490238700,0.64523876953125,0.0035254310350865126,-0.0015262378146871924,-0.003182919230312109
1772656071500220400,0.655220458984375,-0.002749522216618061,0.0007242353167384863,0.0008491165935993195
1772656071510203600,0.66520361328125,0.00011204462498426437,0.0002941348357126117,-0.000625209417194128
1772656071520185600,0.675185546875,0.0007660153787583113,0.00007246166933327913,-0.00038727372884750366
1772656071530168600,0.68516845703125,0.0007164806593209505,0.00010095757897943258,0.0032511367462575436
1772656071540150500,0.695150634765625,-0.0013900306075811386,0.0001330761006101966,0.0029193724039942026
1772656071550133800,0.7051337890625,0.000008661765605211258,-0.0008056882070377469,0.0007755276747047901
1772656071560115500,0.715115478515625,-0.0016603018157184124,0.0006390954367816448,0.00041702669113874435
1772656071570098700,0.7250986328125,0.0013956754701212049,0.0017245998606085777,-0.0006796629168093204
1772656071580080600,0.73508056640625,0.000781720969825983,-0.0009263416286557913,0.0005050706677138805
1772656071590062600,0.7450625,0.00002591591328382492,-0.0006986414082348347,0.0020036313217133284
1772656071600045600,0.755045654296875,0.0023784940131008625,0.0007984593394212425,-0.002182913478463888
1772656071610027500,0.765027587890625,-0.0006399326957762241,0.00008766166865825653,0.0001414935104548931
1772656071620010500,0.775010498046875,0.0006423175800591707,0.0015326185384765267,0.001047465717419982
1772656071629992700,0.78499267578125,0.0008979809936136007,0.0009488536743447185,-0.000424729660153389
1772656071639975400,0.794975341796875,0.0002769466955214739,0.00010545947588980198,0.0010657280217856169
1772656071649957600,0.80495751953125,-0.002156649949029088,0.0019092184957116842,0.0009434889070689678
1772656071659940600,0.814940673828125,-0.00012998445890843868,-0.0008346210233867168,-0.0012882803566753864
1772656071669922600,0.824922607421875,0.0010878790635615587,-0.0005291562993079424,-0.0003697560168802738
1772656071679905500,0.834905517578125,-0.00014392356388270855,0.0007890453562140465,0.0007808953523635864
1772656071689887500,0.844887451171875,-0.000020352890715003014,-0.0002479895483702421,-0.0006713266484439373
1772656071699870500,0.854870361328125,-0.0002447194419801235,-0.00041846022941172123,-0.002915432211011648
1772656071709852700,0.864852783203125,-0.0004769470542669296,0.0030742755625396967,0.001959217945113778
1772656071719834600,0.874834716796875,-0.0025145215913653374,0.00187140260823071,-0.00026064924895763397
1772656071729817600,0.884817626953125,0.0013827484799548984,-0.0012130705872550607,0.00084642693400383
1772656071739799800,0.8947998046875,0.0010934373131021857,0.0005059472750872374,0.001988341799005866
1772656071749782500,0.904782470703125,-0.0013137941714376211,0.0002918291138485074,-0.0020157210528850555
1772656071759764700,0.9147646484375,0.0018809391185641289,-0.0007188880117610097,0.00035745278000831604
1772656071769747700,0.924747802734375,-0.002050153212621808,0.0008574369130656123,0.001981714740395546
1772656071779729700,0.934729736328125,-0.0013468542601913214,0.001649076584726572,0.0022016556467860937
1772656071789712600,0.944712646484375,0.0007253515068441629,-0.0026585862506181,0.0009747371077537537
1772656071799694600,0.954694580078125,-0.00016782921738922596,-0.0021060206927359104,-0.000542965717613697
1772656071809677600,0.964677490234375,0.0005980958230793476,-0.0003416765248402953,0.0024474975652992725
1772656071819659800,0.97465966796875,0.0005683703348040581,0.0004550458397716284,0.0019550758879631758
1772656071829642500,0.984642578125,-0.0016079647466540337,-0.002247263677418232,0.0005012564361095428
1772656071839624700,0.994624755859375,0.001118732732720673,0.0002832043683156371,0.001712786965072155
1772656071849606700,1.004606689453125,-0.0005729070398956537,-0.0002385089173913002,-0.0007373210974037647
1772656071859589600,1.014589599609375,0.001060649286955595,0.0003974050050601363,-0.00420558312907815
1772656071869571800,1.02457177734375,-0.000664812745526433,0.0015289821894839406,0.0009681396186351776
1772656071879555000,1.03455517578125,0.00047905929386615753,0.00024825066793709993,0.0019185221754014492
1772656071889537000,1.044537109375,-0.001430427422747016,0.0010591831523925066,-0.0007579545490443707
1772656071899520000,1.05452001953125,-0.0015578765887767076,-0.0009427977493032813,0.00040534744039177895
1772656071909502000,1.064501953125,0.0005548091139644384,-0.00030576949939131737,-0.0009861541911959648
1772656071919485200,1.074485107421875,0.0012259874492883682,-0.0004637609235942364,0.0010836264118552208
1772656071929467000,1.084466796875,0.00026991264894604683,-0.00008239620365202427,-0.0005712620913982391
1772656071939450000,1.0944501953125,0.0010832739062607288,0.0017363006481900811,-0.0020334688015282154
1772656071949431800,1.104431884765625,0.0021203088108450174,-0.0002552112564444542,0.00048508262261748314
1772656071959414000,1.1144140625,0.0011202594032511115,-0.00008535501547157764,0.0013137487694621086
1772656071969397000,1.12439697265625,0.000028363429009914398,-0.00030213629361242056,0.0008756588213145733
1772656071979379000,1.13437890625,-0.00018802331760525703,0.0038794544525444508,0.0001687309704720974
1772656071989362000,1.14436181640625,-0.0010594096966087818,0.0002756648464128375,-0.00040278350934386253
1772656071999344000,1.15434423828125,0.0002654117997735739,0.0004956088960170746,0.004135897383093834
1772656072009326800,1.164326904296875,-0.0002821341622620821,0.0007731102523393929,0.0006868373602628708
1772656072019309000,1.17430908203125,0.000883263535797596,0.003153200726956129,0.00023268768563866615
1772656072029292000,1.1842919921875,-0.001334084663540125,-0.0003949287347495556,0.001076376996934414
1772656072039274000,1.19427392578125,0.0010684357257559896,-0.0006413069786503911,-0.002578706480562687
1772656072049257000,1.204257080078125,0.00015497137792408466,0.0002196930581703782,0.0006320006214082241
1772656072059239000,1.214239013671875,-0.0015624549705535173,-0.0007080668583512306,-0.0027142767794430256
1772656072069222000,1.224221923828125,0.0011427839053794742,-0.001438838429749012,-0.0016932208091020584
1772656072079204000,1.2342041015625,-0.0016315800603479147,-0.00021306355483829975,0.00040165288373827934
1772656072089186000,1.24418603515625,0.001821740879677236,0.00013767473865300417,0.0007782238535583019
1772656072099169000,1.2541689453125,-0.0004297145642340183,0.0008763831574469805,0.0015046836342662573
1772656072109151200,1.264151123046875,-0.0022393325343728065,-0.0010421581100672483,0.0003712424077093601
1772656072119134000,1.274134033203125,-0.00038288626819849014,-0.0036487423349171877,0.0009950585663318634
1772656072129116200,1.2841162109375,-0.0016904983203858137,0.00011883163824677467,-0.0004017692990601063
1772656072139099100,1.29409912109375,-0.0005947453901171684,0.0005176247796043754,-0.00040372787043452263
1772656072149081000,1.3040810546875,0.0006151285488158464,-0.002005453919991851,-0.0010237116366624832
1772656072159064000,1.31406396484375,0.0033640111796557903,-0.0011432497994974256,0.00013052253052592278
1772656072169046000,1.3240458984375,0.00001987977884709835,0.0009334831847809255,0.004163879901170731
1772656072179029000,1.334029052734375,-0.00021531223319470882,-0.0013807424111291766,-0.0017728940583765507
1772656072189011200,1.34401123046875,0.00218552746810019,0.00008586037438362837,0.0008857394568622112
1772656072198993000,1.353992919921875,0.0015484662726521492,-0.0005596729461103678,0.0018229007255285978
1772656072208976100,1.36397607421875,-0.0017365431413054466,0.0003900103038176894,-0.00043492717668414116
1772656072218957800,1.373957763671875,0.004125363193452358,-0.001031091553159058,-0.0016637211665511131
1772656072228941000,1.383941162109375,0.00004832982085645199,0.001739661325700581,0.0015613667201250792
1772656072238923000,1.393923095703125,0.0008256339933723211,-0.00006783613935112953,0.001202005660161376
1772656072248906000,1.403906005859375,0.0010296320542693138,0.000811539706774056,0.001187091926112771
1772656072258888000,1.413887939453125,-0.00017061643302440643,0.0005073420470580459,-0.00002837926149368286
1772656072268871200,1.42387109375,0.0002629461232572794,-0.000992017681710422,-0.000007073860615491867
1772656072278852900,1.433852783203125,-0.0013198943343013525,-0.0007588887820020318,0.002110411413013935
1772656072288836000,1.443836181640625,0.000008756760507822037,-0.00044783169869333506,0.0006715054623782635
1772656072298818000,1.453818115234375,0.0008372899610549212,0.0012494584079831839,0.0009845728054642677
1772656072308801000,1.463801025390625,-0.0005875010974705219,-0.0009628295665606856,0.0017177409026771784
1772656072318783000,1.473782958984375,0.0010037114843726158,-0.0021079876460134983,-0.0005514104850590229
1772656072328765000,1.483764892578125,0.002077764365822077,-0.001328746904619038,0.00017802929505705833
1772656072338748000,1.493747802734375,-0.0011297191958874464,0.00044432480353862047,-0.002931995317339897
1772656072348730000,1.503730224609375,0.002246370306238532,-0.0002214654814451933,0.0017088293097913265
1772656072358712800,1.513712890625,-0.0009747657459229231,0.000989277963526547,-0.002984066493809223
1772656072368695000,1.523695068359375,0.00019303057342767715,0.00013120751827955246,0.0016929765697568655
1772656072378678000,1.533677978515625,0.0019343964522704482,-0.0014225299237295985,-0.0004440825432538986
1772656072388660000,1.543659912109375,-0.0001894745510071516,0.0018014928791671991,-0.00030799489468336105
1772656072398643000,1.553642822265625,0.002140542957931757,-0.0013568031135946512,-0.0006665592081844807
1772656072408625200,1.563625244140625,0.0002526280004531145,-0.000630559166893363,0.0014373380690813065
1772656072418607900,1.57360791015625,0.0014702784828841686,0.0016032668063417077,-0.0000025420449674129486
1772656072428590000,1.583590087890625,-0.0005217660218477249,0.0009505260386504233,0.0008544633165001869
1772656072438572000,1.593572021484375,0.0002718858886510134,-0.0010666234884411097,-0.00017210328951478004
1772656072448555000,1.603554931640625,0.0005477895028889179,-0.0014711576513946056,-0.0007484112866222858
1772656072458537200,1.613537109375,0.0014449767768383026,-0.000994474976323545,0.0008521736599504948
1772656072468520000,1.62352001953125,0.001844717306084931,-0.0029194075614213943,-0.0018765009008347988
1772656072478502100,1.633502197265625,0.0011856363853439689,-0.0008400826482102275,0.0005074888467788696
1772656072488485000,1.643485107421875,0.0017763255164027214,-0.0031674192287027836,0.0008049639873206615
1772656072498467000,1.653467041015625,0.0006478512659668922,-0.00003122328780591488,-0.0009463964961469173
1772656072508450000,1.663449951171875,0.0011269539827480912,-0.000400337390601635,0.0018262206576764584
1772656072518432000,1.673431884765625,-0.0003324041608721018,-0.0015200756024569273,0.0016138034407049417
1772656072528415000,1.6834150390625,-0.00171245401725173,-0.000257737236097455,0.0016550824511796236
1772656072538397200,1.693397216796875,-0.0002389000728726387,-0.0005602610763162374,0.0003713248297572136
1772656072548380000,1.7033798828125,-0.0010532946325838566,0.00011458387598395348,0.0021971880923956633
1772656072558362000,1.713362060546875,-0.00046469783410429955,0.0010452804854139686,0.0006818007677793503
1772656072568344000,1.723343994140625,0.0009875239338725805,-0.00014648411888629198,0.0007262756116688251
1772656072578327000,1.7333271484375,0.0011831624433398247,0.0014209896326065063,0.0005522565916180611
1772656072588309000,1.74330908203125,-0.0004765195772051811,0.001654548803344369,0.0010465392842888832
1772656072598292200,1.753292236328125,0.0012371436459943652,0.00127826863899827,0.0009004068560898304
1772656072608274000,1.76327392578125,0.0009284832049161196,-0.00018620374612510204,0.0001368783414363861
1772656072618257200,1.773257080078125,0.002417841460555792,0.0007937085465528071,0.0018563258927315474
1772656072628238800,1.78323876953125,0.0004268623888492584,0.0009250023867934942,0.0030108061619102955
1772656072638222000,1.79322216796875,0.0013605576241388917,0.0028938879258930683,0.0006343633867800236
1772656072648204000,1.8032041015625,0.001537125208415091,0.002943955361843109,-0.0028663617558777332
1772656072658187000,1.81318701171875,0.0011129860067740083,0.0013056291500106454,0.001641211099922657
1772656072668169000,1.8231689453125,0.00011137104593217373,-0.0009231703588739038,-0.0009644259698688984
1772656072678151200,1.833151123046875,-0.0003084023483097553,0.0009258852223865688,0.001961159287020564
1772656072688134000,1.8431337890625,-0.00013263383880257607,0.0015506627969443798,0.00021998444572091103
1772656072698116000,1.8531162109375,0.0003053655382245779,-0.0003877135459333658,-0.0016221697442233562
1772656072708099000,1.86309912109375,0.000058756908401846886,-0.0007512349402531981,0.001617299159988761
1772656072718081000,1.8730810546875,-0.00042556412518024445,-0.000951103400439024,0.0005904617719352245
1772656072728064000,1.88306396484375,-0.00038242083974182606,0.0007597113144584,0.0008490546606481075
1772656072738046000,1.8930458984375,-0.0023648047354072332,-0.0018342662369832397,-0.0005634301342070103
1772656072748029000,1.90302880859375,0.0033553987741470337,-0.001085918047465384,0.0010970509611070156
1772656072758011100,1.91301123046875,0.0018787727458402514,-0.0015758303925395012,-0.000703541561961174
1772656072767993900,1.922993896484375,0.0007099113427102566,-0.0012322827242314816,0.0002972744405269623
1772656072777976000,1.93297607421875,0.00012168777175247669,0.0013682624557986856,-0.0010128160938620567
1772656072787958000,1.9429580078125,0.0032160147093236446,-0.00040806597098708153,0.00103568728081882
1772656072797941000,1.95294091796875,-0.00018030661158263683,0.003865652484819293,0.0008736671879887581
1772656072807923200,1.962923095703125,-0.0002543425653129816,-0.0020311186090111732,-0.0019034771248698235
1772656072817906000,1.972906005859375,-0.0005530051421374083,-0.000916547141969204,-0.00018475297838449478
1772656072827888000,1.98288818359375,0.000821984838694334,-0.00004249764606356621,0.0005438881926238537
1772656072837871000,1.99287109375,0.0009415405802428722,0.0003842003643512726,0.0016022524796426296
1772656072847853000,2.00285302734375,-0.001138121820986271,0.0007780818268656731,0.0030502132140100002
1772656072857836000,2.0128359375,-0.00044194702059030533,0.0009266075794585049,-0.00187362777069211
1772656072867817500,2.0228173828125,-0.00009653507731854916,-0.00034052447881549597,0.0011677020229399204
1772656072877800400,2.032800537109375,0.0006455851253122091,0.00008261902257800102,-0.0003935461863875389
1772656072887782400,2.042782470703125,0.0007004460785537958,-0.0002087308093905449,0.0024965160991996527
1772656072897765400,2.052765380859375,0.0004296430852264166,0.0007421254995279014,-0.0008600661531090736
1772656072907747300,2.062747314453125,-0.00042762840166687965,0.001618039095774293,0.001489374553784728
1772656072917729300,2.072729248046875,0.0000016419216990470886,0.0005905625876039267,-0.0007380642928183079
1772656072927712500,2.08271240234375,-0.0017278147861361504,0.0006307762814685702,0.0013676970265805721
1772656072937694200,2.092694091796875,0.0005867769941687584,0.0012502609752118587,0.0021219481714069843
1772656072947677400,2.102677490234375,0.0009803920984268188,0.00035783567000180483,0.0021616292651742697
1772656072957659400,2.112659423828125,0.0010824940400198102,-0.0007385374046862125,0.0010863475035876036
1772656072967642400,2.122642333984375,-0.002278947737067938,0.0010713469237089157,0.00006316090002655983
1772656072977624300,2.132624267578125,-0.0005422439426183701,0.0007669026381336153,0.00010533351451158524
1772656072987607600,2.142607666015625,0.0018154525896534324,0.0007530542206950486,-0.00013301940634846687
1772656072997589200,2.15258935546875,0.0018620829796418548,0.0012928398791700602,0.002135035814717412
1772656073007572500,2.162572509765625,0.0009544775821268559,0.0008891046163626015,0.00323492125608027
1772656073017554200,2.17255419921875,-0.0006964716594666243,-0.00037668272852897644,-0.0007542446255683899
1772656073027536400,2.182536376953125,0.002416763687506318,0.0031248414888978004,0.0028913565911352634
1772656073037519400,2.192519287109375,-0.0007723264861851931,0.00015660549979656935,-0.00011196313425898552
1772656073047501300,2.202501220703125,-0.00027538067661225796,0.00011585920583456755,-0.0003726864233613014
1772656073057484300,2.212484375,0.0002656220458447933,-0.00006371224299073219,0.0020175280515104532
1772656073067466500,2.222466552734375,0.0013513928279280663,-0.0021588210947811604,-0.0017535081133246422
1772656073077449200,2.23244921875,-0.000338634941726923,-0.0010353680700063705,0.0005476875230669975
1772656073087431400,2.242431396484375,-0.0006552848499268293,-0.00006411329377442598,0.0018039005808532238
1772656073097414400,2.252414306640625,-0.0006515602581202984,-0.00010321370791643858,-0.00005108490586280823
1772656073107396400,2.262396240234375,0.00048241368494927883,-0.00044116878416389227,0.0018133942503482103
1772656073117379300,2.27237939453125,-0.00002491287887096405,0.0005821918603032827,0.0020421487279236317
1772656073127361300,2.282361328125,-0.00021000253036618233,-0.003074328415095806,0.0004650247283279896
1772656073137344300,2.29234423828125,-0.000036292243748903275,-0.00010339193977415562,-0.0021304581314325333
1772656073147326500,2.302326416015625,-0.0008150006178766489,-0.002059217309579253,0.0007486855611205101
1772656073157308400,2.312308349609375,0.0031380504369735718,-0.0021569281816482544,-0.0005303914658725262
1772656073167291400,2.32229150390625,0.002477852860465646,0.0010913291480392218,-0.0006270641461014748
1772656073177273300,2.3322734375,-0.0002548780757933855,0.0007156493957154453,-0.000548915471881628
1772656073187256300,2.34225634765625,-0.0021435918752104044,-0.0016103554517030716,-0.0004620961844921112
1772656073197238500,2.352238525390625,-0.0005917483940720558,-0.0018789664609357715,0.0019367183558642864
1772656073207221200,2.36222119140625,-0.0004130501765757799,0.0018092453246936202,-0.00012563355267047882
1772656073217203500,2.372203369140625,0.0013126482954248786,0.0011483475100249052,-0.0011421246454119682
1772656073227186400,2.3821865234375,0.0016838929150253534,0.0017382376827299595,-0.0009559695608913898
1772656073237168400,2.39216845703125,0.004145181737840176,0.0007296846597455442,0.0027823704294860363
1772656073247151400,2.4021513671875,-0.001822163350880146,-0.0008756687166169286,0.0018430736381560564
1772656073257133600,2.412133544921875,0.0004163309931755066,0.00019950279965996742,-0.000782928429543972
1772656073267115300,2.422115234375,0.0003822424914687872,-0.000860435189679265,0.002255738480016589
1772656073277098500,2.432098388671875,-0.0007901997305452824,-0.0007586461724713445,0.00031708087772130966
1772656073287080200,2.442080078125,0.001367759658023715,-0.001177028869278729,-0.001684284768998623
1772656073297063400,2.4520634765625,-0.0014884164556860924,-0.0006927973590791225,-0.0006582317873835564
1772656073307045400,2.46204541015625,-0.0004380657337605953,0.0005447735311463475,0.0017926753498613834
1772656073317028400,2.4720283203125,-0.002067058114334941,-0.00237459409981966,-0.001273173838853836
1772656073327010300,2.48201025390625,-0.0017895565833896399,-0.000233412254601717,-0.0019967546686530113
1772656073336993500,2.49199365234375,-0.0017417778726667166,-0.00017671496607363224,0.002071607857942581
1772656073346975200,2.501975341796875,-0.0017308590468019247,0.0008541946299374104,0.0001788991503417492
1772656073356958500,2.51195849609375,0.0004911310970783234,0.0009139736066572368,0.0004900950007140636
1772656073366940400,2.5219404296875,-0.000005281995981931686,-0.000810689409263432,0.0008517522364854813
1772656073376922400,2.53192236328125,-0.0003618036862462759,0.000472773564979434,-0.0012507783249020576
1772656073386905300,2.5419052734375,-0.0011192064266651869,0.00009673519525676966,0.005358388647437096
1772656073396887300,2.55188720703125,0.00047600618563592434,-0.0008738902397453785,-0.0010652579367160797
1772656073406870300,2.561870361328125,-0.001438007690012455,-0.001420903718098998,-0.003207505214959383
1772656073416852500,2.5718525390625,-0.00023582344874739647,-0.00009323260746896267,-0.001137519720941782
1772656073426835200,2.581835205078125,0.00022889813408255577,0.0014545965241268277,-0.000605420209467411
1772656073436817400,2.5918173828125,0.004538888111710548,-0.0002193796681240201,0.0016895979642868042
1772656073446800400,2.60180029296875,-0.00111473654396832,0.0007161888643167913,-0.0002766139805316925
1772656073456782300,2.6117822265625,0.000605330802500248,0.0010536088375374675,-0.0008254935964941978
1772656073466765300,2.621765380859375,-0.00036619044840335846,-0.00036372547037899494,0.002038736129179597
1772656073476747300,2.631747314453125,-0.0006429401692003012,0.0005627153441309929,0.0016435727011412382
1772656073486730200,2.641730224609375,-0.0018277803901582956,0.0010972118470817804,-0.0021964390762150288
1772656073496712400,2.65171240234375,0.001085083931684494,-0.0010078216437250376,-0.0012426110915839672
1772656073506694400,2.6616943359375,-0.0006265295669436455,0.0005139086861163378,0.0008093547075986862
1772656073516677400,2.671677490234375,0.0005668862722814083,0.0007751143421046436,0.0013073666486889124
1772656073526659600,2.68165966796875,-0.001746069174259901,0.0011498210951685905,-0.0002183583565056324
1772656073536642300,2.691642333984375,-0.0016863043420016766,0.0028094332665205,-0.0012279893271625042
1772656073546624500,2.70162451171875,0.0006218575872480869,-0.0005338992923498154,-0.0009068120270967484
1772656073556607500,2.711607421875,0.0015691806329414248,-0.000518566113896668,-0.0006856182590126991
1772656073566589400,2.72158935546875,0.0008477303199470043,0.0008668103837408125,0.0016843287739902735
1772656073576572400,2.731572509765625,-0.00010455818846821785,0.0004355234559625387,-0.00023279525339603424
1772656073586554400,2.741554443359375,-0.0022593217436224222,0.001013429369777441,0.0021731043234467506
1772656073596537300,2.751537353515625,-0.0004016868770122528,0.0009032416273839772,-0.001245196908712387
1772656073606519600,2.76151953125,-0.00022218981757760048,0.002164781093597412,0.0008387267589569092
1772656073616501200,2.771501220703125,0.0009603654034435749,0.0011148633202537894,0.0007849065586924553
1772656073626484500,2.781484375,0.0008626275230199099,0.0007300365250557661,0.001507422188296914
1772656073636466400,2.791466552734375,-0.0008072266355156898,0.0016329098725691438,0.0002829506993293762
1772656073646449400,2.801449462890625,-0.0009473089594393969,-0.0017423804383724928,-0.0019343970343470573
1772656073656431400,2.811431396484375,0.0009794458746910095,0.00088423554552719,0.0012397067621350288
1772656073666414600,2.82141455078125,-0.0004203116986900568,-0.0021389848552644253,-0.0016631386242806911
1772656073676396300,2.831396240234375,-0.0004020542837679386,-0.0013536987826228142,0.00421510636806488
1772656073686379500,2.841379638671875,0.00021446752361953259,0.0016889628022909164,0.0007623177953064442
1772656073696361200,2.851361328125,0.002269140677526593,0.000836881110444665,0.0030315930489450693
1772656073706344400,2.861344482421875,0.0010712508810684085,-0.00042306038085371256,0.00086244847625494
1772656073716326400,2.871326416015625,0.0003922970499843359,0.00003678537905216217,-0.0017988961189985275
1772656073726309400,2.881309326171875,0.0009579525794833899,0.0020077908411622047,-0.0003354889340698719
1772656073736291300,2.891291259765625,0.00035033258609473705,0.0000984750222414732,0.0010245901066809893
1772656073746273300,2.901273193359375,0.0016994900070130825,-0.0005366888362914324,-0.00015199417248368263
1772656073756256300,2.91125634765625,0.00027312664315104485,0.000790950027294457,0.00026790890842676163
1772656073766238500,2.921238525390625,0.0008784630335867405,-0.001219736528582871,0.0016245234292000532
1772656073776221200,2.93122119140625,0.0007464163936674595,-0.0027512810193002224,-0.0014117574319243431
1772656073786203400,2.941203369140625,0.00121220329310745,0.0014570464845746756,0.0027414425276219845
1772656073796186400,2.951186279296875,-0.0002491611521691084,-0.0015996107831597328,0.0005732807330787182
1772656073806168300,2.961168212890625,0.00009891390800476074,-0.0013039999175816774,-0.0009636292234063148
1772656073816151300,2.9711513671875,0.0026081502437591553,-0.00006549444515258074,0.0005570361390709877
1772656073826133500,2.981133544921875,-0.0006747283041477203,-0.0013880202313885093,-0.0006741429679095745
1772656073836116200,2.9911162109375,0.003143768757581711,-0.0025496571324765682,0.001281137578189373
1772656073846098400,3.001098388671875,0.0013171066530048847,-0.001916091307066381,0.0005402462556958199
1772656073856080400,3.011080322265625,0.0015081714373081923,-0.00038602109998464584,-0.0011540581472218037
1772656073866067500,3.0210673828125,0.0009454453829675913,0.0000723089324310422,0.0016606368590146303
1772656073876049400,3.03104931640625,0.0006983641069382429,-0.00009363435674458742,0.0016083726659417152
1772656073886032600,3.04103271484375,-0.0013333612587302923,-0.0018814143259078264,0.0015069062355905771
1772656073896014300,3.051014404296875,-0.0005074318032711744,0.00013894808944314718,-0.0008076340891420841
1772656073905997600,3.06099755859375,0.0019298931583762169,0.0000044584739953279495,0.0005258107557892799
1772656073915979500,3.0709794921875,0.000969685846939683,-0.0013886974193155766,0.0011485230643302202
1772656073925962500,3.08096240234375,0.0012855369132012129,-0.0019690003246068954,-0.0005713463760912418
1772656073935944400,3.0909443359375,0.002369312336668372,0.0003769856411963701,-0.002849007025361061
1772656073945927700,3.100927734375,0.0011597046395763755,0.0002299791667610407,0.0017992742359638214
1772656073955909400,3.110909423828125,0.002463027834892273,-0.00039378111250698566,-0.0015422627329826355
1772656073965892600,3.120892578125,0.0006627310067415237,0.002743422519415617,0.0005208877846598625
1772656073975874300,3.130874267578125,0.0008801158983260393,-0.00021511863451451063,0.004093189258128405
1772656073985856500,3.1408564453125,0.0017427138518542051,0.0019119480857625604,0.000249981414526701
1772656073995839500,3.150839599609375,0.0013567061396315694,0.0012189691187813878,0.00028836075216531754
1772656074005821400,3.160821533203125,0.0009034362155944109,-0.0006865226896479726,0.000706477090716362
1772656074015804400,3.170804443359375,-0.001517175929620862,0.0016511348076164722,-0.0014628758653998375
1772656074025786400,3.180786376953125,-0.0010500571224838495,-0.0019169682636857033,-0.0003233090974390507
1772656074035769300,3.190769287109375,-0.001211338210850954,0.0020273318514227867,0.0012115242425352335
1772656074045751600,3.20075146484375,0.0006408903282135725,0.0006270418525673449,0.0006322865374386311
1772656074055734300,3.210734375,0.0008705758955329657,0.0017666949424892664,-0.000031152740120887756
1772656074065716500,3.220716552734375,0.0011113256914541125,0.00003430864308029413,-0.0016764537431299686
1772656074075699500,3.230699462890625,-0.000691703986376524,-0.0006508362712338567,-0.003455059602856636
1772656074085681400,3.240681396484375,-0.0005795848555862904,-0.0014697584556415677,0.00031730812042951584
1772656074095663600,3.25066357421875,-0.002085326239466667,-0.00037676177453249693,0.0009644306264817715
1772656074105646600,3.260646484375,0.00017409934662282467,-0.0028266035951673985,0.00030156970024108887
1772656074115628500,3.270628662109375,-0.00005268561653792858,-0.0010512560838833451,-0.0021593994460999966
1772656074125611500,3.280611572265625,0.00072895223274827,-0.00001315586268901825,-0.00018093734979629517
1772656074135593500,3.290593505859375,0.00034925970248878,0.0002242285991087556,-0.0038025942631065845
1772656074145576400,3.300576416015625,0.0011087931925430894,0.0008434135233983397,0.0014004232361912727
1772656074155558700,3.31055859375,-0.002553188009187579,-0.0004913822049275041,-0.0007229475304484367
1772656074165541400,3.320541259765625,0.00005111703649163246,0.0009126363438554108,-0.000941326841711998
1772656074175523600,3.330523681640625,0.000722851138561964,-0.001478463178500533,0.0027103715110570192
1772656074185506600,3.340506591796875,0.0014078160747885704,-0.001511220121756196,0.0004277764819562435
1772656074195488500,3.350488525390625,0.0028940553311258554,-0.0010021431371569633,0.00004866672679781914
1772656074205471500,3.360471435546875,-0.0007464857771992683,0.0008777823532000184,-0.0005630613304674625
1772656074215453700,3.37045361328125,0.000012337230145931244,-0.001611173851415515,0.0013565323315560818
1772656074225435400,3.380435302734375,0.0003713313490152359,-0.000338182901032269,-0.00190450856462121
1772656074235418600,3.390418701171875,-0.0011393660679459572,-0.0011485926806926727,0.0022495186422020197
1772656074245400300,3.400400390625,0.0019363187020644546,-0.00037174858152866364,0.0009485643822699785
1772656074255383600,3.410383544921875,-0.0003915934357792139,0.0006126694497652352,0.0010614627972245216
1772656074265365500,3.420365478515625,0.0018505218904465437,0.00026006693951785564,0.0030519096180796623
1772656074275348500,3.430348388671875,-0.0014919100794941187,-0.0015556934522464871,0.0004881564527750015
1772656074285330400,3.440330322265625,0.0004548609722405672,0.0008685821667313576,-0.001524394378066063
1772656074295313700,3.450313720703125,0.0012622143840417266,0.0011030201567336917,0.0007391395047307014
1772656074305295400,3.46029541015625,0.0002408921718597412,0.000029499991796910763,-0.001276607159525156
1772656074315278600,3.470278564453125,-0.0006854208186268806,0.0016870300751179457,-0.0008586025796830654
1772656074325260300,3.48026025390625,-0.002448433544486761,-0.0006458989810198545,-0.0005078641697764397
1772656074335242500,3.490242431640625,0.002186746336519718,0.0020217574201524258,-0.002024001907557249
1772656074345225500,3.5002255859375,0.0016727563925087452,0.00032159534748643637,-0.0010679271072149277
1772656074355207400,3.51020751953125,-0.0002263481728732586,-0.00041333783883601427,0.0018041455186903477
1772656074365190400,3.5201904296875,0.001033326960168779,0.0008202383178286254,-0.0012829909101128578
1772656074375172600,3.530172607421875,-0.00037116697058081627,-0.002876625396311283,0.00117160240188241
1772656074385155300,3.5401552734375,-0.0013354974798858166,0.0024137443397194147,0.0008440336678177118
1772656074395137500,3.550137451171875,-0.0005511401686817408,0.0005068449536338449,-0.0021441378630697727
1772656074405120500,3.56012060546875,0.002405501203611493,0.0016480094054713845,0.0019581951200962067
1772656074415102500,3.5701025390625,-0.0001335684210062027,0.0008952104253694415,0.0019451284315437078
1772656074425085400,3.58008544921875,-0.0005530163180083036,-0.000361801590770483,0.00031048012897372246
1772656074435067400,3.5900673828125,0.0006081522442400455,0.00016179459635168314,-0.0017747171223163605
1772656074445050400,3.60005029296875,0.002400193363428116,-0.0010179857490584254,0.001659961650148034
1772656074455032600,3.610032470703125,-0.00040688482113182545,-0.00017325906082987785,-0.0010776822455227375
1772656074465014500,3.6200146484375,0.00006982102058827877,-0.0012523719342425466,0.0002938457764685154
1772656074474997500,3.62999755859375,-0.0017638085409998894,-0.0004386785440146923,-0.0013969349674880505
1772656074484979700,3.639979736328125,0.0006748479790985584,-0.002136177383363247,0.0031237807124853134
1772656074494962400,3.64996240234375,0.0001579944510012865,0.00047690479550510645,-0.0013455860316753387
1772656074504944600,3.659944580078125,0.0021047652699053288,0.0008755799499340355,0.000614766962826252
1772656074514927600,3.669927734375,0.0009455936960875988,-0.0012180320918560028,-0.001887679100036621
1772656074524909600,3.67990966796875,0.0008236209396272898,-0.0006342672277241945,0.00028972141444683075
1772656074534892500,3.689892578125,0.0010744674364104867,-0.002050690818578005,0.0030593574047088623
1772656074544874500,3.69987451171875,-0.0018017464317381382,-0.000361714162863791,0.002912350930273533
1772656074554857500,3.709857421875,-0.0004230039194226265,-0.0006077809957787395,0.000753479078412056
1772656074564839700,3.719839599609375,-0.00041954172775149345,0.00018930307123810053,0.0007920949719846249
1772656074574821400,3.7298212890625,-0.0007343743927776814,0.0019349309150129557,0.0005782279185950756
1772656074584804600,3.7398046875,0.0010126592824235559,-0.0004837519954890013,-0.0006878389976918697
1772656074594786300,3.749786376953125,-0.0014883570838719606,-0.0010800266172736883,-0.0006720079109072685
1772656074604769500,3.75976953125,-0.0006768917664885521,0.0018324062693864107,-0.0015316763892769814
1772656074614751500,3.76975146484375,0.0008560339920222759,-0.0005168993957340717,0.0006464892067015171
1772656074624734500,3.779734375,0.001187065034173429,0.002756658010184765,0.0026438599452376366
1772656074634716400,3.78971630859375,0.000590435927733779,0.0009310570312663913,0.0010021578054875135
1772656074644699600,3.79969970703125,0.00044742412865161896,0.0008090842748060822,-0.0014594020321965218
1772656074654681300,3.809681396484375,-0.000047231558710336685,-0.0011354597518220544,-0.0014105653390288353
1772656074664664600,3.81966455078125,0.0014622481539845467,0.0000195532338693738,-0.0015402613207697868
1772656074674646500,3.829646484375,-0.000732245622202754,0.00002719927579164505,0.0009426218457520008
1772656074684629500,3.83962939453125,0.0012363629648461938,-0.001915576751343906,0.0007418193854391575
1772656074694611500,3.849611572265625,0.00012709759175777435,-0.000114971655420959,0.0003379187546670437
1772656074704593400,3.859593505859375,-0.000695020193234086,0.0004126005806028843,-0.000053033698350191116
1772656074714576400,3.869576416015625,0.0003765723668038845,0.0007322996389120817,-0.002009323798120022
1772656074724558600,3.87955859375,-0.000282293651252985,-0.002759903436526656,0.004438455682247877
1772656074734541300,3.889541259765625,-0.0015273911412805319,-0.0017768931575119495,-0.0009371098130941391
1772656074744523500,3.8995234375,0.0015922358725219965,0.0007794750272296369,0.001115121878683567
1772656074754506500,3.909506591796875,-0.0005119924899190664,-0.004034561105072498,0.00024788687005639076
1772656074764488400,3.919488525390625,-0.0011583419982343912,-0.0005727180978283286,0.0019818709697574377
1772656074774471400,3.929471435546875,-0.0005673505365848541,-0.0014725032960996032,0.0017550792545080185
1772656074784453600,3.93945361328125,0.0010688956826925278,-0.00044132734183222055,-0.0012212693691253662
1772656074794436400,3.949436279296875,-0.0003241908270865679,-0.0006409258348867297,0.0014304043725132942
1772656074804418600,3.95941845703125,-0.0014634912367910147,-0.0007226847810670733,-0.000351516529917717
1772656074814401500,3.969401611328125,0.0009695182088762522,0.0010842537740245461,0.0020368376281112432
1772656074824383500,3.979383544921875,0.00027629733085632324,0.00035880866926163435,-0.0016239434480667114
1772656074834363400,3.98936328125,-0.0028480065520852804,-0.0019452027045190334,0.0010054330341517925
1772656074844345600,3.999345703125,-0.001455972669646144,-0.002980107208713889,0.0014424577821046114
1772656074854328300,4.009328369140625,0.0008134194649755955,-0.0008729612454771996,0.001316914102062583
1772656074864310500,4.019310546875,0.00035349163226783276,0.0005664774216711521,0.003006956074386835
1772656074874290000,4.0292900390625,0.0009374208748340607,-0.0007144918199628592,0.00029639294371008873
1772656074884272000,4.039272216796875,0.0017941598780453205,-0.002093476476147771,-0.0011052289046347141
1772656074894254800,4.0492548828125,-0.0012663498055189848,0.0016414333367720246,-0.00040555140003561974
1772656074904237000,4.059237060546875,-0.00043997098691761494,-0.00014501519035547972,-0.0032737762667238712
1772656074914220000,4.069219970703125,0.0016618211520835757,0.0010464770020917058,-0.00044497381895780563
1772656074924202000,4.079201904296875,0.000053005525842309,-0.0019812709651887417,0.00004291720688343048
1772656074934185000,4.08918505859375,-0.0014529298059642315,-0.00026957038789987564,-0.0000698314979672432
1772656074944167000,4.0991669921875,0.0003159421030431986,0.0016287307953462005,0.0030050540808588266
1772656074954150000,4.10914990234375,-0.0010644064750522375,0.00044904497917741537,-0.0005096788518130779
1772656074964132000,4.119132080078125,-0.0015658796764910221,0.0007097685011103749,-0.000516070518642664
1772656074974114000,4.129114013671875,0.0012037466512992978,0.002608870156109333,0.00035647395998239517
1772656074984097000,4.139096923828125,0.0030794108752161264,0.001900735660456121,-0.002035044599324465
1772656074994079200,4.149079345703125,-0.0006846601609140635,-0.0021056393161416054,-0.0007592346519231796
1772656075004062000,4.15906201171875,-0.0014926630537956953,-0.0006582114147022367,-0.003373926505446434
1772656075014044200,4.169044189453125,-0.0005699649918824434,0.0002471653278917074,0.000869004288688302
1772656075024027100,4.179027099609375,0.001127267605625093,0.00025675271172076464,0.0017086989246308804
1772656075034009000,4.189009033203125,0.003309426596388221,-0.0003157118335366249,0.0027901730500161648
1772656075043992000,4.198991943359375,-0.002474160399287939,0.0007080073119141161,0.00023087533190846443
1772656075053974000,4.20897412109375,-0.000820930115878582,0.0019246082520112395,0.0008745039813220501
1772656075063957000,4.21895703125,0.0016595381312072277,0.00047504971735179424,-0.0011212690733373165
1772656075073939200,4.228939208984375,-0.00032544927671551704,-0.0014375313185155392,-0.0008267909288406372
1772656075083921000,4.2389208984375,0.0015843035653233528,-0.0014649617951363325,0.0003516576252877712
1772656075093904100,4.248904052734375,0.00010313745588064194,-0.00029160117264837027,-0.0022664284333586693
1772656075103886000,4.258885986328125,0.0008661332540214062,0.0018293403554707766,0.0004175053909420967
1772656075113869000,4.268869140625,-0.002864330541342497,0.0001983806723728776,0.0016830891836434603
1772656075123851000,4.27885107421875,-0.0012483242899179459,0.0007280833669938147,0.00038213515654206276
1772656075133834200,4.288834228515625,-0.00025536026805639267,-0.0020884384866803885,-0.0011936360970139503
1772656075143816000,4.29881591796875,0.0011981931747868657,-0.001637565204873681,-0.0011182683520019054
1772656075153799200,4.308799072265625,-0.000739190960302949,-0.002035011537373066,0.0009475918486714363
1772656075163780900,4.31878076171875,-0.00152748660184443,-0.0029884232208132744,-0.00042047398164868355
1772656075173764000,4.32876416015625,-0.0005307956598699093,-0.000768130412325263,0.0006197630427777767
1772656075183746000,4.33874609375,-0.0020288238301873207,0.000927237793803215,0.0010346835479140282
1772656075193729000,4.34872900390625,0.00040493812412023544,-0.002096060896292329,0.0018754636403173208
1772656075203711000,4.3587109375,0.00030373805202543736,-0.0015064370818436146,0.0023031674791127443
1772656075213693000,4.36869287109375,-0.0010263370350003242,-0.0006404133746400476,0.0009690083097666502
1772656075223676000,4.378676025390625,0.0003196245525032282,0.0007486914400942624,-0.00014152983203530312
1772656075233658000,4.388658203125,0.000388863030821085,0.001580587588250637,-0.0018815342336893082
1772656075243643100,4.39864306640625,0.0020618608687072992,0.0003699145745486021,0.001332901418209076
1772656075253626000,4.408626220703125,-0.0010671562049537897,-0.0008693509735167027,0.0011960158590227365
1772656075263608000,4.418608154296875,-0.00016887206584215164,-0.0026411518920212984,0.002696440787985921
1772656075273591000,4.428591064453125,0.0008868154836818576,-0.0001420846674591303,-0.0008062138222157955
1772656075283573000,4.438572998046875,0.00046923174522817135,-0.00009574566502124071,-0.0008123391307890415
1772656075293556000,4.448555908203125,-0.0003674530889838934,0.002845670562237501,0.000834417063742876
1772656075303538200,4.4585380859375,0.0004123204853385687,-0.0011330920970067382,0.0019422918558120728
1772656075313519900,4.468519775390625,-0.0025540401693433523,-0.0016588520957157016,0.0019567504059523344
1772656075323503000,4.478503173828125,-0.0008687919471412897,0.00017739750910550356,0.000574569683521986
1772656075333485000,4.488485107421875,0.000995066948235035,0.0022692433558404446,-0.00002781720831990242
1772656075343468000,4.498468017578125,0.00008240179158747196,0.0019166406709700823,0.00004009343683719635
1772656075353450000,4.508449951171875,0.0016003625933080912,0.0019837634172290564,-0.0014927699230611324
1772656075363433200,4.51843310546875,0.0017321890918537974,0.0023946890141814947,-0.00016385270282626152
1772656075373415000,4.528414794921875,-0.0003812722861766815,0.0004541880916804075,0.0007587810978293419
1772656075383398100,4.538398193359375,0.0019987947307527065,-0.0005977604305371642,0.0004349406808614731
1772656075393379800,4.5483798828125,-0.0007791246753185987,0.0027477219700813293,0.0019535585306584835
1772656075403363000,4.558363037109375,-0.000976464943960309,0.0006930931122042239,0.0015727265272289515
1772656075413345000,4.568344970703125,0.0011154224630445242,0.0014154639793559909,0.0018880534917116165
1772656075423328000,4.578327880859375,-0.00018153688870370388,0.0015688620042055845,-0.0017724614590406418
1772656075433310000,4.58831005859375,-0.00022707879543304443,-0.0016829499509185553,0.001419656677171588
1772656075443292000,4.5982919921875,-0.00007740920409560204,-0.0007849321700632572,0.0006028651259839535
1772656075453275000,4.60827490234375,-0.0018415397498756647,-0.0020413685124367476,-0.0006344704888761044
1772656075463257000,4.618257080078125,-0.001506247790530324,-0.0005318887997418642,-0.0005622985772788525
1772656075473239800,4.62823974609375,0.001173702534288168,-0.00018322234973311424,-0.0013099536299705505
1772656075483222000,4.638221923828125,0.0031950417906045914,-0.0004972090246155858,0.0011846295092254877
1772656075493205000,4.648205078125,-0.0012295579072088003,-0.0015171426348388195,0.003423836547881365
1772656075503187000,4.65818701171875,0.000298031372949481,0.00008847715798765421,0.0005585416220128536
1772656075513170000,4.668169921875,0.0006300306413322687,-0.00019899336621165276,-0.0022003105841577053
1772656075523152100,4.678152099609375,-0.00026665558107197285,0.000014059478417038918,-0.001178189180791378
1772656075533134800,4.688134765625,0.00007983576506376266,-0.00018222094513475895,0.00028159981593489647
1772656075543117000,4.698116943359375,0.0010747927008196712,-0.001372387632727623,-0.0013967244885861874
1772656075553099000,4.70809912109375,-0.0016444914508610964,-0.0026864223182201385,-0.001324562355875969
1772656075563082000,4.71808203125,0.0009467643685638905,-0.0010200821561738849,-0.000014287419617176056
1772656075573064200,4.728064208984375,0.0006987310480326414,0.0017630687216296792,0.001068416517227888
1772656075583047000,4.738046875,0.0005272235721349716,-0.0016961111687123775,-0.00001522386446595192
1772656075593029000,4.748029052734375,-0.0018691441509872675,0.0022553149610757828,-0.0017008227296173573
1772656075603012000,4.75801220703125,-0.0003002758603543043,0.0007586184656247497,0.002928017405793071
1772656075612994000,4.767994140625,0.0003013960085809231,0.00044346810318529606,0.00007163174450397491
1772656075622977000,4.77797705078125,-0.0003063371405005455,-0.00025294849183410406,-0.0028083105571568012
1772656075632959200,4.787959228515625,-0.0004250102210789919,-0.00010885228402912617,0.00016097072511911392
1772656075642942000,4.79794189453125,0.0015222931979224086,-0.000586889567784965,-0.0004560835659503937
1772656075652924200,4.807924072265625,0.00009900215081870556,0.0021328767761588097,0.0004834425635635853
1772656075662907100,4.8179072265625,-0.0027686897665262222,0.0019901313353329897,-0.0004265592433512211
1772656075672889000,4.82788916015625,0.0010363053297623992,-0.00013168668374419212,0.00038595497608184814
1772656075682871000,4.83787109375,-0.0012428280897438526,-0.0006113220006227493,0.003006238956004381
1772656075692854000,4.84785400390625,0.0004608042072504759,0.0010376116260886192,-0.0018310816958546638
1772656075702836000,4.8578359375,-0.001174642937257886,0.002973996102809906,-0.0004528956487774849
1772656075712819200,4.867819091796875,-0.00020728027448058128,0.001250478089787066,0.0011980056297034025
1772656075722801000,4.87780078125,0.0005328122060745955,-0.0006132021080702543,0.0004826807416975498
1772656075732784000,4.8877841796875,-0.0007930253632366657,0.0002695438452064991,-0.0020250394009053707
1772656075742765800,4.897765869140625,0.00005545793101191521,-0.0009632334113121033,0.0030014105141162872
1772656075752749000,4.9077490234375,-0.0013828505761921406,0.0010550793958827853,0.0007700193673372269
1772656075762731000,4.91773095703125,0.0008920215768739581,-0.0006789047038182616,0.000417949166148901
1772656075772714000,4.9277138671875,-0.00022674351930618286,-0.000019121915102005005,-0.0011521410197019577
1772656075782696000,4.937696044921875,-0.000058964360505342484,-0.0019416578579694033,0.0005741198547184467
1772656075792679200,4.94767919921875,0.000359279103577137,-0.00037698308005928993,0.003016376867890358
1772656075802660900,4.957660888671875,-0.0008703023195266724,-0.0021519798319786787,0.0016421857289969921
1772656075812643000,4.96764306640625,-0.001462884247303009,-0.0012983852066099644,-0.000009004957973957062
1772656075822626000,4.9776259765625,-0.0008543520234525204,-0.0016627057921141386,0.00015531200915575027
1772656075832608000,4.98760791015625,-0.0024718099739402533,-0.0019575823098421097,0.0005091293714940548
1772656075842591000,4.997591064453125,-0.0036891407798975706,0.001992418197914958,0.0015581483021378517
1772656075852573000,5.007572998046875,-0.0005361975636333227,-0.0018423631554469466,-0.0011049029417335987
1772656075862556000,5.017555908203125,-0.0000997055321931839,-0.00023248232901096344,0.00021469313651323318
1772656075872538400,5.027538330078125,-0.0009810698684304953,0.00016506738029420376,0.0016308084595948458
1772656075882521000,5.03752099609375,-0.0018908055499196053,0.0009397809626534581,0.0025133800227195024
1772656075892503300,5.04750341796875,0.0012773156631737947,0.0002247196389362216,0.00029447395354509354
1772656075902486300,5.057486328125,-0.0001919502392411232,0.0007054202142171562,-0.00026212679222226143
1772656075912468200,5.06746826171875,-0.0008726331871002913,0.001256678020581603,-0.00017070677131414413
1772656075922450400,5.077450439453125,-0.002369862049818039,-0.00015240046195685863,0.0019571587909013033
1772656075932433400,5.087433349609375,0.000040725572034716606,-0.001744719804264605,-0.0008168262429535389
1772656075942415400,5.097415283203125,0.0017739107133820653,0.00046330702025443316,-0.0011039148084819317
1772656075952398300,5.1073984375,0.0002157101407647133,-0.001819509081542492,-0.002033587545156479
1772656075962380300,5.11738037109375,0.000705998158082366,0.0003954418934881687,0.002474079141393304
1772656075972363300,5.12736328125,0.0004407630767673254,0.001041484996676445,-0.0011743763461709023
1772656075982345200,5.13734521484375,-0.00045885262079536915,0.0001290859654545784,0.001929537858814001
1772656075992328200,5.147328125,-0.0006280753295868635,0.0015774333151057363,0.001800805563107133
1772656076002310400,5.157310302734375,0.0008126948960125446,0.0005715573788620532,-0.0018783514387905598
1772656076012293400,5.16729345703125,-0.00015085609629750252,0.0009352915221825242,0.0026897455099970102
1772656076022275300,5.177275390625,-0.001204668777063489,0.0006039942963980138,-0.00044852355495095253
1772656076032258300,5.18725830078125,-0.00009944546036422253,0.0011614912655204535,0.0019283401779830456
1772656076042240300,5.197240234375,0.0002757939510047436,0.001404371578246355,-0.002714082133024931
1772656076052222200,5.20722216796875,-0.002107298467308283,-0.0011453507468104362,0.00036927079781889915
1772656076062205400,5.217205322265625,-0.0028199604712426662,-0.00009846221655607224,0.0006891167722642422
1772656076072187100,5.227187255859375,-0.0004753158427774906,-0.0005428798031061888,0.0028307975735515356
1772656076082170400,5.23717041015625,-0.0005687926895916462,0.0015841869171708822,0.0008235732093453407
1772656076092152300,5.24715234375,-0.0001385994255542755,-0.0008884315611794591,0.0018218769691884518
1772656076102135300,5.25713525390625,-0.0008613814134150743,0.0005392891471274197,0.0008602095767855644
1772656076112117200,5.2671171875,0.0008644077461212873,-0.0021314413752406836,0.0017866038251668215
1772656076122100500,5.2771005859375,0.000014060409739613533,0.0008094874792732298,0.00006700074300169945
1772656076132082200,5.287082275390625,-0.0025827258359640837,-0.0005788871785625815,-0.0022452576085925102
1772656076142065400,5.2970654296875,-0.0008338280022144318,-0.0028753308579325676,-0.00011313054710626602
1772656076152047000,5.307047119140625,0.0007326181512326002,-0.002989900764077902,-0.0003866730257868767
1772656076162030300,5.3170302734375,-0.0006349149625748396,-0.000977882882580161,0.00048018572852015495
1772656076172012300,5.32701220703125,0.0009737528162077069,-0.0034980932250618935,0.0004271678626537323
1772656076181994200,5.336994140625,-0.0004097593482583761,-0.0032560117542743683,0.0013627365697175264
1772656076191977200,5.346977294921875,-0.0007206480950117111,0.0019824497867375612,0.0006898511201143265
1772656076201959400,5.35695947265625,-0.003997401334345341,-0.0021851309575140476,0.0003609508275985718
1772656076211942100,5.366942138671875,-0.0010621699038892984,-0.0014678854495286942,-0.0007117828354239464
1772656076221924400,5.37692431640625,0.0005431836470961571,-0.001095042796805501,-0.001646019984036684
1772656076231907300,5.3869072265625,0.0012102442560717463,0.0008958028629422188,-0.001147713977843523
1772656076241889300,5.39688916015625,-0.0007381243631243706,0.00021030521020293236,-0.0010129581205546856
1772656076251872300,5.406872314453125,-0.00004928605630993843,-0.00016268249601125717,-0.0011796243488788605
1772656076261854200,5.416854248046875,0.0011770996497943997,-0.0005757387261837721,-0.0020227814093232155
1772656076271837200,5.426837158203125,-0.0008448134176433086,0.0027577492874115705,0.002178165828809142
1772656076281819400,5.4368193359375,-0.002382256556302309,0.0005409340374171734,0.0004010382108390331
1772656076291801000,5.446801025390625,0.0011021392419934273,0.001335951965302229,0.0012221320066601038
1772656076301784300,5.456784423828125,0.00008907285518944263,0.0014826921978965402,0.0006162626668810844
1772656076311766300,5.466766357421875,-0.0003790666814893484,-0.0014546506572514772,-0.001516217365860939
1772656076321749200,5.476749267578125,-0.0007391260005533695,0.000489190686494112,0.0004041879437863827
1772656076331731200,5.486731201171875,-0.0013163539115339518,0.00031005905475467443,0.0005902992561459541
1772656076341714200,5.496714111328125,-0.0017981196288019419,0.0002796989865601063,-0.00017402786761522293
1772656076351696100,5.506696044921875,-0.0003976149018853903,0.00240158149972558,0.0007068556733429432
1772656076361679400,5.516679443359375,0.0009355635847896338,0.0009411039645783603,-0.0017586988396942616
1772656076371661300,5.526661376953125,0.0013160431990399957,-0.00025910174008458853,-0.0013068248517811298
1772656076381644300,5.536644287109375,0.0010768913198262453,0.0012626285897567868,-0.00004635099321603775
1772656076391626200,5.546626220703125,-0.00027671526186168194,0.0005858384538441896,0.0007519223727285862
1772656076401609200,5.556609130859375,-0.000007736030966043472,-0.0009758392116054893,0.00040917331352829933
1772656076411591200,5.566591064453125,0.0010525581892579794,0.00018009520135819912,0.000399148091673851
1772656076421573000,5.576572998046875,0.00010580453090369701,-0.0011400338262319565,-0.0013580056838691235
1772656076431556400,5.586556396484375,-0.0009503948967903852,-0.0015484527684748173,-0.0001625274308025837
1772656076441538300,5.596538330078125,-0.0011360172647982836,-0.0012584344949573278,-0.0017814631573855877
1772656076451521300,5.606521240234375,-0.000002719927579164505,-0.0004444645019248128,-0.0011709141544997692
1772656076461503200,5.616503173828125,-0.0016759838908910751,-0.0004977278877049685,-0.0026404461823403835
1772656076471486200,5.626486328125,0.0011532295029610395,-0.000140498043037951,-0.0016024918295443058
1772656076481468200,5.63646826171875,-0.0010015340521931648,-0.0022284165024757385,0.00040579820051789284
1772656076491451100,5.646451171875,0.00005727051757276058,-0.0007610009051859379,0.0017459150403738022
1772656076501433300,5.656433349609375,-0.0013294373638927937,0.00012023909948766232,0.0004151333123445511
1772656076511416300,5.666416259765625,0.00013991049490869045,-0.0006002518348395824,0.0008438627701252699
1772656076521398300,5.676398193359375,0.000403563492000103,-0.0020823010709136724,-0.0016744225285947323
1772656076531380200,5.686380126953125,-0.0002801208756864071,-0.0015886136097833514,0.001042020507156849
1772656076541363200,5.69636328125,-0.0002713324502110481,-0.0014040564419701695,-0.0002818368375301361
1772656076551345400,5.706345458984375,-0.00023202411830425262,0.0012516939314082265,-0.00098721357062459
1772656076561328000,5.716328125,-0.001105807488784194,0.00025620427913963795,0.0013776733539998531
1772656076571310300,5.726310302734375,-0.00015479838475584984,0.00025394174735993147,-0.0007157535292208195
1772656076581293300,5.736293212890625,-0.0019380510784685612,0.00038763240445405245,-0.003044954501092434
1772656076591275300,5.746275146484375,0.0019252244383096695,-0.0005111129721626639,0.0008597609121352434
1772656076601258200,5.75625830078125,-0.0005850712768733501,-0.0005728983087465167,0.00234260899014771
1772656076611240200,5.766240234375,-0.000884312903508544,0.0009208887349814177,0.0014383750967681408
1772656076621223200,5.77622314453125,-0.000034498050808906555,0.0007272768998518586,0.0014354456216096878
1772656076631205400,5.786205322265625,-0.0010806946083903313,0.00007546413689851761,0.001252216286957264
1772656076641188000,5.79618798828125,0.0014285356737673283,0.0004035655874758959,0.0029305401258170605
1772656076651170300,5.80617041015625,-0.0008321225177496672,0.002516109962016344,-0.002514922060072422
1772656076661152300,5.81615234375,0.002472860272973776,0.000962688063737005,-0.0010461886413395405
1772656076671135200,5.82613525390625,-0.00048431195318698883,0.0006033398094587028,-0.00146939093247056
1772656076681117200,5.8361171875,0.0002541826106607914,0.0012307805009186268,-0.00035911891609430313
1772656076691100400,5.846100341796875,-0.0014156580436974764,0.0017181989969685674,-0.00277707539498806
1772656076701082000,5.85608203125,0.00008822884410619736,0.00041777745354920626,-0.0010923594236373901
1772656076711065300,5.8660654296875,0.0005278608296066523,0.001722041517496109,-0.0010214992798864841
1772656076721047000,5.876047119140625,0.00008417805656790733,-0.00013205118011683226,-0.000032401178032159805
1772656076731030300,5.8860302734375,0.000030067749321460724,-0.0010509522398933768,0.002061320235952735
1772656076741012200,5.89601220703125,0.001586951781064272,0.0014867739519104362,0.0004343949258327484
1772656076750995200,5.9059951171875,0.000606536166742444,-0.003158159088343382,-0.002314792014658451
1772656076760977200,5.91597705078125,0.00006351759657263756,0.0003694642800837755,-0.00029212096706032753
1772656076770959400,5.92595947265625,0.0004677076358348131,-0.001857845694757998,-0.0010513653978705406
1772656076780942000,5.935942138671875,0.002609688090160489,-0.0020988616161048412,0.0011641185265034437
1772656076790924300,5.94592431640625,-0.0023421079386025667,0.0015501807210966945,-0.0002342602238059044
1772656076800907300,5.9559072265625,-0.0007641850970685482,-0.001494877738878131,0.004463822115212679
1772656076810889200,5.96588916015625,-0.0010552739258855581,0.00046232796739786863,0.0008155812975019217
1772656076820872200,5.9758720703125,0.00022916868329048157,-0.00260936189442873,0.0015847021713852882
1772656076830854100,5.985854248046875,-0.0009649062994867563,-0.0012580055044963956,-0.0015749316662549973
1772656076840837000,5.995837158203125,-0.0011734317522495985,0.0009484233451075852,0.0007047341205179691
1772656076850819300,6.0058193359375,-0.0012885581236332655,-0.00012651097495108843,-0.0013714926317334175
1772656076860802000,6.015802001953125,-0.004910723306238651,-0.0030914079397916794,-0.0002979724667966366
1772656076870784300,6.0257841796875,-0.0014163623563945293,-0.0010662100976333022,-0.0001961914822459221
1772656076880767200,6.035767333984375,-0.0023988024331629276,0.0006741655524820089,-0.000734416302293539
1772656076890749200,6.045749267578125,0.00032697501592338085,-0.0001826451625674963,0.001305097946897149
1772656076900731100,6.055731201171875,-0.0008448157459497452,-0.0006151426350697875,0.00020334823057055473
1772656076910714000,6.065714111328125,-0.0012461412698030472,-0.0019004888599738479,0.0024943831376731396
1772656076920696300,6.0756962890625,-0.0013577276840806007,0.002940072678029537,0.0011582751758396626
1772656076930679000,6.085678955078125,0.000790025107562542,0.0005082844290882349,0.0019490497652441263
1772656076940661200,6.0956611328125,0.0004973437171429396,0.0016947226831689477,0.001403634436428547
1772656076950644200,6.105644287109375,0.0001699852291494608,-0.0007469072006642818,-0.0018049119971692562
1772656076960626200,6.115626220703125,-0.000802334863692522,0.0015292966272681952,0.0005716932937502861
1772656076970609200,6.125609130859375,-0.0012613320723176003,0.0006064365152269602,-0.0003389492630958557
1772656076980591400,6.13559130859375,-0.0012586689554154873,0.0007454535225406289,-0.001047350000590086
1772656076990574000,6.145573974609375,0.0006401126738637686,8.282950147986412e-7,0.0017673834227025509
1772656077000556300,6.155556396484375,0.001718692947179079,-0.0014005269622430205,0.0013625831343233585
1772656077010539300,6.165539306640625,0.0004226062446832657,-0.0005808400455862284,0.00044874707236886024
1772656077020521200,6.175521240234375,-0.00010922690853476524,0.0005850919405929744,-0.0020873812027275562
1772656077030503200,6.185503173828125,-0.0019754378590732813,-0.00014870462473481894,-0.0009796260856091976
1772656077040486100,6.195486083984375,-0.00198236177675426,0.001448659342713654,-0.0007316861301660538
1772656077050468000,6.205468017578125,0.001330602797679603,0.0006008498603478074,0.00304954731836915
1772656077060451300,6.215451416015625,0.00010608136653900146,0.0009366744197905064,-0.0018573268316686153
1772656077070433000,6.22543310546875,-0.0015644156374037266,-0.001110766432248056,-0.00008895294740796089
1772656077080416300,6.235416259765625,-0.002853651996701956,-0.0006569636752828956,0.002628536429256201
1772656077090398000,6.24539794921875,-0.002694189315661788,0.00032922253012657166,-0.001450269017368555
1772656077100381200,6.255381103515625,-0.00032583996653556824,-0.0011054222704842687,0.0019236898515373468
1772656077110363100,6.265363037109375,-0.00038591958582401276,0.001559064956381917,0.00023123621940612793
1772656077120346000,6.27534619140625,-0.0002817900385707617,-0.001773348543792963,-0.001622057519853115
1772656077130328000,6.285328125,-0.0007810988463461399,0.00013524095993489027,0.0019897385500371456
1772656077140310300,6.295310302734375,0.0020013717003166676,-0.0020831723231822252,0.0010728121269494295
1772656077150293000,6.30529296875,0.0008735859300941229,0.0009194864542223513,-0.0009731529280543327
1772656077160275200,6.315275146484375,-0.0002049943432211876,-0.0015548564260825515,-0.0021044635213911533
1772656077170258200,6.325258056640625,0.0001626207958906889,-0.00007939315401017666,0.0005474989302456379
1772656077180240100,6.335240234375,0.00010216701775789261,-0.0009686225093901157,-0.0011135144159197807
1772656077190223000,6.34522314453125,-0.0016479426994919777,-0.0009259372018277645,0.001414318336173892
1772656077200205000,6.355205078125,0.0011803341330960393,-0.0025067897513508797,0.0006776880472898483
1772656077210188000,6.36518798828125,-0.00047417706809937954,0.0019376908894628286,0.00040878448635339737
1772656077220170200,6.375170166015625,-0.0005229129455983639,-0.0005576909752562642,-0.00034382473677396774
1772656077230153000,6.385153076171875,-0.0029650828801095486,-0.0021674619056284428,0.0010702076833695173
1772656077240135200,6.39513525390625,0.002257109619677067,0.00007199007086455822,-0.0014286362566053867
1772656077250118100,6.4051181640625,-0.00039972481317818165,0.0014487362932413816,0.0007663946598768234
1772656077260100000,6.41510009765625,0.000208541052415967,-0.0010833973065018654,-0.0017617442645132542
1772656077270082300,6.425082275390625,0.0007509789429605007,-0.00022299936972558498,0.00247299880720675
1772656077280065300,6.435065185546875,-0.0019390799570828676,0.003073727712035179,-0.0012956401333212852
1772656077290047200,6.445047119140625,-0.00011273147538304329,0.00031972932629287243,-0.0006179744377732277
1772656077300030200,6.4550302734375,0.000015100231394171715,-0.0009250320727005601,-0.0019639357924461365
1772656077310012200,6.46501220703125,0.000489123398438096,-0.0005840398371219635,-0.000872055534273386
1772656077319995100,6.4749951171875,0.000363954808562994,0.0005765658570453525,-0.0010888371616601944
1772656077329977300,6.484977294921875,0.001103847986087203,-0.000781309325248003,-0.0022453851997852325
1772656077339960000,6.4949599609375,-0.0005995098035782576,-0.00018582656048238277,0.0006707762368023396
1772656077349942300,6.5049423828125,0.0009125695796683431,0.0015158100286498666,-0.0002808244898915291
1772656077359925200,6.51492529296875,-0.001816638046875596,-0.000678901094943285,-0.0031439890153706074
1772656077369907200,6.5249072265625,0.0011405409313738346,-0.0015740236267447472,-0.001326883677393198
1772656077379890200,6.53489013671875,-0.0004032934084534645,0.001038803718984127,0.0005975165404379368
1772656077389872000,6.5448720703125,-0.0003990235272794962,0.0016722107538953424,0.0021415655501186848
1772656077399854000,6.55485400390625,0.001077166642062366,0.0009100140887312591,0.000874966150149703
1772656077409837300,6.56483740234375,0.0001420639455318451,-0.00006433168891817331,-0.0006943615153431892
1772656077419819000,6.574819091796875,0.0021223905496299267,-0.0027783589903265238,0.003281205426901579
1772656077429802200,6.58480224609375,-0.0003919599112123251,-0.0008623608155176044,0.00039811572059988976
1772656077439784200,6.5947841796875,0.0011699841124936938,-0.002756400965154171,0.0013145091943442822
1772656077449767200,6.60476708984375,0.0015535299899056554,-0.0008476420771330595,0.00019297143444418907
1772656077459749000,6.6147490234375,-0.0005522314459085464,-0.003099344903603196,-0.000610770657658577
1772656077469732400,6.624732421875,-0.0006220757495611906,0.0014732356648892164,-0.0016765804030001163
1772656077479714000,6.634714111328125,0.0005060392431914806,-0.00010388833470642567,0.0005892370827496052
1772656077489697300,6.644697265625,0.000781115610152483,-0.00010932749137282372,-0.003041388001292944
1772656077499679000,6.654678955078125,-0.002720941323786974,-0.0008094725199043751,-0.00045093102380633354
1772656077509661200,6.6646611328125,-0.0013935936149209738,0.0019528211560100317,0.00045247888192534447
1772656077519644200,6.67464404296875,-0.0009765427093952894,0.0009053999092429876,0.0017180130816996098
1772656077529626000,6.684626220703125,-0.001937928143888712,-0.0016301489667966962,-0.00009333761408925056
1772656077539609000,6.694609130859375,0.0010133868781849742,-0.0010956524638459086,-0.0021823211573064327
1772656077549591000,6.704591064453125,-0.0006917333230376244,-0.0014145070454105735,-0.0022303410805761814
1772656077559574000,6.714573974609375,0.0005373156163841486,-0.0001052970765158534,-0.0016295318491756916
1772656077569556200,6.72455615234375,-0.0009601477067917585,-0.00041407928802073,0.0019650228787213564
1772656077579539000,6.7345390625,-0.0022818746510893106,-0.000041236868128180504,0.00010400591418147087
1772656077589521200,6.744521240234375,0.0011268978705629706,-0.0019199035596102476,-0.00006538303568959236
1772656077599504100,6.754504150390625,-0.000377788208425045,-0.0010511802975088358,0.00003688270226120949
1772656077609486000,6.764486083984375,-0.00012882426381111145,-0.0004911996657028794,0.0013808701187372208
1772656077619469000,6.774468994140625,-0.00036264979280531406,-0.00048321031499654055,0.0019196274224668741
1772656077629451300,6.784451171875,-0.0007798357401043177,-0.0005462189437821507,0.0007518362253904343
1772656077639433200,6.79443310546875,-0.0018533561378717422,0.0006751068285666406,-0.0008721593767404556
1772656077649416200,6.804416259765625,-0.0008662657346576452,0.0008680862374603748,0.0009414821397513151
1772656077659398100,6.814398193359375,-0.0009970269165933132,0.001431078533641994,-0.0004327087663114071
1772656077669381000,6.824381103515625,-0.0003945189528167248,-0.0009761488763615489,0.00039818091318011284
1772656077679363300,6.83436328125,0.0005234726704657078,0.001253982074558735,0.0011028533335775137
1772656077689346000,6.844345947265625,-0.0006200582720339298,-0.00024094001855701208,0.0003002495504915714
1772656077699328300,6.854328369140625,0.0010550699662417173,-0.001293687615543604,0.00010796962305903435
1772656077709311200,6.864311279296875,0.000998924602754414,-0.002721024677157402,-0.0005868799053132534
1772656077719293200,6.874293212890625,-0.000029055634513497353,0.000027623726055026054,-0.0010103224776685238
1772656077729276200,6.884276123046875,0.00006557581946253777,-0.0005670563550665975,-0.00009214691817760468
1772656077739258400,6.89425830078125,0.002262151101604104,0.0007887589163146913,0.0009454204700887203
1772656077749241000,6.904240966796875,-0.0029458985663950443,-0.0009777158265933394,-0.00015904521569609642
1772656077759223300,6.914223388671875,-0.0025924970395863056,0.000880638079252094,0.0019224812276661396
1772656077769205000,6.924205078125,0.0006797127425670624,-0.0006539272144436836,0.0038122800178825855
1772656077779188200,6.934188232421875,-0.00019380426965653896,-0.00018947187345474958,-0.0021233735606074333
1772656077789170200,6.944170166015625,-0.00004495028406381607,-0.0003628582926467061,0.0019125612452626228
1772656077799153200,6.954153076171875,-7.417984306812286e-7,-0.0006787091260775924,0.0006116069853305817
1772656077809135000,6.964135009765625,0.0011649839580059052,0.0003240344813093543,-0.0013567730784416199
1772656077819118300,6.974118408203125,0.001595350680872798,-0.0017345891101285815,-0.002016704063862562
1772656077829100000,6.98410009765625,-0.0006186277605593204,-0.00029211933724582195,-0.001561462413519621
1772656077839083300,6.994083251953125,0.0012269429862499237,-0.0012439332203939557,0.0001887669786810875
1772656077849065000,7.00406494140625,-0.0006182182114571333,-0.0007267948240041733,0.0013880846090614796
1772656077859048200,7.014048095703125,0.001423361012712121,-0.00027858465909957886,0.0014599899295717478
1772656077869030100,7.024030029296875,-0.00014451052993535995,-0.0011106968158856034,-0.0011784080415964127
1772656077879012600,7.0340126953125,0.0006357955280691385,-0.0002725999802350998,0.001285814680159092
1772656077888994600,7.04399462890625,0.0026892696041613817,0.0005920297116972506,0.0001547783613204956
1772656077898976500,7.0539765625,0.0010381096508353949,0.0014423769898712635,-0.0018002483993768692
1772656077908959700,7.063959716796875,0.001672944170422852,-0.002031151670962572,-0.002091504167765379
1772656077918941400,7.07394140625,0.0004628037568181753,0.0009646381950005889,-0.00012129778042435646
1772656077928924700,7.083924560546875,-0.0008327269461005926,-0.00015602167695760727,-0.0014119665138423443
1772656077938906400,7.09390625,-0.0017885356210172176,-0.0014039790257811546,-0.003142755012959242
1772656077948889600,7.1038896484375,-0.001126974355429411,0.001957544358447194,-0.0015857084654271603
1772656077958871600,7.11387158203125,0.000606743386015296,0.0004818867892026901,-0.001114328857511282
1772656077968854500,7.1238544921875,-0.003366630058735609,-0.0019667544402182102,0.0003180927596986294
1772656077978836500,7.13383642578125,0.000024905428290367126,-0.0002442218828946352,0.002828654833137989
1772656077988819700,7.14381982421875,-0.001700356137007475,-0.0020975996740162373,-0.0011533224023878574
1772656077998801400,7.153801513671875,-0.0002910112962126732,0.0005658277659676969,-0.00021429173648357391
1772656078008783600,7.16378369140625,0.000008763512596487999,0.0030907499603927135,-0.0009799334220588207
1772656078018766300,7.173766357421875,-0.0017707603983581066,-0.0017189186764881015,-0.000029185321182012558
1772656078028748500,7.18374853515625,0.0010353375691920519,-0.0005365178221836686,-0.0022892020642757416
1772656078038731500,7.1937314453125,0.0009905964834615588,-0.0018337437650188804,0.0009060588199645281
1772656078048713500,7.20371337890625,0.00002008792944252491,0.001730406773276627,0.0017330395057797432
1772656078058696400,7.213696533203125,-0.0006832529325038195,0.0016774098621681333,0.004480622708797455
1772656078068678700,7.2236787109375,-0.0006579824257642031,-0.001104559632949531,-0.0005351873114705086
1772656078078661400,7.233661376953125,0.0011937135132029653,-0.00048430950846523046,0.0016033309511840343
1772656078088643600,7.2436435546875,0.00100793712772429,-0.0014289045939221978,-0.00014564814046025276
1772656078098626600,7.25362646484375,-0.0011675991117954254,-0.002209477126598358,0.002296736929565668
1772656078108608500,7.2636083984375,0.0004603730048984289,0.0008316836319863796,-0.0015707374550402164
1772656078118591500,7.273591552734375,0.00023400434292852879,0.00029026297852396965,-0.0007819090969860554
1772656078128573400,7.283573486328125,0.0009985894430428743,-0.0006884515751153231,-0.000433153472840786
1772656078138555600,7.2935556640625,0.0003487782087177038,0.0005746857495978475,0.0016736732795834541
1772656078148538600,7.30353857421875,-0.00015139905735850334,-0.00018779374659061432,-0.0017367182299494743
1772656078158520600,7.3135205078125,-0.0007458166219294071,0.0008351263822987676,-0.001091168262064457
1772656078168503600,7.323503662109375,-0.001372033730149269,-0.000591680989600718,0.0006613726727664471
1772656078178485500,7.333485595703125,0.0019031217088922858,-0.001007933053188026,-0.001709106843918562
1772656078188468500,7.343468505859375,-0.0015834302175790071,-0.0007849727990105748,0.00014326861128211021
1772656078198450700,7.35345068359375,-0.0011328232940286398,0.0008704481297172606,0.0006806943565607071
1772656078208433700,7.36343359375,0.0021324804984033108,0.0020685559138655663,-0.002445637248456478
1772656078218415600,7.37341552734375,-0.0010555896442383528,0.002115427516400814,-0.00026184506714344025
1772656078228398600,7.383398681640625,0.0017555889207869768,0.00171564647462219,-0.002070839051157236
1772656078238380500,7.393380615234375,0.00003891531378030777,0.0006716873031109571,0.0028405627235770226
1772656078248363500,7.403363525390625,-0.00028637167997658253,-0.0008603240130469203,-0.000004270579665899277
1772656078258345700,7.413345703125,-0.0006525563076138496,-0.001510934322141111,0.0009358252864331007
1772656078268327400,7.423327392578125,-0.0008081193082034588,-0.0019084066152572632,0.0015568491071462631
1772656078278310700,7.433310546875,0.0011972410138696432,0.0010602191323414445,-0.0011151004582643509
1772656078288292400,7.443292236328125,0.0018191104754805565,0.0017902336549013853,-0.0010586916469037533
1772656078298275600,7.453275634765625,-0.0000925066415220499,0.001997960265725851,-0.0025426046922802925
1772656078308257500,7.463257568359375,0.00009428104385733604,0.0017369997221976519,-0.0016290205530822277
1772656078318240500,7.473240478515625,-0.0029039056971669197,-0.0010201709810644388,-0.0006244764663279057
1772656078328222500,7.483222412109375,0.0007745230104774237,0.0009122750489041209,0.00090996571816504
1772656078338205700,7.493205810546875,0.0007407008670270443,-0.0012318359222263098,0.0027819015085697174
1772656078348187400,7.5031875,-0.0006221728399395943,-0.0007812426192685962,0.0005055107176303864
1772656078358170600,7.513170654296875,-0.0006410812493413687,-0.000706141465343535,0.00031402939930558205
1772656078368152600,7.523152587890625,-0.00035663717426359653,-0.001348584541119635,0.00015024421736598015
1772656078378135600,7.533135498046875,-0.0018429472111165524,-0.0011230147210881114,0.0024624005891382694
1772656078388117500,7.543117431640625,-0.001051341649144888,-0.0002036449732258916,0.00035950588062405586
1772656078398099500,7.553099365234375,0.0036773672327399254,0.0002552176592871547,-0.0021939328871667385
1772656078408082400,7.56308251953125,0.0008513221982866526,0.0019846640061587095,-0.0007353704422712326
1772656078418064600,7.573064697265625,-0.001787071581929922,-0.002038839738816023,0.0007163183763623238
1772656078428047400,7.58304736328125,0.0019439907046034932,-0.0013673671055585146,-0.0010880902409553528
1772656078438029600,7.593029541015625,0.0004414352588355541,-0.002058990066871047,-0.002871342934668064
1772656078448012500,7.603012451171875,-0.0002394269686192274,-0.00028898601885885,0.000019762199372053146
1772656078457994500,7.612994384765625,0.00021943566389381886,-0.002121240831911564,0.00037396280094981194
1772656078467977500,7.6229775390625,0.0001073561143130064,-0.0022797321435064077,-0.00177480885758996
1772656078477959400,7.63295947265625,-0.0003658875357359648,-0.000599011080339551,-0.0008847806602716446
1772656078487942400,7.6429423828125,0.00021456507965922356,-0.0007677745306864381,-0.0001980578526854515
1772656078497924600,7.652924560546875,-0.0008847878780215979,0.0016410547541454434,0.0003183293156325817
1772656078507907600,7.662907470703125,-0.0002280636690557003,-0.00016598589718341827,-0.00025186222046613693
1772656078517889500,7.6728896484375,-0.0016512568108737469,-0.0010426986264064908,0.003766049165278673
1772656078527871500,7.68287158203125,-0.001857235562056303,0.00018709106370806694,0.0010272099170833826
1772656078537854500,7.6928544921875,-0.0002825085539370775,0.0022574325557798147,0.0006303987465798855
1772656078547836400,7.70283642578125,0.0021096880082041025,-0.0005188742652535439,-0.003300728742033243
1772656078557819600,7.712819580078125,-0.0011457600630819798,-0.00004563061520457268,-0.0001118597574532032
1772656078567801600,7.722801513671875,0.000002775108441710472,-0.002072453498840332,-0.0018283599056303501
1772656078577784600,7.73278466796875,0.0006789518520236015,0.001905243843793869,-0.0027990820817649364
1772656078587766500,7.7427666015625,-0.0001763305626809597,0.0009945747442543507,0.0021886122412979603
1772656078597749500,7.75274951171875,-0.0004825941286981106,-0.0009934749687090516,8.25151801109314e-7
1772656078607731500,7.7627314453125,-0.000534451799467206,-0.0008615928236395121,-0.0006400598213076591
1772656078617714400,7.77271435546875,-0.002482820302248001,0.001658023800700903,-0.0003891903907060623
1772656078627696600,7.782696533203125,-0.0009509178344160318,-0.00028527702670544386,0.0009654534514993429
1772656078637679600,7.7926796875,-0.00008885259740054607,-0.0013489435659721494,-0.0016319272108376026
1772656078647661600,7.80266162109375,0.001015195855870843,0.0004691545618698001,-0.0009949053637683392
1772656078657643500,7.8126435546875,-0.00045540183782577515,0.0022830336820334196,-0.0003123371861875057
1772656078667626500,7.82262646484375,0.0010799710871651769,-0.0004710346693173051,0.0004385220818221569
1772656078677608400,7.8326083984375,0.00021071522496640682,-0.0008225719211623073,-0.0012813471257686615
1772656078687591700,7.842591796875,-0.0011099576950073242,-0.0010477135656401515,-0.0016597840003669262
1772656078697573400,7.852573486328125,-0.00021460279822349548,-0.0026783673092722893,-0.0008464548736810684
1772656078707556600,7.862556640625,0.0005723240319639444,0.001391315134242177,-0.00026560528203845024
1772656078717538600,7.87253857421875,-0.0012538053561002016,0.00007278402335941792,-0.0001092781312763691
1772656078727521500,7.882521484375,-0.0009751683101058006,-0.003665987402200699,0.0007828602101653814
1772656078737503500,7.89250341796875,-0.0005948690231889486,-0.0008962996071204543,0.0017815455794334412
1772656078747486500,7.902486572265625,-0.0011145416647195816,-0.00011534453369677067,0.00016795657575130463
1772656078757468400,7.912468505859375,0.0011078664101660252,0.000895325094461441,0.0014081909321248531
1772656078767451600,7.92245166015625,-0.0004322635941207409,-0.00013527378905564547,0.0004989709705114365
1772656078777433300,7.932433349609375,-0.0016075163148343563,-0.00004206318408250809,-0.0006669610738754272
1772656078787415600,7.94241552734375,0.0008053227793425322,-0.0016139151994138956,-0.00417049415409565
1772656078797398500,7.9523984375,0.0020732537377625704,0.0014532473869621754,-0.0020697922445833683
1772656078807380500,7.96238037109375,0.00036489241756498814,-0.0022145439870655537,-0.00198272243142128
1772656078817363500,7.972363525390625,-0.0017621743027120829,-0.0016917655011639,0.0016927060205489397
1772656078827343400,7.98234326171875,0.002032830147072673,-0.0006017336854711175,-0.0004245070740580559
1772656078837325600,7.99232568359375,-0.0005190870724618435,0.0006943137850612402,0.0028314783703535795
1772656078847308300,8.002308349609375,0.0008052652701735497,0.00010689126793295145,0.0010343799367547035
1772656078857290500,8.01229052734375,0.0005437429063022137,-0.0011748882243409753,0.0008157345000654459
1772656078867273500,8.0222734375,0.0010454688454046845,-0.001118881395086646,0.0008385740220546722
1772656078877256400,8.03225634765625,-0.0014943878632038832,-0.0011108918115496635,0.0008082140702754259
1772656078887239200,8.0422392578125,0.001037808251567185,-0.000507190590724349,0.0018709106370806694
1772656078897221400,8.052221435546874,0.0001930536236613989,-0.0004491338040679693,-0.00016214651986956596
1772656078907204400,8.062204345703124,0.0015975687419995666,-0.0006508373189717531,0.0011920740362256765
1772656078917186300,8.072186279296876,0.000595953781157732,0.00016515515744686127,-0.0023824209347367287
1772656078927168300,8.082168212890625,-0.00047257705591619015,-0.0016927774995565414,-0.00003167660906910896
1772656078937151200,8.092151123046875,0.0008387633133679628,0.00003854348324239254,-0.00036537088453769684
1772656078947133200,8.10213330078125,-0.0008724397048354149,-0.0004097576020285487,0.0013126218691468239
1772656078957116400,8.112116455078125,-0.00026923371478915215,-0.0010537098860368133,0.0005134069360792637
1772656078967098000,8.12209814453125,-0.00022336328402161598,-0.001032328698784113,0.0012947453651577234
1772656078977081300,8.132081298828124,0.002087461529299617,0.0017980789998546243,-0.002277086488902569
1772656078987063300,8.142063232421876,0.0007796988356858492,0.0008846742566674948,-0.00042597949504852295
1772656078997046300,8.15204638671875,0.002079321537166834,0.00035790097899734974,0.000696543138474226
1772656079007028200,8.1620283203125,-0.0006839660927653313,0.0005928718019276857,-0.00042553478851914406
1772656079017011500,8.172011474609375,0.0014332471182569861,0.000822702597361058,-0.002632762771099806
1772656079026993200,8.1819931640625,0.0009998298482969403,0.0015285288682207465,-0.0016071982681751251
1772656079036976400,8.191976318359375,0.000493296654894948,-0.00207313010469079,-0.0015584621578454971
1772656079046958300,8.201958251953124,0.0012548156082630157,0.0007664012373425066,0.0006349482573568821
1772656079056940300,8.211940185546876,-0.0010112680029124022,0.0005264504579827189,-0.00021353503689169884
1772656079066923300,8.22192333984375,-0.0029583272989839315,-0.0016038356116041541,-0.0011051814071834087
1772656079076905200,8.2319052734375,-0.0021580473985522985,-0.0016768061323091388,0.00023572007194161415
1772656079086888200,8.24188818359375,0.00024972972460091114,-0.0010662715649232268,-0.0037197661586105824
1772656079096870400,8.251870361328125,-0.000028304290026426315,-0.001566146849654615,0.001310944790020585
1772656079106853000,8.26185302734375,0.0004707404877990484,-0.001583947567269206,-0.00031665433198213577
1772656079116835300,8.27183544921875,-0.0024145280476659536,-0.0021120524033904076,0.0008420872036367655
1772656079126818300,8.281818359375,-0.002584615955129266,-0.001101382076740265,0.0004625394940376282
1772656079136800300,8.29180029296875,-0.001770487753674388,-0.0019495987799018621,0.0017376611940562725
1772656079146783200,8.301783203125,0.000053050462156534195,0.0003856341354548931,0.00013053929433226585
1772656079156765200,8.31176513671875,-0.0009237970225512981,0.0019571655429899693,-0.002599200699478388
1772656079166748200,8.321748046875,-0.00004017329774796963,-0.0003203520318493247,0.0014997022226452827
1772656079176730400,8.33173046875,-0.0015848067123442888,-0.001014638226479292,-0.0008476078510284424
1772656079186712300,8.34171240234375,-0.0009069382213056087,-0.0010627924930304289,0.0024637612514197826
1772656079196695300,8.3516953125,0.0013223937712609768,0.0012781261466443539,0.0005454863421618938
1772656079206677200,8.36167724609375,0.0016962066292762756,0.0015666501130908728,-0.0007726703770458698
1772656079216660200,8.37166015625,0.0004439882468432188,-0.0017868023132905364,0.00021243281662464142
1772656079226642400,8.381642333984376,-0.0007181377150118351,0.0022886095102876425,0.0007497642654925585
1772656079236625200,8.391625244140625,-0.0007210671901702881,0.0017434604233130813,-0.0012915488332509995
1772656079246607400,8.401607421875,-0.0006047121714800596,-0.00014401448424905539,0.0014058640226721764
1772656079256591400,8.41159130859375,0.0006557619199156761,-0.002195447450503707,0.001475905068218708
1772656079266573300,8.4215732421875,-0.0009809238836169243,0.0020673656836152077,0.002883274108171463
1772656079276555300,8.43155517578125,-0.002561776200309396,0.000530721852555871,-0.001055274624377489
1772656079286538200,8.441538330078124,0.00003803009167313576,0.0018828876782208681,0.0028069945983588696
1772656079296520200,8.451520263671876,-0.0004977979697287083,-0.002270312048494816,-0.0004183598794043064
1772656079306503200,8.461503173828126,0.0007905557285994291,0.0018005379242822528,0.000539927277714014
1772656079316485400,8.4714853515625,-0.0006653943564742804,-0.001534272450953722,0.0009662995580583811
1772656079326468400,8.48146826171875,-0.0013765613548457623,0.00016432232223451138,-0.001774693839251995
1772656079336450300,8.4914501953125,0.0013196230866014957,0.00006711692549288273,0.00016675051301717758
1772656079346433300,8.501433349609375,-0.00030678720213472843,0.0019132120069116354,-0.001145737711340189
1772656079356415200,8.511415283203124,-0.0006537970621138811,-0.002121210563927889,-0.00003972696140408516
1772656079366398200,8.521398193359374,-0.0006478666327893734,-0.0009440183639526367,-0.0029765949584543705
1772656079376380200,8.531380126953126,0.00029196287505328655,0.002009160816669464,-0.0008985302411019802
1772656079386362400,8.5413623046875,0.000031993258744478226,0.00045519659761339426,0.0010743271559476852
1772656079396345300,8.551345458984375,0.0008045763242989779,-0.00037038326263427734,0.0007555466145277023
1772656079406327300,8.561327392578125,-0.00048789731226861477,0.0017783591756597161,-0.0000886949710547924
1772656079416310300,8.571310302734375,0.000040207523852586746,-0.0007353986147791147,-0.0016000387258827686
1772656079426292500,8.58129248046875,0.0021482782904058695,0.00018555147107690573,0.0003255428746342659
1772656079436275200,8.591275146484374,-0.003735177218914032,-0.0029311461839824915,-0.0016712951473891735
1772656079446257400,8.60125732421875,0.0002687706146389246,0.0002793961903080344,-0.001300428993999958
1772656079456240400,8.611240478515626,0.00006903358735144138,-0.000817293650470674,0.0013273120857775211
1772656079466222300,8.621222412109375,-0.0007133225444704294,-0.00153858691919595,0.005413840524852276
1772656079476205300,8.631205322265625,0.00193865317851305,0.0002489269245415926,0.0018028600607067347
1772656079486187300,8.641187255859375,0.00047368789091706276,-0.0023129573091864586,-0.0027999901212751865
1772656079496170200,8.651170166015625,0.002096085576340556,0.0005371578736230731,-0.00208413228392601
1772656079506152400,8.66115234375,0.0019693183712661266,0.0009754871134646237,0.0022698529064655304
1772656079516134100,8.671134033203124,-0.0005590866785496473,0.0008793469751253724,-0.0011400585062801838
1772656079526117400,8.681117431640626,-0.0002764167729765177,0.0010774766560643911,-0.0014057648368179798
1772656079536099000,8.69109912109375,0.0000700606033205986,0.0014838749775663018,0.0009692420717328787
1772656079546082300,8.701082275390625,0.0003504166379570961,-0.0014381539076566696,0.0005570771172642708
1772656079556064300,8.711064208984375,0.00014748377725481987,0.00019383116159588099,0.0011008945293724537
1772656079566047200,8.721047119140625,0.0013114344328641891,-0.0004230057820677757,-0.0006522154435515404
1772656079576029200,8.731029296875,0.0015146336518228054,0.0002688834210857749,-0.0019526369869709015
1772656079586012400,8.741012451171875,0.00020040012896060944,0.0024928480852395296,0.0004171542823314667
1772656079595994000,8.750994140625,0.0008049376774579287,0.0007817670702934265,-0.0012185592204332352
1772656079605977300,8.760977294921876,0.00002448330633342266,0.00005101109854876995,0.002819193061441183
1772656079615959300,8.770959228515625,-0.00019203172996640205,0.0032449401915073395,-0.0022786296904087067
1772656079625942300,8.7809423828125,-0.001621319679543376,0.0005673057166859508,-0.0010696412064135075
1772656079635924200,8.79092431640625,0.0016466453671455383,0.0017422923119738698,0.0034968808759003878
1772656079645906200,8.80090625,0.0004540246445685625,0.002698548836633563,-0.0013476144522428513
1772656079655889200,8.81088916015625,-0.0003750172909349203,-0.0010141640668734908,0.0007898383773863316
1772656079665871400,8.820871337890624,-0.0008464267011731863,-0.0011665326310321689,0.002262724097818136
1772656079675854000,8.83085400390625,0.0008478763047605753,0.0007978150388225913,0.0027330382727086544
1772656079685836300,8.840836181640626,0.0002564250025898218,-0.0018249950371682644,-0.00012704357504844666
1772656079695819300,8.8508193359375,-0.001106048235669732,0.00017956632655113935,0.0003318190574645996
1772656079705801200,8.86080126953125,0.0014372612349689007,-0.0015412622597068548,-0.0001300307922065258
1772656079715784200,8.8707841796875,-0.0005718274042010307,0.0015978057635948062,-0.0010509518906474113
1772656079725766400,8.880766357421875,-0.0004158217925578356,0.0015126653015613556,-0.001045942772179842
1772656079735749000,8.8907490234375,0.0010656946105882525,-0.002629881724715233,0.00045421579852700233
1772656079745731300,8.9007314453125,-0.0026165004819631577,-0.0019291972275823355,-0.0029620910063385963
1772656079755714300,8.91071435546875,-0.000027108704671263695,0.0005805658875033259,0.0017559651751071215
1772656079765696300,8.9206962890625,0.00038946117274463177,-0.000024961307644844055,0.0005302778445184231
1772656079775679200,8.93067919921875,0.0017796313622966409,-0.0013757165288552642,-0.0008316626772284508
1772656079785661200,8.9406611328125,0.0006143397185951471,-0.00027506565675139427,0.0018478753045201302
1772656079795643400,8.950643310546875,-0.0028224694542586803,-0.00204766565002501,-0.001554579008370638
1772656079805626400,8.96062646484375,-0.0007319492287933826,-0.0017556999810039997,0.00006735185161232948
1772656079815608300,8.9706083984375,0.0003154720179736614,-0.0018856623210012913,0.0004636300727725029
1772656079825591300,8.98059130859375,0.0011537056416273117,0.00034046266227960587,0.0010544871911406517
1772656079835573200,8.9905732421875,-0.001462850021198392,0.0007716284017078578,0.0008723270148038864
1772656079845556200,9.00055615234375,-0.0012682306114584208,0.0014612411614507437,0.0015959776937961578
1772656079855538400,9.010538330078125,0.0008508467581123114,0.0007411224069073796,-0.0005332198925316334
1772656079865521200,9.020521240234375,0.00013804994523525238,0.0008453007321804762,0.0018771747127175331
1772656079875502800,9.0305029296875,-0.0010542471427470446,-0.001330235623754561,0.0009096483699977398
1772656079885485800,9.04048583984375,0.0006300709210336208,0.0009604431688785553,0.000844854861497879
1772656079895468000,9.050468017578124,0.0013850771356374025,0.0015796280931681395,-0.0005312003195285797
1772656079905450800,9.06045068359375,-0.0001627292949706316,-0.0008708660025149584,-0.0002033035270869732
1772656079915433000,9.070432861328126,0.00014353427104651928,0.0008894833736121655,0.001969835953786969
1772656079925415000,9.080414794921875,-0.0004362508188933134,0.0024624366778880358,0.0008163074962794781
1772656079935398000,9.09039794921875,0.0024125324562191963,0.001067739212885499,0.0007023243233561516
1772656079945380000,9.100380126953125,-0.00011982838623225689,-0.00038562959525734186,0.0017533628270030022
1772656079955362800,9.11036279296875,-0.00020478316582739353,0.0003608544357120991,0.0016111501026898623
1772656079965345000,9.120344970703124,0.0010776568669825792,-0.000416632741689682,-0.001208632718771696
1772656079975328000,9.130327880859374,-0.00014393520541489124,0.0016385286580771208,0.00038207368925213814
1772656079985310000,9.14031005859375,0.0011847431305795908,0.002662633778527379,0.0003310428000986576
1772656079995293000,9.15029296875,0.0013501254143193364,-0.0009531399700790644,0.001484458101913333
1772656080005275000,9.16027490234375,0.0022291531786322594,0.0008109401678666472,-0.000013367738574743271
1772656080015257900,9.1702578125,0.0013825342757627368,-0.0009150545811280608,0.002370694186538458
1772656080025240000,9.180239990234375,0.0011344841914251447,-0.0016514456365257502,-0.0013028657995164394
1772656080035222800,9.190222900390625,0.0006125045474618673,0.001606132835149765,-0.002974265720695257
1772656080045205000,9.200205078125,0.0003089208621531725,0.0007699893321841955,-0.0020438916981220245
1772656080055187000,9.21018701171875,-0.001314275898039341,0.0021348593290895224,0.0000967569649219513
1772656080065170000,9.220169921875,-0.00011513219214975834,0.0015188507968559861,-0.0003259214572608471
1772656080075152000,9.23015185546875,0.0011991377687081695,-0.0006007591728121042,0.0007470659911632538
1772656080085135000,9.240135009765625,-0.000662701902911067,0.0005973204388283193,-0.0019575515761971474
1772656080095116800,9.25011669921875,-0.0011178364511579275,0.00242238468490541,0.00008216314017772675
1772656080105100000,9.26010009765625,-0.00003906874917447567,-0.0008031079778447747,0.0009904184844344854
1772656080115081700,9.270081787109374,0.0018408566247671843,-0.0003884538309648633,0.001622919226065278
1772656080125065000,9.28006494140625,-0.0017330991104245186,-0.0011320443591102958,0.0009028441272675991
1772656080135047000,9.290046875,0.0017535112565383315,-0.0009914293186739087,0.001051182160153985
1772656080145030000,9.30002978515625,0.003648755606263876,-0.0010894611477851868,0.00003311224281787872
1772656080155011800,9.31001171875,0.00009290291927754879,-0.0016830798704177141,0.001832077745348215
1772656080164995000,9.3199951171875,-0.0032273801043629646,0.0011402356904000044,-0.0019124522805213928
1772656080174976800,9.329976806640625,-0.0019389428198337555,-0.000013179262168705463,-0.0009411978535354137
1772656080184959000,9.339958984375,0.000585588626563549,0.0003670179285109043,-0.00016543734818696976
1772656080194942000,9.34994189453125,-0.00008526165038347244,0.0007859331090003252,-0.0028608227148652077
1772656080204924000,9.359923828125,-0.0005858137737959623,-0.0019637164659798145,-0.000018030870705842972
1772656080214907000,9.369906982421876,0.0004506884142756462,0.0008975836099125445,-0.0013224468566477299
1772656080224888800,9.379888916015625,0.0007148669101297855,-0.001050219521857798,-0.0005529168993234634
1772656080234871800,9.389871826171875,-0.0018553498666733503,-0.0010065437527373433,0.0023499284870922565
1772656080244854000,9.39985400390625,-0.00037434068508446217,0.0005893050110898912,-0.0008791964501142502
1772656080254836700,9.409836669921875,0.0010744190076366067,0.0008697358425706625,0.0031570906285196543
1772656080264819000,9.41981884765625,0.0009697545319795609,0.0002660274039953947,-0.0020649987272918224
1772656080274802000,9.429802001953124,-0.0006260117515921593,-0.000919878133572638,0.0021451928187161684
1772656080284783900,9.439783935546876,-0.00130928261205554,-0.0020429419819265604,0.0006635766476392746
1772656080294766800,9.449766845703126,0.0005527995526790619,-0.0008261436596512794,0.003046572906896472
1772656080304748800,9.459748779296875,-0.0003770699258893728,-0.0002360004000365734,0.0028115087188780308
1772656080314731000,9.46973095703125,0.00034571182914078236,-0.001995284575968981,-0.002108681481331587
1772656080324714000,9.4797138671875,-0.0005899423267692327,0.0003589276457205415,0.0038901634979993105
1772656080334696000,9.489696044921875,-0.0030661497730761766,0.0012569455429911613,-0.0009847525507211685
1772656080344679000,9.499678955078124,0.0005330818239599466,-0.00042546610347926617,-0.001138970721513033
1772656080354660900,9.509660888671876,0.00045984494499862194,0.001547403633594513,0.0006818328984081745
1772656080364643800,9.519643798828126,0.00034764502197504044,-0.00006046018097549677,-0.0008533354848623276
1772656080374626000,9.5296259765625,0.0020960101392120123,0.0014546122401952744,0.002446054946631193
1772656080384609000,9.539609130859375,0.0017318740719929338,0.00047577638179063797,0.0014404843095690012
1772656080394591000,9.549591064453125,-0.0007624425925314426,-0.0002488697646185756,0.0009075859561562538
1772656080404574000,9.559573974609375,0.0001267178449779749,0.0003915403503924608,0.00102861481718719
1772656080414556000,9.569555908203125,-0.0004256218671798706,-0.0011712025152519345,-0.0010036434978246689
1772656080424539000,9.579538818359374,0.00012567616067826748,-0.003208870766684413,0.0016828272491693497
1772656080434520800,9.589520751953126,-0.000962225254625082,-0.00013371848035603762,-0.00016007991507649422
1772656080444503800,9.59950390625,-0.00006879004649817944,-0.003596934489905834,0.00042292336001992226
1772656080454486000,9.609486083984375,-0.0004323115572333336,0.0006303011905401945,-0.00009719235822558403
1772656080464468000,9.619468017578125,-0.00008926168084144592,-0.0007147248834371567,0.0000988868996500969
1772656080474451000,9.629450927734375,0.00030435342341661453,-0.0010790452361106873,-0.0005346792750060558
1772656080484433000,9.639432861328125,-0.00013098935596644878,-0.0007151175523176789,-0.0012758797965943813
1772656080494416000,9.649415771484374,0.002314857905730605,0.00040287734009325504,-0.0020945356227457523
1772656080504397800,9.659397705078124,0.00207673292607069,-0.002348280046135187,0.0016752465162426233
1772656080514381000,9.669381103515626,0.00137978361453861,0.0008637583814561367,-0.00029522646218538284
1772656080524362800,9.67936279296875,0.0020928350277245045,-0.003101625479757786,0.0016804516781121492
1772656080534346000,9.689345947265625,-0.002572490368038416,0.0026843580417335033,-0.0012056156992912292
1772656080544328000,9.699327880859375,0.0012511240784078836,0.0011536508100107312,0.001360554713755846
1772656080554311000,9.709310791015625,0.0004050377756357193,0.0013888078974559903,-0.0002240259200334549
1772656080564292900,9.71929296875,0.0010401431936770678,0.001978367567062378,0.0005179564468562603
1772656080574276000,9.729276123046875,0.0014220403973013163,0.0013314856914803386,0.0008138334378600121
1772656080584257800,9.7392578125,-0.000006259186193346977,0.00046319724060595036,-0.00023122085258364677
1772656080594240000,9.749239990234376,0.0016214648494496942,-0.0027267371769994497,0.0001799711026251316
1772656080604222700,9.75922265625,0.00024994811974465847,0.0018185441149398685,-0.0013126758858561516
1772656080614205000,9.769204833984375,0.0010763269383460283,-0.00131306704133749,0.0019712678622454405
1772656080624188000,9.77918798828125,-0.0005776169709861279,0.00022008817177265882,-0.0007886704988777637
1772656080634169900,9.789169921875,0.0015758151421323419,0.0017623247113078833,0.000319737009704113
1772656080644152800,9.79915283203125,0.0011321480851620436,0.0007386240758933127,-0.0009999205358326435
1772656080654135000,9.809135009765624,0.0014088505413383245,0.0007229114416986704,0.000031521543860435486
1772656080664117800,9.81911767578125,-0.0006292813923209906,0.0017536194063723087,-0.00024196738377213478
1772656080674100000,9.829099853515626,0.0004210693296045065,0.0011956871021538973,-0.0018435926176607609
1772656080684083000,9.8390830078125,-0.0010971836745738983,0.0004674146184697747,-0.003167984075844288
1772656080694065000,9.84906494140625,0.0022307024337351322,0.0008807372651062906,0.0009524584747850895
1772656080704047900,9.8590478515625,0.0011511965421959758,-0.0004534596810117364,0.002224818803369999
1772656080714029800,9.86902978515625,-0.0010291333310306072,-0.001972793135792017,0.00022744806483387947
1772656080724011800,9.87901171875,0.0018363611306995153,-0.000960273202508688,0.0019406883511692286
1772656080733995000,9.8889951171875,-0.002752265427261591,-0.0015331190079450607,0.0038954485207796097
1772656080743976700,9.898976806640626,-0.000503187533468008,-0.0022029378451406956,-0.003047835547477007
1772656080753960000,9.9089599609375,-0.00019665760919451714,-0.00034298631362617016,-0.00007521500810980797
1772656080763942000,9.91894189453125,0.00005438248626887798,-0.0003097817534580827,-0.0003031366504728794
1772656080773924900,9.9289248046875,-0.0017480452079325914,0.00015307555440813303,-0.0012605427764356136
1772656080783906800,9.93890673828125,0.0007724347524344921,-0.0003980165347456932,-0.0016302554868161678
1772656080793890000,9.94889013671875,0.0000605718232691288,0.00011544092558324337,-0.00007283873856067657
1772656080803871700,9.958871826171874,0.0011154657695442438,0.0019815638661384583,0.0011735763400793076
1772656080813855000,9.96885498046875,0.0012238564668223262,-0.002184685319662094,-0.00017691263929009438
1772656080823837000,9.9788369140625,0.0011600857833400369,-0.0008117245743051171,-0.0009664329700171947
1772656080833820000,9.98881982421875,0.00106181506998837,0.0005028116283938289,-0.00024258578196167946
1772656080843801900,9.9988017578125,0.002240222878754139,0.0016336108092218637,0.0016022168565541506
1772656080853783800,10.00878369140625,-0.0007614260539412498,-0.002021577674895525,0.0012424238957464695
1772656080863766800,10.018766845703125,-0.0010276369284838438,-0.001909415004774928,-0.0022968119010329247
1772656080873748700,10.028748779296874,-0.000308050774037838,-0.0017288527451455593,0.0000670095905661583
1772656080883731700,10.038731689453124,0.0009092106483876705,0.00096733751706779,-0.0019081435166299343
1772656080893713700,10.048713623046876,-0.0014407627750188112,0.0013822580222040415,0.0018373262137174606
1772656080903696600,10.058696533203126,-0.0008553527295589447,0.0014821720542386174,-0.0007640095427632332
1772656080913678600,10.0686787109375,0.0007172438781708479,-0.00007577717769891024,-0.0011307266540825367
1772656080923661800,10.078661865234375,-0.0014130373019725084,0.0008133092778734863,-0.00000974070280790329
1772656080933643500,10.0886435546875,-0.00233928463421762,-0.0020935311913490295,0.0008169044740498066
1772656080943626800,10.098626708984375,-0.0012246693950146437,0.0028268559835851192,-0.0004413090646266937
1772656080953608700,10.108608642578124,-0.0008515606168657541,-0.0006158124888315797,-0.00006553716957569122
1772656080963591700,10.118591796875,0.000811590114608407,0.0027075777761638165,0.0018908767960965633
1772656080973573600,10.12857373046875,-0.0007815128192305565,-0.0002916742814704776,-0.0008369991555809975
1772656080983555600,10.1385556640625,-0.000653725815936923,-0.0006523490883409977,0.002732018241658807
1772656080993538600,10.14853857421875,0.0007990286685526371,0.0025639506056904793,0.0017889929004013538
1772656081003520800,10.158520751953125,0.0010377101134508848,-0.0003159070620313287,0.0012780530378222466
1772656081013503500,10.16850341796875,0.001639850903302431,-0.0026304605416953564,0.0015062859747558832
1772656081023485700,10.178485595703124,0.00014310027472674847,0.0022387378849089146,0.0004187868908047676
1772656081033468700,10.18846875,-0.00016928836703300476,0.00065415701828897,-0.001848096027970314
1772656081043450600,10.19845068359375,0.0006093156989663839,0.0001409886172041297,0.0008830956649035215
1772656081053433600,10.20843359375,0.0011206426424905658,0.000674419803544879,-0.0011891098693013191
1772656081063415600,10.21841552734375,-0.0007386000361293554,-0.0008773197187110782,0.0011016742791980505
1772656081073398500,10.2283984375,0.00036554643884301186,-0.0014831888256594539,-0.0017550988122820854
1772656081083380700,10.238380615234375,0.00014626234769821167,0.0006825588061474264,0.00009160488843917847
1772656081093363500,10.248363525390625,-0.001088645774871111,-0.0030139083974063396,0.001521189697086811
1772656081103345700,10.258345703125,-0.0013481888454407454,-0.0008913127239793539,-0.0005245683714747429
1772656081113328600,10.26832861328125,0.001346397795714438,-0.0007453714497387409,-0.0018204627558588982
1772656081123310600,10.278310546875,-0.00016140728257596493,-0.0017493010964244604,0.0004515615291893482
1772656081133292800,10.288292724609375,-0.00040268967859447,-0.0021623573265969753,0.0008694115094840527
1772656081143275800,10.29827587890625,-0.0002875411882996559,-0.001251382869668305,0.002758773509413004
1772656081153257700,10.3082578125,-0.0017102016136050224,-0.0010897290194407105,-0.0025113560259342194
1772656081163240700,10.31824072265625,-0.001967787742614746,-0.001482393010519445,-0.0004647374153137207
1772656081173222700,10.32822265625,-0.0009944019839167595,-0.002112763002514839,-0.0002977573312819004
1772656081183205600,10.33820556640625,0.0024125399067997932,0.0005038852104917169,0.000046865083277225494
1772656081193187800,10.348187744140626,0.0008434054907411337,0.000316398567520082,0.00027536414563655853
1772656081203170600,10.358170654296876,0.00017093191854655743,0.0006483689649030566,0.002959484001621604
1772656081213152800,10.36815283203125,0.0006622851360589266,0.0009562303894199431,-0.0008640163578093052
1772656081223135700,10.3781357421875,0.0004197775851935148,-0.00041210930794477463,-0.001184163149446249
1772656081233117700,10.38811767578125,-0.003333947854116559,0.0020393305458128452,0.0007716624531894922
1772656081243100700,10.3981005859375,0.0000777803361415863,-0.0004248192999511957,-0.002321031875908375
1772656081253083000,10.408082763671874,0.0005299851763993502,0.0012471132213249803,0.0010284257587045431
1772656081263064600,10.418064697265624,0.0007452510762959719,0.0006165308295749128,0.0028081329073756933
1772656081273047800,10.4280478515625,0.0022619212977588177,-0.0004455377347767353,0.00030902260914444923
1772656081283029500,10.438029541015625,-0.002500197384506464,0.0008350746356882155,0.0004009539261460304
1772656081293012700,10.4480126953125,0.0011262288317084312,0.0026734545826911926,-0.0023223944008350372
1772656081302994700,10.45799462890625,0.00018350756727159023,0.001737313694320619,0.0013324033934623003
1772656081312977700,10.467977783203125,0.001845319988206029,-0.0008603336755186319,-0.00006628874689340591
1772656081322959600,10.477959716796875,0.001536839408800006,0.00001724052708595991,0.0008775503374636173
1772656081332942800,10.48794287109375,-0.00009940681047737598,-0.0005814380710944533,-0.0011065048165619373
1772656081342924500,10.497924560546876,0.0006681825034320354,0.0009941738098859787,-0.0007701599970459938
1772656081352907800,10.50790771484375,0.000956070376560092,-0.0019408960361033678,0.0004383823834359646
1772656081362889500,10.517889404296875,0.0010148040018975735,-0.0029324698261916637,-0.0016663353890180588
1772656081372872700,10.527872802734375,-0.00043981452472507954,-0.0007729126373305917,-0.002421341370791197
1772656081382854700,10.537854736328125,-0.0028525793459266424,0.0006463279132731259,-0.000017517246305942535
1772656081392836600,10.547836669921875,0.0010287114419043064,-0.0016304085729643703,0.0004930105060338974
1772656081402819600,10.557819580078124,0.0021251398138701916,-0.002800620160996914,-0.0023740287870168686
1772656081412801800,10.5678017578125,-0.0011779791675508022,-0.0016791633097454906,0.0006579798646271229
1772656081422784500,10.577784423828126,-0.002587941475212574,-0.0008649303345009685,0.001815535593777895
1772656081432766700,10.5877666015625,-0.0011841892264783382,0.0005348272388800979,0.0014008814468979836
1772656081442749700,10.597749755859375,-0.0008982953149825335,-0.001548800733871758,0.00007295841351151466
1772656081452731600,10.607731689453125,-0.001404828391969204,-0.0012063182657584548,0.0013933535665273666
1772656081462714600,10.617714599609375,-0.001033771550282836,-0.00047411280684173107,-0.0005707270465791225
1772656081472696600,10.627696533203125,0.000006725313141942024,0.0019861154723912477,-0.0017909877933561802
1772656081482679600,10.637679443359374,-0.00038489652797579765,-0.00204882537946105,-0.0021719103679060936
1772656081492661800,10.647661865234374,-0.001848569605499506,-0.0023713342379778624,0.0010361333843320608
1772656081502644500,10.65764453125,-0.00006574229337275028,-0.0013602662365883589,0.0017455120105296373
1772656081512626700,10.667626708984375,-0.0007421851623803377,0.0008741258061490953,-0.0010558669455349445
1772656081522609700,10.677609619140625,-0.0011421837843954563,0.0002882347907871008,-0.002314451150596142
1772656081532591600,10.687591552734375,-0.0005869145970791578,0.00043497502338141203,-0.000023333821445703506
1772656081542573600,10.697573486328125,0.0011363949161022902,0.0013381197350099683,0.0021182408090680838
1772656081552556800,10.707556884765625,0.000773139763623476,-0.0006507289363071322,-0.0011236253194510937
1772656081562538500,10.71753857421875,-0.00037696189247071743,-0.00017749937251210213,-0.0007068775594234467
1772656081572521700,10.727521728515624,-0.0013793758116662502,-0.0020244016777724028,-0.0002970169298350811
1772656081582503700,10.737503662109376,-0.0035174693912267685,0.15651942789554596,0.06232483685016632
1772656081592486700,10.747486572265625,-0.0078123495914042,0.21115390956401825,0.08658357709646225
1772656081602468600,10.757468505859375,-0.004320408683270216,0.0769692212343216,0.019483204931020737
1772656081612451600,10.76745166015625,0.0025500140618532896,-0.03918108716607094,-0.00902220606803894
1772656081622433500,10.77743359375,0.0023993593640625477,0.0038220989517867565,-0.0035102725960314274
1772656081632416800,10.787416748046875,0.003736798884347081,-0.05919681489467621,-0.023798232898116112
1772656081642398700,10.797398681640624,0.005114388652145863,-0.20784249901771545,-0.07649856805801392
1772656081652381700,10.807381591796876,0.006798038724809885,-0.18001513183116913,-0.06689973920583725
1772656081662363600,10.81736376953125,0.0009962476324290037,0.0413360670208931,0.015357444062829018
1772656081672345600,10.827345703125,-0.0031004929915070534,0.10164148360490799,0.037482451647520065
1772656081682328600,10.83732861328125,0.004413663409650326,-0.058590684086084366,-0.022036144509911537
