time,seconds_elapsed,z,y,x
1772655963956831500,-0.00116845703125,9.7669038772583,0.020338991656899452,0.039481572806835175
1772655963966711300,0.008711181640625,9.7669038772583,0.020338991656899452,0.037088751792907715
1772655963976591000,0.018591064453125,9.771689414978027,0.02512463741004467,0.039481572806835175
1772655963986471000,0.028470947265625,9.769296646118164,0.03469592705368996,0.0323031060397625
1772655963996351000,0.03835107421875,9.769296646118164,0.017946170642971992,0.039481572806835175
1772655964006230800,0.048230712890625,9.769296646118164,0.020338991656899452,0.0323031060397625
1772655964016110600,0.058110595703125,9.7669038772583,0.017946170642971992,0.028115665540099144
1772655964025990400,0.067990478515625,9.77408218383789,0.02512463741004467,0.03469592705368996
1772655964035870200,0.0778701171875,9.776474952697754,0.02512463741004467,0.037088751792907715
1772655964045750000,0.08775,9.764511108398438,0.017946170642971992,0.0323031060397625
1772655964055629800,0.0976298828125,9.7669038772583,0.029910283163189888,0.03469592705368996
1772655964065509600,0.107509521484375,9.769296646118164,0.02273181453347206,0.0323031060397625
1772655964075389400,0.117389404296875,9.764511108398438,0.02273181453347206,0.037088751792907715
1772655964085269200,0.127269287109375,9.762118339538574,0.02512463741004467,0.037088751792907715
1772655964096610000,0.138610107421875,9.757332801818848,0.029910283163189888,0.0323031060397625
1772655964129728500,0.171728515625,9.769296646118164,0.02273181453347206,0.039481572806835175
1772655964169248000,0.211248046875,9.769296646118164,0.020338991656899452,0.04187439754605293
1772655964179127800,0.2211279296875,9.771689414978027,0.020338991656899452,0.03469592705368996
1772655964189007600,0.231007568359375,9.771689414978027,0.02512463741004467,0.039481572806835175
1772655964198887400,0.240887451171875,9.7669038772583,0.02512463741004467,0.037088751792907715
1772655964208767200,0.250767333984375,9.771689414978027,0.017946170642971992,0.039481572806835175
1772655964218647000,0.26064697265625,9.778867721557617,0.017946170642971992,0.039481572806835175
1772655964228526800,0.27052685546875,9.771689414978027,0.02512463741004467,0.03469592705368996
1772655964238406700,0.28040673828125,9.769296646118164,0.015553346835076809,0.039481572806835175
1772655964248286500,0.290286376953125,9.769296646118164,0.020338991656899452,0.029910283163189888
1772655964258166500,0.30016650390625,9.7669038772583,0.02512463741004467,0.04187439754605293
1772655964268046300,0.31004638671875,9.77408218383789,0.017946170642971992,0.03469592705368996
1772655964277926100,0.319926025390625,9.762118339538574,0.020338991656899452,0.028115665540099144
1772655964287806000,0.329805908203125,9.764511108398438,0.02512463741004467,0.029910283163189888
1772655964297685800,0.339685791015625,9.771689414978027,0.02751746028661728,0.03469592705368996
1772655964307565600,0.349565673828125,9.771689414978027,0.02273181453347206,0.02751746028661728
1772655964317445400,0.3594453125,9.769296646118164,0.017946170642971992,0.039481572806835175
1772655964327325200,0.3693251953125,9.771689414978027,0.02512463741004467,0.039481572806835175
1772655964337205000,0.379205078125,9.7669038772583,0.02512463741004467,0.04666004329919815
1772655964347084800,0.389084716796875,9.77408218383789,0.02512463741004467,0.039481572806835175
1772655964356964600,0.398964599609375,9.77408218383789,0.02751746028661728,0.0323031060397625
1772655964366844400,0.408844482421875,9.762118339538574,0.02512463741004467,0.03469592705368996
1772655964376724500,0.418724365234375,9.769296646118164,0.02751746028661728,0.02751746028661728
1772655964386604300,0.428604248046875,9.769296646118164,0.02273181453347206,0.039481572806835175
1772655964396484000,0.438484130859375,9.77408218383789,0.020338991656899452,0.039481572806835175
1772655964406364000,0.448364013671875,9.771689414978027,0.02273181453347206,0.04187439754605293
1772655964416243700,0.45824365234375,9.769296646118164,0.02512463741004467,0.0323031060397625
1772655964426123500,0.46812353515625,9.764511108398438,0.020338991656899452,0.037088751792907715
1772655964436003300,0.47800341796875,9.771689414978027,0.02512463741004467,0.02751746028661728
1772655964445883100,0.487883056640625,9.77408218383789,0.020338991656899452,0.029910283163189888
1772655964455763000,0.497762939453125,9.769296646118164,0.02512463741004467,0.03469592705368996
1772655964465642800,0.507642822265625,9.77408218383789,0.02273181453347206,0.04187439754605293
1772655964475522600,0.5175224609375,9.771689414978027,0.020338991656899452,0.0323031060397625
1772655964485402400,0.52740234375,9.769296646118164,0.020338991656899452,0.02512463741004467
1772655964495282200,0.5372822265625,9.7669038772583,0.02751746028661728,0.04426721855998039
1772655964505162200,0.547162353515625,9.78126049041748,0.02512463741004467,0.039481572806835175
1772655964515042000,0.5570419921875,9.762118339538574,0.029910283163189888,0.03469592705368996
1772655964524921900,0.566921875,9.771689414978027,0.02751746028661728,0.02751746028661728
1772655964534801700,0.5768017578125,9.7669038772583,0.0323031060397625,0.0323031060397625
1772655964544681500,0.586681396484375,9.776474952697754,0.02512463741004467,0.037088751792907715
1772655964554561300,0.596561279296875,9.7669038772583,0.02273181453347206,0.039481572806835175
1772655964564441000,0.606441162109375,9.769296646118164,0.02273181453347206,0.039481572806835175
1772655964574321000,0.61632080078125,9.77408218383789,0.0323031060397625,0.0323031060397625
1772655964584200700,0.62620068359375,9.769296646118164,0.020338991656899452,0.03529413416981697
1772655964594080500,0.63608056640625,9.7669038772583,0.020338991656899452,0.029910283163189888
1772655964603960300,0.645960205078125,9.7669038772583,0.017946170642971992,0.039481572806835175
1772655964613840100,0.655840087890625,9.7669038772583,0.02751746028661728,0.0323031060397625
1772655964623720200,0.66572021484375,9.769296646118164,0.02512463741004467,0.037088751792907715
1772655964633600000,0.67560009765625,9.771689414978027,0.02512463741004467,0.02751746028661728
1772655964643479800,0.685479736328125,9.7669038772583,0.02751746028661728,0.029910283163189888
1772655964653359600,0.695359619140625,9.77408218383789,0.017946170642971992,0.03469592705368996
1772655964663239400,0.705239501953125,9.7669038772583,0.020338991656899452,0.037088751792907715
1772655964673119200,0.715119140625,9.7669038772583,0.02512463741004467,0.029910283163189888
1772655964682999000,0.7249990234375,9.769296646118164,0.02512463741004467,0.039481572806835175
1772655964692878800,0.73487890625,9.771689414978027,0.03469592705368996,0.02751746028661728
1772655964702758700,0.744758544921875,9.7669038772583,0.017946170642971992,0.039481572806835175
1772655964712638500,0.754638427734375,9.764511108398438,0.02273181453347206,0.0323031060397625
1772655964722518300,0.764518310546875,9.771689414978027,0.02512463741004467,0.039481572806835175
1772655964732398300,0.7743984375,9.769296646118164,0.02512463741004467,0.03469592705368996
1772655964742278000,0.78427783203125,9.77408218383789,0.02273181453347206,0.03469592705368996
1772655964752158000,0.794157958984375,9.77408218383789,0.020338991656899452,0.037088751792907715
1772655964762037800,0.804037841796875,9.769296646118164,0.017946170642971992,0.02751746028661728
1772655964771917600,0.81391748046875,9.769296646118164,0.020338991656899452,0.04187439754605293
1772655964781797400,0.82379736328125,9.77408218383789,0.020338991656899452,0.039481572806835175
1772655964791677200,0.83367724609375,9.769296646118164,0.029910283163189888,0.0323031060397625
1772655964801557000,0.843556884765625,9.771689414978027,0.02512463741004467,0.03469592705368996
1772655964811436800,0.853436767578125,9.77408218383789,0.02512463741004467,0.0323031060397625
1772655964821316600,0.863316650390625,9.77408218383789,0.02751746028661728,0.04187439754605293
1772655964831196400,0.873196533203125,9.769296646118164,0.02512463741004467,0.039481572806835175
1772655964841076200,0.883076171875,9.7669038772583,0.029910283163189888,0.037088751792907715
1772655964850956000,0.8929560546875,9.771689414978027,0.020338991656899452,0.029910283163189888
1772655964860836000,0.902836181640625,9.771689414978027,0.037088751792907715,0.037088751792907715
1772655964870716000,0.9127158203125,9.769296646118164,0.017946170642971992,0.028115665540099144
1772655964880595700,0.922595703125,9.7669038772583,0.02512463741004467,0.0323031060397625
1772655964890475500,0.9324755859375,9.771689414978027,0.020338991656899452,0.029910283163189888
1772655964900355300,0.942355224609375,9.77408218383789,0.02273181453347206,0.039481572806835175
1772655964910235100,0.952235107421875,9.77408218383789,0.02273181453347206,0.04426721855998039
1772655964920115000,0.962114990234375,9.77408218383789,0.02512463741004467,0.0323031060397625
1772655964929994800,0.971994873046875,9.776474952697754,0.02273181453347206,0.037088751792907715
1772655964939874600,0.98187451171875,9.769296646118164,0.02751746028661728,0.0323031060397625
1772655964949754400,0.99175439453125,9.771689414978027,0.02273181453347206,0.04187439754605293
1772655964959634200,1.00163427734375,9.769296646118164,0.02273181453347206,0.0323031060397625
1772655964969514000,1.011513916015625,9.764511108398438,0.015553346835076809,0.030508488416671753
1772655964979393800,1.021393798828125,9.77408218383789,0.020338991656899452,0.037088751792907715
1772655964989273900,1.03127392578125,9.7669038772583,0.010767702013254166,0.030508488416671753
1772655964999153700,1.041153564453125,9.77408218383789,0.02273181453347206,0.037088751792907715
1772655965009033500,1.051033447265625,9.771689414978027,0.020338991656899452,0.02751746028661728
1772655965018913300,1.060913330078125,9.776474952697754,0.02273181453347206,0.037088751792907715
1772655965028793000,1.07079296875,9.77408218383789,0.02751746028661728,0.0323031060397625
1772655965038673000,1.0806728515625,9.771689414978027,0.017946170642971992,0.03469592705368996
1772655965048552700,1.090552734375,9.759725570678711,0.020338991656899452,0.037088751792907715
1772655965058432500,1.1004326171875,9.759725570678711,0.02273181453347206,0.037088751792907715
1772655965068312300,1.110312255859375,9.771689414978027,0.02273181453347206,0.03469592705368996
1772655965078192000,1.120192138671875,9.769296646118164,0.02512463741004467,0.0323031060397625
1772655965088072000,1.130072021484375,9.77408218383789,0.020338991656899452,0.03469592705368996
1772655965097951700,1.13995166015625,9.769296646118164,0.020338991656899452,0.037088751792907715
1772655965107831600,1.14983154296875,9.769296646118164,0.02273181453347206,0.0323031060397625
1772655965117711600,1.159711669921875,9.764511108398438,0.02512463741004467,0.03469592705368996
1772655965127591400,1.16959130859375,9.776474952697754,0.02512463741004467,0.02512463741004467
1772655965137471200,1.17947119140625,9.769296646118164,0.017946170642971992,0.03469592705368996
1772655965147351000,1.18935107421875,9.769296646118164,0.02512463741004467,0.04187439754605293
1772655965157230800,1.19923095703125,9.77408218383789,0.0323031060397625,0.037088751792907715
1772655965167110700,1.209110595703125,9.77408218383789,0.02751746028661728,0.03469592705368996
1772655965176990500,1.218990478515625,9.769296646118164,0.02273181453347206,0.04187439754605293
1772655965186870300,1.228870361328125,9.7669038772583,0.02273181453347206,0.04187439754605293
1772655965196750000,1.23875,9.769296646118164,0.02273181453347206,0.029910283163189888
1772655965206630000,1.2486298828125,9.776474952697754,0.02512463741004467,0.03469592705368996
1772655965216509700,1.258509765625,9.769296646118164,0.029910283163189888,0.037088751792907715
1772655965226389500,1.268389404296875,9.771689414978027,0.015553346835076809,0.0323031060397625
1772655965236269300,1.278269287109375,9.769296646118164,0.02273181453347206,0.029910283163189888
1772655965246149400,1.2881494140625,9.769296646118164,0.02273181453347206,0.0323031060397625
1772655965256029200,1.298029296875,9.769296646118164,0.02512463741004467,0.04187439754605293
1772655965265909000,1.307908935546875,9.771689414978027,0.02273181453347206,0.03469592705368996
1772655965275788800,1.317788818359375,9.7669038772583,0.02512463741004467,0.0323031060397625
1772655965285668600,1.327668701171875,9.769296646118164,0.02512463741004467,0.037088751792907715
1772655965295548400,1.33754833984375,9.776474952697754,0.02751746028661728,0.039481572806835175
1772655965305428200,1.34742822265625,9.7669038772583,0.02273181453347206,0.037088751792907715
1772655965315308000,1.35730810546875,9.77408218383789,0.020338991656899452,0.03469592705368996
1772655965325187800,1.367187744140625,9.778867721557617,0.017946170642971992,0.037088751792907715
1772655965335067600,1.377067626953125,9.769296646118164,0.02512463741004467,0.039481572806835175
1772655965344947500,1.386947509765625,9.769296646118164,0.02512463741004467,0.04187439754605293
1772655965354827300,1.3968271484375,9.764511108398438,0.02512463741004467,0.037088751792907715
1772655965364707000,1.40670703125,9.771689414978027,0.02273181453347206,0.0323031060397625
1772655965374587100,1.416587158203125,9.776474952697754,0.02512463741004467,0.037088751792907715
1772655965384467000,1.426467041015625,9.762118339538574,0.02273181453347206,0.03290131315588951
1772655965394346800,1.4363466796875,9.77408218383789,0.020338991656899452,0.03469592705368996
1772655965404226600,1.4462265625,9.7669038772583,0.02273181453347206,0.03469592705368996
1772655965414106400,1.4561064453125,9.771689414978027,0.017946170642971992,0.03469592705368996
1772655965423986200,1.465986083984375,9.769296646118164,0.02512463741004467,0.03469592705368996
1772655965433866000,1.475865966796875,9.771689414978027,0.02751746028661728,0.04426721855998039
1772655965443745800,1.485745849609375,9.771689414978027,0.020338991656899452,0.029910283163189888
1772655965453625600,1.49562548828125,9.771689414978027,0.02512463741004467,0.039481572806835175
1772655965463505400,1.50550537109375,9.778867721557617,0.02512463741004467,0.03469592705368996
1772655965473385200,1.51538525390625,9.759725570678711,0.02273181453347206,0.037088751792907715
1772655965483265000,1.52526513671875,9.764511108398438,0.02512463741004467,0.029910283163189888
1772655965493144800,1.535144775390625,9.77408218383789,0.029910283163189888,0.02751746028661728
1772655965503025000,1.54502490234375,9.762118339538574,0.02273181453347206,0.04187439754605293
1772655965512904700,1.55490478515625,9.762118339538574,0.02273181453347206,0.029910283163189888
1772655965522784500,1.564784423828125,9.771689414978027,0.02512463741004467,0.037088751792907715
1772655965532664300,1.574664306640625,9.771689414978027,0.02273181453347206,0.04666004329919815
1772655965542544100,1.584544189453125,9.771689414978027,0.02751746028661728,0.03469592705368996
1772655965552424000,1.594423828125,9.769296646118164,0.029910283163189888,0.037088751792907715
1772655965562303700,1.6043037109375,9.764511108398438,0.0323031060397625,0.04187439754605293
1772655965572183600,1.61418359375,9.771689414978027,0.02273181453347206,0.04187439754605293
1772655965582063400,1.6240634765625,9.771689414978027,0.02512463741004467,0.037088751792907715
1772655965591943200,1.633943115234375,9.77408218383789,0.02751746028661728,0.04187439754605293
1772655965601823000,1.643822998046875,9.778867721557617,0.017946170642971992,0.037088751792907715
1772655965611702800,1.653702880859375,9.77408218383789,0.020338991656899452,0.03469592705368996
1772655965621582600,1.66358251953125,9.771689414978027,0.017946170642971992,0.03469592705368996
1772655965631462400,1.67346240234375,9.771689414978027,0.02512463741004467,0.03469592705368996
1772655965641342500,1.683342529296875,9.764511108398438,0.017946170642971992,0.0323031060397625
1772655965651222300,1.69322216796875,9.77408218383789,0.020338991656899452,0.0323031060397625
1772655965661102000,1.70310205078125,9.764511108398438,0.02273181453347206,0.0323031060397625
1772655965670982000,1.71298193359375,9.7669038772583,0.02751746028661728,0.02512463741004467
1772655965680861700,1.72286181640625,9.7669038772583,0.020338991656899452,0.028115665540099144
1772655965690741500,1.732741455078125,9.7669038772583,0.02273181453347206,0.03469592705368996
1772655965700621300,1.742621337890625,9.771689414978027,0.029910283163189888,0.0323031060397625
1772655965710501000,1.752501220703125,9.771689414978027,0.02751746028661728,0.04666004329919815
1772655965720381000,1.762380859375,9.77408218383789,0.013160524889826775,0.0323031060397625
1772655965730260700,1.7722607421875,9.769296646118164,0.02273181453347206,0.029910283163189888
1772655965740140500,1.782140625,9.771689414978027,0.020338991656899452,0.029910283163189888
1772655965750020400,1.792020263671875,9.77408218383789,0.02512463741004467,0.039481572806835175
1772655965759900200,1.801900146484375,9.77408218383789,0.02512463741004467,0.0323031060397625
1772655965769780200,1.8117802734375,9.771689414978027,0.020338991656899452,0.039481572806835175
1772655965779659800,1.82165966796875,9.769296646118164,0.020338991656899452,0.02751746028661728
1772655965789539800,1.831539794921875,9.77408218383789,0.02512463741004467,0.03469592705368996
1772655965799419600,1.841419677734375,9.769296646118164,0.020338991656899452,0.037088751792907715
1772655965809299500,1.851299560546875,9.7669038772583,0.03469592705368996,0.03469592705368996
1772655965819179300,1.86117919921875,9.764511108398438,0.02273181453347206,0.029910283163189888
1772655965829059000,1.87105908203125,9.776474952697754,0.020338991656899452,0.037088751792907715
1772655965838939000,1.88093896484375,9.771689414978027,0.02751746028661728,0.03469592705368996
1772655965848818700,1.890818603515625,9.771689414978027,0.02273181453347206,0.029910283163189888
1772655965858698500,1.900698486328125,9.778867721557617,0.02512463741004467,0.03469592705368996
1772655965868578300,1.910578369140625,9.771689414978027,0.029910283163189888,0.029910283163189888
1772655965878458000,1.9204580078125,9.764511108398438,0.02751746028661728,0.03469592705368996
1772655965888338000,1.930337890625,9.7669038772583,0.02512463741004467,0.03469592705368996
1772655965898217700,1.9402177734375,9.769296646118164,0.020338991656899452,0.037088751792907715
1772655965908097500,1.95009765625,9.776474952697754,0.020338991656899452,0.03469592705368996
1772655965917977600,1.9599775390625,9.7669038772583,0.02751746028661728,0.0323031060397625
1772655965927857400,1.969857421875,9.778867721557617,0.029910283163189888,0.02751746028661728
1772655965937737200,1.9797373046875,9.771689414978027,0.020338991656899452,0.029910283163189888
1772655965947617000,1.989616943359375,9.771689414978027,0.02512463741004467,0.03469592705368996
1772655965957496800,1.999496826171875,9.771689414978027,0.02273181453347206,0.03469592705368996
1772655965967376600,2.009376708984375,9.7669038772583,0.015553346835076809,0.03290131315588951
1772655965977256400,2.01925634765625,9.77408218383789,0.020338991656899452,0.039481572806835175
1772655965987136300,2.02913623046875,9.778867721557617,0.02273181453347206,0.02751746028661728
1772655965997016000,2.03901611328125,9.7669038772583,0.03469592705368996,0.029910283163189888
1772655966006895900,2.048895751953125,9.771689414978027,0.029910283163189888,0.037088751792907715
1772655966016775700,2.058775634765625,9.769296646118164,0.02751746028661728,0.0323031060397625
1772655966026655500,2.068655517578125,9.7669038772583,0.02273181453347206,0.029910283163189888
1772655966036535300,2.078535400390625,9.771689414978027,0.029910283163189888,0.029910283163189888
1772655966046415000,2.0884150390625,9.7669038772583,0.02273181453347206,0.039481572806835175
1772655966056295200,2.098295166015625,9.769296646118164,0.029910283163189888,0.039481572806835175
1772655966066174700,2.1081748046875,9.762118339538574,0.0323031060397625,0.039481572806835175
1772655966076054800,2.1180546875,9.771689414978027,0.020338991656899452,0.03469592705368996
1772655966085934600,2.1279345703125,9.769296646118164,0.02512463741004467,0.037088751792907715
1772655966095814400,2.137814453125,9.77408218383789,0.029910283163189888,0.02512463741004467
1772655966105694200,2.147694091796875,9.771689414978027,0.02751746028661728,0.0323031060397625
1772655966115574000,2.157573974609375,9.7669038772583,0.02751746028661728,0.04187439754605293
1772655966125453800,2.167453857421875,9.769296646118164,0.02512463741004467,0.039481572806835175
1772655966135333600,2.177333740234375,9.776474952697754,0.02273181453347206,0.0323031060397625
1772655966145213400,2.18721337890625,9.771689414978027,0.02751746028661728,0.029910283163189888
1772655966155093200,2.19709326171875,9.771689414978027,0.02512463741004467,0.03469592705368996
1772655966164973000,2.20697314453125,9.77408218383789,0.02273181453347206,0.0323031060397625
1772655966174852900,2.216852783203125,9.769296646118164,0.02751746028661728,0.03469592705368996
1772655966184732700,2.226732666015625,9.7669038772583,0.02512463741004467,0.039481572806835175
1772655966194612500,2.236612548828125,9.771689414978027,0.020338991656899452,0.039481572806835175
1772655966204492300,2.2464921875,9.769296646118164,0.02273181453347206,0.02751746028661728
1772655966214372400,2.256372314453125,9.764511108398438,0.017946170642971992,0.030508488416671753
1772655966224252200,2.266252197265625,9.771689414978027,0.020338991656899452,0.029910283163189888
1772655966234132000,2.276132080078125,9.78126049041748,0.02512463741004467,0.03469592705368996
1772655966244011800,2.28601171875,9.769296646118164,0.03469592705368996,0.0323031060397625
1772655966253891600,2.2958916015625,9.7669038772583,0.0323031060397625,0.0323031060397625
1772655966263771400,2.305771484375,9.771689414978027,0.02273181453347206,0.0323031060397625
1772655966273651200,2.315651123046875,9.77408218383789,0.02512463741004467,0.0323031060397625
1772655966283531000,2.325531005859375,9.776474952697754,0.02751746028661728,0.03469592705368996
1772655966293410800,2.335410888671875,9.769296646118164,0.020338991656899452,0.0323031060397625
1772655966303290600,2.34529052734375,9.762118339538574,0.02273181453347206,0.037088751792907715
1772655966313170400,2.35517041015625,9.78126049041748,0.020338991656899452,0.039481572806835175
1772655966323050200,2.36505029296875,9.771689414978027,0.013160524889826775,0.03529413416981697
1772655966332930000,2.374929931640625,9.776474952697754,0.02273181453347206,0.0323031060397625
1772655966342809900,2.384809814453125,9.769296646118164,0.02512463741004467,0.03469592705368996
1772655966352689700,2.394689697265625,9.778867721557617,0.02512463741004467,0.037088751792907715
1772655966362569700,2.40456982421875,9.769296646118164,0.02273181453347206,0.0323031060397625
1772655966372449500,2.414449462890625,9.77408218383789,0.02512463741004467,0.03469592705368996
1772655966382329300,2.424329345703125,9.764511108398438,0.029910283163189888,0.03469592705368996
1772655966392209200,2.434209228515625,9.771689414978027,0.02273181453347206,0.029910283163189888
1772655966402089000,2.4440888671875,9.778867721557617,0.02512463741004467,0.029910283163189888
1772655966411968800,2.45396875,9.771689414978027,0.02273181453347206,0.03469592705368996
1772655966421848600,2.4638486328125,9.771689414978027,0.008374879136681557,0.03529413416981697
1772655966431728400,2.473728271484375,9.771689414978027,0.017946170642971992,0.039481572806835175
1772655966441608200,2.483608154296875,9.771689414978027,0.02273181453347206,0.0323031060397625
1772655966451488000,2.493488037109375,9.771689414978027,0.017946170642971992,0.037088751792907715
1772655966461367800,2.503367919921875,9.7669038772583,0.02273181453347206,0.03469592705368996
1772655966471247600,2.51324755859375,9.7669038772583,0.020338991656899452,0.03469592705368996
1772655966481127400,2.52312744140625,9.776474952697754,0.02751746028661728,0.03469592705368996
1772655966491007200,2.53300732421875,9.778867721557617,0.010767702013254166,0.04187439754605293
1772655966500887000,2.542886962890625,9.771689414978027,0.02273181453347206,0.029910283163189888
1772655966510766800,2.552766845703125,9.776474952697754,0.020338991656899452,0.04187439754605293
1772655966520647000,2.56264697265625,9.771689414978027,0.02273181453347206,0.03469592705368996
1772655966530526700,2.572526611328125,9.771689414978027,0.02512463741004467,0.039481572806835175
1772655966540406500,2.582406494140625,9.7669038772583,0.02751746028661728,0.04426721855998039
1772655966550286300,2.592286376953125,9.77408218383789,0.02273181453347206,0.039481572806835175
1772655966560166100,2.602166259765625,9.7669038772583,0.017946170642971992,0.037088751792907715
1772655966570046000,2.6120458984375,9.769296646118164,0.015553346835076809,0.04187439754605293
1772655966579925800,2.62192578125,9.7669038772583,0.02512463741004467,0.037088751792907715
1772655966589805600,2.6318056640625,9.769296646118164,0.013160524889826775,0.037088751792907715
1772655966599685400,2.641685302734375,9.769296646118164,0.02273181453347206,0.03469592705368996
1772655966609565200,2.651565185546875,9.7669038772583,0.017946170642971992,0.0323031060397625
1772655966619445000,2.661445068359375,9.769296646118164,0.02512463741004467,0.0323031060397625
1772655966629324800,2.67132470703125,9.771689414978027,0.02512463741004467,0.039481572806835175
1772655966639204600,2.68120458984375,9.764511108398438,0.03469592705368996,0.037088751792907715
1772655966649084400,2.69108447265625,9.769296646118164,0.02512463741004467,0.039481572806835175
1772655966658964500,2.700964599609375,9.776474952697754,0.02751746028661728,0.0323031060397625
1772655966668844300,2.71084423828125,9.769296646118164,0.02512463741004467,0.037088751792907715
1772655966678724000,2.72072412109375,9.762118339538574,0.0323031060397625,0.039481572806835175
1772655966688604000,2.73060400390625,9.769296646118164,0.02751746028661728,0.04426721855998039
1772655966698483700,2.740483642578125,9.7669038772583,0.020338991656899452,0.020937198773026466
1772655966708363500,2.750363525390625,9.771689414978027,0.02751746028661728,0.037088751792907715
1772655966718243300,2.760243408203125,9.757332801818848,0.020338991656899452,0.029910283163189888
1772655966728123100,2.770123046875,9.776474952697754,0.029910283163189888,0.029910283163189888
1772655966738003000,2.7800029296875,9.77408218383789,0.017946170642971992,0.03469592705368996
1772655966747882800,2.7898828125,9.776474952697754,0.02512463741004467,0.039481572806835175
1772655966757762600,2.799762451171875,9.77408218383789,0.020338991656899452,0.03469592705368996
1772655966767642400,2.809642333984375,9.769296646118164,0.017946170642971992,0.037088751792907715
1772655966777522200,2.819522216796875,9.77408218383789,0.02273181453347206,0.039481572806835175
1772655966787402000,2.829402099609375,9.769296646118164,0.017946170642971992,0.023330021649599075
1772655966797281800,2.83928173828125,9.769296646118164,0.020338991656899452,0.03469592705368996
1772655966807161600,2.84916162109375,9.764511108398438,0.017946170642971992,0.03290131315588951
1772655966817041700,2.859041748046875,9.769296646118164,0.02273181453347206,0.03469592705368996
1772655966826921500,2.86892138671875,9.771689414978027,0.020338991656899452,0.0323031060397625
1772655966836801300,2.87880126953125,9.783653259277344,0.020338991656899452,0.03469592705368996
1772655966846681000,2.88868115234375,9.7669038772583,0.020338991656899452,0.02751746028661728
1772655966856561000,2.898560791015625,9.77408218383789,0.020338991656899452,0.04187439754605293
1772655966866440700,2.908440673828125,9.778867721557617,0.02751746028661728,0.02512463741004467
1772655966876320500,2.918320556640625,9.771689414978027,0.02751746028661728,0.03469592705368996
1772655966886200300,2.928200439453125,9.769296646118164,0.02512463741004467,0.02751746028661728
1772655966896080100,2.938080078125,9.769296646118164,0.02273181453347206,0.03469592705368996
1772655966905960000,2.9479599609375,9.7669038772583,0.020338991656899452,0.04187439754605293
1772655966915839700,2.95783984375,9.769296646118164,0.02512463741004467,0.03469592705368996
1772655966925719600,2.967719482421875,9.762118339538574,0.02512463741004467,0.0323031060397625
1772655966935599400,2.977599365234375,9.764511108398438,0.020338991656899452,0.02751746028661728
1772655966945479200,2.987479248046875,9.764511108398438,0.02273181453347206,0.0323031060397625
1772655966955359000,2.99735888671875,9.771689414978027,0.0323031060397625,0.037088751792907715
1772655966965238800,3.00723876953125,9.7669038772583,0.017946170642971992,0.0323031060397625
1772655966975118800,3.017118896484375,9.776474952697754,0.020338991656899452,0.029910283163189888
1772655966984998700,3.02699853515625,9.764511108398438,0.017946170642971992,0.037088751792907715
1772655966994878500,3.03687841796875,9.77408218383789,0.02751746028661728,0.03469592705368996
1772655967004758300,3.04675830078125,9.7669038772583,0.02273181453347206,0.037088751792907715
1772655967014638000,3.05663818359375,9.771689414978027,0.02751746028661728,0.029910283163189888
1772655967024518000,3.066517822265625,9.771689414978027,0.02512463741004467,0.02273181453347206
1772655967034397700,3.076397705078125,9.77408218383789,0.02273181453347206,0.04187439754605293
1772655967044277500,3.086277587890625,9.771689414978027,0.02512463741004467,0.0323031060397625
1772655967054157300,3.0961572265625,9.77408218383789,0.017946170642971992,0.029910283163189888
1772655967064037000,3.106037109375,9.77408218383789,0.02273181453347206,0.02751746028661728
1772655967073917000,3.1159169921875,9.771689414978027,0.02512463741004467,0.037088751792907715
1772655967083796700,3.125796630859375,9.7669038772583,0.02512463741004467,0.0323031060397625
1772655967093676500,3.135676513671875,9.77408218383789,0.02751746028661728,0.0323031060397625
1772655967103556400,3.145556396484375,9.7669038772583,0.017946170642971992,0.04426721855998039
1772655967113436200,3.155436279296875,9.776474952697754,0.029910283163189888,0.037088751792907715
1772655967123316000,3.16531591796875,9.769296646118164,0.0323031060397625,0.037088751792907715
1772655967133195800,3.17519580078125,9.762118339538574,0.02751746028661728,0.03469592705368996
1772655967143075800,3.185075927734375,9.769296646118164,0.02273181453347206,0.0323031060397625
1772655967152955600,3.19495556640625,9.7669038772583,0.02512463741004467,0.029910283163189888
1772655967162835500,3.20483544921875,9.7669038772583,0.02273181453347206,0.02751746028661728
1772655967172715300,3.21471533203125,9.7669038772583,0.02273181453347206,0.0323031060397625
1772655967182595000,3.224594970703125,9.771689414978027,0.02512463741004467,0.03469592705368996
1772655967192475000,3.234474853515625,9.764511108398438,0.02751746028661728,0.03469592705368996
1772655967202354700,3.244354736328125,9.7669038772583,0.02273181453347206,0.0323031060397625
1772655967212234500,3.254234375,9.764511108398438,0.02512463741004467,0.03469592705368996
1772655967222114300,3.2641142578125,9.769296646118164,0.02751746028661728,0.03469592705368996
1772655967231994000,3.273994140625,9.7669038772583,0.02751746028661728,0.03469592705368996
1772655967241874000,3.2838740234375,9.7669038772583,0.020338991656899452,0.0323031060397625
1772655967251753700,3.293753662109375,9.769296646118164,0.020338991656899452,0.0323031060397625
1772655967261633500,3.303633544921875,9.769296646118164,0.02512463741004467,0.0323031060397625
1772655967271513300,3.313513427734375,9.77408218383789,0.02273181453347206,0.037088751792907715
1772655967281393200,3.32339306640625,9.77408218383789,0.020338991656899452,0.037088751792907715
1772655967291273000,3.33327294921875,9.771689414978027,0.02751746028661728,0.04905286431312561
1772655967301153000,3.343153076171875,9.7669038772583,0.02273181453347206,0.04187439754605293
1772655967311032600,3.353032470703125,9.762118339538574,0.02512463741004467,0.029910283163189888
1772655967320912600,3.36291259765625,9.776474952697754,0.02273181453347206,0.02751746028661728
1772655967330792400,3.37279248046875,9.769296646118164,0.02512463741004467,0.037088751792907715
1772655967340672300,3.38267236328125,9.759725570678711,0.029910283163189888,0.039481572806835175
1772655967350552000,3.392552001953125,9.771689414978027,0.02751746028661728,0.039481572806835175
1772655967360431900,3.402431884765625,9.7669038772583,0.02273181453347206,0.037088751792907715
1772655967370311700,3.412311767578125,9.77408218383789,0.017946170642971992,0.029910283163189888
1772655967380191500,3.42219140625,9.769296646118164,0.02512463741004467,0.04187439754605293
1772655967390071300,3.4320712890625,9.7669038772583,0.02512463741004467,0.039481572806835175
1772655967399951000,3.441951171875,9.764511108398438,0.017946170642971992,0.029910283163189888
1772655967409831000,3.451830810546875,9.77408218383789,0.020338991656899452,0.0323031060397625
1772655967419710700,3.461710693359375,9.771689414978027,0.02512463741004467,0.0323031060397625
1772655967429590500,3.471590576171875,9.769296646118164,0.02273181453347206,0.037088751792907715
1772655967439470300,3.48147021484375,9.7669038772583,0.02512463741004467,0.039481572806835175
1772655967449350100,3.49135009765625,9.764511108398438,0.02751746028661728,0.039481572806835175
1772655967459230000,3.50122998046875,9.769296646118164,0.02512463741004467,0.039481572806835175
1772655967469110000,3.511110107421875,9.771689414978027,0.02751746028661728,0.039481572806835175
1772655967478989600,3.520989501953125,9.77408218383789,0.020338991656899452,0.0323031060397625
1772655967488869600,3.53086962890625,9.769296646118164,0.02273181453347206,0.037088751792907715
1772655967498749400,3.54074951171875,9.77408218383789,0.02512463741004467,0.03469592705368996
1772655967508629200,3.550629150390625,9.771689414978027,0.029910283163189888,0.039481572806835175
1772655967518509000,3.560509033203125,9.762118339538574,0.0323031060397625,0.03469592705368996
1772655967528388900,3.570388916015625,9.771689414978027,0.02273181453347206,0.029910283163189888
1772655967538268700,3.5802685546875,9.769296646118164,0.02512463741004467,0.04187439754605293
1772655967548148500,3.5901484375,9.77408218383789,0.013160524889826775,0.039481572806835175
1772655967558028300,3.6000283203125,9.7669038772583,0.02512463741004467,0.03469592705368996
1772655967567908000,3.609908203125,9.764511108398438,0.02751746028661728,0.04666004329919815
1772655967577788000,3.619787841796875,9.764511108398438,0.020338991656899452,0.03469592705368996
1772655967587667700,3.629667724609375,9.7669038772583,0.020338991656899452,0.04426721855998039
1772655967597547500,3.639547607421875,9.77408218383789,0.02512463741004467,0.03469592705368996
1772655967607427300,3.64942724609375,9.769296646118164,0.02273181453347206,0.029910283163189888
1772655967617307100,3.65930712890625,9.769296646118164,0.020338991656899452,0.03469592705368996
1772655967627187000,3.66918701171875,9.771689414978027,0.02512463741004467,0.037088751792907715
1772655967637066800,3.679066650390625,9.769296646118164,0.02751746028661728,0.037088751792907715
1772655967646946600,3.688946533203125,9.7669038772583,0.02751746028661728,0.029910283163189888
1772655967656826600,3.69882666015625,9.762118339538574,0.02512463741004467,0.03469592705368996
1772655967666706200,3.7087060546875,9.7669038772583,0.020338991656899452,0.0323031060397625
1772655967676586200,3.718586181640625,9.764511108398438,0.02273181453347206,0.04187439754605293
1772655967686466000,3.728466064453125,9.77408218383789,0.02751746028661728,0.03469592705368996
1772655967696345900,3.738345947265625,9.764511108398438,0.02512463741004467,0.039481572806835175
1772655967706225700,3.7482255859375,9.77408218383789,0.029910283163189888,0.0323031060397625
1772655967716105500,3.75810546875,9.771689414978027,0.015553346835076809,0.039481572806835175
1772655967725985300,3.7679853515625,9.771689414978027,0.020338991656899452,0.037088751792907715
1772655967735865000,3.777864990234375,9.769296646118164,0.02273181453347206,0.0323031060397625
1772655967745745000,3.787744873046875,9.769296646118164,0.02751746028661728,0.02751746028661728
1772655967755624700,3.797624755859375,9.764511108398438,0.02751746028661728,0.03469592705368996
1772655967765504500,3.80750439453125,9.769296646118164,0.020338991656899452,0.03469592705368996
1772655967775384300,3.81738427734375,9.7669038772583,0.02512463741004467,0.037088751792907715
1772655967785264000,3.82726416015625,9.771689414978027,0.017946170642971992,0.039481572806835175
1772655967795144000,3.83714404296875,9.77408218383789,0.02273181453347206,0.04187439754605293
1772655967805023700,3.847023681640625,9.771689414978027,0.02273181453347206,0.037088751792907715
1772655967814903600,3.856903564453125,9.764511108398438,0.0323031060397625,0.03469592705368996
1772655967824783400,3.866783447265625,9.764511108398438,0.02273181453347206,0.037088751792907715
1772655967834663200,3.8766630859375,9.764511108398438,0.02751746028661728,0.029910283163189888
1772655967844543000,3.88654296875,9.771689414978027,0.017946170642971992,0.03469592705368996
1772655967854422800,3.8964228515625,9.769296646118164,0.02273181453347206,0.029910283163189888
1772655967864302600,3.906302490234375,9.764511108398438,0.02751746028661728,0.03469592705368996
1772655967874182700,3.9161826171875,9.764511108398438,0.02512463741004467,0.02512463741004467
1772655967884062500,3.9260625,9.762118339538574,0.02273181453347206,0.02751746028661728
1772655967893942300,3.9359423828125,9.769296646118164,0.017946170642971992,0.037088751792907715
1772655967903822000,3.945822021484375,9.7669038772583,0.02273181453347206,0.03469592705368996
1772655967913702000,3.955701904296875,9.764511108398438,0.02751746028661728,0.03469592705368996
1772655967923581700,3.965581787109375,9.7669038772583,0.02512463741004467,0.039481572806835175
1772655967933461500,3.97546142578125,9.7669038772583,0.017946170642971992,0.039481572806835175
1772655967943341300,3.98534130859375,9.776474952697754,0.02751746028661728,0.037088751792907715
1772655967953221000,3.99522119140625,9.764511108398438,0.02512463741004467,0.029910283163189888
1772655967963101000,4.005100830078125,9.764511108398438,0.02512463741004467,0.037088751792907715
1772655967972980700,4.014980712890625,9.769296646118164,0.020338991656899452,0.0323031060397625
1772655967982860500,4.024860595703125,9.769296646118164,0.02273181453347206,0.02751746028661728
1772655967992740400,4.034740234375,9.7669038772583,0.02273181453347206,0.03469592705368996
1772655968002620200,4.0446201171875,9.7669038772583,0.02751746028661728,0.03469592705368996
1772655968012500000,4.0545,9.7669038772583,0.02273181453347206,0.039481572806835175
1772655968022379800,4.0643798828125,9.769296646118164,0.02512463741004467,0.03469592705368996
1772655968032259600,4.074259521484375,9.769296646118164,0.020338991656899452,0.029910283163189888
1772655968042139400,4.084139404296875,9.769296646118164,0.02512463741004467,0.039481572806835175
1772655968052019200,4.094019287109375,9.7669038772583,0.020338991656899452,0.03469592705368996
1772655968061899000,4.10389892578125,9.762118339538574,0.015553346835076809,0.03529413416981697
1772655968071778800,4.11377880859375,9.762118339538574,0.02273181453347206,0.039481572806835175
1772655968081658600,4.12365869140625,9.764511108398438,0.02512463741004467,0.039481572806835175
1772655968091547600,4.133547607421875,9.769296646118164,0.020338991656899452,0.029910283163189888
1772655968101418500,4.14341845703125,9.762118339538574,0.020338991656899452,0.039481572806835175
1772655968111298000,4.153298095703125,9.764511108398438,0.017946170642971992,0.03290131315588951
1772655968121178000,4.16317822265625,9.771689414978027,0.020338991656899452,0.02512463741004467
1772655968131058000,4.173057861328125,9.764511108398438,0.015553346835076809,0.037088751792907715
1772655968140937700,4.182937744140625,9.764511108398438,0.02273181453347206,0.0323031060397625
1772655968150817500,4.192817626953125,9.7669038772583,0.02751746028661728,0.029910283163189888
1772655968160697300,4.202697265625,9.769296646118164,0.02512463741004467,0.03469592705368996
1772655968170577200,4.2125771484375,9.769296646118164,0.020338991656899452,0.029910283163189888
1772655968180457000,4.22245703125,9.764511108398438,0.020338991656899452,0.039481572806835175
1772655968190336800,4.232336669921875,9.769296646118164,0.029910283163189888,0.039481572806835175
1772655968200216600,4.242216552734375,9.77408218383789,0.017946170642971992,0.04426721855998039
1772655968210096400,4.252096435546875,9.771689414978027,0.02273181453347206,0.04187439754605293
1772655968219976200,4.26197607421875,9.771689414978027,0.020338991656899452,0.0323031060397625
1772655968229856000,4.27185595703125,9.771689414978027,0.020338991656899452,0.0323031060397625
1772655968239735800,4.28173583984375,9.759725570678711,0.02273181453347206,0.029910283163189888
1772655968249615600,4.29161572265625,9.769296646118164,0.020338991656899452,0.03469592705368996
1772655968259495400,4.301495361328125,9.762118339538574,0.02512463741004467,0.0323031060397625
1772655968269375200,4.311375244140625,9.769296646118164,0.02512463741004467,0.0323031060397625
1772655968279255000,4.321255126953125,9.77408218383789,0.020338991656899452,0.04905286431312561
1772655968289134800,4.331134765625,9.757332801818848,0.020338991656899452,0.04187439754605293
1772655968299014700,4.3410146484375,9.759725570678711,0.020338991656899452,0.02751746028661728
1772655968308894500,4.35089453125,9.769296646118164,0.015553346835076809,0.0323031060397625
1772655968318774300,4.360774169921875,9.762118339538574,0.02751746028661728,0.03469592705368996
1772655968328654000,4.370654052734375,9.764511108398438,0.020338991656899452,0.037088751792907715
1772655968338534000,4.380533935546875,9.769296646118164,0.029910283163189888,0.0323031060397625
1772655968348413700,4.39041357421875,9.764511108398438,0.02273181453347206,0.03469592705368996
1772655968358293800,4.400293701171875,9.764511108398438,0.02751746028661728,0.029910283163189888
1772655968368173300,4.41017333984375,9.754940032958984,0.02751746028661728,0.037088751792907715
1772655968378053400,4.420053466796875,9.771689414978027,0.02273181453347206,0.03469592705368996
1772655968387933200,4.42993310546875,9.769296646118164,0.02751746028661728,0.04426721855998039
1772655968397813000,4.43981298828125,9.764511108398438,0.020338991656899452,0.04187439754605293
1772655968407692800,4.44969287109375,9.7669038772583,0.02273181453347206,0.039481572806835175
1772655968417572600,4.459572509765625,9.762118339538574,0.02512463741004467,0.04187439754605293
1772655968427452400,4.469452392578125,9.769296646118164,0.020338991656899452,0.04187439754605293
1772655968437332200,4.479332275390625,9.762118339538574,0.020338991656899452,0.037088751792907715
1772655968447212000,4.4892119140625,9.77408218383789,0.02273181453347206,0.04426721855998039
1772655968457091800,4.499091796875,9.77408218383789,0.017946170642971992,0.0323031060397625
1772655968466971600,4.5089716796875,9.771689414978027,0.02273181453347206,0.0323031060397625
1772655968476851500,4.5188515625,9.764511108398438,0.020338991656899452,0.03469592705368996
1772655968486731300,4.528731201171875,9.771689414978027,0.017946170642971992,0.03469592705368996
1772655968496611000,4.538611083984375,9.759725570678711,0.02512463741004467,0.02512463741004467
1772655968506491000,4.548490966796875,9.7669038772583,0.017946170642971992,0.03469592705368996
1772655968516370700,4.55837060546875,9.764511108398438,0.017946170642971992,0.0323031060397625
1772655968526250500,4.56825048828125,9.764511108398438,0.020338991656899452,0.037088751792907715
1772655968536130300,4.57813037109375,9.764511108398438,0.02512463741004467,0.03469592705368996
1772655968546010000,4.588010009765625,9.77408218383789,0.020338991656899452,0.02512463741004467
1772655968555890000,4.597889892578125,9.771689414978027,0.02273181453347206,0.04187439754605293
1772655968565769700,4.607769775390625,9.7669038772583,0.02751746028661728,0.03469592705368996
1772655968575649500,4.6176494140625,9.769296646118164,0.015553346835076809,0.04187439754605293
1772655968585529300,4.627529296875,9.7669038772583,0.02273181453347206,0.037088751792907715
1772655968595409200,4.6374091796875,9.769296646118164,0.02273181453347206,0.03469592705368996
1772655968605289000,4.6472890625,9.764511108398438,0.02512463741004467,0.039481572806835175
1772655968615168800,4.657168701171875,9.764511108398438,0.02751746028661728,0.029910283163189888
1772655968625048600,4.667048583984375,9.7669038772583,0.02512463741004467,0.0323031060397625
1772655968634928400,4.676928466796875,9.764511108398438,0.02512463741004467,0.03469592705368996
1772655968644808200,4.68680810546875,9.771689414978027,0.02512463741004467,0.029910283163189888
1772655968654688000,4.69668798828125,9.762118339538574,0.0323031060397625,0.0323031060397625
1772655968664567800,4.70656787109375,9.762118339538574,0.02512463741004467,0.03469592705368996
1772655968674447600,4.716447509765625,9.771689414978027,0.017946170642971992,0.037088751792907715
1772655968684327400,4.726327392578125,9.764511108398438,0.029910283163189888,0.037088751792907715
1772655968694207200,4.736207275390625,9.764511108398438,0.02273181453347206,0.04187439754605293
1772655968704087000,4.746087158203125,9.769296646118164,0.017946170642971992,0.03469592705368996
1772655968713966800,4.755966796875,9.77408218383789,0.02273181453347206,0.0323031060397625
1772655968723846700,4.7658466796875,9.764511108398438,0.02512463741004467,0.039481572806835175
1772655968733726500,4.7757265625,9.7669038772583,0.020338991656899452,0.05144568532705307
1772655968743606500,4.7856064453125,9.764511108398438,0.02751746028661728,0.03469592705368996
1772655968753486000,4.795486083984375,9.762118339538574,0.020338991656899452,0.037088751792907715
1772655968763366000,4.805365966796875,9.769296646118164,0.029910283163189888,0.04426721855998039
1772655968773246000,4.815245849609375,9.771689414978027,0.02751746028661728,0.02751746028661728
1772655968783125500,4.82512548828125,9.762118339538574,0.02273181453347206,0.04187439754605293
1772655968793005600,4.835005615234375,9.764511108398438,0.017946170642971992,0.037088751792907715
1772655968802885400,4.844885498046875,9.7669038772583,0.029910283163189888,0.03469592705368996
1772655968812765000,4.854764892578125,9.769296646118164,0.02512463741004467,0.039481572806835175
1772655968822645000,4.86464501953125,9.769296646118164,0.02512463741004467,0.0323031060397625
1772655968832524800,4.87452490234375,9.764511108398438,0.020338991656899452,0.0323031060397625
1772655968842404600,4.884404541015625,9.7669038772583,0.017946170642971992,0.03469592705368996
1772655968852284400,4.894284423828125,9.764511108398438,0.02512463741004467,0.0323031060397625
1772655968862164200,4.904164306640625,9.764511108398438,0.015553346835076809,0.03529413416981697
1772655968872044000,4.9140439453125,9.762118339538574,0.020338991656899452,0.03469592705368996
1772655968881923800,4.923923828125,9.762118339538574,0.02273181453347206,0.0323031060397625
1772655968891803600,4.9338037109375,9.762118339538574,0.017946170642971992,0.03469592705368996
1772655968901683500,4.943683349609375,9.7669038772583,0.02273181453347206,0.03469592705368996
1772655968911563300,4.953563232421875,9.771689414978027,0.02273181453347206,0.029910283163189888
1772655968921443000,4.963443115234375,9.769296646118164,0.02273181453347206,0.03469592705368996
1772655968931323000,4.973322998046875,9.7669038772583,0.02273181453347206,0.04187439754605293
1772655968941202700,4.98320263671875,9.762118339538574,0.02512463741004467,0.029910283163189888
1772655968951082500,4.99308251953125,9.762118339538574,0.017946170642971992,0.03469592705368996
1772655968960962300,5.00296240234375,9.759725570678711,0.013160524889826775,0.03290131315588951
1772655968970842000,5.012842041015625,9.762118339538574,0.017946170642971992,0.037088751792907715
1772655968980722000,5.022721923828125,9.7669038772583,0.013160524889826775,0.03529413416981697
1772655968990601700,5.032601806640625,9.764511108398438,0.02273181453347206,0.02751746028661728
1772655969000481500,5.0424814453125,9.769296646118164,0.017946170642971992,0.039481572806835175
1772655969010361300,5.052361328125,9.769296646118164,0.017946170642971992,0.0323031060397625
1772655969020241200,5.0622412109375,9.771689414978027,0.02512463741004467,0.037088751792907715
1772655969030121000,5.072120849609375,9.764511108398438,0.02273181453347206,0.037088751792907715
1772655969040000800,5.082000732421875,9.764511108398438,0.020338991656899452,0.039481572806835175
1772655969049880600,5.091880615234375,9.769296646118164,0.02512463741004467,0.04187439754605293
1772655969059760400,5.101760498046875,9.769296646118164,0.02751746028661728,0.037088751792907715
1772655969069640200,5.11164013671875,9.7669038772583,0.02512463741004467,0.039481572806835175
1772655969079520000,5.12152001953125,9.7669038772583,0.017946170642971992,0.03469592705368996
1772655969089399800,5.13139990234375,9.762118339538574,0.020338991656899452,0.0323031060397625
1772655969099279600,5.141279541015625,9.759725570678711,0.020338991656899452,0.037088751792907715
1772655969109159400,5.151159423828125,9.769296646118164,0.013160524889826775,0.028115665540099144
1772655969119039200,5.161039306640625,9.769296646118164,0.02751746028661728,0.039481572806835175
1772655969128919000,5.1709189453125,9.771689414978027,0.020338991656899452,0.037088751792907715
1772655969138798800,5.180798828125,9.776474952697754,0.02751746028661728,0.03469592705368996
1772655969148678700,5.1906787109375,9.764511108398438,0.02751746028661728,0.04187439754605293
1772655969158558500,5.200558349609375,9.7669038772583,0.020338991656899452,0.04426721855998039
1772655969168438300,5.210438232421875,9.764511108398438,0.020338991656899452,0.04187439754605293
1772655969178318000,5.220318115234375,9.762118339538574,0.02512463741004467,0.029910283163189888
1772655969188198000,5.230197998046875,9.769296646118164,0.02512463741004467,0.0323031060397625
1772655969198077700,5.24007763671875,9.762118339538574,0.020338991656899452,0.02512463741004467
1772655969207957500,5.24995751953125,9.7669038772583,0.02512463741004467,0.0323031060397625
1772655969217837300,5.25983740234375,9.762118339538574,0.02751746028661728,0.029910283163189888
1772655969227717000,5.269717041015625,9.764511108398438,0.02751746028661728,0.0323031060397625
1772655969237597000,5.279596923828125,9.762118339538574,0.020338991656899452,0.039481572806835175
1772655969247476700,5.289476806640625,9.7669038772583,0.017946170642971992,0.04187439754605293
1772655969257356500,5.2993564453125,9.769296646118164,0.02273181453347206,0.03469592705368996
1772655969267236400,5.309236328125,9.757332801818848,0.02512463741004467,0.02751746028661728
1772655969277116200,5.3191162109375,9.7669038772583,0.017946170642971992,0.04187439754605293
1772655969286995700,5.32899560546875,9.762118339538574,0.02273181453347206,0.03469592705368996
1772655969296875800,5.338875732421875,9.769296646118164,0.02273181453347206,0.0323031060397625
1772655969306755600,5.348755615234375,9.7669038772583,0.02512463741004467,0.03469592705368996
1772655969316635100,5.35863525390625,9.764511108398438,0.029910283163189888,0.037088751792907715
1772655969326515000,5.368514892578125,9.769296646118164,0.017946170642971992,0.037088751792907715
1772655969336395000,5.37839501953125,9.762118339538574,0.02512463741004467,0.039481572806835175
1772655969346274600,5.388274658203125,9.759725570678711,0.02273181453347206,0.037088751792907715
1772655969356154400,5.398154296875,9.764511108398438,0.020338991656899452,0.029910283163189888
1772655969366034200,5.4080341796875,9.754940032958984,0.02273181453347206,0.03469592705368996
1772655969375914000,5.4179140625,9.754940032958984,0.017946170642971992,0.03768695518374443
1772655969385793800,5.427793701171875,9.757332801818848,0.02751746028661728,0.039481572806835175
1772655969395673600,5.437673583984375,9.7669038772583,0.02512463741004467,0.02751746028661728
1772655969405553400,5.447553466796875,9.7669038772583,0.020338991656899452,0.037088751792907715
1772655969415433200,5.45743310546875,9.769296646118164,0.020338991656899452,0.029910283163189888
1772655969425313000,5.46731298828125,9.764511108398438,0.02273181453347206,0.04426721855998039
1772655969435192800,5.47719287109375,9.759725570678711,0.020338991656899452,0.03469592705368996
1772655969445072600,5.48707275390625,9.764511108398438,0.0323031060397625,0.037088751792907715
1772655969454952400,5.496952392578125,9.7669038772583,0.02273181453347206,0.037088751792907715
1772655969464832300,5.506832275390625,9.757332801818848,0.02512463741004467,0.02751746028661728
1772655969474712000,5.516712158203125,9.77408218383789,0.02751746028661728,0.037088751792907715
1772655969484591900,5.526591796875,9.77408218383789,0.017946170642971992,0.03469592705368996
1772655969494471700,5.5364716796875,9.771689414978027,0.020338991656899452,0.037088751792907715
1772655969504351500,5.5463515625,9.764511108398438,0.02273181453347206,0.039481572806835175
1772655969514231300,5.556231201171875,9.762118339538574,0.02273181453347206,0.02512463741004467
1772655969524111000,5.566111083984375,9.771689414978027,0.020338991656899452,0.039481572806835175
1772655969533991000,5.575990966796875,9.757332801818848,0.02751746028661728,0.029910283163189888
1772655969543870700,5.58587060546875,9.752547264099121,0.02273181453347206,0.03469592705368996
1772655969553750500,5.59575048828125,9.764511108398438,0.02512463741004467,0.039481572806835175
1772655969563630300,5.60563037109375,9.769296646118164,0.02512463741004467,0.029910283163189888
1772655969573510100,5.61551025390625,9.7669038772583,0.02273181453347206,0.0323031060397625
1772655969583390000,5.625389892578125,9.762118339538574,0.020338991656899452,0.03469592705368996
1772655969593269800,5.635269775390625,9.7669038772583,0.017946170642971992,0.037088751792907715
1772655969603149600,5.645149658203125,9.762118339538574,0.02512463741004467,0.0323031060397625
1772655969613029400,5.655029296875,9.762118339538574,0.03469592705368996,0.039481572806835175
1772655969622909200,5.6649091796875,9.769296646118164,0.02273181453347206,0.0323031060397625
1772655969632789000,5.6747890625,9.769296646118164,0.02273181453347206,0.037088751792907715
1772655969642668800,5.684668701171875,9.764511108398438,0.020338991656899452,0.03469592705368996
1772655969652548600,5.694548583984375,9.764511108398438,0.02512463741004467,0.04187439754605293
1772655969662428400,5.704428466796875,9.759725570678711,0.029910283163189888,0.037088751792907715
1772655969672308200,5.71430810546875,9.764511108398438,0.02273181453347206,0.039481572806835175
1772655969682188000,5.72418798828125,9.759725570678711,0.02273181453347206,0.03469592705368996
1772655969692067800,5.73406787109375,9.757332801818848,0.020338991656899452,0.039481572806835175
1772655969701947600,5.74394775390625,9.769296646118164,0.02512463741004467,0.039481572806835175
1772655969711827500,5.753827392578125,9.769296646118164,0.02273181453347206,0.04187439754605293
1772655969721707000,5.76370703125,9.762118339538574,0.020338991656899452,0.037088751792907715
1772655969731586800,5.7735869140625,9.762118339538574,0.02512463741004467,0.0323031060397625
1772655969741467000,5.783466796875,9.7669038772583,0.020338991656899452,0.037088751792907715
1772655969751346400,5.793346435546875,9.759725570678711,0.017946170642971992,0.037088751792907715
1772655969761226200,5.803226318359375,9.764511108398438,0.0323031060397625,0.029910283163189888
1772655969771106000,5.81310595703125,9.759725570678711,0.020338991656899452,0.03469592705368996
1772655969780985900,5.82298583984375,9.764511108398438,0.02751746028661728,0.04187439754605293
1772655969790865700,5.83286572265625,9.762118339538574,0.02751746028661728,0.03469592705368996
1772655969800745500,5.842745361328125,9.759725570678711,0.020338991656899452,0.037088751792907715
1772655969810625300,5.852625244140625,9.7669038772583,0.02273181453347206,0.02751746028661728
1772655969820505000,5.862505126953125,9.759725570678711,0.02751746028661728,0.02751746028661728
1772655969830385000,5.872385009765625,9.762118339538574,0.020338991656899452,0.0323031060397625
1772655969840264700,5.8822646484375,9.757332801818848,0.015553346835076809,0.03529413416981697
1772655969850144500,5.89214453125,9.759725570678711,0.029910283163189888,0.0323031060397625
1772655969860024300,5.9020244140625,9.769296646118164,0.02751746028661728,0.03469592705368996
1772655969869904100,5.911904052734375,9.769296646118164,0.020338991656899452,0.029910283163189888
1772655969879784000,5.921783935546875,9.754940032958984,0.029910283163189888,0.039481572806835175
1772655969889663700,5.931663818359375,9.764511108398438,0.017946170642971992,0.03469592705368996
1772655969899543600,5.94154345703125,9.768698692321777,0.02273181453347206,0.0323031060397625
1772655969909423400,5.95142333984375,9.762118339538574,0.017946170642971992,0.05144568532705307
1772655969919303200,5.96130322265625,9.761520385742188,0.020338991656899452,0.037088751792907715
1772655969929183000,5.971182861328125,9.76391315460205,0.02512463741004467,0.037088751792907715
1772655969939062800,5.981062744140625,9.761520385742188,0.02273181453347206,0.039481572806835175
1772655969948942600,5.990942626953125,9.768698692321777,0.020338991656899452,0.037088751792907715
1772655969958822400,6.000822509765625,9.761520385742188,0.017946170642971992,0.037088751792907715
1772655969968702000,6.010701904296875,9.766305923461914,0.02273181453347206,0.03469592705368996
1772655969978581800,6.020581787109375,9.768698692321777,0.02751746028661728,0.03469592705368996
1772655969988461600,6.030461669921875,9.759127616882324,0.020338991656899452,0.037088751792907715
1772655969998341400,6.04034130859375,9.761520385742188,0.017946170642971992,0.030508488416671753
1772655970008221200,6.05022119140625,9.766305923461914,0.0323031060397625,0.039481572806835175
1772655970018101000,6.06010107421875,9.759127616882324,0.020338991656899452,0.037088751792907715
1772655970027980800,6.069980712890625,9.759127616882324,0.0323031060397625,0.0323031060397625
1772655970037860600,6.079860595703125,9.77109146118164,0.020338991656899452,0.0323031060397625
1772655970047740400,6.089740478515625,9.762118339538574,0.015553346835076809,0.039481572806835175
1772655970057620200,6.0996201171875,9.759127616882324,0.0323031060397625,0.039481572806835175
1772655970067500000,6.1095,9.76391315460205,0.020338991656899452,0.039481572806835175
1772655970077379800,6.1193798828125,9.766305923461914,0.02512463741004467,0.039481572806835175
1772655970087259600,6.129259765625,9.76391315460205,0.015553346835076809,0.0323031060397625
1772655970097139500,6.139139404296875,9.7669038772583,0.02273181453347206,0.0323031060397625
1772655970107019300,6.149019287109375,9.764511108398438,0.020338991656899452,0.04187439754605293
1772655970116899000,6.158899169921875,9.7669038772583,0.017946170642971992,0.029910283163189888
1772655970126779000,6.16877880859375,9.764511108398438,0.015553346835076809,0.02751746028661728
1772655970136658700,6.17865869140625,9.7669038772583,0.017946170642971992,0.04187439754605293
1772655970146538500,6.18853857421875,9.769296646118164,0.02751746028661728,0.039481572806835175
1772655970156418000,6.19841796875,9.764511108398438,0.020338991656899452,0.029910283163189888
1772655970166297900,6.2082978515625,9.757332801818848,0.02512463741004467,0.03469592705368996
1772655970176177700,6.218177734375,9.76391315460205,0.02512463741004467,0.03469592705368996
1772655970186057500,6.228057373046875,9.757332801818848,0.02273181453347206,0.03469592705368996
1772655970195937300,6.237937255859375,9.762118339538574,0.017946170642971992,0.0323031060397625
1772655970205817000,6.247817138671875,9.7669038772583,0.020338991656899452,0.037088751792907715
1772655970215697000,6.25769677734375,9.766305923461914,0.02273181453347206,0.02751746028661728
1772655970225576700,6.26757666015625,9.7669038772583,0.020338991656899452,0.037088751792907715
1772655970235456500,6.27745654296875,9.764511108398438,0.02512463741004467,0.0323031060397625
1772655970245336300,6.28733642578125,9.762118339538574,0.02512463741004467,0.0323031060397625
1772655970255216000,6.297216064453125,9.762118339538574,0.02512463741004467,0.04187439754605293
1772655970265096000,6.307095947265625,9.759725570678711,0.020338991656899452,0.029910283163189888
1772655970274975700,6.316975830078125,9.759725570678711,0.015553346835076809,0.0323031060397625
1772655970284855600,6.32685546875,9.762118339538574,0.017946170642971992,0.039481572806835175
1772655970294735400,6.3367353515625,9.759127616882324,0.020338991656899452,0.04187439754605293
1772655970304615200,6.346615234375,9.766305923461914,0.020338991656899452,0.04187439754605293
1772655970314494700,6.35649462890625,9.766305923461914,0.017946170642971992,0.037088751792907715
1772655970324374500,6.36637451171875,9.766305923461914,0.020338991656899452,0.039481572806835175
1772655970334254300,6.37625439453125,9.761520385742188,0.020338991656899452,0.037088751792907715
1772655970344134100,6.386134033203125,9.761520385742188,0.020338991656899452,0.0323031060397625
1772655970354014000,6.396013916015625,9.761520385742188,0.02751746028661728,0.04426721855998039
1772655970363893800,6.405893798828125,9.762118339538574,0.008374879136681557,0.037088751792907715
1772655970373773600,6.415773681640625,9.76391315460205,0.020338991656899452,0.0323031060397625
1772655970383653400,6.4256533203125,9.76391315460205,0.015553346835076809,0.039481572806835175
1772655970393533200,6.435533203125,9.761520385742188,0.02273181453347206,0.037088751792907715
1772655970403413000,6.4454130859375,9.766305923461914,0.02751746028661728,0.037088751792907715
1772655970413292800,6.455292724609375,9.768698692321777,0.02751746028661728,0.037088751792907715
1772655970423172600,6.465172607421875,9.761520385742188,0.02751746028661728,0.04187439754605293
1772655970433052200,6.47505224609375,9.761520385742188,0.02273181453347206,0.039481572806835175
1772655970442932000,6.484931884765625,9.766305923461914,0.017946170642971992,0.0323031060397625
1772655970452811800,6.494811767578125,9.759127616882324,0.02512463741004467,0.037088751792907715
1772655970462691600,6.504691650390625,9.759127616882324,0.013160524889826775,0.0323031060397625
1772655970472571400,6.5145712890625,9.761520385742188,0.017946170642971992,0.0323031060397625
1772655970482451200,6.524451171875,9.77109146118164,0.02512463741004467,0.0323031060397625
1772655970492331000,6.5343310546875,9.759127616882324,0.02512463741004467,0.02512463741004467
1772655970502210800,6.5442109375,9.764511108398438,0.02512463741004467,0.03469592705368996
1772655970512090600,6.554090576171875,9.764511108398438,0.02273181453347206,0.037088751792907715
1772655970521970400,6.563970458984375,9.764511108398438,0.017946170642971992,0.037088751792907715
1772655970531850200,6.573850341796875,9.764511108398438,0.02273181453347206,0.037088751792907715
1772655970541730000,6.58372998046875,9.764511108398438,0.02512463741004467,0.039481572806835175
1772655970551609900,6.59360986328125,9.762118339538574,0.020338991656899452,0.037088751792907715
1772655970561489400,6.603489501953125,9.764511108398438,0.02273181453347206,0.039481572806835175
1772655970571369200,6.613369140625,9.759725570678711,0.020338991656899452,0.03469592705368996
1772655970581249000,6.6232490234375,9.752547264099121,0.02751746028661728,0.0323031060397625
1772655970591128800,6.63312890625,9.764511108398438,0.02512463741004467,0.04187439754605293
1772655970601008600,6.643008544921875,9.762118339538574,0.02273181453347206,0.04187439754605293
1772655970610888400,6.652888427734375,9.764511108398438,0.020338991656899452,0.039481572806835175
1772655970620768300,6.662768310546875,9.7669038772583,0.02512463741004467,0.039481572806835175
1772655970630648000,6.67264794921875,9.757332801818848,0.02273181453347206,0.037088751792907715
1772655970640528000,6.68252783203125,9.764511108398438,0.015553346835076809,0.04187439754605293
1772655970650407700,6.69240771484375,9.762118339538574,0.02512463741004467,0.029910283163189888
1772655970660287500,6.70228759765625,9.762118339538574,0.02751746028661728,0.029910283163189888
1772655970670167000,6.7121669921875,9.762118339538574,0.017946170642971992,0.03469592705368996
1772655970680046800,6.722046875,9.764511108398438,0.015553346835076809,0.03469592705368996
1772655970689926700,6.7319267578125,9.757332801818848,0.02273181453347206,0.037088751792907715
1772655970699806500,6.741806396484375,9.761520385742188,0.02273181453347206,0.037088751792907715
1772655970709686300,6.751686279296875,9.759127616882324,0.02751746028661728,0.03469592705368996
1772655970719566000,6.761566162109375,9.768698692321777,0.017946170642971992,0.0323031060397625
1772655970729446000,6.77144580078125,9.759127616882324,0.02512463741004467,0.03469592705368996
1772655970739325700,6.78132568359375,9.761520385742188,0.020338991656899452,0.04426721855998039
1772655970749205500,6.79120556640625,9.766305923461914,0.02751746028661728,0.04426721855998039
1772655970759085300,6.801085205078125,9.759127616882324,0.020338991656899452,0.03469592705368996
1772655970768965000,6.810965087890625,9.766305923461914,0.029910283163189888,0.0323031060397625
1772655970778844700,6.8208447265625,9.759127616882324,0.017946170642971992,0.037088751792907715
1772655970788724500,6.830724365234375,9.759127616882324,0.02273181453347206,0.02751746028661728
1772655970798604300,6.840604248046875,9.768698692321777,0.02512463741004467,0.039481572806835175
1772655970808484000,6.850484130859375,9.759127616882324,0.02273181453347206,0.03469592705368996
1772655970818364000,6.860364013671875,9.76391315460205,0.029910283163189888,0.039481572806835175
1772655970828243700,6.87024365234375,9.761520385742188,0.02512463741004467,0.037088751792907715
1772655970838123500,6.88012353515625,9.754341125488281,0.017946170642971992,0.03469592705368996
1772655970848003300,6.89000341796875,9.768698692321777,0.017946170642971992,0.03469592705368996
1772655970857883100,6.899883056640625,9.759127616882324,0.02273181453347206,0.037088751792907715
1772655970867762700,6.9097626953125,9.77109146118164,0.020338991656899452,0.039481572806835175
1772655970877642500,6.919642578125,9.77109146118164,0.020338991656899452,0.0323031060397625
1772655970887522300,6.929522216796875,9.76391315460205,0.020338991656899452,0.039481572806835175
1772655970897402000,6.939402099609375,9.761520385742188,0.017946170642971992,0.039481572806835175
1772655970907282000,6.949281982421875,9.766305923461914,0.013160524889826775,0.04187439754605293
1772655970917161700,6.95916162109375,9.77109146118164,0.020338991656899452,0.04187439754605293
1772655970927041500,6.96904150390625,9.76391315460205,0.017946170642971992,0.029910283163189888
1772655970936921300,6.97892138671875,9.756733894348145,0.02273181453347206,0.039481572806835175
1772655970946801200,6.98880126953125,9.766305923461914,0.020338991656899452,0.04666004329919815
1772655970956680700,6.9986806640625,9.773484230041504,0.017946170642971992,0.04187439754605293
1772655970966560500,7.008560546875,9.766305923461914,0.02512463741004467,0.037088751792907715
1772655970976440300,7.0184404296875,9.76391315460205,0.020338991656899452,0.029910283163189888
1772655970986320100,7.028320068359375,9.766305923461914,0.02751746028661728,0.03469592705368996
1772655970996200000,7.038199951171875,9.766305923461914,0.02751746028661728,0.04187439754605293
1772655971006079700,7.048079833984375,9.768698692321777,0.015553346835076809,0.04187439754605293
1772655971015959600,7.05795947265625,9.77109146118164,0.02273181453347206,0.037088751792907715
1772655971025839400,7.06783935546875,9.77109146118164,0.020338991656899452,0.0323031060397625
1772655971035719200,7.07771923828125,9.76391315460205,0.02512463741004467,0.03469592705368996
1772655971045599000,7.087598876953125,9.766305923461914,0.02751746028661728,0.03469592705368996
1772655971055478500,7.097478515625,9.768698692321777,0.020338991656899452,0.03469592705368996
1772655971065358300,7.1073583984375,9.76391315460205,0.013160524889826775,0.037088751792907715
1772655971075238100,7.117238037109375,9.773484230041504,0.02273181453347206,0.039481572806835175
1772655971085118000,7.127117919921875,9.768698692321777,0.02512463741004467,0.037088751792907715
1772655971094997800,7.136997802734375,9.759127616882324,0.020338991656899452,0.0323031060397625
1772655971104877600,7.146877685546875,9.766305923461914,0.02751746028661728,0.04187439754605293
1772655971114757400,7.15675732421875,9.766305923461914,0.02273181453347206,0.03469592705368996
1772655971124637000,7.166636962890625,9.761520385742188,0.029910283163189888,0.0323031060397625
1772655971134516700,7.176516845703125,9.756733894348145,0.017946170642971992,0.0323031060397625
1772655971144396500,7.186396484375,9.76391315460205,0.015553346835076809,0.037088751792907715
1772655971154276400,7.1962763671875,9.76391315460205,0.02273181453347206,0.03469592705368996
1772655971164156200,7.20615625,9.759127616882324,0.02512463741004467,0.039481572806835175
1772655971174036000,7.216035888671875,9.761520385742188,0.015553346835076809,0.037088751792907715
1772655971183915800,7.225915771484375,9.768698692321777,0.02273181453347206,0.039481572806835175
1772655971193795600,7.235795654296875,9.756733894348145,0.020338991656899452,0.037088751792907715
1772655971203675100,7.245675048828125,9.754341125488281,0.017946170642971992,0.03469592705368996
1772655971213555000,7.255554931640625,9.761520385742188,0.013160524889826775,0.037088751792907715
1772655971223434800,7.265434814453125,9.768698692321777,0.020338991656899452,0.039481572806835175
1772655971233314600,7.275314453125,9.761520385742188,0.02273181453347206,0.039481572806835175
1772655971243194400,7.2851943359375,9.76391315460205,0.02512463741004467,0.037088751792907715
1772655971253074200,7.29507421875,9.766305923461914,0.02273181453347206,0.037088751792907715
1772655971262954000,7.3049541015625,9.756733894348145,0.02273181453347206,0.0323031060397625
1772655971272833800,7.314833740234375,9.76391315460205,0.013160524889826775,0.039481572806835175
1772655971282713300,7.32471337890625,9.754341125488281,0.02512463741004467,0.03469592705368996
1772655971292593200,7.33459326171875,9.756733894348145,0.02512463741004467,0.039481572806835175
1772655971302473000,7.344472900390625,9.759127616882324,0.02512463741004467,0.03469592705368996
1772655971312352800,7.354352783203125,9.76391315460205,0.02751746028661728,0.03469592705368996
1772655971322232600,7.364232666015625,9.768698692321777,0.02512463741004467,0.03469592705368996
1772655971332112400,7.3741123046875,9.766305923461914,0.02512463741004467,0.039481572806835175
1772655971341992200,7.3839921875,9.76391315460205,0.03469592705368996,0.037088751792907715
1772655971351871700,7.393871826171875,9.77109146118164,0.017946170642971992,0.03469592705368996
1772655971361751600,7.40375146484375,9.768698692321777,0.02273181453347206,0.03469592705368996
1772655971371631400,7.41363134765625,9.766305923461914,0.015553346835076809,0.04187439754605293
1772655971381511200,7.42351123046875,9.759127616882324,0.020338991656899452,0.039481572806835175
1772655971391391000,7.433390869140625,9.761520385742188,0.02751746028661728,0.03469592705368996
1772655971401270800,7.443270751953125,9.768698692321777,0.02751746028661728,0.02751746028661728
1772655971411150600,7.453150634765625,9.761520385742188,0.02512463741004467,0.0323031060397625
1772655971421030100,7.463030029296875,9.759127616882324,0.02273181453347206,0.039481572806835175
1772655971430910000,7.472909912109375,9.756733894348145,0.020338991656899452,0.02512463741004467
1772655971440789800,7.482789794921875,9.759127616882324,0.02751746028661728,0.029910283163189888
1772655971450669600,7.492669677734375,9.766305923461914,0.02751746028661728,0.037088751792907715
1772655971460549400,7.50254931640625,9.766305923461914,0.02273181453347206,0.037088751792907715
1772655971470429200,7.51242919921875,9.761520385742188,0.017946170642971992,0.0323031060397625
1772655971480309000,7.52230908203125,9.756733894348145,0.020338991656899452,0.039481572806835175
1772655971490188500,7.5321884765625,9.759127616882324,0.017946170642971992,0.03469592705368996
1772655971500068400,7.542068359375,9.766305923461914,0.02512463741004467,0.037088751792907715
1772655971509948200,7.5519482421875,9.76391315460205,0.017946170642971992,0.037088751792907715
1772655971519828000,7.561827880859375,9.766305923461914,0.017946170642971992,0.037088751792907715
1772655971529707800,7.571707763671875,9.76391315460205,0.02273181453347206,0.02751746028661728
1772655971539587600,7.581587646484375,9.749555587768555,0.02273181453347206,0.037088751792907715
1772655971549467400,7.59146728515625,9.76391315460205,0.02512463741004467,0.04426721855998039
1772655971559347200,7.60134716796875,9.766305923461914,0.029910283163189888,0.039481572806835175
1772655971569226800,7.611226806640625,9.759127616882324,0.02273181453347206,0.04187439754605293
1772655971579106600,7.6211064453125,9.766305923461914,0.010767702013254166,0.03469592705368996
1772655971588986400,7.630986328125,9.754341125488281,0.015553346835076809,0.02512463741004467
1772655971598866200,7.6408662109375,9.761520385742188,0.020338991656899452,0.03469592705368996
1772655971608746000,7.65074609375,9.76391315460205,0.020338991656899452,0.03469592705368996
1772655971618625800,7.660625732421875,9.773484230041504,0.02751746028661728,0.029910283163189888
1772655971628505300,7.67050537109375,9.76391315460205,0.02273181453347206,0.03469592705368996
1772655971638385200,7.68038525390625,9.761520385742188,0.020338991656899452,0.04187439754605293
1772655971648265000,7.690264892578125,9.766305923461914,0.020338991656899452,0.03469592705368996
1772655971658144800,7.700144775390625,9.761520385742188,0.017946170642971992,0.039481572806835175
1772655971668024600,7.710024658203125,9.766305923461914,0.020338991656899452,0.039481572806835175
1772655971677904400,7.719904296875,9.766305923461914,0.015553346835076809,0.03469592705368996
1772655971687784000,7.729783935546875,9.759127616882324,0.02273181453347206,0.029910283163189888
1772655971697663700,7.739663818359375,9.761520385742188,0.02273181453347206,0.037088751792907715
1772655971707543600,7.74954345703125,9.76391315460205,0.020338991656899452,0.037088751792907715
1772655971717423400,7.75942333984375,9.76391315460205,0.029910283163189888,0.03469592705368996
1772655971727303200,7.76930322265625,9.76391315460205,0.02512463741004467,0.0323031060397625
1772655971737183000,7.779182861328125,9.76391315460205,0.02512463741004467,0.03469592705368996
1772655971747062500,7.7890625,9.766305923461914,0.02512463741004467,0.03469592705368996
1772655971756942300,7.7989423828125,9.76391315460205,0.029910283163189888,0.04187439754605293
1772655971766822100,7.808822265625,9.761520385742188,0.013160524889826775,0.0323031060397625
1772655971776702000,7.818701904296875,9.766305923461914,0.017946170642971992,0.0323031060397625
1772655971786581800,7.828581787109375,9.766305923461914,0.020338991656899452,0.03469592705368996
1772655971796461600,7.838461669921875,9.766305923461914,0.02751746028661728,0.0323031060397625
1772655971806341000,7.848341064453125,9.76391315460205,0.02273181453347206,0.0323031060397625
1772655971816221000,7.858220947265625,9.766305923461914,0.017946170642971992,0.03469592705368996
1772655971826100700,7.868100830078125,9.759127616882324,0.02512463741004467,0.039481572806835175
1772655971835980500,7.87798046875,9.759127616882324,0.02512463741004467,0.0323031060397625
1772655971845860400,7.8878603515625,9.76391315460205,0.02512463741004467,0.04187439754605293
1772655971855740200,7.897740234375,9.766305923461914,0.02512463741004467,0.0323031060397625
1772655971865619700,7.90761962890625,9.759127616882324,0.015553346835076809,0.03469592705368996
1772655971875499500,7.91749951171875,9.761520385742188,0.02273181453347206,0.037088751792907715
1772655971885379300,7.92737939453125,9.76391315460205,0.020338991656899452,0.0323031060397625
1772655971895259100,7.937259033203125,9.76391315460205,0.020338991656899452,0.0323031060397625
1772655971905139000,7.947138916015625,9.756733894348145,0.015553346835076809,0.029910283163189888
1772655971915018800,7.957018798828125,9.76391315460205,0.02273181453347206,0.037088751792907715
1772655971924898300,7.966898193359375,9.768698692321777,0.015553346835076809,0.037088751792907715
1772655971934778000,7.976778076171875,9.766305923461914,0.017946170642971992,0.029910283163189888
1772655971944658000,7.986657958984375,9.759127616882324,0.020338991656899452,0.03469592705368996
1772655971954537700,7.996537841796875,9.759127616882324,0.017946170642971992,0.037088751792907715
1772655971964417500,8.00641748046875,9.759127616882324,0.02512463741004467,0.039481572806835175
1772655971974297300,8.01629736328125,9.761520385742188,0.029910283163189888,0.039481572806835175
1772655971984177000,8.026177001953124,9.766305923461914,0.020338991656899452,0.0323031060397625
1772655971994056700,8.036056640625,9.768698692321777,0.020338991656899452,0.039481572806835175
1772655972003936500,8.0459365234375,9.766305923461914,0.020338991656899452,0.039481572806835175
1772655972013816300,8.05581640625,9.76391315460205,0.017946170642971992,0.0323031060397625
1772655972023696100,8.065696044921875,9.768698692321777,0.02273181453347206,0.039481572806835175
1772655972033576000,8.075575927734375,9.766305923461914,0.02512463741004467,0.039481572806835175
1772655972043455500,8.08545556640625,9.761520385742188,0.020338991656899452,0.0323031060397625
1772655972053335300,8.095335205078126,9.766305923461914,0.02512463741004467,0.037088751792907715
1772655972063215000,8.105215087890626,9.761520385742188,0.02273181453347206,0.039481572806835175
1772655972073095000,8.115094970703124,9.766305923461914,0.02512463741004467,0.03469592705368996
1772655972082974700,8.124974609375,9.76391315460205,0.017946170642971992,0.039481572806835175
1772655972092854300,8.134854248046874,9.766305923461914,0.02512463741004467,0.037088751792907715
1772655972102734000,8.144734130859375,9.76391315460205,0.02273181453347206,0.0323031060397625
1772655972112614000,8.15461376953125,9.766305923461914,0.017946170642971992,0.0323031060397625
1772655972122493700,8.16449365234375,9.759127616882324,0.017946170642971992,0.037088751792907715
1772655972132373500,8.17437353515625,9.766305923461914,0.02512463741004467,0.03469592705368996
1772655972142253000,8.184253173828125,9.761520385742188,0.02273181453347206,0.03469592705368996
1772655972152132900,8.1941328125,9.761520385742188,0.020338991656899452,0.037088751792907715
1772655972162012700,8.2040126953125,9.761520385742188,0.020338991656899452,0.04187439754605293
1772655972171892500,8.213892578125,9.759127616882324,0.02751746028661728,0.039481572806835175
1772655972181772300,8.223772216796876,9.76391315460205,0.017946170642971992,0.0323031060397625
1772655972191652000,8.233652099609374,9.759127616882324,0.029910283163189888,0.029910283163189888
1772655972201531600,8.24353173828125,9.754341125488281,0.0323031060397625,0.04187439754605293
1772655972211411500,8.253411376953125,9.768698692321777,0.017946170642971992,0.039481572806835175
1772655972221291300,8.263291259765625,9.759127616882324,0.02512463741004467,0.029910283163189888
1772655972231171000,8.273171142578125,9.766305923461914,0.010767702013254166,0.03469592705368996
1772655972241051000,8.28305078125,9.766305923461914,0.010767702013254166,0.04187439754605293
1772655972250930400,8.292930419921875,9.768698692321777,0.013160524889826775,0.037088751792907715
1772655972260810200,8.302810302734375,9.766305923461914,0.017946170642971992,0.04187439754605293
1772655972270690000,8.31268994140625,9.761520385742188,0.02273181453347206,0.037088751792907715
1772655972280569900,8.32256982421875,9.761520385742188,0.017946170642971992,0.0323031060397625
1772655972290449400,8.332449462890626,9.761520385742188,0.02751746028661728,0.029910283163189888
1772655972300329200,8.3423291015625,9.751948356628418,0.02751746028661728,0.02512463741004467
1772655972310209000,8.352208984375,9.756733894348145,0.020338991656899452,0.04187439754605293
1772655972320088800,8.3620888671875,9.756733894348145,0.02273181453347206,0.03469592705368996
1772655972329968600,8.37196875,9.766305923461914,0.02512463741004467,0.037088751792907715
1772655972339848400,8.381848388671875,9.759127616882324,0.020338991656899452,0.037088751792907715
1772655972349728000,8.39172802734375,9.76391315460205,0.020338991656899452,0.04187439754605293
1772655972359607800,8.40160791015625,9.76391315460205,0.02512463741004467,0.039481572806835175
1772655972369487600,8.411487548828125,9.76391315460205,0.020338991656899452,0.03469592705368996
1772655972379367400,8.421367431640626,9.768698692321777,0.02512463741004467,0.037088751792907715
1772655972389247200,8.431247314453126,9.76391315460205,0.020338991656899452,0.037088751792907715
1772655972399126800,8.441126708984376,9.766305923461914,0.02512463741004467,0.029910283163189888
1772655972409006600,8.451006591796874,9.766305923461914,0.020338991656899452,0.03469592705368996
1772655972418886400,8.460886474609374,9.76391315460205,0.017946170642971992,0.0323031060397625
1772655972428766200,8.47076611328125,9.766305923461914,0.02273181453347206,0.029910283163189888
1772655972438645800,8.480645751953125,9.77109146118164,0.0323031060397625,0.04905286431312561
1772655972448525600,8.490525634765625,9.76391315460205,0.02273181453347206,0.0323031060397625
1772655972458405400,8.5004052734375,9.761520385742188,0.015553346835076809,0.039481572806835175
1772655972468285200,8.51028515625,9.761520385742188,0.017946170642971992,0.029910283163189888
1772655972478165000,8.5201650390625,9.766305923461914,0.02273181453347206,0.039481572806835175
1772655972488044500,8.53004443359375,9.761520385742188,0.013160524889826775,0.04426721855998039
1772655972497924400,8.53992431640625,9.754341125488281,0.020338991656899452,0.03469592705368996
1772655972507804200,8.54980419921875,9.77109146118164,0.02751746028661728,0.03469592705368996
1772655972517684000,8.55968408203125,9.766305923461914,0.017946170642971992,0.037088751792907715
1772655972527563800,8.569563720703124,9.76391315460205,0.029910283163189888,0.02751746028661728
1772655972537443300,8.579443359375,9.76391315460205,0.02273181453347206,0.03469592705368996
1772655972547323100,8.5893232421875,9.773484230041504,0.02512463741004467,0.037088751792907715
1772655972557203000,8.599202880859375,9.759127616882324,0.015553346835076809,0.03469592705368996
1772655972567082800,8.609082763671875,9.759127616882324,0.02512463741004467,0.02751746028661728
1772655972576962600,8.618962646484375,9.761520385742188,0.020338991656899452,0.039481572806835175
1772655972586842000,8.628842041015625,9.761520385742188,0.020338991656899452,0.029910283163189888
1772655972596722000,8.638721923828125,9.768698692321777,0.029910283163189888,0.039481572806835175
1772655972606601700,8.648601806640626,9.759127616882324,0.02751746028661728,0.0323031060397625
1772655972616481500,8.6584814453125,9.77109146118164,0.020338991656899452,0.039481572806835175
1772655972626361000,8.668361083984376,9.766305923461914,0.02751746028661728,0.03469592705368996
1772655972636241000,8.678240966796874,9.761520385742188,0.017946170642971992,0.029910283163189888
1772655972646120700,8.68812060546875,9.756733894348145,0.015553346835076809,0.02751746028661728
1772655972656000500,8.69800048828125,9.756733894348145,0.02273181453347206,0.03469592705368996
1772655972665880300,8.70788037109375,9.761520385742188,0.02273181453347206,0.0323031060397625
1772655972675759900,8.717759765625,9.756733894348145,0.020338991656899452,0.039481572806835175
1772655972685639700,8.7276396484375,9.766305923461914,0.017946170642971992,0.029910283163189888
1772655972695519500,8.73751953125,9.766305923461914,0.02751746028661728,0.037088751792907715
1772655972705399300,8.7473994140625,9.766305923461914,0.02273181453347206,0.03469592705368996
