time,seconds_elapsed,z,y,x
1772650955032868900,-0.001131103515625,7.943572998046875,-5.7858452796936035,1.8849459886550903
1772650955042732500,0.008732666015625,6.844070911407471,-5.769095420837402,1.7676976919174194
1772650955052624000,0.018623779296875,6.607779502868652,-5.923432350158691,1.4482558965682983
1772650955062501000,0.028501220703125,6.409773826599121,-5.920441627502441,1.3704891204833984
1772650955072378600,0.038378662109375,6.502495765686035,-5.848058700561523,1.4243277311325073
1772650955082256100,0.048256103515625,6.7076802253723145,-5.67338228225708,1.6121642589569092
1772650955092133400,0.05813330078125,6.905686378479004,-5.626124382019043,1.7682958841323853
1772650955102011000,0.068010986328125,7.046862602233887,-5.597410202026367,1.9459630250930786
1772650955111888400,0.077888427734375,7.1234331130981445,-5.520840167999268,2.17627215385437
1772650955121765600,0.087765625,7.261618614196777,-5.4041900634765625,2.3814568519592285
1772650955131643100,0.09764306640625,7.46500825881958,-5.349753379821777,2.48315167427063
1772650955142520600,0.1085205078125,7.715656757354736,-5.36769962310791,2.503490686416626
1772650955152397800,0.118397705078125,7.785048484802246,-5.3748779296875,2.496312141418457
1772650955211662600,0.17766259765625,7.93579626083374,-5.669195175170898,2.1128623485565186
1772650955221539800,0.187539794921875,8.026723861694336,-5.697310924530029,2.0985054969787598
1772650955231417300,0.197417236328125,8.053044319152832,-5.749952793121338,2.0656042098999023
1772650955241294600,0.207294677734375,8.038687705993652,-5.733202934265137,2.05603289604187
1772650955251172000,0.217172119140625,7.996214866638184,-5.730810165405273,2.1134605407714844
1772650955261049600,0.227049560546875,7.905287742614746,-5.694319725036621,2.1918256282806396
1772650955270926800,0.2369267578125,7.771289825439453,-5.628517150878906,2.2055842876434326
1772650955280804400,0.246804443359375,7.696514129638672,-5.523232936859131,2.221735715866089
1772650955290681900,0.256681884765625,7.779664516448975,-5.4418768882751465,2.2133610248565674
1772650955300559000,0.26655908203125,7.918448448181152,-5.386841773986816,2.17627215385437
1772650955310436600,0.2764365234375,7.999206066131592,-5.365904808044434,2.104487419128418
1772650955320313900,0.28631396484375,7.944170951843262,-5.3593244552612305,2.028515338897705
1772650955330191400,0.29619140625,7.88913631439209,-5.383851051330566,2.0027925968170166
1772650955340068900,0.30606884765625,7.8317084312438965,-5.401198863983154,1.9722840785980225
1772650955349946000,0.315946044921875,7.776673793792725,-5.30548620223999,2.002194404602051
1772650955359823600,0.32582373046875,7.725826263427734,-5.164907455444336,2.063211441040039
1772650955369701000,0.335701171875,7.72104024887085,-5.090131759643555,2.1337995529174805
1772650955379578400,0.345578369140625,7.707281589508057,-5.120640277862549,2.184048891067505
1772650955389456000,0.355455810546875,7.690532207489014,-5.14157772064209,2.255833625793457
1772650955399333400,0.36533349609375,7.70249605178833,-5.159523963928223,2.3635106086730957
1772650955409210600,0.375210693359375,7.729415416717529,-5.208576679229736,2.4568307399749756
1772650955419088100,0.385088134765625,7.791628837585449,-5.3007001876831055,2.50289249420166
1772650955428965600,0.394965576171875,7.9142608642578125,-5.400600910186768,2.5196423530578613
1772650955438843000,0.4048427734375,8.053044319152832,-5.467001438140869,2.496312141418457
1772650955448720400,0.414720458984375,8.162516593933105,-5.486144065856934,2.4580271244049072
1772650955458598000,0.424597900390625,8.248658180236816,-5.514857769012451,2.3533411026000977
1772650955468475100,0.43447509765625,8.255836486816406,-5.6069817543029785,2.1918256282806396
1772650955478352600,0.4443525390625,8.200801849365234,-5.685346603393555,2.0380866527557373
1772650955488230100,0.454230224609375,8.13380241394043,-5.7134623527526855,1.8789639472961426
1772650955498107400,0.464107421875,8.093124389648438,-5.661418437957764,1.8191434144973755
1772650955507985000,0.47398486328125,8.040482521057129,-5.592624664306641,1.8352949619293213
1772650955517862100,0.483862060546875,7.970492362976074,-5.4658050537109375,1.8508483171463013
1772650955527739600,0.49373974609375,7.841279983520508,-5.323431968688965,1.8783657550811768
1772650955537617200,0.5036171875,7.671389579772949,-5.245067119598389,1.8544375896453857
1772650955547494400,0.513494384765625,7.525427341461182,-5.203192710876465,1.8478572368621826
1772650955557372000,0.523371826171875,7.441678524017334,-5.170291423797607,1.8496519327163696
1772650955567249400,0.53324951171875,7.3746795654296875,-5.143970489501953,1.8664016723632812
1772650955577126700,0.543126708984375,7.3292155265808105,-5.1080780029296875,1.8783657550811768
1772650955587004200,0.553004150390625,7.355536937713623,-5.073980331420898,1.934597134590149
1772650955596881400,0.56288134765625,7.476972579956055,-5.058426856994629,2.015354871749878
1772650955606759000,0.572759033203125,7.606184959411621,-5.033900737762451,2.0548365116119385
1772650955626513700,0.592513671875,7.904689788818359,-4.984249591827393,2.139183521270752
1772650955636391200,0.60239111328125,7.957331657409668,-5.033900737762451,2.1415762901306152
1772650955646268700,0.6122685546875,7.897511005401611,-5.053641319274902,2.166102647781372
1772650955656146000,0.62214599609375,7.740182876586914,-5.010570526123047,2.1996021270751953
1772650955666023400,0.6320234375,7.689335346221924,-4.922036170959473,2.2199411392211914
1772650955675901000,0.64190087890625,7.694121360778809,-4.874777793884277,2.1984057426452637
1772650955685778200,0.651778076171875,7.651050567626953,-4.892126083374023,2.1200408935546875
1772650955695655700,0.66165576171875,7.674978733062744,-4.945366382598877,2.0416758060455322
1772650955705533000,0.671532958984375,7.779664516448975,-4.986642360687256,1.939382791519165
1772650955715410400,0.681410400390625,7.894520282745361,-4.955535888671875,1.8813568353652954
1772650955725288000,0.691287841796875,7.903493404388428,-4.910670280456543,1.8406788110733032
1772650955735165200,0.701165283203125,7.788637638092041,-4.861019134521484,1.80717933177948
1772650955745042700,0.711042724609375,7.69531774520874,-4.804787635803223,1.7784653902053833
1772650955754920000,0.720919921875,7.671389579772949,-4.761716842651367,1.7754744291305542
1772650955764797400,0.73079736328125,7.724031448364258,-4.752145767211914,1.770688772201538
1772650955774675000,0.740675048828125,7.767102241516113,-4.776073932647705,1.7563318014144897
1772650955784552200,0.75055224609375,7.8382887840271,-4.756333351135254,1.7700905799865723
1772650955794429700,0.7604296875,7.886145114898682,-4.653441905975342,1.8239290714263916
1772650955804307000,0.770306884765625,7.878368377685547,-4.567300319671631,1.846660852432251
1772650955814184400,0.780184326171875,7.847261905670166,-4.524229526519775,1.8610178232192993
1772650955824062000,0.79006201171875,7.88076114654541,-4.514657974243164,1.846660852432251
1772650955833939200,0.799939208984375,7.9280195236206055,-4.507479667663574,1.812563180923462
1772650955843816700,0.809816650390625,7.971090316772461,-4.497908592224121,1.8149559497833252
1772650955853694200,0.819694091796875,8.10987377166748,-4.491926193237305,1.9022940397262573
1772650955863571500,0.829571533203125,8.298309326171875,-4.482953071594238,1.9776679277420044
1772650955873449000,0.839448974609375,8.482556343078613,-4.4243292808532715,2.083550214767456
1772650955883326200,0.849326171875,8.599804878234863,-4.343571186065674,2.2133610248565674
1772650955893203700,0.85920361328125,8.645268440246582,-4.304687976837158,2.3084757328033447
1772650955903081200,0.869081298828125,8.68774127960205,-4.262813568115234,2.4149563312530518
1772650955912958500,0.87895849609375,8.757132530212402,-4.261617183685303,2.50289249420166
1772650955922836000,0.8888359375,8.874979019165039,-4.347160339355469,2.513062000274658
1772650955932713500,0.89871337890625,8.956335067749023,-4.494917392730713,2.507079839706421
1772650955942590700,0.9085908203125,9.06700325012207,-4.637888431549072,2.489133834838867
1772650955952468200,0.91846826171875,9.186644554138184,-4.800600528717041,2.3706889152526855
1772650955962345500,0.928345458984375,9.358927726745605,-5.039284706115723,2.060220241546631
1772650955972223000,0.938222900390625,9.519845008850098,-5.355136871337891,1.6528422832489014
1772650955982100500,0.9481005859375,9.565906524658203,-5.6548380851745605,1.215553879737854
1772650955991977700,0.957977783203125,9.439684867858887,-5.859424591064453,0.8105686902999878
1772650956001855200,0.967855224609375,9.065208435058594,-6.032904148101807,0.50129634141922
1772650956011732500,0.977732421875,8.677571296691895,-6.138786315917969,0.2679961323738098
1772650956021610000,0.98760986328125,8.312067985534668,-6.172286033630371,0.12203395366668701
1772650956031487500,0.997487548828125,8.070990562438965,-6.209972858428955,0.07836493849754333
1772650956041364700,1.00736474609375,7.9830546379089355,-6.255436420440674,0.11964113265275955
1772650956051242200,1.0172421875,7.852047443389893,-6.3122663497924805,0.1944168359041214
1772650956061119500,1.027119384765625,7.7353973388671875,-6.351747512817383,0.3643072545528412
1772650956070997000,1.0369970703125,7.678567886352539,-6.4354963302612305,0.5485545992851257
1772650956080874500,1.04687451171875,7.734200954437256,-6.471987247467041,0.7256234884262085
1772650956090751700,1.056751708984375,7.934599876403809,-6.4456658363342285,0.9337990283966064
1772650956100629200,1.066629150390625,8.21695327758789,-6.419943332672119,1.0205388069152832
1772650956110506800,1.0765068359375,8.469993591308594,-6.398407936096191,0.9553344249725342
1772650956120384000,1.086384033203125,8.564510345458984,-6.361319065093994,0.7663014531135559
1772650956130261500,1.096261474609375,8.578269004821777,-6.32363224029541,0.49172505736351013
1772650956140138800,1.106138671875,8.525029182434082,-6.243472576141357,0.16031911969184875
1772650956150016300,1.116016357421875,8.309076309204102,-6.149554252624512,-0.21176479756832123
1772650956159893500,1.1258935546875,7.93998384475708,-5.902495384216309,-0.4654040038585663
1772650956169771000,1.13577099609375,7.458428382873535,-5.660820007324219,-0.6687939167022705
1772650956179648500,1.1456484375,6.993622303009033,-5.358128070831299,-0.7579265832901001
1772650956189525800,1.15552587890625,6.619743824005127,-5.059623718261719,-0.8027920126914978
1772650956199403300,1.1654033203125,6.410970211029053,-4.8574299812316895,-0.8015955686569214
1772650956209280800,1.17528076171875,6.267400741577148,-4.716253280639648,-0.7070791125297546
1772650956219158000,1.185157958984375,6.243472576141357,-4.5786662101745605,-0.5318048596382141
1772650956229035500,1.195035400390625,6.367899417877197,-4.5236310958862305,-0.2949153780937195
1772650956238912800,1.204912841796875,6.537191390991211,-4.497310161590576,-0.064606212079525
1772650956248790300,1.214790283203125,6.752545356750488,-4.470390796661377,0.15314064919948578
1772650956258667800,1.224667724609375,6.97268533706665,-4.460221290588379,0.3762713670730591
1772650956268545000,1.234544921875,7.266404151916504,-4.4512481689453125,0.6616154313087463
1772650956278422500,1.244422607421875,7.4847493171691895,-4.508078098297119,0.9254241585731506
1772650956288299800,1.2542998046875,7.648059368133545,-4.651647090911865,1.095314621925354
1772650956298177300,1.26417724609375,7.808976650238037,-4.820341110229492,1.1084750890731812
1772650956308054800,1.2740546875,8.005785942077637,-5.13320255279541,0.98703932762146
1772650956317932000,1.28393212890625,8.243273735046387,-5.4795637130737305,0.7920243144035339
1772650956327809500,1.2938095703125,8.440681457519531,-5.827719688415527,0.5180460810661316
1772650956337686800,1.303686767578125,8.632107734680176,-5.980860233306885,0.373878538608551
1772650956347564300,1.313564208984375,8.729615211486816,-5.944369792938232,0.37806597352027893
1772650956357441800,1.32344189453125,8.696115493774414,-5.861817359924316,0.31046873331069946
1772650956367319000,1.333319091796875,8.495118141174316,-5.853442192077637,0.2679961323738098
1772650956377196500,1.343196533203125,8.260622024536133,-5.7170515060424805,0.39421752095222473
1772650956387073800,1.35307373046875,7.9280195236206055,-5.603392601013184,0.45104706287384033
1772650956396951300,1.362951416015625,7.53140926361084,-5.547759532928467,0.39960137009620667
1772650956406828500,1.37282861328125,7.2089762687683105,-5.553741455078125,0.3768695592880249
1772650956416706000,1.3827060546875,7.110870838165283,-5.581258773803711,0.31345975399017334
1772650956426583600,1.39258349609375,7.096513748168945,-5.574080467224121,0.32303106784820557
1772650956436460800,1.402460693359375,7.1132636070251465,-5.520241737365723,0.4295116662979126
1772650956446338300,1.41233837890625,7.225128173828125,-5.44008207321167,0.5904290080070496
1772650956456215800,1.4222158203125,7.478767395019531,-5.389832973480225,0.7393822073936462
1772650956466093000,1.432093017578125,7.803592681884766,-5.376074314117432,0.8476574420928955
1772650956475970600,1.441970458984375,8.201997756958008,-5.199005603790283,0.9750752449035645
1772650956485847800,1.451847900390625,8.616554260253906,-4.960321426391602,1.085145115852356
1772650956495725300,1.461725341796875,8.901300430297852,-5.002195835113525,1.0869396924972534
1772650956505602600,1.4716025390625,8.901898384094238,-5.292325496673584,0.9332008361816406
1772650956515480000,1.48147998046875,8.773882865905762,-5.5998029708862305,0.7363911867141724
1772650956525357600,1.491357666015625,8.61475944519043,-5.842674732208252,0.5970092415809631
1772650956535234800,1.50123486328125,8.47896671295166,-5.946762561798096,0.5216353535652161
1772650956545112300,1.5111123046875,8.330612182617188,-5.882754325866699,0.5240281820297241
1772650956554989800,1.52098974609375,8.208578109741211,-5.736194133758545,0.6735795736312866
1772650956564867000,1.5308671875,8.015357971191406,-5.630311489105225,0.8967102766036987
1772650956574744600,1.54074462890625,7.7353973388671875,-5.5932230949401855,1.0689935684204102
1772650956584621800,1.550621826171875,7.47338342666626,-5.587839126586914,1.2628121376037598
1772650956594499300,1.560499267578125,7.325626373291016,-5.565107345581055,1.4679967164993286
1772650956604376600,1.57037646484375,7.325626373291016,-5.502893924713135,1.7156537771224976
1772650956614254000,1.580254150390625,7.4261250495910645,-5.434100151062012,1.9381862878799438
1772650956624131600,1.590131591796875,7.471588611602783,-5.3940205574035645,2.0853450298309326
1772650956634008800,1.6000087890625,7.442874908447266,-5.344967365264893,2.2570300102233887
1772650956643886300,1.60988623046875,7.383054256439209,-5.274977684020996,2.3802602291107178
1772650956653763600,1.619763671875,7.373483180999756,-5.158925533294678,2.510071039199829
1772650956663641000,1.62964111328125,7.499704360961914,-5.044668197631836,2.7008986473083496
1772650956673518600,1.6395185546875,7.716853141784668,-4.9124650955200195,2.946761131286621
1772650956683395800,1.649395751953125,8.02492904663086,-4.762315273284912,3.115455150604248
1772650956693273300,1.6592734375,8.377870559692383,-4.683950424194336,3.1920254230499268
1772650956703150600,1.669150634765625,8.751151084899902,-4.770689964294434,3.211168050765991
1772650956713028000,1.679028076171875,9.035896301269531,-4.910071849822998,3.2231321334838867
1772650956722905600,1.688905517578125,9.253643035888672,-5.0566325187683105,3.2853455543518066
1772650956732782800,1.698782958984375,9.388837814331055,-5.375475883483887,3.297907829284668
1772650956742660400,1.708660400390625,9.483952522277832,-5.839085578918457,3.218944549560547
1772650956752537600,1.71853759765625,9.648459434509277,-6.4079790115356445,2.988635540008545
1772650956762415000,1.7284150390625,9.986445426940918,-6.942176818847656,2.630310297012329
1772650956772292400,1.738292236328125,10.424331665039062,-7.248457908630371,2.307877540588379
1772650956782169900,1.748169921875,10.966904640197754,-7.428517818450928,2.052443504333496
1772650956792047400,1.75804736328125,11.385049819946289,-7.579265594482422,1.831107497215271
1772650956801924600,1.767924560546875,11.504691123962402,-7.756932735443115,1.6079767942428589
1772650956811802000,1.777802001953125,11.154142379760742,-7.872386455535889,1.412961721420288
1772650956821679400,1.787679443359375,10.17727279663086,-7.963313579559326,1.241276741027832
1772650956831543000,1.79754296875,9.078369140625,-7.932207107543945,1.2167502641677856
1772650956841434400,1.807434326171875,8.196015357971191,-7.592426300048828,1.4165509939193726
1772650956851311600,1.8173115234375,7.528418064117432,-7.201797962188721,1.5601203441619873
1772650956861175300,1.82717529296875,7.156932353973389,-6.866204738616943,1.6630117893218994
1772650956871066400,1.83706640625,7.109674453735352,-6.431309223175049,1.820937991142273
1772650956880943900,1.84694384765625,7.165905475616455,-6.137589931488037,1.7964116334915161
1772650956890821400,1.8568212890625,7.112665176391602,-6.178866386413574,1.5014961957931519
1772650956900698600,1.86669873046875,6.952346324920654,-6.2327046394348145,1.150349497795105
1772650956910576000,1.876576171875,6.596413612365723,-6.2530436515808105,0.8991031050682068
1772650956920453400,1.886453369140625,6.156732559204102,-6.198009014129639,0.828514814376831
1772650956930331000,1.896330810546875,5.798407554626465,-6.116652965545654,1.0169496536254883
1772650956940208000,1.9062080078125,5.466403484344482,-6.071787357330322,1.332802176475525
1772650956950085600,1.916085693359375,5.139782905578613,-6.079564094543457,1.6767704486846924
1772650956959963100,1.925963134765625,4.803591251373291,-6.119045734405518,1.9262222051620483
1772650956969840400,1.93584033203125,4.486542224884033,-6.233901023864746,2.0027925968170166
1772650956979718000,1.9457177734375,4.267599105834961,-6.461817741394043,1.929213285446167
1772650956989595100,1.95559521484375,4.098905086517334,-6.675975322723389,1.7988044023513794
1772650956999472600,1.96547265625,3.9421753883361816,-6.8859453201293945,1.622931957244873
1772650957009350100,1.97535009765625,3.8368911743164062,-6.976274490356445,1.454836130142212
1772650957019227400,1.985227294921875,3.903291940689087,-6.981658458709717,1.3812568187713623
1772650957029105000,1.99510498046875,4.106083869934082,-6.887141704559326,1.4171491861343384
1772650957038982100,2.004982177734375,4.397409915924072,-6.772884368896484,1.536790370941162
1772650957048859600,2.014859619140625,4.82751989364624,-6.6592254638671875,1.7461622953414917
1772650957058737000,2.02473681640625,5.225924491882324,-6.5521464347839355,1.8843477964401245
1772650957068614400,2.034614501953125,5.569892883300781,-6.514459609985352,1.934597134590149
1772650957078492000,2.044491943359375,5.8612189292907715,-6.491727828979492,1.911865234375
1772650957088369200,2.054369140625,6.137589931488037,-6.426523208618164,1.908276081085205
1772650957098246700,2.06424658203125,6.388238430023193,-6.311069488525391,1.9226330518722534
1772650957108124200,2.074124267578125,6.533003807067871,-6.177071571350098,1.9298114776611328
1772650957118001400,2.08400146484375,6.561717987060547,-6.045466423034668,1.9142581224441528
1772650957127879000,2.09387890625,6.458826541900635,-6.02393102645874,1.9669002294540405
1772650957137756200,2.103756103515625,6.179464340209961,-6.0741801261901855,2.0685951709747314
1772650957147633700,2.113633544921875,5.805585861206055,-6.164509296417236,2.242672920227051
1772650957157511000,2.123510986328125,5.384449005126953,-6.479763507843018,2.4233310222625732
1772650957167388400,2.133388427734375,5.015356063842773,-6.846463680267334,2.6219353675842285
1772650957177266000,2.143265869140625,5.000999450683594,-7.308876991271973,2.6739792823791504
1772650957187129300,2.15312939453125,5.279763221740723,-8.181060791015625,2.6458635330200195
1772650957197020700,2.163020751953125,5.6656060218811035,-8.62014389038086,2.7086751461029053
1772650957206898000,2.17289794921875,5.912066459655762,-8.62014389038086,2.874976396560669
1772650957216775400,2.182775390625,6.057430744171143,-8.370692253112793,3.2243285179138184
1772650957226652700,2.192652587890625,6.175875186920166,-8.078767776489258,3.518645763397217
1772650957236530200,2.2025302734375,6.225526332855225,-7.706085205078125,3.8291144371032715
1772650957246407700,2.21240771484375,6.380461692810059,-7.667201995849609,4.073780536651611
1772650957256285000,2.222284912109375,6.62931489944458,-7.826324462890625,4.071985721588135
1772650957266162400,2.232162353515625,6.990033149719238,-7.7563347816467285,4.015156269073486
1772650957276039700,2.242039794921875,7.34177827835083,-7.867600917816162,3.9792640209198
1772650957285917200,2.251917236328125,7.654639720916748,-7.981259822845459,3.950550079345703
1772650957295794400,2.26179443359375,7.888537883758545,-7.9280195236206055,3.9182469844818115
1772650957305672000,2.271671875,8.045866012573242,-7.853842258453369,3.8500516414642334
1772650957315549400,2.281549560546875,8.172087669372559,-7.829315662384033,3.6131622791290283
1772650957325426700,2.2914267578125,8.014759063720703,-7.465606689453125,3.297907829284668
1772650957335304200,2.30130419921875,7.525427341461182,-7.133004188537598,3.1130621433258057
1772650957345181400,2.311181396484375,6.902096748352051,-7.082156658172607,2.8839495182037354
1772650957355059000,2.321058837890625,6.270391941070557,-6.959524631500244,2.7517459392547607
1772650957364922600,2.330922607421875,5.731408596038818,-6.543771743774414,2.7798616886138916
1772650957374813700,2.340813720703125,4.974678039550781,-6.248258113861084,2.60339093208313
1772650957384691200,2.350691162109375,4.83888578414917,-5.79063081741333,2.349153518676758
1772650957394555000,2.360554931640625,4.035495281219482,-5.61116886138916,2.20737886428833
1772650957404446000,2.370446044921875,3.648456335067749,-5.638686656951904,1.9974087476730347
1772650957414323500,2.380323486328125,3.460021495819092,-5.754140377044678,1.9106688499450684
1772650957424200700,2.39020068359375,3.4618160724639893,-5.6656060218811035,1.6809579133987427
1772650957434078200,2.400078125,3.824328899383545,-5.8713884353637695,1.2604193687438965
1772650957443955500,2.40995556640625,4.467998027801514,-6.38464879989624,0.7010970115661621
1772650957453819100,2.419819091796875,5.231308460235596,-6.820741176605225,0.18065811693668365
1772650957463710200,2.429710205078125,5.794219970703125,-7.3878397941589355,-0.5066801905632019
1772650957473587700,2.439587646484375,6.002993583679199,-7.8903326988220215,-0.9649057388305664
1772650957483465200,2.44946533203125,6.366703033447266,-7.970492362976074,-0.7770691514015198
1772650957493342500,2.459342529296875,6.065207004547119,-7.961519241333008,0.27038896083831787
1772650957503220000,2.469219970703125,6.763313293457031,-7.744370460510254,0.9966106414794922
1772650957513083400,2.47908349609375,7.3022966384887695,-7.3052873611450195,1.898106575012207
1772650957522974700,2.488974609375,7.848458290100098,-7.040282249450684,2.200798511505127
1772650957532852200,2.498852294921875,8.208578109741211,-7.094120979309082,1.6139588356018066
1772650957542715600,2.508715576171875,8.896514892578125,-7.466204643249512,0.5694918036460876
1772650957552607000,2.51860693359375,8.967700958251953,-8.047660827636719,0.3481557071208954
1772650957562484200,2.528484130859375,8.954540252685547,-8.350353240966797,0.4061816334724426
1772650957572361700,2.53836181640625,8.9581298828125,-8.100900650024414,0.28235307335853577
1772650957582239000,2.548239013671875,8.46760082244873,-7.846663475036621,0.3361915946006775
1772650957592116500,2.558116455078125,8.079963684082031,-7.788039684295654,0.18723836541175842
1772650957601994000,2.567993896484375,8.49033260345459,-7.70249605178833,0.005982056725770235
1772650957611871200,2.577871337890625,8.157731056213379,-7.731209754943848,0.8392825126647949
1772650957621748700,2.587748779296875,7.658827304840088,-7.523632526397705,1.5726827383041382
1772650957631626000,2.5976259765625,8.009973526000977,-6.999006271362305,1.44945228099823
1772650957641503500,2.60750341796875,8.123034477233887,-6.689733982086182,1.293320655822754
1772650957651380700,2.617380615234375,7.993224143981934,-6.664609432220459,0.9499505758285522
1772650957661258200,2.62725830078125,7.784450054168701,-6.723233222961426,0.372682124376297
1772650957671135700,2.6371357421875,7.444071292877197,-6.647261142730713,-0.27756741642951965
1772650957681013000,2.647012939453125,7.115057945251465,-6.369095802307129,-0.7339983582496643
1772650957690890500,2.656890380859375,6.8273210525512695,-6.140581130981445,-0.9756734371185303
1772650957700767700,2.666767822265625,6.427121639251709,-5.958128452301025,-1.1455638408660889
1772650957710645200,2.676645263671875,5.912664890289307,-5.819344520568848,-1.168893814086914
1772650957720509000,2.686509033203125,5.468197822570801,-5.618945598602295,-0.9690931439399719
1772650957730400000,2.69639990234375,5.197809219360352,-5.260022163391113,-0.5168496966362
1772650957740277500,2.706277587890625,5.120640277862549,-4.884947299957275,0.09690931439399719
1772650957750154800,2.71615478515625,5.303691387176514,-4.506881237030029,0.6789634227752686
1772650957760032300,2.7260322265625,5.647659778594971,-4.31306266784668,1.0516455173492432
1772650957769909500,2.735909423828125,6.0538411140441895,-4.354339122772217,1.100698471069336
1772650957779787000,2.745787109375,6.309873104095459,-4.456632137298584,1.0031908750534058
1772650957789664500,2.75566455078125,6.417550563812256,-4.624728202819824,0.8374879360198975
1772650957799541800,2.765541748046875,6.4564337730407715,-4.784449100494385,0.844068169593811
1772650957809419300,2.775419189453125,6.564708709716797,-4.836492538452148,1.1132607460021973
1772650957819296500,2.785296630859375,6.780063152313232,-4.840082168579102,1.4368900060653687
1772650957829174000,2.795174072265625,7.034300327301025,-4.996811866760254,1.594218134880066
1772650957839051300,2.80505126953125,7.241877555847168,-4.983053207397461,1.76051926612854
1772650957848928800,2.8149287109375,7.387241840362549,-4.789832592010498,1.9914265871047974
1772650957858806300,2.82480615234375,7.472784996032715,-4.612165451049805,2.0416758060455322
1772650957868683500,2.83468359375,7.458428382873535,-4.7401814460754395,1.8598214387893677
1772650957878561000,2.84456103515625,7.421339511871338,-5.085944652557373,1.412961721420288
1772650957888438300,2.854438232421875,7.307082176208496,-5.463412284851074,0.8644071817398071
1772650957898315800,2.864315673828125,7.194619655609131,-5.535795211791992,0.5988038778305054
1772650957908193000,2.874193115234375,7.175477027893066,-5.525027275085449,0.4695914387702942
1772650957918070500,2.884070556640625,7.361518859863281,-5.3557353019714355,0.584446907043457
1772650957927948000,2.893947998046875,7.41117000579834,-5.385645389556885,0.46061834692955017
1772650957937825300,2.9038251953125,7.489534854888916,-5.409573554992676,0.17706887423992157
1772650957947702800,2.913702880859375,7.567899703979492,-5.460421085357666,-0.19680966436862946
1772650957957580000,2.923580078125,7.69830846786499,-5.3318071365356445,-0.49172505736351013
1772650957967457500,2.93345751953125,7.852047443389893,-5.014159679412842,-0.5694918036460876
1772650957977335000,2.9433349609375,7.9351983070373535,-4.810770034790039,-0.5240281820297241
1772650957987212300,2.95321240234375,7.875377655029297,-4.707878589630127,-0.4654040038585663
1772650957997089800,2.96308984375,7.633702278137207,-4.761716842651367,-0.46899324655532837
1772650958006967000,2.972967041015625,7.341179847717285,-4.968696117401123,-0.5515456199645996
1772650958016844500,2.982844482421875,7.113861560821533,-5.673980712890625,-0.9080761671066284
1772650958026721800,2.9927216796875,6.806384086608887,-6.556334018707275,-1.5248262882232666
1772650958036599300,3.002599365234375,6.355337142944336,-7.5086774826049805,-2.142174482345581
1772650958046463000,3.012462890625,5.950351715087891,-8.47298526763916,-2.300100803375244
1772650958056354000,3.02235400390625,5.787041664123535,-9.233304023742676,-1.965105652809143
1772650958066231600,3.0322314453125,5.963512420654297,-10.074979782104492,-1.5044872760772705
1772650958076095200,3.04209521484375,6.3702921867370605,-11.291131973266602,-1.0839486122131348
1772650958085986300,3.051986328125,6.955935478210449,-12.27697467803955,-0.3445664644241333
1772650958095863600,3.061863525390625,7.926823139190674,-12.687942504882812,0.7070791125297546
1772650958105727200,3.071727294921875,9.236893653869629,-12.552149772644043,1.994417667388916
1772650958115618600,3.08161865234375,10.199406623840332,-11.897712707519531,3.418745279312134
1772650958125495800,3.091495849609375,10.357931137084961,-11.076375961303711,4.730011940002441
1772650958135359500,3.101359375,9.522237777709961,-10.686944007873535,5.687141418457031
1772650958145250600,3.11125048828125,8.627920150756836,-10.63250732421875,6.489933013916016
1772650958155128000,3.121128173828125,7.969295978546143,-10.563115119934082,6.994818687438965
1772650958164991700,3.13099169921875,7.5188469886779785,-10.311270713806152,7.0654072761535645
1772650958174882800,3.1408828125,7.954938888549805,-9.662816047668457,6.3493547439575195
1772650958184760300,3.15076025390625,7.392625331878662,-9.642477035522461,5.941378593444824
1772650958194637600,3.160637451171875,6.943373203277588,-9.375677108764648,5.059025287628174
1772650958204515000,3.17051513671875,7.0893354415893555,-8.961718559265137,3.3332018852233887
1772650958214392600,3.180392578125,6.890730857849121,-8.777471542358398,2.2127628326416016
1772650958224256000,3.190256103515625,6.692724704742432,-8.735597610473633,1.1838489770889282
1772650958234147300,3.200147216796875,6.4564337730407715,-8.525029182434082,0.07178468257188797
1772650958244024600,3.210024658203125,6.217151641845703,-8.245068550109863,-0.7639086246490479
1772650958253888300,3.21988818359375,6.021538257598877,-8.0081787109375,-1.3471591472625732
1772650958263779300,3.229779296875,5.889334678649902,-7.773682594299316,-1.5326029062271118
1772650958273656800,3.23965673828125,5.79063081741333,-7.505686283111572,-1.3848460912704468
1772650958283534300,3.249534423828125,5.7756757736206055,-7.200003147125244,-1.0803594589233398
1772650958293411600,3.25941162109375,5.834897994995117,-6.959524631500244,-0.6711867451667786
1772650958303289000,3.2692890625,5.9922261238098145,-6.625725746154785,0.054436713457107544
1772650958313166300,3.279166259765625,6.113661766052246,-6.154339790344238,0.916451096534729
1772650958323043800,3.2890439453125,6.113063812255859,-5.733202934265137,1.6151553392410278
1772650958332921300,3.29892138671875,5.894718647003174,-5.386841773986816,1.929213285446167
1772650958342798600,3.308798583984375,5.571089267730713,-5.170291423797607,1.8352949619293213
1772650958352676000,3.318676025390625,5.207380294799805,-5.07936429977417,1.4590235948562622
1772650958362553300,3.32855322265625,4.834099769592285,-5.204987525939941,0.9445667266845703
1772650958372430800,3.338430908203125,4.596014022827148,-5.493920803070068,0.4743770956993103
1772650958382308000,3.34830810546875,4.4955153465271,-5.7170515060424805,0.12921242415905
1772650958392185600,3.358185546875,4.512265205383301,-5.666802406311035,0.12143574655056
1772650958402063000,3.36806298828125,4.665405750274658,-5.5932230949401855,0.5252245664596558
1772650958411940400,3.3779404296875,5.1080780029296875,-5.445466041564941,1.1228320598602295
1772650958421817900,3.38781787109375,5.7409796714782715,-5.19960355758667,1.9232312440872192
1772650958431681500,3.397681640625,6.410371780395508,-5.045864582061768,2.531606435775757
1772650958441572600,3.407572509765625,7.229315280914307,-4.983651161193848,2.7326035499572754
1772650958451449900,3.417449951171875,7.960920810699463,-5.053043365478516,2.6422743797302246
1772650958461313500,3.4273134765625,8.37846851348877,-5.193023204803467,2.3467607498168945
1772650958471204900,3.437204833984375,8.547760963439941,-5.298905849456787,1.8658034801483154
1772650958481082000,3.44708203125,8.495118141174316,-5.435296535491943,1.357926845550537
1772650958490959600,3.456959716796875,8.353343963623047,-5.540580749511719,0.849452018737793
1772650958500836900,3.4668369140625,8.248059272766113,-5.617151260375977,0.40737804770469666
1772650958510714400,3.47671435546875,8.144570350646973,-5.5758748054504395,-0.0029910283628851175
1772650958520578000,3.486578125,7.923832416534424,-5.530411243438721,-0.4001995921134949
1772650958530469000,3.49646923828125,7.651050567626953,-5.581857204437256,-0.7417750358581543
1772650958540346600,3.5063466796875,7.352545738220215,-5.621338367462158,-0.9930213689804077
1772650958550224000,3.516223876953125,7.1132636070251465,-5.522036552429199,-0.9978070259094238
1772650958560101400,3.526101318359375,6.960123062133789,-5.2977094650268555,-0.6777670383453369
1772650958569978600,3.535978515625,6.8757758140563965,-4.996811866760254,-0.08973085135221481
1772650958579856100,3.545856201171875,6.887740135192871,-4.718048095703125,0.6293123364448547
1772650958589733600,3.555733642578125,7.083951473236084,-4.4859442710876465,1.4123635292053223
1772650958599611000,3.56561083984375,7.421339511871338,-4.188037872314453,2.234896421432495
1772650958609474600,3.575474609375,7.941778182983398,-3.8739798069000244,2.971287488937378
1772650958619365600,3.58536572265625,8.507680892944336,-3.6263227462768555,3.5270206928253174
1772650958629243100,3.5952431640625,8.952147483825684,-3.528217077255249,3.8434712886810303
1772650958639120400,3.605120361328125,9.119047164916992,-3.617349624633789,3.6598222255706787
1772650958648998000,3.614997802734375,9.069396018981934,-3.865604877471924,3.1645078659057617
1772650958658875400,3.62487548828125,8.9312105178833,-4.23230504989624,2.5704896450042725
1772650958668752600,3.634752685546875,8.869595527648926,-4.593023300170898,2.014756679534912
1772650958678630100,3.644630126953125,8.930013656616211,-4.900500774383545,1.4931213855743408
1772650958688507400,3.65450732421875,9.075976371765137,-5.202594757080078,1.0289137363433838
1772650958698385000,3.664385009765625,9.296713829040527,-5.454439163208008,0.7447660565376282
1772650958708262100,3.67426220703125,9.460622787475586,-5.982655048370361,0.5802595019340515
1772650958718139600,3.6841396484375,9.648459434509277,-6.674778938293457,0.9535398483276367
1772650958728003300,3.69400341796875,9.732208251953125,-7.611568927764893,1.5798611640930176
1772650958737894400,3.703894287109375,9.862616539001465,-8.59322452545166,1.618146300315857
1772650958747772000,3.71377197265625,10.114460945129395,-9.497113227844238,1.2502498626708984
1772650958757635600,3.723635498046875,10.133604049682617,-10.183853149414062,1.0516455173492432
1772650958767526700,3.733526611328125,10.089935302734375,-10.52363395690918,1.2245270013809204
1772650958777404000,3.74340380859375,9.857233047485352,-10.365707397460938,1.095314621925354
1772650958787281400,3.753281494140625,9.475577354431152,-10.115657806396484,0.7178468108177185
1772650958797159000,3.763158935546875,9.414560317993164,-9.993623733520508,0.004785645287483931
1772650958807036200,3.7730361328125,9.564111709594727,-9.448657989501953,-0.7639086246490479
1772650958816899800,3.78289990234375,9.276973724365234,-8.305487632751465,-1.0510473251342773
1772650958826791000,3.792791015625,8.49152946472168,-7.082755088806152,-0.5964110493659973
1772650958836668400,3.80266845703125,7.083951473236084,-6.231508255004883,-0.31345975399017334
1772650958846532000,3.812531982421875,5.352744102478027,-5.839683532714844,-0.34217363595962524
1772650958856423200,3.822423095703125,3.716651678085327,-5.763113498687744,-0.3846462368965149
1772650958866300700,3.83230078125,2.4580271244049072,-5.962316036224365,-0.7878368496894836
1772650958876164400,3.842164306640625,1.576870083808899,-6.2398834228515625,-1.308275818824768
1772650958886055400,3.852055419921875,0.9852447509765625,-6.588038921356201,-1.5690934658050537
1772650958895932700,3.8619326171875,1.0612168312072754,-7.047461032867432,-1.5146567821502686
1772650958905796400,3.87179638671875,1.5074782371520996,-7.335795879364014,-1.1371889114379883
1772650958915687700,3.881687744140625,2.2851455211639404,-7.372884750366211,-0.5557330846786499
1772650958925565000,3.89156494140625,3.3104701042175293,-7.351349353790283,0.07896314561367035
1772650958935428600,3.9014287109375,4.633102893829346,-7.394420146942139,0.7752745151519775
1772650958945319700,3.911319580078125,6.147161483764648,-7.677371501922607,1.5798611640930176
1772650958955197200,3.921197265625,7.785646915435791,-7.983652591705322,2.3700907230377197
1772650958965060900,3.931060791015625,9.387042999267578,-8.000402450561523,2.9341988563537598
1772650958974952000,3.940951904296875,10.789237022399902,-7.832904815673828,3.2057840824127197
1772650958984829400,3.950829345703125,11.748161315917969,-7.744968891143799,3.0490541458129883
1772650958994692900,3.96069287109375,12.077174186706543,-7.768298625946045,2.4233310222625732
1772650959004584200,3.970584228515625,11.547761917114258,-7.7353973388671875,1.5553346872329712
1772650959014461700,3.980461669921875,10.342377662658691,-7.7832536697387695,0.519242525100708
1772650959024325000,3.9903251953125,8.887541770935059,-7.611568927764893,-0.3774677813053131
1772650959034216400,4.000216552734375,7.417151927947998,-7.471588611602783,-1.1766705513000488
1772650959044093700,4.01009375,6.238088607788086,-7.3645100593566895,-1.7168502807617188
1772650959053957400,4.019957275390625,5.460421085357666,-7.04925537109375,-1.9076778888702393
1772650959063848400,4.029848388671875,4.966901779174805,-6.641279220581055,-1.9316060543060303
1772650959073726000,4.039725830078125,4.810171604156494,-6.383452415466309,-1.8550357818603516
1772650959083589600,4.049589599609375,4.886742115020752,-6.266204357147217,-1.618146300315857
1772650959093480700,4.059480712890625,5.154737949371338,-6.089135646820068,-1.134796142578125
1772650959103358200,4.069358154296875,5.4173502922058105,-5.840281963348389,-0.38763725757598877
1772650959113221600,4.0792216796875,5.690730571746826,-5.694917678833008,0.5030909776687622
1772650959123113000,4.089113037109375,5.8612189292907715,-5.621936798095703,1.3334003686904907
1772650959132990200,4.098990234375,5.956932067871094,-5.435894966125488,2.0273189544677734
1772650959142854000,4.10885400390625,6.119643688201904,-5.303691387176514,2.6350958347320557
1772650959152745200,4.1187451171875,6.431309223175049,-5.252843856811523,3.088535785675049
1772650959162622500,4.12862255859375,6.794419765472412,-5.2869415283203125,3.111865758895874
1772650959172500000,4.1385,7.238288402557373,-5.340780258178711,2.8007988929748535
1772650959182377200,4.148377197265625,7.6869425773620605,-5.499902725219727,2.1643080711364746
1772650959192254700,4.158254638671875,8.104490280151367,-5.793622016906738,1.1940184831619263
1772650959202118400,4.168118408203125,8.6033935546875,-6.092724800109863,0.10827522724866867
1772650959212009500,4.178009521484375,8.997611045837402,-6.439085960388184,-0.857228696346283
1772650959221887000,4.187886962890625,9.197412490844727,-6.690930366516113,-1.5990036725997925
1772650959231750700,4.197750732421875,9.366703987121582,-6.727420806884766,-2.001596212387085
1772650959241641700,4.207641845703125,9.664610862731934,-6.546164512634277,-2.0925233364105225
1772650959251519000,4.21751904296875,9.882955551147461,-6.140581130981445,-1.8975083827972412
1772650959261396500,4.227396484375,9.971489906311035,-5.519045352935791,-1.5493526458740234
1772650959271274000,4.23727392578125,9.907482147216797,-4.945366382598877,-1.1736794710159302
1772650959281151200,4.247151123046875,9.625128746032715,-4.5445685386657715,-0.7740781307220459
1772650959291028700,4.25702880859375,9.237491607666016,-4.328616142272949,-0.4983053207397461
1772650959300906000,4.266906005859375,8.754141807556152,-4.213162422180176,-0.4307080805301666
1772650959310783500,4.276783447265625,8.300702095031738,-4.268795490264893,-0.6382854580879211
1772650959320660700,4.28666064453125,8.064410209655762,-4.435096740722656,-0.9505487680435181
1772650959330538200,4.296538330078125,7.997411251068115,-4.626522541046143,-1.2699905633926392
1772650959340415700,4.306415771484375,8.067401885986328,-4.7958149909973145,-1.542174220085144
1772650959350293000,4.31629296875,8.282755851745605,-5.0638108253479,-1.6450655460357666
1772650959360170500,4.32617041015625,8.592626571655273,-5.383851051330566,-1.5882359743118286
1772650959370047700,4.3360478515625,8.8109712600708,-5.663811206817627,-1.5146567821502686
1772650959379925200,4.34592529296875,8.951549530029297,-6.03948450088501,-1.4207384586334229
1772650959389802800,4.355802734375,9.025128364562988,-6.403791427612305,-1.153340458869934
1772650959399680000,4.365679931640625,8.902496337890625,-6.663413047790527,-0.7998009920120239
1772650959409557500,4.3755576171875,8.574081420898438,-6.762714862823486,-0.33080771565437317
1772650959419434800,4.385434814453125,8.260024070739746,-6.744170665740967,0.27816563844680786
1772650959429312300,4.395312255859375,7.981259822845459,-6.720242500305176,0.9032905697822571
1772650959439176000,4.405176025390625,7.657630443572998,-6.720242500305176,1.4835500717163086
1772650959449067000,4.41506689453125,7.338188648223877,-6.719046115875244,2.008774518966675
1772650959458944500,4.424944580078125,7.076174736022949,-6.685546398162842,2.3814568519592285
1772650959468808000,4.434807861328125,6.887141704559326,-6.626922130584717,2.593221426010132
1772650959478699300,4.44469921875,6.796812534332275,-6.6382880210876465,2.7320053577423096
1772650959488576500,4.454576416015625,6.8997039794921875,-6.6592254638671875,2.7457640171051025
1772650959498454000,4.4644541015625,7.116852760314941,-6.61794900894165,2.7140591144561768
1772650959508331300,4.474331298828125,7.354938507080078,-6.573083877563477,2.5764718055725098
1772650959518208800,4.484208740234375,7.490731239318848,-6.519843578338623,2.3515465259552
1772650959528086300,4.494086181640625,7.542177200317383,-6.369095802307129,2.1403799057006836
1772650959537963500,4.503963623046875,7.59362268447876,-6.15553617477417,1.9423737525939941
1772650959547841000,4.513841064453125,7.558926582336426,-5.9647088050842285,1.7240287065505981
1772650959557718300,4.52371826171875,7.474579811096191,-5.839085578918457,1.4536397457122803
1772650959567595800,4.533595703125,7.318448066711426,-5.706881999969482,1.1216355562210083
1772650959577473000,4.54347314453125,7.021139621734619,-5.60817813873291,0.776470959186554
1772650959587350500,4.5533505859375,6.63350248336792,-5.534000396728516,0.4863412082195282
1772650959597228000,4.56322802734375,6.198009014129639,-5.420341491699219,0.3200400173664093
1772650959607105300,4.573105224609375,5.793622016906738,-5.252245903015137,0.3601198196411133
1772650959616982800,4.582982666015625,5.5591254234313965,-5.062614440917969,0.5545366406440735
1772650959626860000,4.592860107421875,5.544169902801514,-4.8227338790893555,0.9379864931106567
1772650959636737500,4.602737548828125,5.761318683624268,-4.521238327026367,1.4584254026412964
1772650959646615000,4.612614990234375,6.183651924133301,-4.213162422180176,1.8472590446472168
1772650959656492300,4.6224921875,6.756134510040283,-4.004388809204102,2.028515338897705
1772650959666369800,4.632369873046875,7.434499740600586,-3.8985064029693604,2.1104695796966553
1772650959676233500,4.6422333984375,8.073982238769531,-3.7716867923736572,2.1332013607025146
1772650959686124500,4.65212451171875,8.660821914672852,-3.7399818897247314,1.9663020372390747
1772650959696001800,4.662001708984375,9.155537605285645,-3.9146578311920166,1.4590235948562622
1772650959705865500,4.671865478515625,9.487542152404785,-4.334000110626221,0.6305087804794312
1772650959715756800,4.6817568359375,9.68913745880127,-4.981856822967529,-0.36670008301734924
1772650959725634000,4.691634033203125,9.727422714233398,-5.928816318511963,-1.1892328262329102
1772650959735497700,4.701497802734375,9.613762855529785,-6.872186660766602,-1.700698733329773
1772650959745389000,4.71138916015625,9.34457015991211,-7.622336387634277,-1.4871392250061035
1772650959755266300,4.721266357421875,8.9850492477417,-8.240880966186523,-1.1509476900100708
1772650959765130000,4.7311298828125,8.82652473449707,-8.385048866271973,-0.6867401003837585
1772650959775021000,4.74102099609375,8.894122123718262,-8.328219413757324,0.1944168359041214
1772650959784898600,4.750898681640625,9.153144836425781,-8.13798999786377,1.1306086778640747
1772650959794762000,4.760761962890625,9.516854286193848,-7.9830546379089355,1.9615163803100586
1772650959804653300,4.7706533203125,9.620942115783691,-8.024331092834473,2.647658348083496
1772650959814530800,4.78053076171875,9.516854286193848,-8.139185905456543,3.094517946243286
1772650959824394200,4.790394287109375,9.114859580993652,-8.417949676513672,3.2967114448547363
1772650959834285600,4.80028564453125,8.651249885559082,-8.895915985107422,3.3894333839416504
1772650959844162800,4.810162841796875,8.201399803161621,-9.156734466552734,3.4911282062530518
1772650959854040300,4.820040283203125,7.710870742797852,-9.031708717346191,3.2679975032806396
1772650959863917600,4.82991748046875,7.293323516845703,-8.875576972961426,2.8342983722686768
1772650959873795000,4.839795166015625,6.781857490539551,-9.094520568847656,2.0614166259765625
1772650959883658800,4.84965869140625,6.278766632080078,-9.728618621826172,1.0091729164123535
1772650959893549800,4.8595498046875,6.130411624908447,-9.988240242004395,0.2955136001110077
1772650959903427300,4.86942724609375,6.147161483764648,-10.195219039916992,-0.3314059376716614
1772650959913290800,4.879290771484375,6.4187469482421875,-10.037891387939453,-0.48394837975502014
1772650959923182000,4.88918212890625,6.784848690032959,-9.484550476074219,-0.1818545162677765
1772650959933059300,4.899059326171875,6.6831536293029785,-8.910273551940918,0.32542386651039124
1772650959942936800,4.908936767578125,6.054439544677734,-8.549555778503418,0.9577272534370422
1772650959952814300,4.918814453125,5.2043890953063965,-8.3300142288208,1.7736797332763672
1772650959962691600,4.928691650390625,4.402793884277344,-8.203792572021484,2.8426733016967773
1772650959972555300,4.93855517578125,3.7190446853637695,-8.020143508911133,4.1491546630859375
1772650959982446300,4.9484462890625,3.139383316040039,-7.7007012367248535,5.332405090332031
1772650959992323800,4.95832373046875,2.706880569458008,-7.433901786804199,6.048457622528076
1772650960002187500,4.9681875,2.575275421142578,-7.249654293060303,6.347560405731201
1772650960012078600,4.97807861328125,2.767897605895996,-7.121638298034668,6.209374904632568
1772650960021956000,4.9879560546875,3.1686954498291016,-7.101897716522217,5.611767292022705
1772650960031833300,4.997833251953125,3.652045488357544,-7.141379356384277,4.802394866943359
1772650960041710800,5.0077109375,4.077968120574951,-7.09711217880249,4.009772777557373
1772650960051588000,5.017588134765625,4.453042984008789,-6.92183780670166,3.1680972576141357
1772650960061451800,5.02745166015625,4.852046012878418,-6.695117950439453,2.303689956665039
1772650960071343000,5.037343017578125,5.14875602722168,-6.556334018707275,1.4769697189331055
1772650960081220400,5.047220458984375,5.247459888458252,-6.597012042999268,0.6191428303718567
1772650960091084000,5.057083984375,5.237888813018799,-6.802794933319092,-0.20338992774486542
1772650960100975000,5.06697509765625,5.2043890953063965,-7.064210414886475,-0.8464609980583191
1772650960110852600,5.0768525390625,5.306682586669922,-7.176074981689453,-1.1694921255111694
1772650960120716300,5.08671630859375,5.573482036590576,-7.021738052368164,-1.0863415002822876
1772650960130607400,5.096607421875,6.0466628074646,-6.771090030670166,-0.7046862840652466
1772650960140484900,5.10648486328125,6.545566558837891,-6.588038921356201,-0.24825534224510193
1772650960150348300,5.116348388671875,6.997211456298828,-6.496513366699219,0.18544375896453857
1772650960160239600,5.126239501953125,7.328019142150879,-6.51326322555542,0.5341976284980774
1772650960170116900,5.136116943359375,7.572087287902832,-6.580262184143066,0.7459624409675598
1772650960179994400,5.145994384765625,7.746763229370117,-6.589235305786133,0.9194421172142029
1772650960189871600,5.15587158203125,7.868198871612549,-6.543173313140869,1.0133603811264038
1772650960199749000,5.1657490234375,7.937591075897217,-6.547959327697754,0.9655039310455322
1772650960209626600,5.175626708984375,7.887939929962158,-6.608377933502197,0.9092726111412048
1772650960219503900,5.18550390625,7.619943618774414,-6.618547439575195,0.9487541913986206
1772650960229381400,5.19538134765625,7.188039302825928,-6.597609996795654,1.057029366493225
1772650960239258600,5.205258544921875,6.799205780029297,-6.594619274139404,1.2352946996688843
1772650960249136000,5.21513623046875,6.467201232910156,-6.479165554046631,1.5140584707260132
1772650960259013600,5.225013671875,6.218348026275635,-6.276971817016602,1.8370895385742188
1772650960268891000,5.234890869140625,6.0987067222595215,-6.186044692993164,2.1296122074127197
1772650960278768400,5.244768310546875,6.118447303771973,-6.2105712890625,2.3156540393829346
1772650960288645600,5.254645751953125,6.2189459800720215,-6.190830230712891,2.3844478130340576
1772650960298523100,5.264523193359375,6.354738712310791,-6.106483459472656,2.3706889152526855
1772650960308400400,5.274400390625,6.471388816833496,-6.057430744171143,2.23848557472229
1772650960318278000,5.28427783203125,6.523432731628418,-6.07896614074707,1.9674984216690063
1772650960328155400,5.2941552734375,6.466004848480225,-6.163312911987305,1.6013965606689453
1772650960338032600,5.30403271484375,6.355935096740723,-6.241079807281494,1.2711870670318604
1772650960347910100,5.31391015625,6.1950178146362305,-6.186643123626709,1.0115658044815063
1772650960357787400,5.323787353515625,6.093921184539795,-6.052046775817871,0.8889335989952087
1772650960367665000,5.333664794921875,6.105287075042725,-5.9300127029418945,0.9595218896865845
1772650960377542100,5.343542236328125,6.150152206420898,-5.756533145904541,1.1240284442901611
1772650960387419600,5.353419677734375,6.126224040985107,-5.62672233581543,1.2352946996688843
1772650960397297200,5.363297119140625,6.09033203125,-5.660222053527832,1.2735798358917236
1772650960407174400,5.37317431640625,6.07896614074707,-5.764309883117676,1.3507484197616577
1772650960417052000,5.383052001953125,6.043073654174805,-5.785246849060059,1.3986048698425293
1772650960426929200,5.39292919921875,6.005386829376221,-5.822933673858643,1.4685949087142944
1772650960436806700,5.402806640625,5.986842155456543,-5.866004943847656,1.688136339187622
1772650960446684200,5.41268408203125,6.0161542892456055,-5.836692810058594,2.0027925968170166
1772650960456561400,5.4225615234375,6.171687602996826,-5.824728488922119,2.234896421432495
1772650960466439000,5.43243896484375,6.343971252441406,-5.843871116638184,2.4257240295410156
1772650960476316200,5.442316162109375,6.535397052764893,-5.873183250427246,2.5154547691345215
1772650960486193700,5.452193603515625,6.690930366516113,-5.904289722442627,2.4460630416870117
1772650960496071000,5.46207080078125,6.790830612182617,-5.928816318511963,2.3461625576019287
1772650960505948400,5.471948486328125,6.879364967346191,-5.873781204223633,2.321636199951172
1772650960515826000,5.481825927734375,6.92901611328125,-5.74696159362793,2.3294129371643066
1772650960525703200,5.491703125,6.8967132568359375,-5.570491313934326,2.3682961463928223
1772650960535580700,5.50158056640625,6.7794647216796875,-5.435894966125488,2.4699912071228027
1772650960545458000,5.5114580078125,6.655037879943848,-5.287539958953857,2.6021945476531982
1772650960555335400,5.52133544921875,6.515655994415283,-5.116453170776367,2.6153552532196045
1772650960565212700,5.531212646484375,6.4217376708984375,-4.9190449714660645,2.568096876144409
1772650960575090200,5.541090087890625,6.3732829093933105,-4.764110088348389,2.5405795574188232
1772650960584967400,5.550967529296875,6.341578006744385,-4.645665168762207,2.5154547691345215
1772650960594845000,5.560844970703125,6.355337142944336,-4.541577339172363,2.4023938179016113
1772650960604722400,5.570722412109375,6.416952133178711,-4.464408874511719,2.210968017578125
1772650960614599700,5.580599609375,6.364310264587402,-4.454239368438721,2.0129621028900146
1772650960624477200,5.590477294921875,6.180062770843506,-4.531407833099365,1.7904295921325684
1772650960634354400,5.6003544921875,5.941378593444824,-4.740779876708984,1.3860424757003784
1772650960644232000,5.61023193359375,5.643472194671631,-5.063212871551514,0.973878800868988
1772650960654109200,5.620109130859375,5.484349727630615,-5.347958564758301,0.9487541913986206
1772650960663986700,5.629986572265625,5.471189022064209,-5.599205017089844,1.0917253494262695
1772650960673864200,5.6398642578125,5.416153907775879,-5.948556900024414,1.293320655822754
1772650960683741400,5.649741455078125,5.327619552612305,-6.260820388793945,1.8687944412231445
1772650960693619000,5.659618896484375,5.536991596221924,-6.485745906829834,2.4394826889038086
1772650960703496200,5.66949609375,6.259624004364014,-6.684948444366455,2.572284460067749
1772650960713360000,5.67935986328125,7.129415035247803,-7.025327205657959,2.007578134536743
1772650960723251000,5.6892509765625,7.88494873046875,-7.646862983703613,1.0247262716293335
1772650960733128400,5.69912841796875,8.72482967376709,-8.423932075500488,0.03888336941599846
1772650960742992100,5.7089921875,9.628718376159668,-8.94556713104248,-0.7908278703689575
1772650960752883200,5.71888330078125,10.588838577270508,-9.2859468460083,-1.6037893295288086
1772650960762760700,5.7287607421875,11.420344352722168,-9.635896682739258,-2.3395824432373047
1772650960772624400,5.738624267578125,11.776276588439941,-9.92423152923584,-2.981456995010376
1772650960782515500,5.748515380859375,11.867203712463379,-10.000204086303711,-3.252444267272949
1772650960792393000,5.75839306640625,11.294122695922852,-9.68494987487793,-3.4755749702453613
1772650960802270200,5.768270263671875,10.370492935180664,-9.197412490844727,-3.483949661254883
1772650960812147700,5.778147705078125,9.375677108764648,-8.776873588562012,-3.2865419387817383
1772650960822025000,5.78802490234375,8.541180610656738,-8.594420433044434,-3.0927233695983887
1772650960831888600,5.797888671875,7.759923934936523,-8.429315567016602,-2.953341245651245
1772650960841779700,5.80777978515625,7.143173694610596,-8.218149185180664,-2.6051857471466064
1772650960851657200,5.8176572265625,6.963712215423584,-7.912466049194336,-1.9471594095230103
1772650960861521000,5.82752099609375,7.1856465339660645,-7.5080790519714355,-1.1252248287200928
1772650960871412000,5.837411865234375,7.64865779876709,-7.151548862457275,-0.43489551544189453
1772650960881289500,5.84728955078125,8.105088233947754,-6.9098734855651855,-0.06520441919565201
1772650960891166700,5.857166748046875,8.369495391845703,-6.766902446746826,0.05922235921025276
1772650960901044200,5.867044189453125,8.361719131469727,-6.732804775238037,-0.13220344483852386
1772650960910921500,5.87692138671875,8.000402450561523,-6.665805816650391,-0.46002015471458435
1772650960920799000,5.886799072265625,7.395018577575684,-6.580262184143066,-0.7519445419311523
1772650960930676500,5.896676513671875,6.699305057525635,-6.527620315551758,-0.9643075466156006
1772650960940553700,5.9065537109375,5.941977024078369,-6.40438985824585,-1.0295119285583496
1772650960950417400,5.91641748046875,5.480162143707275,-6.198606967926025,-1.0013962984085083
1772650960960308500,5.92630859375,5.221737384796143,-6.043671607971191,-0.908674418926239
1772650960970186000,5.93618603515625,5.097310543060303,-5.885745525360107,-0.784247636795044
1772650960980063200,5.946063232421875,5.127819061279297,-5.7134623527526855,-0.46899324655532837
1772650960989940700,5.955940673828125,5.434698581695557,-5.279763221740723,0.07836493849754333
1772650960999818200,5.965818359375,5.646463394165039,-4.9262237548828125,0.2763710021972656
1772650961009695500,5.975695556640625,5.636891841888428,-5.595017433166504,-0.059820566326379776
1772650961019573000,5.985572998046875,5.931807518005371,-5.814558982849121,0.3487538993358612
1772650961029450200,5.9954501953125,5.997610092163086,-6.013163089752197,0.5174478888511658
1772650961039327700,6.00532763671875,6.38883638381958,-6.260820388793945,0.9349954724311829
1772650961049205000,6.015205078125,6.86381196975708,-6.608377933502197,1.2801600694656372
1772650961059082500,6.02508251953125,7.65164852142334,-7.004988193511963,1.7126628160476685
1772650961068946200,6.0349462890625,8.298907279968262,-7.314858913421631,2.2325034141540527
1772650961078837200,6.044837158203125,8.912068367004395,-7.547560691833496,2.6261229515075684
1772650961088714800,6.05471484375,9.284152030944824,-7.925626754760742,2.8456642627716064
1772650961098592000,6.064592041015625,9.328418731689453,-8.338987350463867,2.720639228820801
1772650961108469500,6.074469482421875,9.28893756866455,-8.157132148742676,2.5429723262786865
1772650961118346800,6.0843466796875,9.117252349853516,-7.788039684295654,2.0416758060455322
1772650961128224300,6.094224365234375,8.699705123901367,-7.65583610534668,1.2628121376037598
1772650961138101800,6.104101806640625,7.9860453605651855,-7.619943618774414,0.3188436031341553
1772650961147979000,6.11397900390625,7.141977310180664,-7.624131202697754,-0.5545366406440735
1772650961157842700,6.1238427734375,6.321238994598389,-7.612765312194824,-1.2951152324676514
1772650961167733800,6.133733642578125,5.6584272384643555,-7.51585578918457,-1.9178473949432373
1772650961177611300,6.143611328125,5.200201988220215,-7.3022966384887695,-2.3330020904541016
1772650961187475000,6.153474853515625,5.069792747497559,-6.927819728851318,-2.5363919734954834
1772650961197366000,6.163365966796875,5.178068161010742,-6.601199626922607,-2.5902304649353027
1772650961207243500,6.173243408203125,5.477769374847412,-6.270391941070557,-2.321038007736206
1772650961217120800,6.183120849609375,5.943173408508301,-5.934798240661621,-1.828116536140442
1772650961226998300,6.192998291015625,6.422934055328369,-5.5932230949401855,-1.170688509941101
1772650961236875500,6.20287548828125,6.857829570770264,-5.406582832336426,-0.5210371017456055
1772650961246753000,6.2127529296875,7.307680130004883,-5.295316696166992,-0.02153540402650833
1772650961256630300,6.22263037109375,7.768298625946045,-5.162514686584473,0.251844584941864
1772650961266507800,6.2325078125,8.069195747375488,-5.109872817993164,0.3409772217273712
1772650961276385300,6.24238525390625,8.250452041625977,-5.144568920135498,0.1860419660806656
1772650961286262500,6.252262451171875,8.260024070739746,-5.36769962310791,-0.25304099917411804
1772650961296140000,6.26214013671875,8.136195182800293,-5.605785369873047,-0.7028916478157043
1772650961306017300,6.272017333984375,7.940581798553467,-5.798407554626465,-1.0648061037063599
1772650961315894800,6.281894775390625,7.810173034667969,-6.041877269744873,-1.2454642057418823
1772650961325772000,6.29177197265625,7.801798343658447,-6.276971817016602,-1.1473584175109863
1772650961335649500,6.3016494140625,7.931010723114014,-6.102894306182861,-0.6664010882377625
1772650961345526800,6.31152685546875,8.190631866455078,-5.793622016906738,-0.07477571070194244
1772650961355404300,6.321404296875,8.453842163085938,-5.66620397567749,0.4331009089946747
1772650961365281800,6.33128173828125,8.688339233398438,-5.645267009735107,0.8231309652328491
1772650961375159000,6.341158935546875,8.901300430297852,-5.569892883300781,1.0689935684204102
1772650961385036500,6.35103662109375,9.113663673400879,-5.496912002563477,1.1341979503631592
1772650961394913800,6.360913818359375,9.261420249938965,-5.589035511016846,0.9343972206115723
1772650961404791300,6.370791259765625,9.321240425109863,-5.770890235900879,0.5647061467170715
1772650961414668500,6.38066845703125,9.269196510314941,-6.013761520385742,0.13579268753528595
1772650961424546000,6.390546142578125,9.131608963012695,-6.256034851074219,-0.2021935135126114
1772650961434423600,6.400423583984375,8.995817184448242,-6.466004848480225,-0.4163511395454407
1772650961444300800,6.41030078125,8.991629600524902,-6.748358249664307,-0.7369893789291382
1772650961454178300,6.42017822265625,9.041280746459961,-7.369893550872803,-1.160519003868103
1772650961464055600,6.4300556640625,8.762516975402832,-8.301898002624512,-1.4925230741500854
1772650961473933000,6.43993310546875,8.156534194946289,-9.145966529846191,-1.6845471858978271
1772650961483796700,6.449796630859375,7.716853141784668,-9.541379928588867,-1.454836130142212
1772650961493687800,6.459687744140625,7.76052188873291,-9.495916366577148,-0.6879364848136902
1772650961503565300,6.4695654296875,8.054839134216309,-9.270991325378418,0.02153540402650833
1772650961513442600,6.479442626953125,8.532207489013672,-9.062217712402344,0.2386840581893921
1772650961523320000,6.489320068359375,9.013762474060059,-8.927022933959961,-0.06939185410737991
1772650961533197300,6.499197265625,9.284749984741211,-8.921639442443848,-0.6472585201263428
1772650961543074800,6.50907470703125,9.08853816986084,-9.045467376708984,-1.2478569746017456
1772650961552952000,6.5189521484375,8.344968795776367,-9.166305541992188,-1.6845471858978271
1772650961562829600,6.52882958984375,7.425527095794678,-9.113663673400879,-1.7892330884933472
1772650961572693200,6.538693359375,6.524031162261963,-8.84925651550293,-1.4739787578582764
1772650961582584300,6.548584228515625,5.706881999969482,-8.372486114501953,-0.6705885529518127
1772650961592461800,6.5584619140625,4.951348304748535,-7.7700934410095215,0.29371899366378784
1772650961602325500,6.568325439453125,4.062414646148682,-7.168298244476318,1.4799607992172241
1772650961612216600,6.578216552734375,3.28773832321167,-6.550950050354004,2.775076150894165
1772650961622093800,6.58809375,2.8636105060577393,-5.736792087554932,4.024129390716553
1772650961631957500,6.59795751953125,2.554338216781616,-5.0117669105529785,5.159523963928223
1772650961641848800,6.607848876953125,2.276770830154419,-4.646861553192139,5.7858452796936035
1772650961651726000,6.61772607421875,2.0925233364105225,-4.569094657897949,5.766702651977539
1772650961661603600,6.627603515625,2.0159530639648438,-4.775475978851318,5.149354457855225
1772650961671480800,6.637480712890625,2.2648067474365234,-5.196014404296875,4.192225456237793
1772650961681358300,6.6473583984375,2.9150562286376953,-5.769693374633789,3.073580741882324
1772650961691222000,6.657221923828125,3.9332022666931152,-6.311069488525391,1.9100706577301025
1772650961701113000,6.667113037109375,5.019543647766113,-6.718447685241699,0.9427721500396729
1772650961710990600,6.676990478515625,6.08195686340332,-7.058826923370361,0.09152546525001526
1772650961720854000,6.68685400390625,7.018746852874756,-7.264609336853027,-0.5575276613235474
1772650961730745300,6.696745361328125,7.682157039642334,-7.430910587310791,-1.0085747241973877
1772650961740622600,6.70662255859375,8.117053031921387,-7.53559684753418,-1.171286702156067
1772650961750486300,6.716486328125,8.428717613220215,-7.661818027496338,-0.9876375198364258
1772650961760377300,6.72637744140625,8.647063255310059,-7.724031448364258,-0.6263213157653809
1772650961770254800,6.7362548828125,8.70209789276123,-7.58644437789917,-0.19142581522464752
1772650961780132000,6.746132080078125,8.883952140808105,-7.440482139587402,0.27337998151779175
1772650961790009600,6.756009521484375,9.014959335327148,-7.331608772277832,0.6508477330207825
1772650961799887000,6.76588720703125,9.079565048217773,-7.180262565612793,0.9535398483276367
1772650961809764400,6.775764404296875,8.816953659057617,-7.052844524383545,1.194616675376892
1772650961819641900,6.785641845703125,8.820542335510254,-6.7310099601745605,1.3980066776275635
1772650961829519000,6.79551904296875,8.60758113861084,-6.516852378845215,1.4709876775741577
1772650961839396600,6.805396728515625,8.2695951461792,-6.3254265785217285,1.4554343223571777
1772650961849273900,6.81527392578125,7.8628153800964355,-6.186643123626709,1.3986048698425293
1772650961859151400,6.8251513671875,7.3776702880859375,-6.028716564178467,1.3298112154006958
1772650961869028900,6.83502880859375,6.97268533706665,-5.854040622711182,1.3178470134735107
1772650961878906000,6.844906005859375,6.664011001586914,-5.675775527954102,1.3668999671936035
1772650961888783600,6.85478369140625,6.45523738861084,-5.50229549407959,1.3992030620574951
1772650961898660900,6.864660888671875,6.314060688018799,-5.32403039932251,1.3836497068405151
1772650961908538400,6.874538330078125,6.186044692993164,-5.124827861785889,1.3154542446136475
1772650961918415600,6.88441552734375,6.135197162628174,-4.914857864379883,1.3369896411895752
1772650961928293000,6.894293212890625,6.1704912185668945,-4.752145767211914,1.3423734903335571
1772650961938170400,6.90417041015625,6.258427619934082,-4.633700847625732,1.2646067142486572
1772650961948048000,6.9140478515625,6.410970211029053,-4.661218643188477,1.064207911491394
1772650961957925400,6.92392529296875,6.589833736419678,-4.722235679626465,0.857228696346283
1772650961967802600,6.933802734375,6.732804775238037,-4.806582450866699,0.6831508874893188
1772650961977680100,6.94368017578125,6.850651264190674,-4.914259433746338,0.576670229434967
1772650961987557400,6.953557373046875,6.951149940490723,-5.048257350921631,0.49232324957847595
1772650961997435000,6.963434814453125,7.135396957397461,-5.100301265716553,0.4612165689468384
1772650962007312400,6.9733125,7.357331275939941,-5.063212871551514,0.5168496966362
1772650962017189600,6.983189697265625,7.576872825622559,-4.951946258544922,0.5964110493659973
1772650962027067100,6.993067138671875,7.727022647857666,-4.845465660095215,0.7016952633857727
1772650962036944400,7.0029443359375,7.82692289352417,-4.72881555557251,0.8955138921737671
1772650962046822000,7.01282177734375,7.903493404388428,-4.647459983825684,1.1515458822250366
1772650962056699100,7.02269921875,8.023134231567383,-4.618745803833008,1.3698909282684326
1772650962066582500,7.03258251953125,8.128418922424316,-4.586442947387695,1.46500563621521
1772650962076461000,7.0424609375,8.136195182800293,-4.721039295196533,1.3824533224105835
1772650962086338600,7.052338623046875,8.124829292297363,-4.9052863121032715,1.2849457263946533
1772650962096215800,7.0622158203125,8.13798999786377,-5.091328144073486,1.3124631643295288
1772650962106093300,7.07209326171875,8.01236629486084,-5.504090309143066,1.3052847385406494
1772650962115970600,7.081970458984375,8.024331092834473,-5.963512420654297,1.409970760345459
1772650962125848000,7.09184814453125,8.331808090209961,-6.231508255004883,1.750349760055542
1772650962135725300,7.101725341796875,8.763114929199219,-6.33798885345459,2.190030813217163
1772650962145602800,7.111602783203125,9.155537605285645,-6.452246189117432,2.5501506328582764
1772650962155480300,7.121480224609375,9.43190860748291,-6.768697261810303,2.806781053543091
1772650962165343700,7.13134375,9.537193298339844,-7.33759069442749,2.9078776836395264
1772650962175235000,7.141235107421875,9.442078590393066,-8.0291166305542,2.9389843940734863
1772650962185112300,7.1511123046875,9.262616157531738,-8.349156379699707,3.183650493621826
1772650962194976000,7.16097607421875,9.056235313415527,-8.662615776062012,3.45882511138916
1772650962204867000,7.1708671875,9.440881729125977,-8.46580696105957,3.958326816558838
1772650962214744600,7.18074462890625,9.815957069396973,-8.402995109558105,3.8368911743164062
1772650962224621800,7.190621826171875,10.344172477722168,-7.72104024887085,3.087339401245117
1772650962234499300,7.200499267578125,10.401599884033203,-7.168298244476318,1.721037745475769
1772650962244376800,7.210376953125,9.839286804199219,-7.456633567810059,0.22013968229293823
1772650962254240300,7.220240234375,8.921639442443848,-7.987840175628662,-1.1276177167892456
1772650962264131600,7.230131591796875,7.895118236541748,-8.37009334564209,-2.0865414142608643
1772650962274008800,7.2400087890625,7.0648088455200195,-8.471190452575684,-2.837887763977051
1772650962283872500,7.24987255859375,6.442076683044434,-8.280363082885742,-3.345165967941284
1772650962293763600,7.259763671875,6.058028697967529,-7.88076114654541,-3.552743434906006
1772650962303641000,7.26964111328125,5.891129493713379,-7.2783684730529785,-3.3649067878723145
1772650962313504800,7.2795048828125,6.010770320892334,-6.50189733505249,-2.837289333343506
1772650962323395800,7.289395751953125,6.149554252624512,-5.870192050933838,-2.396411895751953
1772650962333273300,7.2992734375,6.124429702758789,-5.554339408874512,-2.2737796306610107
1772650962343150600,7.309150634765625,5.952744483947754,-5.509474277496338,-2.273181438446045
1772650962353028000,7.319028076171875,5.6446685791015625,-5.484349727630615,-2.2654049396514893
1772650962362905300,7.3289052734375,5.183452129364014,-5.423332691192627,-2.1876380443573
1772650962372782800,7.338782958984375,4.7126641273498535,-5.37906551361084,-2.0650060176849365
1772650962382660000,7.34866015625,4.466203689575195,-5.243870735168457,-1.7916259765625
1772650962392537600,7.35853759765625,4.451846599578857,-5.0464630126953125,-1.3597214221954346
1772650962402415000,7.3684150390625,4.686941146850586,-4.980660438537598,-0.8273184299468994
1772650962412292400,7.378292236328125,4.969892501831055,-5.084748268127441,-0.2793620526790619
1772650962422169900,7.388169921875,5.360520839691162,-5.182255744934082,0.33020952343940735
1772650962432033300,7.398033203125,5.845067501068115,-5.394618511199951,0.8763712644577026
1772650962441924600,7.407924560546875,6.317649841308594,-5.7062835693359375,1.34476637840271
1772650962451801900,7.4178017578125,6.821339130401611,-6.145366668701172,1.592423439025879
1772650962461665500,7.42766552734375,7.386643409729004,-6.500700950622559,1.6271194219589233
1772650962471556600,7.437556640625,7.970492362976074,-6.756732940673828,1.3495519161224365
1772650962481434000,7.44743408203125,8.413763046264648,-6.795018196105957,0.8925228714942932
1772650962491297800,7.4572978515625,8.694320678710938,-6.698108673095703,0.3762713670730591
1772650962501188900,7.46718896484375,8.797810554504395,-6.551548480987549,-0.04546362906694412
1772650962511066400,7.47706640625,8.773283958435059,-6.5389862060546875,-0.4624129831790924
1772650962520943600,7.486943603515625,8.635697364807129,-7.031309127807617,-1.028315544128418
1772650962530821000,7.496821044921875,8.562715530395508,-7.304090976715088,-1.301695466041565
1772650962540698600,7.50669873046875,8.35453987121582,-7.197610378265381,-1.3262219429016113
1772650962550575900,7.516575927734375,8.104490280151367,-6.6418776512146,-1.0091729164123535
1772650962560453400,7.526453369140625,7.761120319366455,-6.049654006958008,-0.5419743061065674
1772650962570330600,7.53633056640625,7.46919584274292,-5.68893575668335,-0.08973085135221481
1772650962580208000,7.5462080078125,7.262814998626709,-5.471189022064209,0.27337998151779175
1772650962590085400,7.55608544921875,7.110272407531738,-5.395814895629883,0.5018945336341858
1772650962599963000,7.565962890625,6.939185619354248,-5.467001438140869,0.6107679605484009
1772650962609840000,7.575840087890625,6.879963397979736,-5.644070625305176,0.5916253924369812
1772650962619717600,7.585717529296875,6.892525672912598,-5.842674732208252,0.5120640397071838
1772650962629595100,7.59559521484375,7.083951473236084,-5.983253002166748,0.47676992416381836
1772650962639472400,7.605472412109375,7.454240798950195,-6.010770320892334,0.46420758962631226
1772650962649350000,7.615349853515625,7.938787460327148,-5.877370834350586,0.47557350993156433
1772650962659227100,7.62522705078125,8.489734649658203,-5.6895341873168945,0.4737788736820221
1772650962669104600,7.635104736328125,8.940183639526367,-5.44426965713501,0.43130627274513245
1772650962678982000,7.64498193359375,9.235696792602539,-5.229514122009277,0.3732803463935852
1772650962688859400,7.654859375,8.978468894958496,-4.95493745803833,0.24047867953777313
1772650962698736600,7.664736572265625,8.410771369934082,-4.6749773025512695,0.06819544732570648
1772650962708614100,7.6746142578125,7.95134973526001,-4.5338006019592285,-0.17946170270442963
1772650962718491600,7.68449169921875,7.590631484985352,-4.613361835479736,-0.44386860728263855
1772650962728369000,7.694368896484375,7.313662528991699,-4.755136966705322,-0.7010970115661621
1772650962738246400,7.704246337890625,7.1820573806762695,-4.8436713218688965,-0.882951557636261
1772650962748123600,7.71412353515625,7.411767959594727,-4.962714195251465,-0.9852447509765625
1772650962758001200,7.724001220703125,7.41535758972168,-5.196014404296875,-0.9427721500396729
1772650962767878400,7.73387841796875,7.670193195343018,-5.484947681427002,-0.8117650747299194
1772650962777756000,7.743755859375,7.957331657409668,-5.447858810424805,-0.5318048596382141
1772650962787633200,7.753633056640625,8.22413158416748,-5.334199905395508,-0.2267199456691742
1772650962797510700,7.7635107421875,8.374878883361816,-5.288137912750244,0.06759724020957947
1772650962807388000,7.773387939453125,8.557332038879395,-5.268397331237793,0.3170489966869354
1772650962817265400,7.783265380859375,8.775078773498535,-5.274977684020996,0.5521438121795654
1772650962827143000,7.793142822265625,9.004789352416992,-5.361119270324707,0.6687939167022705
1772650962837020200,7.803020263671875,9.145966529846191,-5.474778175354004,0.7028916478157043
1772650962846897700,7.812897705078125,9.136993408203125,-5.603392601013184,0.706480860710144
1772650962856775000,7.82277490234375,9.011369705200195,-5.701498031616211,0.7292127013206482
1772650962866652400,7.83265234375,8.848658561706543,-5.694319725036621,0.841675341129303
1772650962876529700,7.84252978515625,8.38564682006836,-5.790032386779785,0.9828519225120544
1772650962886407200,7.8524072265625,8.167302131652832,-6.035895347595215,1.057627558708191
1772650962896284400,7.862284423828125,8.012965202331543,-6.125626087188721,1.1808580160140991
1772650962906162000,7.872161865234375,7.741379261016846,-6.378666877746582,1.031306505203247
1772650962916039400,7.882039306640625,7.491329669952393,-6.652047157287598,0.9924231767654419
1772650962925916700,7.891916748046875,7.442276477813721,-6.888338088989258,0.9667003750801086
1772650962935794200,7.901794189453125,7.521838188171387,-6.991827964782715,1.0767701864242554
1772650962945671400,7.91167138671875,7.633702278137207,-6.8171515464782715,1.4177473783493042
1772650962955549000,7.921548828125,7.8382887840271,-6.522834300994873,1.9166508913040161
1772650962965426200,7.93142626953125,8.101499557495117,-6.317051887512207,2.414358139038086
1772650962975303700,7.9413037109375,8.162516593933105,-6.521637916564941,2.6709883213043213
1772650962985181000,7.951180908203125,8.018946647644043,-7.067800045013428,2.4885356426239014
1772650962995058400,7.961058349609375,8.002197265625,-7.805985450744629,2.1056840419769287
1772650963004936000,7.97093603515625,8.133204460144043,-8.524430274963379,1.781456470489502
1772650963014813200,7.980813232421875,8.292326927185059,-8.977272033691406,1.4327025413513184
1772650963024690700,7.990690673828125,8.686544418334961,-8.995817184448242,1.1575279235839844
1772650963034568000,8.00056787109375,9.464810371398926,-8.517850875854492,0.9134600162506104
1772650963044445400,8.010445556640626,10.363913536071777,-7.739584922790527,0.5856433510780334
1772650963054309000,8.02030908203125,10.77129077911377,-7.159923553466797,-0.03469592705368996
1772650963064200200,8.0302001953125,10.397412300109863,-7.130611419677734,-0.8739784955978394
1772650963074077400,8.040077392578125,9.508479118347168,-7.351947784423828,-1.4380863904953003
1772650963083941000,8.049941162109375,8.304888725280762,-7.427321434020996,-1.6307085752487183
1772650963093832400,8.05983251953125,7.000801086425781,-7.347161769866943,-1.4626128673553467
1772650963103709700,8.069709716796876,5.97308349609375,-7.071389198303223,-0.9200403094291687
1772650963113573400,8.079573486328124,5.373083114624023,-6.5874409675598145,-0.18005990982055664
1772650963123464400,8.08946435546875,5.240281581878662,-5.979065418243408,0.6197410821914673
1772650963133342000,8.099342041015625,5.401797294616699,-5.55314302444458,1.2131611108779907
1772650963143205600,8.10920556640625,5.718846321105957,-5.120640277862549,1.7030915021896362
1772650963153096700,8.1190966796875,6.151947021484375,-4.446462631225586,2.421536445617676
1772650963162974000,8.128973876953125,6.632904529571533,-3.913461446762085,3.0861430168151855
1772650963172837600,8.138837646484374,6.718447685241699,-3.754936933517456,3.239283561706543
1772650963182729000,8.14872900390625,6.8309102058410645,-3.851846218109131,2.9730820655822754
1772650963192606200,8.158606201171875,6.7555365562438965,-4.235894203186035,2.5220351219177246
1772650963202483700,8.168483642578124,6.672386169433594,-4.719244480133057,1.9100706577301025
1772650963212361000,8.17836083984375,6.876972198486328,-5.182255744934082,1.2921242713928223
1772650963222238500,8.188238525390625,7.336992263793945,-5.638088226318359,0.8374879360198975
1772650963232102100,8.19810205078125,7.769495010375977,-6.078367710113525,0.251844584941864
1772650963241993200,8.2079931640625,7.985447406768799,-6.458826541900635,-0.27397820353507996
1772650963251870500,8.217870361328124,8.33719253540039,-6.632904529571533,-0.34995031356811523
1772650963261748000,8.227748046875,8.680562019348145,-6.5180487632751465,-0.2189432680606842
1772650963271625500,8.23762548828125,8.861818313598633,-6.300900459289551,-0.019740786403417587
1772650963281502700,8.247502685546875,8.997611045837402,-6.1334028244018555,0.20757736265659332
1772650963291380200,8.257380126953125,8.990432739257812,-6.058028697967529,0.3732803463935852
1772650963301257500,8.267257568359375,8.732605934143066,-6.058627128601074,0.44327038526535034
1772650963311135000,8.277135009765624,8.271389961242676,-5.977869033813477,0.5605186820030212
1772650963321012200,8.28701220703125,7.752745151519775,-5.7750773429870605,0.7728816866874695
1772650963330889700,8.2968896484375,7.295716285705566,-5.504688262939453,1.0217353105545044
1772650963340767000,8.30676708984375,6.932007312774658,-5.3353962898254395,1.2317054271697998
1772650963350644500,8.31664453125,6.6382880210876465,-5.340181827545166,1.3184453248977661
1772650963360522000,8.32652197265625,6.357131481170654,-5.377270698547363,1.2867404222488403
1772650963370399200,8.336399169921876,6.192026615142822,-5.42153787612915,1.2113664150238037
1772650963380276700,8.34627685546875,6.128018856048584,-5.508277893066406,1.1647064685821533
1772650963390154000,8.356154052734375,6.159125328063965,-5.577071189880371,1.1389836072921753
1772650963400031500,8.366031494140625,6.278766632080078,-5.583651542663574,1.1485549211502075
1772650963409908700,8.37590869140625,6.45523738861084,-5.556134223937988,1.2191431522369385
1772650963419786200,8.3857861328125,6.634698867797852,-5.494519233703613,1.3316057920455933
1772650963429663500,8.39566357421875,6.844669342041016,-5.450251579284668,1.399801254272461
1772650963439541000,8.405541015625,7.133602619171143,-5.389235019683838,1.4691931009292603
1772650963449418200,8.415418212890625,7.365108013153076,-5.292325496673584,1.5296118259429932
1772650963459295700,8.425295654296875,7.500302791595459,-5.160121917724609,1.587039589881897
1772650963469173200,8.43517333984375,7.63609504699707,-5.003990173339844,1.6115660667419434
1772650963479050500,8.445050537109376,7.814360618591309,-4.944169998168945,1.576870083808899
1772650963488928000,8.454927978515625,7.9627156257629395,-4.97348165512085,1.4859428405761719
1772650963498805200,8.46480517578125,7.878966808319092,-4.999204635620117,1.3076776266098022
1772650963508682800,8.474682861328125,7.620542049407959,-4.9160542488098145,1.0863415002822876
1772650963518560000,8.48456005859375,7.306483745574951,-4.734797954559326,0.9619147181510925
1772650963528437500,8.4944375,6.9930243492126465,-4.5684967041015625,0.8231309652328491
1772650963538314800,8.504314697265626,6.697510719299316,-4.290929317474365,0.7399803996086121
1772650963548192300,8.514192138671875,6.419943332672119,-4.063611030578613,0.7028916478157043
1772650963558069800,8.52406982421875,6.357131481170654,-3.910470485687256,0.7112665176391602
1772650963567947000,8.533947021484375,6.559325218200684,-3.7776687145233154,0.7926225066184998
1772650963577824500,8.543824462890624,7.043871879577637,-3.6053855419158936,0.9774680733680725
1772650963587701800,8.55370166015625,7.6767730712890625,-3.4893336296081543,1.119242787361145
1772650963597579300,8.563579345703126,8.185846328735352,-3.5784661769866943,1.0965110063552856
1772650963607456500,8.57345654296875,8.537590980529785,-3.7465620040893555,1.054038405418396
1772650963617334000,8.583333984375,8.834898948669434,-3.9810585975646973,1.1126625537872314
1772650963627211300,8.593211181640624,9.031708717346191,-4.243072986602783,1.0713863372802734
1772650963637088800,8.6030888671875,9.373882293701172,-4.343571186065674,1.2029916048049927
1772650963646952400,8.612952392578125,9.892526626586914,-4.321437835693359,1.526620864868164
1772650963656843500,8.622843505859375,10.222736358642578,-4.41057014465332,1.5978072881698608
1772650963666720800,8.632720703125,10.26461124420166,-4.8227338790893555,1.3854442834854126
1772650963676598300,8.642598388671875,10.037891387939453,-5.556134223937988,1.1024930477142334
1772650963686475800,8.652475830078124,9.520442962646484,-6.369095802307129,1.0606186389923096
1772650963696353000,8.66235302734375,8.876773834228516,-7.1856465339660645,1.2861422300338745
1772650963706216700,8.672216796875,8.283353805541992,-7.856832981109619,1.6378871202468872
1772650963716107800,8.682107666015625,7.970492362976074,-8.160123825073242,2.300100803375244
1772650963725985300,8.6919853515625,8.379066467285156,-7.905886173248291,3.294318675994873
1772650963735849000,8.701848876953125,9.321240425109863,-7.396812915802002,3.776472330093384
1772650963745740000,8.711739990234374,10.369894981384277,-6.98405122756958,3.0891339778900146
1772650963755617300,8.7216171875,11.272587776184082,-6.932007312774658,1.6767704486846924
1772650963765481000,8.73148095703125,11.734402656555176,-7.398009300231934,-0.1381855010986328
1772650963775372300,8.741372314453125,11.581859588623047,-8.097311973571777,-1.9148563146591187
1772650963785249500,8.75124951171875,10.718648910522461,-8.427521705627441,-3.2380871772766113
1772650963795113200,8.76111328125,9.637691497802734,-8.409575462341309,-3.946960926055908
1772650963805004300,8.77100439453125,8.478368759155273,-8.169694900512695,-4.068994998931885
1772650963814881800,8.7808818359375,7.5978102684021,-7.6630144119262695,-3.641875982284546
1772650963824745200,8.7907451171875,7.094718933105469,-6.984649181365967,-2.82951283454895
1772650963834636500,8.800636474609375,6.952346324920654,-6.193222999572754,-1.7886348962783813
1772650963844513800,8.810513671875,6.945765972137451,-5.328815937042236,-0.6891329288482666
1772650963854377500,8.82037744140625,6.836294174194336,-4.498506546020508,0.15314064919948578
1772650963864268500,8.8302685546875,6.464210510253906,-3.8919260501861572,0.6275177597999573
1772650963874146000,8.84014599609375,5.730810165405273,-3.837489366531372,0.617946445941925
1772650963884009700,8.850009765625,5.021936416625977,-4.113860130310059,0.44446679949760437
1772650963893900800,8.85990087890625,4.531407833099365,-4.442873477935791,0.14715859293937683
1772650963903778300,8.8697783203125,4.350151538848877,-4.715056896209717,-0.06161518394947052
1772650963913655600,8.879655517578126,4.346562385559082,-5.0356950759887695,-0.1824527233839035
1772650963923533000,8.889532958984375,4.508676052093506,-5.397609710693359,-0.18125630915164948
1772650963933410300,8.899410400390625,4.944169998168945,-5.705685615539551,-0.08255238085985184
1772650963943287800,8.909287841796875,5.616552829742432,-5.923432350158691,0.053240302950143814
1772650963953165000,8.9191650390625,6.4510498046875,-6.019145488739014,0.18723836541175842
1772650963963042600,8.92904248046875,7.459026336669922,-6.014359951019287,0.2805584669113159
1772650963972906200,8.93890625,8.476573944091797,-6.075376510620117,0.2727817893028259
1772650963982797300,8.94879736328125,9.361320495605469,-6.306882381439209,0.15732808411121368
1772650963992674800,8.9586748046875,10.109675407409668,-6.580262184143066,-0.07357929646968842
1772650964002538200,8.968538330078125,10.657033920288086,-6.817749977111816,-0.4043870270252228
1772650964012429600,8.9784296875,10.850852012634277,-7.073183536529541,-0.7573283910751343
1772650964022306800,8.988306884765626,10.549955368041992,-7.202994346618652,-1.0265209674835205
1772650964032184300,8.998184326171875,9.818349838256836,-7.077969551086426,-1.0869396924972534
1772650964042061600,9.0080615234375,8.837890625,-6.740581512451172,-0.8799605369567871
1772650964051939000,9.01793896484375,7.840681552886963,-6.214160442352295,-0.5096712112426758
1772650964061802800,9.027802734375,7.031907558441162,-5.72123908996582,-0.09272187948226929
1772650964071693800,9.03769384765625,6.367300987243652,-5.381458282470703,0.30927231907844543
1772650964081571000,9.047571044921876,5.949155330657959,-5.188836097717285,0.6448656916618347
1772650964091434800,9.057434814453124,5.748157978057861,-5.090131759643555,0.885344386100769
1772650964101325800,9.067325927734375,5.7170515060424805,-5.026721954345703,1.022931694984436
1772650964111203300,9.077203369140625,5.8749775886535645,-5.023132801055908,1.0654042959213257
1772650964121080800,9.087080810546874,6.16391134262085,-5.129613399505615,1.0342975854873657
1772650964130958000,9.0969580078125,6.56829833984375,-5.298307418823242,0.9224331378936768
1772650964140835600,9.106835693359375,6.996613502502441,-5.434100151062012,0.8249256014823914
1772650964150712800,9.116712890625,7.443472862243652,-5.517848968505859,0.8333004713058472
1772650964160590300,9.12659033203125,7.881359577178955,-5.650650501251221,0.8189435601234436
1772650964170467600,9.136467529296874,8.26121997833252,-5.708676815032959,0.8177471160888672
1772650964180345000,9.146344970703124,8.478368759155273,-5.650052547454834,0.9044869542121887
1772650964190222300,9.156222412109376,8.46341323852539,-5.435894966125488,1.0049854516983032
1772650964200099800,9.166099853515625,8.485547065734863,-5.112265586853027,0.96370929479599
1772650964209977000,9.17597705078125,7.6049885749816895,-4.811966419219971,0.7782655358314514
1772650964219854600,9.1858544921875,7.467999458312988,-5.209773063659668,0.6275177597999573
1772650964229732000,9.195732177734374,9.219545364379883,-5.249852657318115,1.0169496536254883
1772650964239595500,9.205595458984375,9.962516784667969,-5.166104316711426,1.2281162738800049
1772650964249486800,9.21548681640625,10.146764755249023,-4.787439823150635,1.0683952569961548
1772650964259364000,9.225364013671875,10.174880027770996,-4.541577339172363,1.1276177167892456
1772650964269241600,9.23524169921875,10.063015937805176,-4.770092010498047,1.2113664150238037
1772650964279118800,9.245118896484374,10.037891387939453,-4.968696117401123,1.1282159090042114
