time,seconds_elapsed,z,y,x
1772650955026810000,-0.00718994140625,-0.12766708433628082,-0.12033691257238388,0.4891359508037567
1772650955036687600,0.0026875,-0.13453911244869232,-0.007941014133393764,0.46516019105911255
1772650955046565000,0.012565185546875,-0.13560809195041656,0.08093725889921188,0.3052709102630615
1772650955056442600,0.022442626953125,-0.09315420687198639,0.0713164210319519,0.19913621246814728
1772650955066320000,0.03231982421875,-0.04321744292974472,-0.018783552572131157,0.15240639448165894
1772650955076197400,0.042197265625,0.00259610079228878,-0.1382041871547699,0.15301723778247833
1772650955086075000,0.052074951171875,0.021379653364419937,-0.2020377367734909,0.1360662281513214
1772650955095952100,0.0619521484375,0.036039989441633224,-0.1910424828529358,0.07650861889123917
1772650955105829600,0.07182958984375,0.053143709897994995,-0.13973131775856018,0.003359660040587187
1772650955115707000,0.081706787109375,0.059557609260082245,-0.10002623498439789,-0.05894676223397255
1772650955125584400,0.09158447265625,0.04550812020897865,-0.07666133344173431,-0.1056765764951706
1772650955135462000,0.1014619140625,0.021226942539215088,-0.055587101727724075,-0.13331741094589233
1772650955146339300,0.11233935546875,0.002748812548816204,-0.04153761267662048,-0.14003673195838928
1772650955200665000,0.1666650390625,-0.007482878863811493,0.029626091942191124,0.04046862944960594
1772650955220419800,0.186419921875,0.007330167107284069,0.018019994720816612,0.03924693539738655
1772650955230297300,0.19629736328125,0.02107422985136509,0.012216945178806782,0.0522274412214756
1772650955240174600,0.206174560546875,0.03665083646774292,-0.004886778071522713,0.07498150318861008
1772650955250052000,0.216052001953125,0.05100574716925621,-0.020463382825255394,0.09651386737823486
1772650955259929600,0.2259296875,0.05528167635202408,-0.025197450071573257,0.10384403169155121
1772650955269806800,0.235806884765625,0.055892523378133774,-0.02351761981844902,0.09834641218185425
1772650955279684400,0.245684326171875,0.05329642444849014,-0.026724567636847496,0.08108997344970703
1772650955289561900,0.255561767578125,0.04184303805232048,-0.04474456235766411,0.06841489672660828
1772650955299439000,0.265439208984375,0.02870982140302658,-0.06856760382652283,0.07773031294345856
1772650955309316600,0.275316650390625,0.023059483617544174,-0.08338065445423126,0.111632339656353
1772650955319193900,0.28519384765625,0.02901524491608143,-0.08551861345767975,0.14965757727622986
1772650955329071400,0.2950712890625,0.04489727318286896,-0.08032641559839249,0.17348061501979828
1772650955338948900,0.304948974609375,0.06978929787874222,-0.05375456064939499,0.17882554233074188
1772650955348826000,0.314826171875,0.09987352788448334,-0.018936265259981155,0.17241163551807404
1772650955358703600,0.32470361328125,0.11300674080848694,-0.0018325417768210173,0.16370706260204315
1772650955368581000,0.3345810546875,0.10750912129878998,-0.0036650835536420345,0.1588202863931656
1772650955378458400,0.344458251953125,0.10201149433851242,-0.007482878863811493,0.15149012207984924
1772650955388335900,0.3543359375,0.10308047384023666,-0.007788302376866341,0.13499724864959717
1772650955398213400,0.36421337890625,0.10338589549064636,-0.0038177953101694584,0.10674555599689484
1772650955408090600,0.374090576171875,0.09697200357913971,0.006413896102458239,0.0791047215461731
1772650955417968000,0.383968017578125,0.08933641016483307,0.014049487188458443,0.04718795046210289
1772650955427845600,0.393845703125,0.08658760040998459,0.019241688773036003,0.018936265259981155
1772650955437723000,0.403722900390625,0.0850604772567749,0.029473381116986275,0.0029015245381742716
1772650955447600400,0.413600341796875,0.0787992998957634,0.04031591862440109,-0.00519220158457756
1772650955457478000,0.423477783203125,0.06765133142471313,0.04963133856654167,-0.00030542362947016954
1772650955467355100,0.433355224609375,0.06306997686624527,0.0528382882475853,0.019394399598240852
1772650955477232600,0.443232666015625,0.07360709458589554,0.05070032179355621,0.045202698558568954
1772650955487110100,0.453110107421875,0.09590301662683487,0.0393996499478817,0.06978929787874222
1772650955496987400,0.4629873046875,0.12995775043964386,0.02076880633831024,0.10048437118530273
1772650955506865000,0.472864990234375,0.16156910359859467,0.007788302376866341,0.13423368334770203
1772650955516742100,0.4827421875,0.18249061703681946,0.005650337319821119,0.16111096739768982
1772650955526619600,0.49261962890625,0.19424942135810852,0.010842538438737392,0.1782146841287613
1772650955536497200,0.5024970703125,0.1973036676645279,0.010842538438737392,0.18615570664405823
1772650955546374400,0.51237451171875,0.20585553348064423,-0.00015271181473508477,0.1832541823387146
1772650955556252000,0.522251953125,0.2157817929983139,-0.01252236869186163,0.17286977171897888
1772650955566129400,0.53212939453125,0.22555534541606903,-0.02489202655851841,0.16065283119678497
1772650955576006700,0.542006591796875,0.237008735537529,-0.03680354729294777,0.14171656966209412
1772650955585884200,0.55188427734375,0.24311721324920654,-0.04810422286391258,0.12079504877328873
1772650955595761400,0.561761474609375,0.24540787935256958,-0.056808795779943466,0.10308047384023666
1772650955605639000,0.571638916015625,0.24540787935256958,-0.05131116881966591,0.09636115282773972
1772650955615516400,0.581516357421875,0.24159009754657745,-0.04581354558467865,0.0975828468799591
1772650955625393700,0.5913935546875,0.23502348363399506,-0.042606595903635025,0.111632339656353
1772650955635271200,0.601271240234375,0.2363978922367096,-0.0331384651362896,0.13545538485050201
1772650955645148700,0.611148681640625,0.2504473626613617,-0.013896775431931019,0.1635543555021286
1772650955655026000,0.62102587890625,0.26312246918678284,0.009620844386518002,0.17332790791988373
1772650955664903400,0.6309033203125,0.2611372172832489,0.01695101149380207,0.16645587980747223
1772650955674781000,0.640781005859375,0.24708771705627441,0.0198525357991457,0.16279079020023346
1772650955684658200,0.650658203125,0.2354816198348999,0.01435491070151329,0.16217994689941406
1772650955694535700,0.66053564453125,0.2283041626214981,0.00259610079228878,0.15561333298683167
1772650955704413000,0.670412841796875,0.23425991833209991,-0.0024433890357613564,0.14522893726825714
1772650955714290400,0.68029052734375,0.2530434727668762,0.00916270911693573,0.13957859575748444
1772650955724168000,0.69016796875,0.26755109429359436,0.036192700266838074,0.1388150453567505
1772650955734045200,0.700045166015625,0.28007346391677856,0.05390727147459984,0.13377554714679718
1772650955743922700,0.709922607421875,0.29091599583625793,0.05864133685827255,0.11774080991744995
1772650955753800000,0.719800048828125,0.30282753705978394,0.05604523420333862,0.09513945877552032
1772650955763677400,0.729677490234375,0.31596073508262634,0.05757235363125801,0.06322269141674042
1772650955773555000,0.739554931640625,0.33764582872390747,0.06826218217611313,0.030695075169205666
1772650955783432200,0.74943212890625,0.3640649616718292,0.08017370104789734,0.0004581354442052543
1772650955793309700,0.759309814453125,0.3808632791042328,0.0853659063577652,-0.02107422985136509
1772650955803187000,0.76918701171875,0.3833066523075104,0.0778830274939537,-0.032069481909275055
1772650955813064400,0.779064453125,0.38040512800216675,0.05757235363125801,-0.04184303805232048
1772650955822942000,0.78894189453125,0.3703261613845825,0.02626643143594265,-0.05207473039627075
1772650955832819200,0.798819091796875,0.36009445786476135,-0.006413896102458239,-0.05925218388438225
1772650955842696700,0.80869677734375,0.3549022674560547,-0.041384901851415634,-0.06398624926805496
1772650955852574200,0.81857421875,0.3545968234539032,-0.07452336698770523,-0.06994201242923737
1772650955862451500,0.828451416015625,0.35948359966278076,-0.0794101431965828,-0.07421794533729553
1772650955872329000,0.838328857421875,0.36360684037208557,-0.062306419014930725,-0.07727217674255371
1772650955882206200,0.848206298828125,0.36284327507019043,-0.03405473381280899,-0.06887302547693253
1772650955892083700,0.858083740234375,0.3568875193595886,0.004734066314995289,-0.061084724962711334
1772650955901961200,0.867961181640625,0.3527642786502838,0.04749337583780289,-0.06383354216814041
1772650955911838500,0.87783837890625,0.34192174673080444,0.09208522737026215,-0.07574506103992462
1772650955921716000,0.887716064453125,0.3217637836933136,0.1372879147529602,-0.08322793990373611
1772650955931593500,0.897593505859375,0.3086305856704712,0.20814619958400726,-0.10750912129878998
1772650955941470700,0.907470703125,0.30007871985435486,0.291374146938324,-0.1557660549879074
1772650955951348200,0.91734814453125,0.27946263551712036,0.3564293682575226,-0.20280128717422485
1772650955961225500,0.9272255859375,0.2432699203491211,0.3733803927898407,-0.21440738439559937
1772650955971103000,0.93710302734375,0.21165858209133148,0.33596599102020264,-0.1626380831003189
1772650955980980500,0.94698046875,0.19226416945457458,0.2501419484615326,-0.04810422286391258
1772650955990857700,0.956857666015625,0.19455485045909882,0.14049486815929413,0.10033166408538818
1772650956000735200,0.9667353515625,0.20845162868499756,0.03405473381280899,0.23212195932865143
1772650956010612500,0.976612548828125,0.2357870489358902,-0.06047387793660164,0.3184041380882263
1772650956020490000,0.986489990234375,0.2713688910007477,-0.11590826511383057,0.34131091833114624
1772650956030367500,0.996367431640625,0.31137940287590027,-0.12675081193447113,0.29473379254341125
1772650956040244700,1.00624462890625,0.3504736125469208,-0.12613995373249054,0.23090025782585144
1772650956050122200,1.016122314453125,0.38483378291130066,-0.12675081193447113,0.17500774562358856
1772650956059999500,1.02599951171875,0.4103366434574127,-0.1572931706905365,0.1316375881433487
1772650956069877000,1.035876953125,0.4268295168876648,-0.20493926107883453,0.08460234850645065
1772650956079754500,1.04575439453125,0.4367557764053345,-0.26006820797920227,0.031000498682260513
1772650956089631700,1.0556318359375,0.4324798583984375,-0.30908870697021484,-0.023975754156708717
1772650956099509200,1.06550927734375,0.41507071256637573,-0.3608580231666565,-0.04947862774133682
1772650956109386800,1.07538671875,0.38575005531311035,-0.40987852215766907,-0.03436015918850899
1772650956119264000,1.085263916015625,0.36253786087036133,-0.4369085133075714,0.004581354558467865
1772650956129141500,1.0951416015625,0.3446705639362335,-0.43645036220550537,0.0462716780602932
1772650956139018800,1.105018798828125,0.3374931216239929,-0.40712970495224,0.09330692142248154
1772650956148896300,1.114896240234375,0.35291701555252075,-0.36727190017700195,0.15378080308437347
1772650956158773500,1.1247734375,0.38193225860595703,-0.346808522939682,0.22662433981895447
1772650956168651000,1.134651123046875,0.41476529836654663,-0.3434488773345947,0.29091599583625793
1772650956178528500,1.144528564453125,0.448361873626709,-0.3602471649646759,0.3289412558078766
1772650956188405800,1.15440576171875,0.47386476397514343,-0.40422818064689636,0.337798535823822
1772650956198283300,1.164283203125,0.49707695841789246,-0.4691306948661804,0.3313846290111542
1772650956208160800,1.174160888671875,0.525175929069519,-0.5439594984054565,0.3158080279827118
1772650956218038000,1.1840380859375,0.5520532131195068,-0.6232169270515442,0.29473379254341125
1772650956227915500,1.19391552734375,0.5717530250549316,-0.6774296164512634,0.2635805904865265
1772650956237792800,1.203792724609375,0.5867187976837158,-0.6784985661506653,0.2145601063966751
1772650956247670300,1.213670166015625,0.591605544090271,-0.631463348865509,0.14813046157360077
1772650956257547800,1.2235478515625,0.5836645364761353,-0.5636593103408813,0.0791047215461731
1772650956267425000,1.233425048828125,0.5572454333305359,-0.4903576374053955,0.015576604753732681
1772650956277302500,1.243302490234375,0.5065450668334961,-0.40972578525543213,-0.04184303805232048
1772650956287179800,1.2531796875,0.43080002069473267,-0.3301629424095154,-0.10353861004114151
1772650956297057300,1.263057373046875,0.3439069986343384,-0.25777754187583923,-0.17684027552604675
1772650956306934800,1.272934814453125,0.26312246918678284,-0.1889045089483261,-0.256708562374115
1772650956316812000,1.28281201171875,0.20524467527866364,-0.1298050433397293,-0.3306210935115814
1772650956326689500,1.292689453125,0.18126893043518066,-0.10033166408538818,-0.37047886848449707
1772650956336566800,1.30256689453125,0.19928891956806183,-0.1495048701763153,-0.33230090141296387
1772650956346444300,1.3124443359375,0.21776704490184784,-0.2473931461572647,-0.22509720921516418
1772650956356321800,1.32232177734375,0.2211267054080963,-0.31534990668296814,-0.11254860460758209
1772650956366199000,1.332198974609375,0.23975755274295807,-0.3229855000972748,-0.033443886786699295
1772650956376076500,1.34207666015625,0.256708562374115,-0.2838912606239319,0.012369656935334206
1772650956385953800,1.351953857421875,0.25472331047058105,-0.2029540091753006,0.017409147694706917
1772650956395831300,1.361831298828125,0.2507528066635132,-0.12247487902641296,-0.010078979656100273
1772650956405708500,1.37170849609375,0.24571330845355988,-0.09239064902067184,-0.05803048983216286
1772650956415586000,1.3815859375,0.24128466844558716,-0.11987877637147903,-0.10689827054738998
1772650956425463600,1.391463623046875,0.2483094036579132,-0.17714570462703705,-0.13484452664852142
1772650956435340800,1.4013408203125,0.2536543309688568,-0.2551814317703247,-0.15958385169506073
1772650956445218300,1.41121826171875,0.24846212565898895,-0.35291701555252075,-0.1841704547405243
1772650956455095800,1.421095703125,0.2351761907339096,-0.45049986243247986,-0.2038702666759491
1772650956464973000,1.43097314453125,0.22601348161697388,-0.5267030596733093,-0.21807247400283813
1772650956474850600,1.4408505859375,0.21562908589839935,-0.5745018720626831,-0.21975229680538177
1772650956484727800,1.450727783203125,0.18050536513328552,-0.5854970812797546,-0.20234315097332
1772650956494605300,1.460605224609375,0.12552911043167114,-0.5508314967155457,-0.16630317270755768
1772650956504482600,1.470482666015625,0.08246438205242157,-0.48669254779815674,-0.1304158866405487
1772650956514360000,1.480360107421875,0.07330167293548584,-0.4149180054664612,-0.11300674080848694
1772650956524237600,1.490237548828125,0.0988045409321785,-0.3486410677433014,-0.1122431829571724
1772650956534114800,1.50011474609375,0.14767232537269592,-0.29412296414375305,-0.11621369421482086
1772650956543992300,1.509992431640625,0.2041756957769394,-0.26159533858299255,-0.11285403370857239
1772650956553869800,1.519869873046875,0.2530434727668762,-0.2539597451686859,-0.09941539168357849
1772650956563747000,1.5297470703125,0.27839362621307373,-0.26403874158859253,-0.07482878863811493
1772650956573624600,1.53962451171875,0.29229041934013367,-0.2930539846420288,-0.05268557742238045
1772650956583501800,1.549501708984375,0.30374380946159363,-0.34405970573425293,-0.05115845799446106
1772650956593379300,1.55937939453125,0.30985227227211,-0.4152234196662903,-0.06673506647348404
1772650956603256600,1.569256591796875,0.31351736187934875,-0.49264830350875854,-0.08842013776302338
1772650956613134000,1.579134033203125,0.3049654960632324,-0.5601469278335571,-0.10155335813760757
1772650956623011600,1.589011474609375,0.288930743932724,-0.6146650314331055,-0.10246963053941727
1772650956632888800,1.598888916015625,0.2742704153060913,-0.6636855602264404,-0.09544488787651062
1772650956642766300,1.608766357421875,0.25472331047058105,-0.7182036638259888,-0.08903098851442337
1772650956652643600,1.6186435546875,0.2351761907339096,-0.7802046537399292,-0.0922379344701767
1772650956662521000,1.62852099609375,0.21898874640464783,-0.825101912021637,-0.11529742181301117
1772650956672398600,1.638398681640625,0.19531841576099396,-0.812274158000946,-0.16813570261001587
1772650956682275800,1.64827587890625,0.15301723778247833,-0.7525638341903687,-0.24433889985084534
1772650956692153300,1.6581533203125,0.10155335813760757,-0.6678087711334229,-0.3226800560951233
1772650956702030600,1.668030517578125,0.05405998229980469,-0.5657972693443298,-0.3898732662200928
1772650956711908000,1.677908203125,0.008551862090826035,-0.45920443534851074,-0.43767204880714417
1772650956721785600,1.68778564453125,-0.04581354558467865,-0.3695625960826874,-0.47111594676971436
1772650956731662800,1.697662841796875,-0.12079504877328873,-0.2886253297328949,-0.5095993280410767
1772650956741540400,1.707540283203125,-0.20188501477241516,-0.2295258641242981,-0.569309651851654
1772650956751417600,1.71741748046875,-0.27686652541160583,-0.19195875525474548,-0.6594096422195435
1772650956761295000,1.727295166015625,-0.3089359998703003,-0.17409147322177887,-0.751494824886322
1772650956771172400,1.73717236328125,-0.30572906136512756,-0.1913478970527649,-0.8139539957046509
1772650956781049900,1.7470498046875,-0.28694549202919006,-0.2701472043991089,-0.793337881565094
1772650956790927400,1.75692724609375,-0.2673983871936798,-0.39766156673431396,-0.6485670804977417
1772650956800804600,1.7668046875,-0.24311721324920654,-0.5685460567474365,-0.3828485310077667
1772650956810682000,1.77668212890625,-0.20096874237060547,-0.7476770281791687,-0.037261683493852615
1772650956820559400,1.786559326171875,-0.145687073469162,-0.8843541145324707,0.27320143580436707
1772650956830423000,1.796423095703125,-0.06490252166986465,-0.9721634387969971,0.4628695249557495
1772650956840314400,1.806314453125,0.012675080448389053,-0.9805625677108765,0.5224271416664124
1772650956850191600,1.816191650390625,0.058335911482572556,-0.8971819281578064,0.46424391865730286
1772650956860055300,1.82605517578125,0.09345962852239609,-0.7551599144935608,0.3333698809146881
1772650956869946400,1.8359462890625,0.10781454294919968,-0.5864133834838867,0.20005246996879578
1772650956879824000,1.845823974609375,0.08643488585948944,-0.4227063059806824,0.1188097894191742
1772650956889701400,1.855701416015625,0.06413896381855011,-0.2924431264400482,0.09910997003316879
1772650956899578600,1.86557861328125,0.08215895295143127,-0.22631891071796417,0.1453816443681717
1772650956909456100,1.8754560546875,0.13301199674606323,-0.2283041626214981,0.23425991833209991
1772650956919333400,1.88533349609375,0.20234315097332,-0.296108216047287,0.3381039500236511
1772650956929211000,1.8952109375,0.2713688910007477,-0.3978142738342285,0.43614494800567627
1772650956939088100,1.905088134765625,0.3229855000972748,-0.4894413650035858,0.5118899941444397
1772650956948965600,1.914965576171875,0.3507790267467499,-0.5354076027870178,0.5488462448120117
1772650956958843100,1.924843017578125,0.35169529914855957,-0.5289937257766724,0.536629319190979
1772650956968720400,1.934720458984375,0.33917292952537537,-0.4793623983860016,0.4750864505767822
1772650956978598000,1.944597900390625,0.33260634541511536,-0.40636613965034485,0.3778090178966522
1772650956988475100,1.95447509765625,0.3417690396308899,-0.3292466700077057,0.261442631483078
1772650956998352600,1.9643525390625,0.3614688515663147,-0.26816195249557495,0.13423368334770203
1772650957008230100,1.974230224609375,0.39979952573776245,-0.2513636350631714,0.003359660040587187
1772650957018107400,1.984107421875,0.4540122151374817,-0.28816720843315125,-0.1185043677687645
1772650957027985000,1.99398486328125,0.5141806602478027,-0.35597124695777893,-0.21944688260555267
1772650957037862100,2.003862060546875,0.5737382769584656,-0.4443913698196411,-0.29320669174194336
1772650957047739600,2.01373974609375,0.6223006248474121,-0.5280774831771851,-0.33764582872390747
1772650957057617000,2.023616943359375,0.6502469182014465,-0.5856497883796692,-0.35200074315071106
1772650957067494400,2.033494384765625,0.6671979427337646,-0.6284091472625732,-0.3414636254310608
1772650957077372000,2.043371826171875,0.6830799579620361,-0.6526902914047241,-0.3118375241756439
1772650957087249200,2.053249267578125,0.7065975666046143,-0.6545228362083435,-0.2713688910007477
1772650957097126700,2.063126708984375,0.7336275577545166,-0.6258130073547363,-0.21883602440357208
1772650957107004000,2.07300390625,0.7574505805969238,-0.5661026835441589,-0.15484978258609772
1772650957116881400,2.08288134765625,0.7786775231361389,-0.49295374751091003,-0.07925742864608765
1772650957126759000,2.092759033203125,0.800515353679657,-0.41048935055732727,0.001985253533348441
1772650957136636200,2.10263623046875,0.8235748410224915,-0.32069480419158936,0.08108997344970703
1772650957146513700,2.112513671875,0.8438854813575745,-0.22815145552158356,0.14064757525920868
1772650957156391000,2.122390869140625,0.860683798789978,-0.13179029524326324,0.15912571549415588
1772650957166268400,2.132268310546875,0.8591566681861877,-0.05238015204668045,0.14034216105937958
1772650957176146000,2.14214599609375,0.8509102463722229,-0.0007635590736754239,0.09956810623407364
1772650957186009300,2.15200927734375,0.8887827396392822,0.07543963938951492,0.05008947476744652
1772650957195900700,2.161900634765625,0.9608627557754517,0.2104368805885315,0.001374406274408102
1772650957205778000,2.17177783203125,1.0256125926971436,0.3874298632144928,-0.05803048983216286
1772650957215655400,2.181655517578125,1.034011721611023,0.5375455617904663,-0.1122431829571724
1772650957225532700,2.19153271484375,0.9733850955963135,0.6361974477767944,-0.15683503448963165
1772650957235410200,2.20141015625,0.860683798789978,0.6591041684150696,-0.1776038408279419
1772650957245287700,2.21128759765625,0.7114843726158142,0.6207735538482666,-0.18630841374397278
1772650957255165000,2.2211650390625,0.5508314967155457,0.5694623589515686,-0.20066332817077637
1772650957265042400,2.23104248046875,0.40606072545051575,0.5146388411521912,-0.2098260372877121
1772650957274919700,2.240919677734375,0.2664821147918701,0.44607120752334595,-0.1829487532377243
1772650957284797200,2.250797119140625,0.13866232335567474,0.35413870215415955,-0.11422843486070633
1772650957294674400,2.26067431640625,0.01969982497394085,0.2235700935125351,0.013133215717971325
1772650957304552000,2.270552001953125,-0.09345962852239609,0.08399149775505066,0.1844758689403534
1772650957314429400,2.280429443359375,-0.183865025639534,0.012827792204916477,0.3571929335594177
1772650957324306700,2.290306640625,-0.23823043704032898,0.023059483617544174,0.5099047422409058
1772650957334184200,2.30018408203125,-0.2851129472255707,0.06429167091846466,0.6397097706794739
1772650957344061400,2.3100615234375,-0.32695600390434265,0.12033691257238388,0.72599196434021
1772650957353939000,2.31993896484375,-0.3452814221382141,0.19913621246814728,0.7556180357933044
1772650957363802600,2.329802734375,-0.3749074935913086,0.2970244884490967,0.754396378993988
1772650957373693700,2.339693603515625,-0.42637139558792114,0.39949411153793335,0.7207997441291809
1772650957383571200,2.3495712890625,-0.4712686538696289,0.4909684956073761,0.6371136903762817
1772650957393435000,2.359434814453125,-0.5748072862625122,0.6349757313728333,0.5590779781341553
1772650957403326000,2.369325927734375,-0.6336013078689575,0.6623111367225647,0.434617817401886
1772650957413203500,2.379203369140625,-0.6754443645477295,0.7783721089363098,0.24464432895183563
1772650957423080700,2.389080810546875,-0.7246175408363342,1.086391806602478,-0.12751436233520508
1772650957432958200,2.398958251953125,-0.797613799571991,1.5475815534591675,-0.6142069101333618
1772650957442835500,2.40883544921875,-0.8660287261009216,1.9220309257507324,-1.0184351205825806
1772650957452699100,2.41869921875,-0.9074136018753052,2.086043357849121,-1.2307045459747314
1772650957462590200,2.428590087890625,-0.9138274788856506,2.0028154850006104,-1.2273448705673218
1772650957472467700,2.4384677734375,-0.8364025950431824,1.6671549081802368,-1.0679137706756592
1772650957482345200,2.44834521484375,-0.7120952010154724,1.2110047340393066,-0.8602256774902344
1772650957492222500,2.458222412109375,-0.6051968932151794,0.724006712436676,-0.709346354007721
1772650957502100000,2.468099853515625,-0.5563291311264038,0.38636088371276855,-0.672695517539978
1772650957511963400,2.47796337890625,-0.5491516590118408,0.2591519355773926,-0.7032378911972046
1772650957521854700,2.487854736328125,-0.6274928450584412,0.3211529552936554,-0.7316423058509827
1772650957531732200,2.497732177734375,-0.7505785822868347,0.48516544699668884,-0.7293516397476196
1772650957541595600,2.507595703125,-0.8276980519294739,0.7128587365150452,-0.6948387622833252
1772650957551487000,2.517487060546875,-0.8257128000259399,1.0059127807617188,-0.6119162440299988
1772650957561364200,2.5273642578125,-0.8222004175186157,1.313627004623413,-0.5515950918197632
1772650957571241700,2.53724169921875,-0.8244910836219788,1.683800458908081,-0.5315898060798645
1772650957581119000,2.547118896484375,-0.8435800671577454,1.925085186958313,-0.47829338908195496
1772650957590996500,2.55699658203125,-0.8759549856185913,1.982962965965271,-0.4043808877468109
1772650957600874000,2.5668740234375,-0.8724426031112671,1.9815884828567505,-0.35352784395217896
1772650957610751200,2.576751220703125,-0.8338065147399902,2.0116727352142334,-0.3038965165615082
1772650957620628700,2.586628662109375,-0.873511552810669,1.8661383390426636,-0.279920756816864
1772650957630506000,2.596506103515625,-0.9565867781639099,1.6747905015945435,-0.2835858464241028
1772650957640383500,2.606383544921875,-1.034317135810852,1.41594398021698,-0.19379130005836487
1772650957650260700,2.6162607421875,-1.1106730699539185,1.091889500617981,-0.023364907130599022
1772650957660138200,2.62613818359375,-1.1616787910461426,0.798530101776123,0.15439164638519287
1772650957670015700,2.636015625,-1.1705360412597656,0.5998520255088806,0.2976353168487549
1772650957679893000,2.64589306640625,-1.1438114643096924,0.5034908652305603,0.38223767280578613
1772650957689770500,2.6557705078125,-1.1059389114379883,0.5247178077697754,0.4158342778682709
1772650957699647700,2.665647705078125,-1.0521844625473022,0.6423059105873108,0.41018393635749817
1772650957709525200,2.675525146484375,-0.978424608707428,0.7841751575469971,0.36452311277389526
1772650957719389000,2.685388916015625,-0.8887827396392822,0.9051229357719421,0.28037887811660767
1772650957729280000,2.695280029296875,-0.8032641410827637,0.9904888272285461,0.17378604412078857
1772650957739157500,2.705157470703125,-0.7560762166976929,1.03996741771698,0.053143709897994995
1772650957749034800,2.71503466796875,-0.7568397521972656,1.0705097913742065,-0.06658235192298889
1772650957758912300,2.724912353515625,-0.8008207678794861,1.0677610635757446,-0.14797775447368622
1772650957768789500,2.73478955078125,-0.8622109293937683,1.0250016450881958,-0.1704263836145401
1772650957778667000,2.7446669921875,-0.9167290329933167,0.9384140968322754,-0.13621893525123596
1772650957788544500,2.75454443359375,-0.9533798694610596,0.8238802552223206,-0.07482878863811493
1772650957798421800,2.764421875,-0.9631534218788147,0.6957550048828125,-0.022601349279284477
1772650957808299300,2.77429931640625,-0.9636115431785583,0.5858024954795837,0.0050394898280501366
1772650957818176500,2.784176513671875,-0.9785773158073425,0.5123481154441833,0.01710372418165207
1772650957828054000,2.794053955078125,-0.9917105436325073,0.4844018816947937,0.03634541109204292
1772650957837931300,2.80393115234375,-0.983005940914154,0.5013529062271118,0.0662769302725792
1772650957847808800,2.813808837890625,-0.9805625677108765,0.5720584392547607,0.08735115826129913
1772650957857686300,2.823686279296875,-1.0083560943603516,0.6786513328552246,0.10140064358711243
1772650957867563500,2.8335634765625,-1.042563557624817,0.8104416131973267,0.10323318839073181
1772650957877441000,2.84344091796875,-1.0541696548461914,0.962695300579071,0.08047912269830704
1772650957887318300,2.853318359375,-1.015075445175171,1.1141854524612427,0.04092676565051079
1772650957897195800,2.86319580078125,-0.9492566585540771,1.2045907974243164,0.007788302376866341
1772650957907073000,2.873072998046875,-0.8915315866470337,1.221083641052246,-0.010842538438737392
1772650957916950500,2.882950439453125,-0.8716790676116943,1.2294827699661255,-0.031153209507465363
1772650957926828000,2.892828125,-0.8935168385505676,1.2102410793304443,-0.042606595903635025
1772650957936705300,2.902705322265625,-0.9210049510002136,1.1131163835525513,-0.014507622458040714
1772650957946582800,2.912582763671875,-0.9396358132362366,0.9562813639640808,0.037414394319057465
1772650957956460000,2.9224599609375,-0.941468358039856,0.7423321604728699,0.1366770714521408
1772650957966337500,2.932337646484375,-0.9402466416358948,0.5390726923942566,0.24937839806079865
1772650957976215000,2.942215087890625,-0.9521581530570984,0.3805578351020813,0.37826716899871826
1772650957986092300,2.95209228515625,-0.9625425934791565,0.33688226342201233,0.47233763337135315
1772650957995969800,2.9619697265625,-0.9691091775894165,0.40712970495224,0.49768781661987305
1772650958005847000,2.971846923828125,-0.9691091775894165,0.5561764240264893,0.4619532525539398
1772650958015724500,2.981724609375,-0.9529217481613159,0.7519529461860657,0.3831539452075958
1772650958025601800,2.991601806640625,-0.897334635257721,0.9391776323318481,0.31137940287590027
1772650958035479300,3.001479248046875,-0.7963921427726746,1.0831849575042725,0.24372805655002594
1772650958045343000,3.011343017578125,-0.6525375843048096,1.200467586517334,0.14110571146011353
1772650958055234000,3.021234130859375,-0.5234960913658142,1.3528739213943481,-0.05864133685827255
1772650958065111600,3.031111572265625,-0.42759308218955994,1.5730843544006348,-0.36162158846855164
1772650958074975200,3.040975341796875,-0.31504446268081665,1.7867282629013062,-0.7113316059112549
1772650958084866300,3.0508662109375,-0.15026842057704926,1.7641268968582153,-0.939483106136322
1772650958094743600,3.06074365234375,0.00030542362947016954,1.46511709690094,-0.9698727130889893
1772650958104607200,3.070607177734375,0.09239064902067184,1.0547804832458496,-0.8194515705108643
1772650958114498600,3.08049853515625,0.09620844572782516,0.663838267326355,-0.503948986530304
1772650958124375800,3.090375732421875,-0.011606098152697086,0.3680354654788971,-0.10308047384023666
1772650958134239500,3.100239501953125,-0.18340688943862915,0.20784078538417816,0.21272756159305573
1772650958144130600,3.110130615234375,-0.3509317636489868,0.16737215220928192,0.3455868363380432
1772650958154008000,3.120008056640625,-0.5099047422409058,0.2480039894580841,0.34161633253097534
1772650958163871700,3.129871826171875,-0.6646018028259277,0.39445462822914124,0.26999449729919434
1772650958173762800,3.1397626953125,-0.8177717924118042,0.5845808386802673,0.2017323076725006
1772650958183640300,3.149640380859375,-0.9255862832069397,0.844649076461792,0.183865025639534
1772650958193517600,3.159517578125,-1.0705097913742065,0.9585720896720886,0.15286453068256378
1772650958203395000,3.16939501953125,-1.1766445636749268,1.11678147315979,0.06994201242923737
1772650958213272600,3.1792724609375,-1.2052016258239746,1.20504891872406,0.03268032893538475
1772650958223136000,3.189135986328125,-1.2267340421676636,1.2073396444320679,0.025961007922887802
1772650958233027300,3.19902734375,-1.2180293798446655,1.106244444847107,0.06261184066534042
1772650958242904600,3.208904541015625,-1.1769499778747559,0.9153546094894409,0.13973131775856018
1772650958252768300,3.218768310546875,-1.1238062381744385,0.6910209655761719,0.23273280262947083
1772650958262659300,3.228659423828125,-1.050351858139038,0.5280774831771851,0.2802261710166931
1772650958272536800,3.238536865234375,-0.9694145917892456,0.4618005156517029,0.25716668367385864
1772650958282414300,3.248414306640625,-0.8886300325393677,0.4477510452270508,0.18661384284496307
1772650958292291600,3.25829150390625,-0.7991409301757812,0.37704548239707947,0.14629791676998138
1772650958302169000,3.268169189453125,-0.7101099491119385,0.22494450211524963,0.17653486132621765
1772650958312046300,3.27804638671875,-0.6583406329154968,0.06032116711139679,0.24540787935256958
1772650958321923800,3.287923828125,-0.6621584296226501,-0.08017370104789734,0.3387148082256317
1772650958331801300,3.29780126953125,-0.7137750387191772,-0.19226416945457458,0.4468347728252411
1772650958341678600,3.3076787109375,-0.7930324673652649,-0.23853585124015808,0.5390726923942566
1772650958351556000,3.31755615234375,-0.8733588457107544,-0.17943638563156128,0.5767925381660461
1772650958361433300,3.327433349609375,-0.9320002198219299,-0.020616095513105392,0.5441122055053711
1772650958371310800,3.337310791015625,-0.9425373077392578,0.21288026869297028,0.44484952092170715
1772650958381188000,3.34718798828125,-0.906191885471344,0.47294849157333374,0.31092125177383423
1772650958391065600,3.357065673828125,-0.8353336453437805,0.7148439884185791,0.1776038408279419
1772650958400943000,3.366943115234375,-0.7763868570327759,0.9301676750183105,0.04214845970273018
1772650958410820400,3.3768203125,-0.7301151752471924,1.0767710208892822,-0.06291726976633072
1772650958420697900,3.38669775390625,-0.7200362086296082,1.2271921634674072,-0.14171656966209412
1772650958430561500,3.3965615234375,-0.7676823139190674,1.4014363288879395,-0.21868331730365753
1772650958440452600,3.40645263671875,-0.8516737818717957,1.5758332014083862,-0.26724568009376526
1772650958450329900,3.416329833984375,-0.9368869662284851,1.74305260181427,-0.26373329758644104
1772650958460193500,3.426193603515625,-1.0162971019744873,1.8636950254440308,-0.20234315097332
1772650958470084900,3.4360849609375,-1.0772291421890259,1.8911831378936768,-0.09513945877552032
1772650958479962000,3.445962158203125,-1.1109784841537476,1.8294875621795654,0.029778804630041122
1772650958489839600,3.455839599609375,-1.1219737529754639,1.6899089813232422,0.1495048701763153
1772650958499716900,3.465716796875,-1.1143381595611572,1.512763261795044,0.2486148327589035
1772650958509594400,3.475594482421875,-1.1025793552398682,1.3330214023590088,0.33413344621658325
1772650958519458000,3.4854580078125,-1.0915840864181519,1.1531269550323486,0.40254834294319153
1772650958529349000,3.49534912109375,-1.0680664777755737,0.9765920639038086,0.4500417113304138
1772650958539226600,3.5052265625,-1.0216420888900757,0.8073873519897461,0.47111594676971436
1772650958549103900,3.515103759765625,-0.9462023973464966,0.6522321701049805,0.4584408700466156
1772650958558981400,3.5249814453125,-0.8609892129898071,0.5141806602478027,0.4253024160861969
1772650958568858600,3.534858642578125,-0.7919634580612183,0.40102121233940125,0.36757734417915344
1772650958578736000,3.544736083984375,-0.7411104440689087,0.30695074796676636,0.2877090573310852
1772650958588613600,3.554613525390625,-0.7104153633117676,0.2283041626214981,0.20219044387340546
1772650958598491000,3.564490966796875,-0.7058340311050415,0.17225892841815948,0.12155860662460327
1772650958608354600,3.5743544921875,-0.7372926473617554,0.15912571549415588,0.053143709897994995
1772650958618245600,3.58424560546875,-0.8035695552825928,0.20692451298236847,0.0038177953101694584
1772650958628123100,3.594123046875,-0.9054283499717712,0.30572906136512756,-0.011300674639642239
1772650958638000400,3.60400048828125,-1.0190459489822388,0.44103172421455383,-0.00519220158457756
1772650958647878000,3.6138779296875,-1.1117420196533203,0.5696150660514832,0.007177455350756645
1772650958657755400,3.62375537109375,-1.157250165939331,0.6639909744262695,0.014660334214568138
1772650958667632600,3.633632568359375,-1.158624529838562,0.7299624681472778,0.006413896102458239
1772650958677510100,3.64351025390625,-1.1331216096878052,0.7873821258544922,-0.014813045971095562
1772650958687387400,3.653387451171875,-1.0836430788040161,0.8394568562507629,-0.026877280324697495
1772650958697265000,3.663264892578125,-1.0301939249038696,0.8834378719329834,0.004734066314995289
1772650958707142100,3.67314208984375,-0.9717052578926086,0.9497147798538208,0.06444438546895981
1772650958717019600,3.68301953125,-0.8922951221466064,1.1702306270599365,0.04169032722711563
1772650958726883300,3.69288330078125,-0.8506048321723938,1.6724997758865356,-0.1763821393251419
1772650958736774400,3.7027744140625,-0.864959716796875,2.3039631843566895,-0.5164713859558105
1772650958746652000,3.71265185546875,-0.8771766424179077,2.803788900375366,-0.7895200848579407
1772650958756515600,3.722515625,-0.8703046441078186,2.8949577808380127,-0.8011261820793152
1772650958766406700,3.73240673828125,-0.8872556686401367,2.5379176139831543,-0.5685460567474365
1772650958776284200,3.7422841796875,-0.9747595191001892,1.9554747343063354,-0.22494450211524963
1772650958786161400,3.752161376953125,-1.0902096033096313,1.3238587379455566,0.06994201242923737
1772650958796039000,3.762038818359375,-1.1796988248825073,0.7533273696899414,0.27915719151496887
1772650958805916200,3.771916259765625,-1.1987876892089844,0.26785650849342346,0.5282301902770996
1772650958815779800,3.78177978515625,-1.1548067331314087,-0.21318569779396057,0.9361234307289124
1772650958825671000,3.7916708984375,-1.1205992698669434,-0.6487197875976562,1.4124315977096558
1772650958835548400,3.80154833984375,-1.1483927965164185,-0.9315420985221863,1.814979910850525
1772650958845412000,3.811412109375,-1.1848909854888916,-1.0805888175964355,2.065427303314209
1772650958855303200,3.82130322265625,-1.2158914804458618,-1.0650122165679932,2.0979549884796143
1772650958865180700,3.8311806640625,-1.2366602420806885,-0.8428165316581726,1.864305853843689
1772650958875044400,3.84104443359375,-1.21482253074646,-0.425607830286026,1.431673288345337
1772650958884935400,3.850935302734375,-1.148240089416504,0.04230117425322533,0.8788564801216125
1772650958894812700,3.860812744140625,-1.0621106624603271,0.5613686442375183,0.2432699203491211
1772650958904676400,3.87067626953125,-0.9816315174102783,1.1245697736740112,-0.4411844313144684
1772650958914567700,3.880567626953125,-0.9350544214248657,1.591257095336914,-1.0582928657531738
1772650958924445000,3.89044482421875,-0.9399412274360657,1.7968071699142456,-1.5081819295883179
1772650958934308600,3.90030859375,-0.994459331035614,1.7264070510864258,-1.7566440105438232
1772650958944199700,3.91019970703125,-1.0839484930038452,1.4590086936950684,-1.8316254615783691
1772650958954077200,3.9200771484375,-1.1964970827102661,1.116476058959961,-1.7647377252578735
1772650958963940900,3.92994091796875,-1.3166812658309937,0.7899782061576843,-1.5868284702301025
1772650958973832000,3.93983203125,-1.456259846687317,0.5296045541763306,-1.3024790287017822
1772650958983709400,3.94970947265625,-1.6130949258804321,0.37857258319854736,-0.9316948056221008
1772650958993572900,3.95957275390625,-1.7467176914215088,0.3701734244823456,-0.5231906771659851
1772650959003464200,3.969464111328125,-1.8395664691925049,0.4747810363769531,-0.14034216105937958
1772650959013341700,3.979341796875,-1.8759119510650635,0.5929799675941467,0.1785201132297516
1772650959023205000,3.989205078125,-1.8664437532424927,0.661853015422821,0.41797223687171936
1772650959033096400,3.999096435546875,-1.828113079071045,0.6653653979301453,0.555260181427002
1772650959042973700,4.0089736328125,-1.7451906204223633,0.631463348865509,0.571294903755188
1772650959052837400,4.01883740234375,-1.6434845924377441,0.6273401379585266,0.465007483959198
1772650959062728400,4.028728515625,-1.556286096572876,0.6108472347259521,0.30252209305763245
1772650959072606000,4.03860595703125,-1.4874130487442017,0.5734328627586365,0.12171131372451782
1772650959082469600,4.0484697265625,-1.4222050905227661,0.509141206741333,-0.040010496973991394
1772650959092360700,4.058360595703125,-1.3621894121170044,0.40712970495224,-0.13392825424671173
1772650959102238200,4.06823828125,-1.3244695663452148,0.2770192325115204,-0.15469707548618317
1772650959112101600,4.0781015625,-1.326607584953308,0.19867807626724243,-0.15362808108329773
1772650959121993000,4.087992919921875,-1.3608149290084839,0.26602399349212646,-0.2079934924840927
1772650959131870200,4.0978701171875,-1.4229687452316284,0.45385950803756714,-0.32665055990219116
1772650959141734000,4.10773388671875,-1.5052803754806519,0.6853706240653992,-0.4743228852748871
1772650959151625200,4.117625244140625,-1.6129422187805176,0.9364288449287415,-0.6232169270515442
1772650959161502500,4.12750244140625,-1.7360279560089111,1.2071869373321533,-0.7692093849182129
1772650959171380000,4.1373798828125,-1.8534632921218872,1.4671024084091187,-0.9005415439605713
1772650959181257200,4.14725732421875,-1.9615832567214966,1.6992243528366089,-0.9935430884361267
1772650959191134700,4.157134765625,-2.0431313514709473,1.8768281936645508,-1.0472975969314575
1772650959200998400,4.166998291015625,-2.0748953819274902,1.9942635297775269,-1.0595145225524902
1772650959210889500,4.176889404296875,-2.0471019744873047,2.044963836669922,-1.0173660516738892
1772650959220767000,4.18676708984375,-1.9609724283218384,2.008160352706909,-0.9297095537185669
1772650959230630700,4.196630615234375,-1.8346797227859497,1.8713306188583374,-0.8040276765823364
1772650959240521700,4.206521728515625,-1.6825788021087646,1.6871601343154907,-0.6548282504081726
1772650959250399000,4.21639892578125,-1.5306304693222046,1.5231475830078125,-0.5015056133270264
1772650959260276500,4.2262763671875,-1.4118207693099976,1.3731846809387207,-0.34879377484321594
1772650959270154000,4.236154052734375,-1.3284400701522827,1.2391036748886108,-0.19119518995285034
1772650959280031200,4.24603125,-1.266897201538086,1.1212100982666016,-0.054518118500709534
1772650959289908700,4.25590869140625,-1.217876672744751,1.0176715850830078,0.0459662564098835
1772650959299786000,4.265785888671875,-1.166107416152954,0.9367342591285706,0.08872556686401367
1772650959309663500,4.27566357421875,-1.1013575792312622,0.8612946271896362,0.07055285573005676
1772650959319540700,4.285540771484375,-0.998735249042511,0.7898254990577698,0.006413896102458239
1772650959329418200,4.295418212890625,-0.8619054555892944,0.7180509567260742,-0.07437065243721008
1772650959339295700,4.305295654296875,-0.7055285573005676,0.633448600769043,-0.14828316867351532
1772650959349173000,4.315173095703125,-0.5474718809127808,0.5344913601875305,-0.20692451298236847
1772650959359050500,4.325050537109375,-0.39567631483078003,0.41079479455947876,-0.22662433981895447
1772650959368927700,4.334927734375,-0.2638860046863556,0.2582356929779053,-0.19592925906181335
1772650959378805200,4.34480517578125,-0.1310267299413681,0.08811471611261368,-0.13270656764507294
1772650959388682800,4.354682861328125,0.002748812548816204,-0.08399149775505066,-0.04550812020897865
1772650959398560000,4.36456005859375,0.12736165523529053,-0.24556060135364532,0.05772506445646286
1772650959408437500,4.3744375,0.2367033064365387,-0.4052971601486206,0.16141638159751892
1772650959418314800,4.384314697265625,0.3184041380882263,-0.5584670901298523,0.256708562374115
1772650959428192300,4.394192138671875,0.36253786087036133,-0.6404733657836914,0.31596073508262634
1772650959438056000,4.404055908203125,0.3761292099952698,-0.6470399498939514,0.32634514570236206
1772650959447947000,4.413947021484375,0.3626905679702759,-0.6064186096191406,0.29977330565452576
1772650959457824500,4.423824462890625,0.32665055990219116,-0.5364766120910645,0.2429644912481308
1772650959467688000,4.43368798828125,0.2805316150188446,-0.455539345741272,0.16050012409687042
1772650959477579300,4.443579345703125,0.21914145350456238,-0.3831539452075958,0.06994201242923737
1772650959487456500,4.45345654296875,0.15408621728420258,-0.33443886041641235,-0.004428642801940441
1772650959497334000,4.463333984375,0.08719844371080399,-0.28251686692237854,-0.05375456064939499
1772650959507211300,4.473211181640625,0.008093725889921188,-0.22219568490982056,-0.0784938707947731
1772650959517088800,4.4830888671875,-0.06337540596723557,-0.15866757929325104,-0.08353336155414581
1772650959526966300,4.49296630859375,-0.12644538283348083,-0.1181989461183548,-0.062153708189725876
1772650959536843500,4.502843505859375,-0.18187977373600006,-0.0975828468799591,-0.020005248486995697
1772650959546721000,4.512720947265625,-0.22540263831615448,-0.0859767496585846,0.03405473381280899
1772650959556598300,4.522598388671875,-0.2554868757724762,-0.07666133344173431,0.0978882759809494
1772650959566475800,4.532475830078125,-0.2716743052005768,-0.056961506605148315,0.1620272397994995
1772650959576353000,4.54235302734375,-0.2689255177974701,-0.03298575058579445,0.2226538211107254
1772650959586230500,4.55223046875,-0.24907296895980835,-0.025655584409832954,0.2698417901992798
1772650959596108000,4.56210791015625,-0.2157817929983139,-0.03817795217037201,0.29442837834358215
1772650959605985300,4.5719853515625,-0.1757712960243225,-0.07146912813186646,0.28221142292022705
1772650959615862800,4.58186279296875,-0.1450762301683426,-0.12339114397764206,0.2357870489358902
1772650959625740000,4.591739990234375,-0.12094775587320328,-0.1713426560163498,0.1563768982887268
1772650959635617500,4.601617431640625,-0.12033691257238388,-0.1957765519618988,0.05604523420333862
1772650959645495000,4.6114951171875,-0.1560714691877365,-0.19944162666797638,-0.046424392610788345
1772650959655372300,4.621372314453125,-0.20631365478038788,-0.18630841374397278,-0.12308572232723236
1772650959665249800,4.631249755859375,-0.2492256760597229,-0.14034216105937958,-0.16309621930122375
1772650959675113500,4.641113525390625,-0.2858765125274658,-0.032222192734479904,-0.1850867122411728
1772650959685004500,4.651004638671875,-0.32573428750038147,0.14217470586299896,-0.20127417147159576
1772650959694881800,4.6608818359375,-0.3680354654788971,0.38513919711112976,-0.22280654311180115
1772650959704745500,4.670745361328125,-0.38636088371276855,0.6664343476295471,-0.2586938142776489
1772650959714636800,4.68063671875,-0.36009445786476135,0.9240592122077942,-0.29381752014160156
1772650959724514000,4.69051416015625,-0.28221142292022705,1.0792144536972046,-0.2898470163345337
1772650959734377700,4.700377685546875,-0.14996300637722015,1.0738694667816162,-0.23425991833209991
1772650959744268800,4.710268798828125,0.00519220158457756,0.9152019023895264,-0.14461809396743774
1772650959754146300,4.720146240234375,0.1256818175315857,0.6126797795295715,-0.05070032179355621
1772650959764010000,4.730010009765625,0.22662433981895447,0.19867807626724243,0.05024218559265137
1772650959773901000,4.739901123046875,0.2883199155330658,-0.26006820797920227,0.16126367449760437
1772650959783778600,4.749778564453125,0.2820587158203125,-0.6826218366622925,0.2861819267272949
1772650959793642000,4.75964208984375,0.22555534541606903,-0.9613208770751953,0.3987305462360382
1772650959803533300,4.769533203125,0.1459924876689911,-1.0541696548461914,0.4815003573894501
1772650959813410800,4.779410888671875,0.051769305020570755,-0.9859074950218201,0.5283828973770142
1772650959823274200,4.789274169921875,-0.047798797488212585,-0.8003626465797424,0.5331169366836548
1772650959833165600,4.79916552734375,-0.1185043677687645,-0.5758762359619141,0.5196782946586609
1772650959843042800,4.809042724609375,-0.17622943222522736,-0.32817769050598145,0.4928010404109955
1772650959852920300,4.81892041015625,-0.25594499707221985,-0.04963133856654167,0.4280512034893036
1772650959862797600,4.828797607421875,-0.3524588644504547,0.2357870489358902,0.3268032968044281
1772650959872675000,4.838675048828125,-0.4611896872520447,0.48760882019996643,0.19195875525474548
1772650959882538800,4.848538818359375,-0.4987567961215973,0.5877877473831177,0.0650552362203598
1772650959892429800,4.858429931640625,-0.45141613483428955,0.575570821762085,-0.05024218559265137
1772650959902307300,4.868307373046875,-0.36131614446640015,0.4750864505767822,-0.12522368133068085
1772650959912170800,4.878170654296875,-0.2301367074251175,0.2641914486885071,-0.10033166408538818
1772650959922062000,4.88806201171875,-0.12018419802188873,0.051463883370161057,0.021532366052269936
1772650959931939300,4.897939208984375,-0.059710320085287094,-0.0922379344701767,0.20616094768047333
1772650959941816800,4.90781689453125,-0.038636088371276855,-0.19424942135810852,0.3949127495288849
1772650959951694300,4.9176943359375,-0.04428642615675926,-0.28373855352401733,0.5523586273193359
1772650959961571600,4.927571533203125,-0.0656660795211792,-0.3226800560951233,0.6390989422798157
1772650959971435300,4.937435302734375,-0.13179029524326324,-0.18432316184043884,0.5709894895553589
1772650959981326300,4.947326416015625,-0.2626643180847168,0.11545012891292572,0.3426853120326996
1772650959991203800,4.957203857421875,-0.45019441843032837,0.43293800950050354,0.05543438717722893
1772650960001067500,4.967067626953125,-0.6748335361480713,0.6786513328552246,-0.21791976690292358
1772650960010958600,4.97695849609375,-0.9155073165893555,0.8904625773429871,-0.4706578254699707
1772650960020836000,4.986836181640625,-1.1422843933105469,1.0989142656326294,-0.6928535103797913
1772650960030713300,4.99671337890625,-1.326149344444275,1.2737692594528198,-0.8530482053756714
1772650960040590800,5.0065908203125,-1.460841178894043,1.4145694971084595,-0.9498674869537354
1772650960050468000,5.016468017578125,-1.5675867795944214,1.5318522453308105,-1.009730577468872
1772650960060331800,5.026331787109375,-1.6408884525299072,1.6361544132232666,-1.040272831916809
1772650960070223000,5.03622314453125,-1.6853275299072266,1.7407619953155518,-1.0518789291381836
1772650960080100400,5.046100341796875,-1.7064018249511719,1.8307092189788818,-1.0511153936386108
1772650960089964000,5.055964111328125,-1.6783028841018677,1.8809514045715332,-1.0550858974456787
1772650960099855000,5.065855224609375,-1.5946167707443237,1.867512822151184,-1.0685245990753174
1772650960109732600,5.075732666015625,-1.4664915800094604,1.7910041809082031,-1.085017442703247
1772650960119596300,5.08559619140625,-1.3252331018447876,1.6787610054016113,-1.109604001045227
1772650960129487400,5.0954873046875,-1.2142115831375122,1.5587295293807983,-1.1245697736740112
1772650960139364900,5.10536474609375,-1.1494618654251099,1.4816100597381592,-1.1358704566955566
1772650960149228300,5.115228271484375,-1.1213628053665161,1.4228159189224243,-1.1264023780822754
1772650960159119600,5.12511962890625,-1.1238062381744385,1.3536375761032104,-1.0781453847885132
1772650960168996900,5.134996826171875,-1.1355650424957275,1.2644537687301636,-0.9924740791320801
1772650960178874400,5.144874267578125,-1.145185947418213,1.1702306270599365,-0.8790091872215271
1772650960188751600,5.154751708984375,-1.1578609943389893,1.0841012001037598,-0.7485933303833008
1772650960198629000,5.164629150390625,-1.1712995767593384,1.0312628746032715,-0.6077930331230164
1772650960208506600,5.174506591796875,-1.1651911735534668,1.0211838483810425,-0.46989426016807556
1772650960218384000,5.1843837890625,-1.1459494829177856,1.0476030111312866,-0.346808522939682
1772650960228261400,5.194261474609375,-1.1259442567825317,1.0757020711898804,-0.25380703806877136
1772650960238138600,5.204138671875,-1.1022738218307495,1.0874608755111694,-0.1901262104511261
1772650960248016100,5.21401611328125,-1.0844066143035889,1.0929584503173828,-0.15271180868148804
1772650960257893600,5.2238935546875,-1.0891406536102295,1.099066972732544,-0.13988402485847473
1772650960267771000,5.23377099609375,-1.1224318742752075,1.118003249168396,-0.14858859777450562
1772650960277648400,5.2436484375,-1.172979474067688,1.1531269550323486,-0.1707318127155304
1772650960287525600,5.253525634765625,-1.2261232137680054,1.2000094652175903,-0.19241689145565033
1772650960297403100,5.263403076171875,-1.278656005859375,1.2470446825027466,-0.19989976286888123
1772650960307280400,5.2732802734375,-1.32935631275177,1.2820156812667847,-0.18279604613780975
1772650960317158000,5.283157958984375,-1.3701304197311401,1.300188422203064,-0.14370182156562805
1772650960327035400,5.293035400390625,-1.382958173751831,1.2977449893951416,-0.08658760040998459
1772650960336912600,5.30291259765625,-1.3664653301239014,1.2788087129592896,-0.031916771084070206
1772650960346790100,5.3127900390625,-1.3285927772521973,1.2499462366104126,0.012369656935334206
1772650960356667400,5.32266748046875,-1.2778924703598022,1.20504891872406,0.041384901851415634
1772650960366545000,5.332544921875,-1.2258176803588867,1.1551121473312378,0.06245913356542587
1772650960376422100,5.342422119140625,-1.1819894313812256,1.1149489879608154,0.08093725889921188
1772650960386299600,5.352299560546875,-1.1502254009246826,1.0792144536972046,0.10323318839073181
1772650960396177200,5.36217724609375,-1.1209046840667725,1.0341644287109375,0.12736165523529053
1772650960406054400,5.372054443359375,-1.082115888595581,1.0066763162612915,0.13774605095386505
1772650960415932000,5.381931884765625,-1.0418000221252441,1.0013313293457031,0.13774605095386505
1772650960425809200,5.39180908203125,-1.0014840364456177,0.9982771277427673,0.1298050433397293
1772650960435686700,5.401686767578125,-0.9578084945678711,0.999346137046814,0.10705098509788513
1772650960445564000,5.41156396484375,-0.9281824231147766,1.0001096725463867,0.07146912813186646
1772650960455441400,5.42144140625,-0.9153546094894409,0.9802571535110474,0.05008947476744652
1772650960465319000,5.43131884765625,-0.9123004078865051,0.961778998374939,0.03665083646774292
1772650960475196200,5.441196044921875,-0.9159654378890991,0.9494093656539917,0.030542362481355667
1772650960485073700,5.45107373046875,-0.9265025854110718,0.9330691695213318,0.04489727318286896
1772650960494951000,5.460950927734375,-0.9266552925109863,0.9095515608787537,0.07681404054164886
1772650960504828400,5.470828369140625,-0.9147437810897827,0.8970292210578918,0.10689827054738998
1772650960514706000,5.480705810546875,-0.9009997248649597,0.904817521572113,0.13682979345321655
1772650960524583200,5.490583251953125,-0.8832851648330688,0.9210049510002136,0.16676130890846252
1772650960534460700,5.500460693359375,-0.8605310916900635,0.9245173335075378,0.19806721806526184
1772650960544338000,5.510337890625,-0.8386932611465454,0.9064973592758179,0.2244863659143448
1772650960554215400,5.52021533203125,-0.8247964978218079,0.8779402375221252,0.24433889985084534
1772650960564092700,5.5300927734375,-0.8125795722007751,0.835180938243866,0.2518217861652374
1772650960573970200,5.53997021484375,-0.804791271686554,0.7812736630439758,0.2588465213775635
1772650960583847400,5.549847412109375,-0.7922688722610474,0.7067502737045288,0.2727433145046234
1772650960593725000,5.559724853515625,-0.7797465324401855,0.592216432094574,0.31504446268081665
1772650960603602400,5.5696025390625,-0.7644753456115723,0.46546560525894165,0.38132140040397644
1772650960613479700,5.579479736328125,-0.7371399402618408,0.3646758198738098,0.4566083252429962
1772650960623357200,5.589357177734375,-0.7081246972084045,0.28221142292022705,0.5292991399765015
1772650960633234400,5.599234375,-0.672695517539978,0.2089097648859024,0.591605544090271
1772650960643112000,5.60911181640625,-0.6103891134262085,0.16645587980747223,0.6212316751480103
1772650960652989200,5.6189892578125,-0.5172349214553833,0.16691401600837708,0.5966450572013855
1772650960662866700,5.62886669921875,-0.4422534108161926,0.24220094084739685,0.5285356044769287
1772650960672744200,5.638744140625,-0.3805578351020813,0.3796415627002716,0.42163732647895813
1772650960682621400,5.648621337890625,-0.3452814221382141,0.5111264586448669,0.28908345103263855
1772650960692499000,5.6584990234375,-0.37322768568992615,0.6503996253013611,0.09895725548267365
1772650960702376200,5.668376220703125,-0.4653128981590271,0.8496885299682617,-0.1388150453567505
1772650960712239900,5.678239990234375,-0.5974085927009583,1.0628741979599,-0.3365768492221832
1772650960722131000,5.688130859375,-0.712247908115387,1.2094775438308716,-0.45920443534851074
1772650960732008400,5.698008544921875,-0.7814263701438904,1.2907202243804932,-0.5196782946586609
1772650960741872000,5.7078720703125,-0.8176190853118896,1.3510414361953735,-0.5419742465019226
1772650960751763200,5.71776318359375,-0.8373188972473145,1.3905937671661377,-0.5066977739334106
1772650960761640700,5.727640625,-0.8287670016288757,1.4409886598587036,-0.3880407214164734
1772650960771504400,5.73750439453125,-0.7721109390258789,1.494132399559021,-0.19944162666797638
1772650960781395500,5.7473955078125,-0.679872989654541,1.5698775053024292,0.03497100621461868
1772650960791273000,5.75727294921875,-0.5972558856010437,1.5932424068450928,0.2915268540382385
1772650960801150200,5.767150146484375,-0.5340332388877869,1.5051276683807373,0.5126535892486572
1772650960811027700,5.77702783203125,-0.5125008225440979,1.3356175422668457,0.6809419989585876
1772650960820905000,5.786905029296875,-0.5238015055656433,1.1800042390823364,0.7412631511688232
1772650960830768600,5.7967685546875,-0.5407525300979614,1.064401388168335,0.7009472250938416
1772650960840659700,5.80665966796875,-0.5457920432090759,0.9332218766212463,0.5888567566871643
1772650960850537200,5.816537109375,-0.5561764240264893,0.7948650121688843,0.4399627447128296
1772650960860401000,5.82640087890625,-0.5983248949050903,0.71942538022995,0.2730487287044525
1772650960870292000,5.8362919921875,-0.6875085830688477,0.7230904698371887,0.12171131372451782
1772650960880169500,5.84616943359375,-0.8119687438011169,0.765849769115448,0.03390202298760414
1772650960890046700,5.856046630859375,-0.9469659924507141,0.7791357040405273,0.03833066672086716
1772650960899924200,5.86592431640625,-1.0683718919754028,0.7291989326477051,0.13377554714679718
1772650960909801500,5.875801513671875,-1.1538904905319214,0.6253548860549927,0.2754921019077301
1772650960919679000,5.885678955078125,-1.200773000717163,0.49829864501953125,0.416597843170166
1772650960929556500,5.895556396484375,-1.209324836730957,0.393385648727417,0.5154023766517639
1772650960939433700,5.905433837890625,-1.190693974494934,0.3312319219112396,0.5425850749015808
1772650960949297400,5.91529736328125,-1.1592353582382202,0.31657159328460693,0.49051034450531006
1772650960959188500,5.9251884765625,-1.1273186206817627,0.37735089659690857,0.3871244490146637
1772650960969066000,5.93506591796875,-1.0895987749099731,0.47050508856773376,0.2707580327987671
1772650960978943200,5.944943115234375,-1.0534061193466187,0.5960342288017273,0.15714046359062195
1772650960988820700,5.95482080078125,-1.0578347444534302,0.8373188972473145,-0.0018325417768210173
1772650960998698200,5.9646982421875,-1.142895221710205,1.213906168937683,-0.21822518110275269
1772650961008575500,5.974575439453125,-1.1981768608093262,1.4341166019439697,-0.34757208824157715
1772650961018453000,5.984452880859375,-1.1987876892089844,1.5107779502868652,-0.3958290219306946
1772650961028330200,5.994330322265625,-1.2690352201461792,1.572320818901062,-0.4671454429626465
1772650961038207700,6.004207763671875,-1.3220261335372925,1.5541481971740723,-0.5515950918197632
1772650961048085000,6.0140849609375,-1.4417521953582764,1.5066547393798828,-0.6180247068405151
1772650961057962500,6.02396240234375,-1.5410149097442627,1.4458754062652588,-0.6641436815261841
1772650961067826200,6.033826171875,-1.6897562742233276,1.4260228872299194,-0.6656708121299744
1772650961077717200,6.04371728515625,-1.8404828310012817,1.3992983102798462,-0.6261184215545654
1772650961087594800,6.0535947265625,-2.009992837905884,1.3982293605804443,-0.5320479869842529
1772650961097472000,6.063471923828125,-2.1535420417785645,1.3617312908172607,-0.381474107503891
1772650961107349500,6.073349609375,-2.2923569679260254,1.345391035079956,-0.22906772792339325
1772650961117226800,6.083226806640625,-2.4394185543060303,1.3905937671661377,-0.10842538625001907
1772650961127104300,6.093104248046875,-2.571514129638672,1.4567179679870605,0.006261184345930815
1772650961136981800,6.102981689453125,-2.6660428047180176,1.487260341644287,0.11529742181301117
1772650961146859000,6.11285888671875,-2.7060532569885254,1.466644287109375,0.19272230565547943
1772650961156722700,6.12272265625,-2.6968905925750732,1.414722204208374,0.2145601063966751
1772650961166613800,6.13261376953125,-2.640998125076294,1.3531793355941772,0.16874656081199646
1772650961176491300,6.1424912109375,-2.5408191680908203,1.30476975440979,0.051769305020570755
1772650961186355000,6.15235498046875,-2.4262852668762207,1.2894985675811768,-0.12079504877328873
1772650961196246000,6.16224609375,-2.3007562160491943,1.3211098909378052,-0.3177932798862457
1772650961206123500,6.17212353515625,-2.1706457138061523,1.3748644590377808,-0.5071559548377991
1772650961216000800,6.182000732421875,-2.051225185394287,1.4364073276519775,-0.6676560640335083
1772650961225878300,6.191878173828125,-1.9602088928222656,1.5043641328811646,-0.7927270531654358
1772650961235755500,6.201755615234375,-1.907828688621521,1.5597984790802002,-0.8812998533248901
1772650961245633000,6.211633056640625,-1.885990858078003,1.589271903038025,-0.9330691695213318
1772650961255510300,6.22151025390625,-1.8885869979858398,1.5958384275436401,-0.9391776323318481
1772650961265387800,6.2313876953125,-1.90645432472229,1.5906462669372559,-0.9060391783714294
1772650961275265300,6.241265380859375,-1.9441741704940796,1.5681976079940796,-0.8383878469467163
1772650961285142500,6.251142578125,-1.9595980644226074,1.5410149097442627,-0.7511894106864929
1772650961295020000,6.26102001953125,-1.9363858699798584,1.5028369426727295,-0.6632274389266968
1772650961304897300,6.270897216796875,-1.8862963914871216,1.4498459100723267,-0.582748293876648
1772650961314774800,6.28077490234375,-1.8088713884353638,1.3820419311523438,-0.5254813432693481
1772650961324652000,6.290652099609375,-1.694948434829712,1.3467655181884766,-0.5144860744476318
1772650961334529500,6.300529541015625,-1.5834687948226929,1.3504306077957153,-0.5341859459877014
1772650961344406800,6.31040673828125,-1.5252856016159058,1.3675342798233032,-0.5564818382263184
1772650961354284300,6.3202841796875,-1.5092508792877197,1.3992983102798462,-0.566408097743988
1772650961364161800,6.330161865234375,-1.515970230102539,1.431978702545166,-0.5500679612159729
1772650961374039000,6.3400390625,-1.5433056354522705,1.4464863538742065,-0.5047125220298767
1772650961383916500,6.34991650390625,-1.6017942428588867,1.446028232574463,-0.42927291989326477
1772650961393793800,6.359793701171875,-1.6688346862792969,1.4579397439956665,-0.34222719073295593
1772650961403671300,6.36967138671875,-1.719534993171692,1.4820681810379028,-0.25212720036506653
1772650961413548500,6.379548583984375,-1.742747187614441,1.495506763458252,-0.1522536724805832
1772650961423426000,6.389426025390625,-1.7257962226867676,1.4875657558441162,-0.04856235533952713
1772650961433303600,6.399303466796875,-1.6894508600234985,1.469545841217041,0.03802524134516716
1772650961443180800,6.409180908203125,-1.6711254119873047,1.4660334587097168,0.10552386194467545
1772650961453058300,6.419058349609375,-1.6430264711380005,1.5484977960586548,0.13621893525123596
1772650961462935600,6.428935546875,-1.5627000331878662,1.7279342412948608,0.10888352245092392
1772650961472813000,6.43881298828125,-1.4153331518173218,1.8655275106430054,0.012827792204916477
1772650961482676700,6.4486767578125,-1.2276502847671509,1.7989451885223389,-0.09636115282773972
1772650961492567800,6.45856787109375,-1.0750911235809326,1.5440691709518433,-0.18279604613780975
1772650961502445300,6.4684453125,-1.0248489379882812,1.1784770488739014,-0.223264679312706
1772650961512322600,6.478322509765625,-1.0717315673828125,0.7372926473617554,-0.17714570462703705
1772650961522200000,6.488199951171875,-1.1627477407455444,0.2782409191131592,-0.022601349279284477
1772650961532077300,6.498077392578125,-1.2391036748886108,-0.14400723576545715,0.24678228795528412
1772650961541954800,6.507954833984375,-1.2549856901168823,-0.5071559548377991,0.5926745533943176
1772650961551832000,6.51783203125,-1.1911520957946777,-0.8194515705108643,0.9659022092819214
1772650961561709600,6.52770947265625,-1.0584455728530884,-1.088987946510315,1.3124053478240967
1772650961571573200,6.5375732421875,-0.881605327129364,-1.248571753501892,1.5863703489303589
1772650961581464300,6.54746435546875,-0.6888830065727234,-1.238034725189209,1.7283923625946045
1772650961591341800,6.557341796875,-0.5190674662590027,-1.0240854024887085,1.7178552150726318
1772650961601205500,6.56720556640625,-0.38727715611457825,-0.70797199010849,1.5956857204437256
1772650961611096600,6.5770966796875,-0.32069480419158936,-0.4352286756038666,1.4290771484375
1772650961620973800,6.586973876953125,-0.3402419090270996,-0.20814619958400726,1.2588034868240356
1772650961630837500,6.59683740234375,-0.4608842432498932,0.09590301662683487,1.0193513631820679
1772650961640728800,6.606728759765625,-0.670404851436615,0.488219678401947,0.6901046633720398
1772650961650606000,6.616606201171875,-0.927724301815033,0.9121476411819458,0.30007871985435486
1772650961660483600,6.626483642578125,-1.168703556060791,1.311641812324524,-0.13117945194244385
1772650961670360800,6.63636083984375,-1.3496670722961426,1.6243956089019775,-0.561826765537262
1772650961680238300,6.64623828125,-1.4655753374099731,1.8311673402786255,-0.9434536099433899
1772650961690102000,6.65610205078125,-1.5132213830947876,1.935011386871338,-1.2271921634674072
1772650961699993000,6.6659931640625,-1.5037531852722168,1.991820216178894,-1.408461093902588
1772650961709870600,6.67587060546875,-1.4516785144805908,1.9825047254562378,-1.4753488302230835
1772650961719734000,6.685734130859375,-1.3673815727233887,1.9444795846939087,-1.4403778314590454
1772650961729625300,6.695625244140625,-1.2644537687301636,1.8841583728790283,-1.3292036056518555
1772650961739502600,6.705502685546875,-1.1389247179031372,1.7873390913009644,-1.1780189275741577
1772650961749366300,6.7153662109375,-1.0062181949615479,1.6656277179718018,-1.019962191581726
1772650961759257300,6.72525732421875,-0.8854231238365173,1.5504831075668335,-0.8741224408149719
1772650961769134800,6.735134765625,-0.7869240045547485,1.4052541255950928,-0.7366818189620972
1772650961779012000,6.74501220703125,-0.7149966955184937,1.2372710704803467,-0.5990884304046631
1772650961788889600,6.7548896484375,-0.6723901033401489,1.1106730699539185,-0.4821111857891083
1772650961798767000,6.76476708984375,-0.6476507782936096,0.9949174523353577,-0.3674246370792389
1772650961808644400,6.774644287109375,-0.6374191045761108,0.8750386834144592,-0.2441861927509308
1772650961818521900,6.78452197265625,-0.6366555690765381,0.7061394453048706,-0.07895200699567795
1772650961828399000,6.794399169921875,-0.6598677635192871,0.555565595626831,0.09743013978004456
1772650961838276600,6.804276611328125,-0.6812474131584167,0.44454410672187805,0.2501419484615326
1772650961848153900,6.81415380859375,-0.693617045879364,0.38819342851638794,0.36070531606674194
1772650961858031400,6.82403125,-0.6948387622833252,0.3833066523075104,0.418430358171463
1772650961867908900,6.833908935546875,-0.6843016147613525,0.42194274067878723,0.41949936747550964
1772650961877786000,6.8437861328125,-0.6647545099258423,0.5047125220298767,0.37292224168777466
1772650961887663600,6.85366357421875,-0.6426113247871399,0.6044333577156067,0.29885703325271606
1772650961897540900,6.863540771484375,-0.6232169270515442,0.7156075835227966,0.2154763638973236
1772650961907418400,6.87341845703125,-0.6041279435157776,0.8096780180931091,0.13331741094589233
1772650961917295600,6.883295654296875,-0.5896202921867371,0.881605327129364,0.05131116881966591
1772650961927173000,6.893173095703125,-0.5885513424873352,0.938872218132019,-0.03237490355968475
1772650961937050400,6.90305029296875,-0.5998520255088806,0.9698727130889893,-0.10796725004911423
1772650961946927900,6.912927978515625,-0.6099309921264648,0.955212414264679,-0.1582094430923462
1772650961956805400,6.922805419921875,-0.60825115442276,0.8906152844429016,-0.17622943222522736
1772650961966682600,6.9326826171875,-0.5925218462944031,0.7970029711723328,-0.16767756640911102
1772650961976560000,6.94256005859375,-0.5676298141479492,0.6980457305908203,-0.1513374149799347
1772650961986437400,6.952437255859375,-0.530062735080719,0.6074876189231873,-0.14049486815929413
1772650961996315000,6.96231494140625,-0.4746283292770386,0.5493044257164001,-0.14629791676998138
1772650962006192400,6.9721923828125,-0.4152234196662903,0.5285356044769287,-0.1585148572921753
1772650962016069600,6.982069580078125,-0.35795649886131287,0.5352548956871033,-0.16172181069850922
1772650962025947100,6.991947021484375,-0.3061871826648712,0.5557183027267456,-0.15332266688346863
1772650962035824400,7.001824462890625,-0.2635805904865265,0.5749599933624268,-0.1363716572523117
1772650962045702000,7.011701904296875,-0.23593975603580475,0.5862606763839722,-0.11682453751564026
1772650962055579100,7.0215791015625,-0.22601348161697388,0.5847335457801819,-0.09529217332601547
1772650962065462500,7.031462646484375,-0.2307475507259369,0.5856497883796692,-0.07085828483104706
1772650962075341000,7.041341064453125,-0.23151111602783203,0.5719057321548462,-0.03833066672086716
1772650962085218600,7.051218505859375,-0.20753535628318787,0.5209000110626221,0.001985253533348441
1772650962095095800,7.061095703125,-0.16492876410484314,0.4553866386413574,0.047646086663007736
1772650962104973300,7.070973388671875,-0.10949437320232391,0.37735089659690857,0.0859767496585846
1772650962114850600,7.0808505859375,-0.02092151902616024,0.270452618598938,0.09681928902864456
1772650962124728000,7.09072802734375,0.08032641559839249,0.1623326539993286,0.10216420143842697
1772650962134605300,7.100605224609375,0.1629435122013092,0.10078980028629303,0.12018419802188873
1772650962144482800,7.11048291015625,0.2089097648859024,0.10185877978801727,0.1513374149799347
1772650962154360300,7.1203603515625,0.22341738641262054,0.15561333298683167,0.18905723094940186
1772650962164223700,7.1302236328125,0.21898874640464783,0.25212720036506653,0.22036315500736237
1772650962174115000,7.140114990234375,0.21959958970546722,0.41736137866973877,0.20661908388137817
1772650962183992300,7.149992431640625,0.208298921585083,0.5993938446044922,0.16706672310829163
1772650962193856000,7.15985595703125,0.15714046359062195,0.7149966955184937,0.10582929104566574
1772650962203747000,7.1697470703125,0.02748812735080719,0.8411366939544678,0.012675080448389053
1772650962213624600,7.17962451171875,-0.18691925704479218,0.9996515512466431,-0.08719844371080399
1772650962223501800,7.189501708984375,-0.4643966257572174,1.0624160766601562,-0.06383354216814041
1772650962233379300,7.19937939453125,-0.7754706144332886,1.016755223274231,0.111021488904953
1772650962243256800,7.2092568359375,-1.0109522342681885,0.8364025950431824,0.3918585181236267
1772650962253120300,7.219120361328125,-1.118003249168396,0.5273138880729675,0.7064448595046997
1772650962263011600,7.229011474609375,-1.0949437618255615,0.20310671627521515,0.9448279738426208
1772650962272888800,7.238888916015625,-0.983005940914154,-0.04504998400807381,1.034317135810852
1772650962282752500,7.24875244140625,-0.7983773946762085,-0.21226942539215088,1.0117157697677612
1772650962292643600,7.2586435546875,-0.5838172435760498,-0.3151971995830536,0.9223793745040894
1772650962302521000,7.26852099609375,-0.3703261613845825,-0.36543938517570496,0.7966975569725037
1772650962312384800,7.278384765625,-0.21791976690292358,-0.3718532621860504,0.6879667043685913
1772650962322275800,7.28827587890625,-0.15836215019226074,-0.33947837352752686,0.6233696341514587
1772650962332153300,7.2981533203125,-0.14889401197433472,-0.3155026137828827,0.6250494718551636
1772650962342030600,7.308030517578125,-0.14080029726028442,-0.3064926266670227,0.6642963886260986
1772650962351908000,7.317908203125,-0.11621369421482086,-0.284654825925827,0.6948387622833252
1772650962361785300,7.327785400390625,-0.08338065445423126,-0.24006296694278717,0.6748335361480713
1772650962371662800,7.337662841796875,-0.04306473210453987,-0.19501298666000366,0.5899257659912109
1772650962381540000,7.3475400390625,0.0050394898280501366,-0.1707318127155304,0.4610369801521301
1772650962391417600,7.35741748046875,0.03817795217037201,-0.15179555118083954,0.29091599583625793
1772650962401295000,7.367295166015625,0.04459185153245926,-0.10323318839073181,0.0975828468799591
1772650962411172400,7.37717236328125,0.025350160896778107,-0.016798298805952072,-0.11636640131473541
1772650962421049900,7.3870498046875,-0.01710372418165207,0.07085828483104706,-0.32283276319503784
1772650962430913300,7.396913330078125,-0.08918370306491852,0.15316994488239288,-0.5102101564407349
1772650962440804600,7.4068046875,-0.17943638563156128,0.24128466844558716,-0.6705575585365295
1772650962450681900,7.416681884765625,-0.27381229400634766,0.29656633734703064,-0.793337881565094
1772650962460545500,7.426545654296875,-0.35826191306114197,0.31351736187934875,-0.8612946271896362
1772650962470436600,7.4364365234375,-0.4274403750896454,0.28786176443099976,-0.8457180261611938
1772650962480314000,7.446314208984375,-0.48638713359832764,0.2214321345090866,-0.7478297352790833
1772650962490177800,7.456177734375,-0.5442649126052856,0.1122431829571724,-0.5926745533943176
1772650962500068900,7.46606884765625,-0.603975236415863,0.00992626789957285,-0.4228590130805969
1772650962509946400,7.4759462890625,-0.668419599533081,-0.05772506445646286,-0.27029991149902344
1772650962519823600,7.48582373046875,-0.6565080881118774,-0.034818295389413834,-0.2017323076725006
1772650962529701000,7.495701171875,-0.5428904891014099,0.09361234307289124,-0.18661384284496307
1772650962539578600,7.50557861328125,-0.38254308700561523,0.24601873755455017,-0.1754658818244934
1772650962549456000,7.515455810546875,-0.24342262744903564,0.3446705639362335,-0.12904147803783417
1772650962559333400,7.52533349609375,-0.17836740612983704,0.4005630910396576,-0.08276980370283127
1772650962569210600,7.535210693359375,-0.17210622131824493,0.44515493512153625,-0.08368607610464096
1772650962579088100,7.545088134765625,-0.21318569779396057,0.49112120270729065,-0.12552911043167114
1772650962588965400,7.55496533203125,-0.28282228112220764,0.518609344959259,-0.1820324808359146
1772650962598843000,7.5648427734375,-0.37170055508613586,0.4921901822090149,-0.237008735537529
1772650962608720100,7.57472021484375,-0.4559974670410156,0.40514445304870605,-0.28098973631858826
1772650962618597600,7.58459765625,-0.5178457498550415,0.27533939480781555,-0.31947311758995056
1772650962628475100,7.59447509765625,-0.556939959526062,0.12461283802986145,-0.36284327507019043
1772650962638352400,7.604352294921875,-0.5774033665657043,-0.0032069480512291193,-0.3958290219306946
1772650962648230000,7.61422998046875,-0.5880932211875916,-0.09177979826927185,-0.4124746024608612
1772650962658107100,7.624107177734375,-0.5908420085906982,-0.1178935244679451,-0.39766156673431396
1772650962667984600,7.633984619140625,-0.5851916670799255,-0.0784938707947731,-0.3396310806274414
1772650962677862000,7.64386181640625,-0.5676298141479492,0.029320668429136276,-0.2279987335205078
1772650962687739400,7.653739501953125,-0.5416688323020935,0.1713426560163498,-0.08903098851442337
1772650962697616600,7.66361669921875,-0.5222744345664978,0.28160059452056885,0.014049487188458443
1772650962707494100,7.673494140625,-0.5202891230583191,0.35978904366493225,0.050394900143146515
1772650962717371600,7.68337158203125,-0.5077667832374573,0.4300364851951599,0.03527642786502838
1772650962727249000,7.693248779296875,-0.474017471075058,0.4808894991874695,-0.020310672000050545
1772650962737126400,7.70312646484375,-0.42759308218955994,0.48073679208755493,-0.10002623498439789
1772650962747003600,7.713003662109375,-0.372464120388031,0.4480564594268799,-0.17470231652259827
1772650962756881200,7.722881103515625,-0.31886225938796997,0.44607120752334595,-0.25258535146713257
1772650962766758400,7.73275830078125,-0.2313583940267563,0.34421244263648987,-0.27915719151496887
1772650962776636000,7.742635986328125,-0.16660858690738678,0.22738789021968842,-0.27808821201324463
1772650962786513200,7.75251318359375,-0.12858334183692932,0.1107160672545433,-0.2504473626613617
1772650962796390700,7.762390625,-0.11911521852016449,-0.004581354558467865,-0.20509196817874908
1772650962806268000,7.772267822265625,-0.13316470384597778,-0.12888877093791962,-0.14553436636924744
1772650962816145400,7.7821455078125,-0.16737215220928192,-0.24449162185192108,-0.07070557028055191
1772650962826023000,7.79202294921875,-0.21379654109477997,-0.3342861533164978,0.021990500390529633
1772650962835900200,7.801900146484375,-0.2564031481742859,-0.3912476599216461,0.12461283802986145
1772650962845777700,7.811777587890625,-0.2790044844150543,-0.4152234196662903,0.22845686972141266
1772650962855655000,7.821655029296875,-0.279920756816864,-0.41537612676620483,0.32222193479537964
1772650962865532400,7.831532470703125,-0.27946263551712036,-0.3955236077308655,0.3987305462360382
1772650962875409700,7.84140966796875,-0.3011476993560791,-0.34253260493278503,0.4286620616912842
1772650962885287200,7.851287109375,-0.30374380946159363,-0.35138988494873047,0.46042612195014954
1772650962895164400,7.861164306640625,-0.3226800560951233,-0.30313295125961304,0.45294323563575745
1772650962905042000,7.8710419921875,-0.3309265077114105,-0.23120568692684174,0.4193466305732727
1772650962914919400,7.88091943359375,-0.3095468580722809,-0.17378604412078857,0.3521534502506256
1772650962924796700,7.890796630859375,-0.25945737957954407,-0.1298050433397293,0.2722851634025574
1772650962934674200,7.900674072265625,-0.18340688943862915,-0.10277505218982697,0.21440738439559937
1772650962944551400,7.910551513671875,-0.12308572232723236,-0.0719272643327713,0.17302247881889343
1772650962954429000,7.920428955078125,-0.13896775245666504,-0.0015271181473508477,0.11560284346342087
1772650962964306200,7.93030615234375,-0.256708562374115,0.15775130689144135,0.025961007922887802
1772650962974183700,7.94018359375,-0.46134239435195923,0.41384902596473694,-0.11178504675626755
1772650962984061000,7.95006103515625,-0.6890357136726379,0.677582323551178,-0.3092414140701294
1772650962993938400,7.9599384765625,-0.8765658140182495,0.859767496585846,-0.529451847076416
1772650963003816000,7.96981591796875,-0.992168664932251,0.9206995368003845,-0.7038487792015076
1772650963013693200,7.979693115234375,-1.032789945602417,0.8538117408752441,-0.8162446618080139
1772650963023570700,7.98957080078125,-1.0077452659606934,0.675597071647644,-0.8759549856185913
1772650963033448000,7.999447998046875,-0.9596410393714905,0.4540122151374817,-0.8600729703903198
1772650963043325400,8.009325439453125,-0.9370396733283997,0.2777827978134155,-0.7273663878440857
1772650963053189000,8.019189208984375,-0.953227162361145,0.2101314514875412,-0.4840964674949646
1772650963063080200,8.029080078125,-0.9347490072250366,0.18279604613780975,-0.1566823273897171
1772650963072957400,8.03895751953125,-0.8415948152542114,0.13652436435222626,0.18142163753509521
1772650963082821000,8.048821044921874,-0.7015580534934998,0.09636115282773972,0.4506525695323944
1772650963092712400,8.05871240234375,-0.5447230339050293,0.051769305020570755,0.5948125123977661
1772650963102589700,8.068589599609375,-0.3958290219306946,-0.0068720318377017975,0.5960342288017273
1772650963112453400,8.078453369140625,-0.28633466362953186,-0.056961506605148315,0.4975350797176361
1772650963122344400,8.088344482421874,-0.23242738842964172,-0.08780929446220398,0.3498627543449402
1772650963132222000,8.098221923828126,-0.23334364593029022,-0.10033166408538818,0.21807247400283813
1772650963142085600,8.108085693359374,-0.2289150059223175,-0.12751436233520508,0.1525591015815735
1772650963151976700,8.117976806640625,-0.241742804646492,-0.1313321590423584,0.13240113854408264
1772650963161854000,8.12785400390625,-0.3277195692062378,0.004734066314995289,0.10109522193670273
1772650963171717600,8.137717529296875,-0.4724903404712677,0.30038413405418396,-0.0015271181473508477
1772650963181609000,8.14760888671875,-0.5993938446044922,0.6094728708267212,-0.1175880953669548
1772650963191486200,8.157486328125,-0.6846070885658264,0.8580876588821411,-0.22555534541606903
1772650963201363700,8.16736376953125,-0.7243121266365051,1.0045382976531982,-0.32878854870796204
1772650963211241000,8.177240966796875,-0.7090409398078918,1.0421054363250732,-0.4172086715698242
1772650963221118500,8.187118408203125,-0.6526902914047241,0.9915578365325928,-0.45508119463920593
1772650963230982100,8.196982177734375,-0.5887040495872498,0.9025267958641052,-0.42637139558792114
1772650963240873200,8.206873291015626,-0.4743228852748871,0.7650861740112305,-0.35658207535743713
1772650963250750500,8.21675048828125,-0.3318427801132202,0.5900784730911255,-0.25655585527420044
1772650963260628000,8.2266279296875,-0.20371755957603455,0.44454410672187805,-0.1382041871547699
1772650963270505500,8.23650537109375,-0.1044548824429512,0.3321481943130493,-0.012675080448389053
1772650963280382700,8.2463828125,-0.03802524134516716,0.22738789021968842,0.12461283802986145
1772650963290260200,8.25626025390625,0.0030542362947016954,0.12690351903438568,0.29442837834358215
1772650963300137500,8.266137451171875,0.04153761267662048,0.0397050715982914,0.4811949133872986
1772650963310015000,8.276014892578125,0.08918370306491852,-0.01175880990922451,0.629172682762146
1772650963319892200,8.285892333984375,0.1291942000389099,-0.029778804630041122,0.7151494026184082
1772650963329769700,8.295769775390625,0.14461809396743774,-0.02076880633831024,0.7493568658828735
1772650963339647000,8.30564697265625,0.13117945194244385,-0.007177455350756645,0.7572978734970093
1772650963349524500,8.3155244140625,0.10292776674032211,0.00259610079228878,0.7547017931938171
1772650963359402000,8.325402099609375,0.06978929787874222,0.007941014133393764,0.7424848675727844
1772650963369279200,8.335279296875,0.04489727318286896,0.02076880633831024,0.700794517993927
1772650963379156700,8.34515673828125,0.029778804630041122,0.06169557198882103,0.6276455521583557
1772650963389034000,8.355033935546874,0.026571854948997498,0.12369657307863235,0.532353401184082
1772650963398911500,8.364911376953126,0.034818295389413834,0.1832541823387146,0.43324342370033264
1772650963408788700,8.374788818359375,0.05115845799446106,0.23914669454097748,0.3396310806274414
1772650963418666200,8.384666259765625,0.06444438546895981,0.2895416021347046,0.2504473626613617
1772650963428543500,8.39454345703125,0.07330167293548584,0.31260108947753906,0.1701209545135498
1772650963438421000,8.4044208984375,0.08078455179929733,0.31260108947753906,0.1185043677687645
1772650963448298200,8.41429833984375,0.09040539711713791,0.305576354265213,0.09651386737823486
1772650963458175700,8.42417578125,0.09483403712511063,0.28343313932418823,0.09361234307289124
1772650963468053200,8.43405322265625,0.0856713280081749,0.2339545041322708,0.10491301864385605
1772650963477930500,8.443930419921875,0.06368082761764526,0.15179555118083954,0.14522893726825714
1772650963487808000,8.45380810546875,0.05070032179355621,0.06444438546895981,0.22845686972141266
1772650963497685200,8.463685302734374,0.046729814261198044,0.005497625097632408,0.3249707520008087
1772650963507562800,8.473562744140626,0.060779303312301636,-0.04749337583780289,0.41048935055732727
1772650963517440000,8.48343994140625,0.08124268800020218,-0.0859767496585846,0.47081053256988525
1772650963527317500,8.4933173828125,0.09910997003316879,-0.09483403712511063,0.4897467792034149
1772650963537194800,8.50319482421875,0.1122431829571724,-0.08093725889921188,0.47203221917152405
1772650963547072300,8.513072265625,0.11835165321826935,-0.06581879407167435,0.4106420576572418
1772650963556949800,8.52294970703125,0.12018419802188873,-0.04734066128730774,0.30313295125961304
1772650963566827000,8.532826904296876,0.1253764033317566,-0.01588202826678753,0.1650814712047577
1772650963576704500,8.54270458984375,0.12858334183692932,0.03649812191724777,0.027946261689066887
1772650963586581800,8.552581787109375,0.11361759155988693,0.10766182839870453,-0.07055285573005676
1772650963596459300,8.562459228515625,0.0922379344701767,0.18737739324569702,-0.11514470726251602
1772650963606336500,8.57233642578125,0.09529217332601547,0.2351761907339096,-0.12033691257238388
1772650963616214000,8.582214111328126,0.11056335270404816,0.25502872467041016,-0.10140064358711243
1772650963626091300,8.59209130859375,0.1319430023431778,0.2692309319972992,-0.08490777015686035
1772650963635968800,8.60196875,0.17118994891643524,0.28999972343444824,-0.09498675167560577
1772650963645832400,8.61183251953125,0.18875180184841156,0.3567348122596741,-0.11056335270404816
1772650963655723500,8.6217236328125,0.15469707548618317,0.4337015450000763,-0.07177454978227615
1772650963665601000,8.63160107421875,0.10185877978801727,0.4569137394428253,0.04291202127933502
1772650963675478300,8.641478271484376,0.07681404054164886,0.45859357714653015,0.18585027754306793
1772650963685355800,8.651355712890625,0.08948912471532822,0.4957025647163391,0.277630090713501
1772650963695233000,8.66123291015625,0.12033691257238388,0.5537330508232117,0.25441789627075195
1772650963705096700,8.6710966796875,0.1447708010673523,0.583053708076477,0.13896775245666504
1772650963714987800,8.68098779296875,0.16309621930122375,0.5325061082839966,-0.05085303261876106
1772650963724865300,8.690865234375,0.11209046840667725,0.425607830286026,-0.28633466362953186
1772650963734729000,8.70072900390625,-0.08215895295143127,0.34787750244140625,-0.5198310017585754
1772650963744620000,8.7106201171875,-0.3796415627002716,0.3077143132686615,-0.668114185333252
1772650963754497300,8.720497314453125,-0.672695517539978,0.2286095917224884,-0.6348230242729187
1772650963764361000,8.73036083984375,-0.8805363178253174,0.10094250738620758,-0.4039227366447449
1772650963774252300,8.740252197265624,-0.9242119193077087,-0.07299624383449554,-0.00992626789957285
1772650963784129500,8.750129638671876,-0.8037222623825073,-0.261442631483078,0.41537612676620483
1772650963793993200,8.7599931640625,-0.5674771070480347,-0.4124746024608612,0.7322531342506409
1772650963803884300,8.76988427734375,-0.26067906618118286,-0.45447036623954773,0.8687775135040283
1772650963813761800,8.77976171875,0.07330167293548584,-0.43354883790016174,0.8307522535324097
1772650963823625200,8.789625244140625,0.3831539452075958,-0.39323291182518005,0.7172874212265015
1772650963833516500,8.7995166015625,0.631463348865509,-0.3596363365650177,0.6155813336372375
1772650963843393800,8.809393798828125,0.7808154821395874,-0.32130566239356995,0.5729747414588928
1772650963853257500,8.819257568359374,0.8049439787864685,-0.2670929729938507,0.5903838872909546
1772650963863148500,8.8291484375,0.7148439884185791,-0.18768282234668732,0.6433748602867126
1772650963873026000,8.839026123046875,0.575570821762085,-0.14095300436019897,0.6832326650619507
1772650963882889700,8.8488896484375,0.453095942735672,-0.12369657307863235,0.6557445526123047
1772650963892780800,8.85878076171875,0.35917818546295166,-0.12583453953266144,0.529451847076416
1772650963902658300,8.868658203125,0.2973299026489258,-0.13362284004688263,0.34573954343795776
1772650963912535600,8.87853564453125,0.24907296895980835,-0.1459924876689911,0.12995775043964386
1772650963922413000,8.8884130859375,0.2107423096895218,-0.18111620843410492,-0.10766182839870453
1772650963932290300,8.898290283203124,0.1751604527235031,-0.25563958287239075,-0.35138988494873047
1772650963942167800,8.908167724609376,0.1388150453567505,-0.3495573401451111,-0.5635066032409668
1772650963952045000,8.918045166015625,0.09452861547470093,-0.4543176591396332,-0.7290462255477905
1772650963961922600,8.927922607421875,0.023975754156708717,-0.569004237651825,-0.8307522535324097
1772650963971786200,8.9377861328125,-0.06642963737249374,-0.6607840061187744,-0.8557969927787781
1772650963981677300,8.94767724609375,-0.14858859777450562,-0.7101099491119385,-0.8192988634109497
1772650963991554800,8.957554931640624,-0.2044811248779297,-0.7036960124969482,-0.7322531342506409
1772650964001418200,8.967418212890625,-0.20707722008228302,-0.6285618543624878,-0.5897729992866516
1772650964011309600,8.9773095703125,-0.14156384766101837,-0.4784461259841919,-0.3871244490146637
1772650964021186800,8.987186767578125,-0.0029015245381742716,-0.2892361879348755,-0.15408621728420258
1772650964031064300,8.997064208984375,0.1682884246110916,-0.11483928561210632,0.06749862432479858
1772650964040941600,9.006941650390624,0.3309265077114105,0.0038177953101694584,0.24433889985084534
1772650964050819000,9.016819091796876,0.4474456310272217,0.04947862774133682,0.35856732726097107
1772650964060682800,9.026682861328124,0.5008947253227234,0.05619794875383377,0.4043808877468109
1772650964070573800,9.03657373046875,0.5045598149299622,0.04489727318286896,0.3799470067024231
1772650964080451000,9.046451171875,0.4721849262714386,0.025502873584628105,0.2942756712436676
1772650964090314800,9.056314697265625,0.4103366434574127,0.0032069480512291193,0.17378604412078857
1772650964100205800,9.066205810546874,0.32970482110977173,-0.04016320779919624,0.046577103435993195
1772650964110083300,9.076083251953126,0.23593975603580475,-0.1041494607925415,-0.0713164210319519
1772650964119960800,9.0859609375,0.1423274129629135,-0.1629435122013092,-0.16966283321380615
1772650964129838000,9.095838134765625,0.06444438546895981,-0.20142687857151031,-0.24662958085536957
1772650964139715600,9.105715576171875,0.01817270554602146,-0.20722992718219757,-0.3151971995830536
1772650964149592800,9.1155927734375,-0.007177455350756645,-0.1785201132297516,-0.3790307343006134
1772650964159470300,9.12547021484375,-0.01725643500685692,-0.1313321590423584,-0.4283566474914551
1772650964169347600,9.13534765625,-0.007024743594229221,-0.07513421028852463,-0.448361873626709
1772650964179225000,9.14522509765625,0.01832541823387146,-0.02901524491608143,-0.43324342370033264
1772650964189102300,9.155102294921875,0.024586603045463562,0.0021379655227065086,-0.39109495282173157
1772650964198979800,9.164979736328124,-0.01695101149380207,0.005497625097632408,-0.3058817684650421
1772650964208857000,9.174857177734374,-0.12201674282550812,-0.09895725548267365,-0.10033166408538818
1772650964218734600,9.184734619140626,-0.18126893043518066,-0.520594596862793,-0.15683503448963165
1772650964228612000,9.194612060546875,-0.19837264716625214,-0.6707102656364441,-0.26694026589393616
1772650964238475500,9.2044755859375,-0.21715620160102844,-0.5318952798843384,-0.22967857122421265
1772650964248366800,9.214366943359375,-0.2533488869667053,-0.41415444016456604,-0.11254860460758209
1772650964258244000,9.224244140625,-0.29977330565452576,-0.33352261781692505,0.03558185324072838
1772650964268121600,9.23412158203125,-0.36543938517570496,-0.3083251416683197,0.1635543555021286
1772650964277998800,9.243998779296875,-0.42514967918395996,-0.28694549202919006,0.2648022770881653
