time,seconds_elapsed,z,y,x
1772650955032868900,-0.001131103515625,7.957331657409668,-5.8337016105651855,1.9196419715881348
1772650955042732500,0.008732666015625,6.858428001403809,-5.817550182342529,1.801795482635498
1772650955052624000,0.018623779296875,6.6215386390686035,-5.971887111663818,1.482353687286377
1772650955062501000,0.028501220703125,6.423532485961914,-5.96889591217041,1.404586911201477
1772650955072378600,0.038378662109375,6.516852378845215,-5.896512985229492,1.4584254026412964
1772650955082256100,0.048256103515625,6.721438884735107,-5.721837043762207,1.6468602418899536
1772650955092133400,0.05813330078125,6.920042991638184,-5.674578666687012,1.8029918670654297
1772650955102011000,0.068010986328125,7.061219692230225,-5.645864963531494,1.9806588888168335
1772650955111888400,0.077888427734375,7.1371917724609375,-5.5692949295043945,2.210968017578125
1772650955121765600,0.087765625,7.275975227355957,-5.4526448249816895,2.4161527156829834
1772650955131643100,0.09764306640625,7.478767395019531,-5.398207664489746,2.517249345779419
1772650955142520600,0.1085205078125,7.729415416717529,-5.416153907775879,2.538186550140381
1772650955152397800,0.118397705078125,7.798807144165039,-5.423332691192627,2.531008243560791
1772650955182030000,0.148030029296875,8.129016876220703,-5.649454116821289,2.162513494491577
1772650955201785000,0.16778515625,7.9280195236206055,-5.672185897827148,2.1613171100616455
1772650955221539800,0.187539794921875,8.041080474853516,-5.745765209197998,2.132603168487549
1772650955231417300,0.197417236328125,8.067401885986328,-5.798407554626465,2.0997018814086914
1772650955241294600,0.207294677734375,8.053044319152832,-5.781657695770264,2.090130567550659
1772650955251172000,0.217172119140625,8.009973526000977,-5.7792649269104,2.1481566429138184
1772650955261049600,0.227049560546875,7.919046401977539,-5.742774486541748,2.2265214920043945
1772650955270926800,0.2369267578125,7.785048484802246,-5.676373481750488,2.2402801513671875
1772650955280804400,0.246804443359375,7.710870742797852,-5.571687698364258,2.256431818008423
1772650955290681900,0.256681884765625,7.7940216064453125,-5.490331649780273,2.2480568885803223
1772650955300559000,0.26655908203125,7.932207107543945,-5.435296535491943,2.210968017578125
1772650955310436600,0.2764365234375,8.01356315612793,-5.4143595695495605,2.139183521270752
1772650955320313900,0.28631396484375,7.957930088043213,-5.407779216766357,2.062613010406494
1772650955330191400,0.29619140625,7.902894973754883,-5.432305812835693,2.0368902683258057
1772650955340068900,0.30606884765625,7.846065521240234,-5.449653625488281,2.0063817501068115
1772650955349946000,0.315946044921875,7.790432453155518,-5.353940486907959,2.0368902683258057
1772650955359823600,0.32582373046875,7.740182876586914,-5.212764263153076,2.097309112548828
1772650955369701000,0.335701171875,7.734799385070801,-5.137988567352295,2.1684954166412354
1772650955379578400,0.345578369140625,7.72104024887085,-5.168497085571289,2.2187447547912598
1772650955389456000,0.355455810546875,7.704290866851807,-5.190032482147217,2.290529489517212
1772650955399333400,0.36533349609375,7.716853141784668,-5.207978248596191,2.3976082801818848
1772650955409210600,0.375210693359375,7.743174076080322,-5.257031440734863,2.4915266036987305
1772650955419088100,0.385088134765625,7.805985450744629,-5.349154949188232,2.536990165710449
1772650955428965600,0.394965576171875,7.9280195236206055,-5.449055194854736,2.554338216781616
1772650955438843000,0.4048427734375,8.066802978515625,-5.515456199645996,2.531008243560791
1772650955448720400,0.414720458984375,8.176873207092285,-5.5345988273620605,2.492722988128662
1772650955458598000,0.424597900390625,8.263014793395996,-5.563312530517578,2.3874387741088867
1772650955468475100,0.43447509765625,8.270193099975586,-5.6554365158081055,2.2265214920043945
1772650955478352600,0.4443525390625,8.215158462524414,-5.733801364898682,2.0721843242645264
1772650955488230100,0.454230224609375,8.14815902709961,-5.761318683624268,1.9130617380142212
1772650955498107400,0.464107421875,8.107481002807617,-5.709873199462891,1.8532410860061646
1772650955507985000,0.47398486328125,8.054241180419922,-5.641079425811768,1.8699909448623657
1772650955517862100,0.483862060546875,7.984848976135254,-5.5142598152160645,1.8855443000793457
1772650955527739600,0.49373974609375,7.855038642883301,-5.371886730194092,1.9130617380142212
1772650955537617200,0.5036171875,7.685148239135742,-5.293521881103516,1.8891334533691406
1772650955547494400,0.513494384765625,7.539186000823975,-5.251049518585205,1.8819550275802612
1772650955557372000,0.523371826171875,7.455437183380127,-5.2181477546691895,1.8843477964401245
1772650955567249400,0.53324951171875,7.3884382247924805,-5.191826820373535,1.9004993438720703
1772650955577126700,0.543126708984375,7.342974662780762,-5.1565327644348145,1.9124635457992554
1772650955587004200,0.553004150390625,7.369295597076416,-5.122435092926025,1.9692929983139038
1772650955596881400,0.56288134765625,7.491329669952393,-5.106881618499756,2.050050735473633
1772650955606759000,0.572759033203125,7.619943618774414,-5.082355499267578,2.0895323753356934
1772650955626513700,0.592513671875,7.918448448181152,-5.0327043533325195,2.173879384994507
1772650955636391200,0.60239111328125,7.971688747406006,-5.082355499267578,2.17627215385437
1772650955646268700,0.6122685546875,7.911269664764404,-5.101497650146484,2.200798511505127
1772650955656146000,0.62214599609375,7.753942012786865,-5.059025287628174,2.2342982292175293
1772650955666023400,0.6320234375,7.703692436218262,-4.9704909324646,2.2546372413635254
1772650955675901000,0.64190087890625,7.707880020141602,-4.923232555389404,2.2331018447875977
1772650955685778200,0.651778076171875,7.664809226989746,-4.940580368041992,2.1547367572784424
1772650955695655700,0.66165576171875,7.688737392425537,-4.993820667266846,2.076371908187866
1772650955705533000,0.671532958984375,7.7940216064453125,-5.035097122192383,1.97407865524292
1772650955715410400,0.681410400390625,7.908278942108154,-5.003990173339844,1.9160526990890503
1772650955725288000,0.691287841796875,7.917252063751221,-4.95912504196167,1.8747764825820923
1772650955735165200,0.701165283203125,7.802396297454834,-4.909473896026611,1.841277003288269
1772650955745042700,0.711042724609375,7.709076404571533,-4.85324239730835,1.812563180923462
1772650955754920000,0.720919921875,7.685148239135742,-4.810171604156494,1.810170292854309
1772650955764797400,0.73079736328125,7.737790107727051,-4.800600528717041,1.8047864437103271
1772650955774675000,0.740675048828125,7.780860900878906,-4.824528694152832,1.7904295921325684
1772650955784552200,0.75055224609375,7.852047443389893,-4.804787635803223,1.8047864437103271
1772650955794429700,0.7604296875,7.899903774261475,-4.701298236846924,1.8580267429351807
1772650955804307000,0.770306884765625,7.892127513885498,-4.615755081176758,1.8813568353652954
1772650955814184400,0.780184326171875,7.861020565032959,-4.572684288024902,1.8951154947280884
1772650955824062000,0.79006201171875,7.894520282745361,-4.563112735748291,1.8807586431503296
1772650955833939200,0.799939208984375,7.941778182983398,-4.555934429168701,1.846660852432251
1772650955843816700,0.809816650390625,7.985447406768799,-4.54636287689209,1.8490537405014038
1772650955853694200,0.819694091796875,8.124231338500977,-4.539782524108887,1.9369899034500122
1772650955863571500,0.829571533203125,8.312665939331055,-4.531407833099365,2.012363910675049
1772650955873449000,0.839448974609375,8.496315002441406,-4.47278356552124,2.117648124694824
1772650955883326200,0.849326171875,8.613563537597656,-4.392025947570801,2.2480568885803223
1772650955893203700,0.85920361328125,8.659027099609375,-4.353142738342285,2.342573404312134
1772650955903081200,0.869081298828125,8.70209789276123,-4.311268329620361,2.449054002761841
1772650955912958500,0.87895849609375,8.771489143371582,-4.31007194519043,2.537588357925415
1772650955922836000,0.8888359375,8.888737678527832,-4.395615100860596,2.5471596717834473
1772650955932713500,0.89871337890625,8.970093727111816,-4.54337215423584,2.541177749633789
1772650955942590700,0.9085908203125,9.080761909484863,-4.686343193054199,2.5232315063476562
1772650955952468200,0.91846826171875,9.201001167297363,-4.849055290222168,2.4053850173950195
1772650955962345500,0.928345458984375,9.373284339904785,-5.087738990783691,2.094916343688965
1772650955972223000,0.938222900390625,9.534201622009277,-5.403591632843018,1.6875381469726562
1772650955982100500,0.9481005859375,9.579665184020996,-5.702694416046143,1.2496516704559326
1772650955991977700,0.957977783203125,9.453444480895996,-5.907878875732422,0.8446664214134216
1772650956001855200,0.967855224609375,9.078967094421387,-6.081358909606934,0.5359922647476196
1772650956011732500,0.977732421875,8.691927909851074,-6.187241077423096,0.3026920557022095
1772650956021610000,0.98760986328125,8.326424598693848,-6.220740795135498,0.15672987699508667
1772650956031487500,0.997487548828125,8.085348129272461,-6.258427619934082,0.11246266216039658
1772650956041364700,1.00736474609375,7.997411251068115,-6.303293228149414,0.1537388563156128
1772650956051242200,1.0172421875,7.8658061027526855,-6.360720634460449,0.22911277413368225
1772650956061119500,1.027119384765625,7.7491559982299805,-6.399604320526123,0.39900317788124084
1772650956070997000,1.0369970703125,7.692326545715332,-6.483951091766357,0.5832505226135254
1772650956080874500,1.04687451171875,7.747959613800049,-6.52044153213501,0.7597211599349976
1772650956090751700,1.056751708984375,7.948358535766602,-6.4941205978393555,0.9684949517250061
1772650956100629200,1.066629150390625,8.230711936950684,-6.468397617340088,1.0552347898483276
1772650956110506800,1.0765068359375,8.483752250671387,-6.44686222076416,0.989432156085968
1772650956120384000,1.086384033203125,8.578866958618164,-6.409175395965576,0.8009973764419556
1772650956130261500,1.096261474609375,8.592626571655273,-6.371488571166992,0.5264210104942322
1772650956140138800,1.106138671875,8.539385795593262,-6.2913289070129395,0.1944168359041214
1772650956150016300,1.116016357421875,8.322834968566895,-6.198009014129639,-0.17706887423992157
1772650956159893500,1.1258935546875,7.953742504119873,-5.9509501457214355,-0.4307080805301666
1772650956169771000,1.13577099609375,7.472187042236328,-5.709274768829346,-0.6340979933738708
1772650956179648500,1.1456484375,7.007979393005371,-5.406582832336426,-0.7238288521766663
1772650956189525800,1.15552587890625,6.63350248336792,-5.107480049133301,-0.768694281578064
1772650956199403300,1.1654033203125,6.424728870391846,-4.905884742736816,-0.7674978375434875
1772650956209280800,1.17528076171875,6.281159400939941,-4.764708042144775,-0.6729813814163208
1772650956219158000,1.185157958984375,6.25723123550415,-4.6271209716796875,-0.4977070987224579
1772650956229035500,1.195035400390625,6.38165807723999,-4.572085857391357,-0.26081767678260803
1772650956238912800,1.204912841796875,6.551548480987549,-4.545166492462158,-0.029910283163189888
1772650956248790300,1.214790283203125,6.766304016113281,-4.518845558166504,0.18783657252788544
1772650956258667800,1.224667724609375,6.98704195022583,-4.508676052093506,0.41096729040145874
1772650956268545000,1.234544921875,7.280761241912842,-4.4997029304504395,0.6957131624221802
1772650956278422500,1.244422607421875,7.499105930328369,-4.556532382965088,0.9595218896865845
1772650956288299800,1.2542998046875,7.662416458129883,-4.6995038986206055,1.1300104856491089
1772650956298177300,1.26417724609375,7.82273530960083,-4.868795871734619,1.1431710720062256
1772650956308054800,1.2740546875,8.020143508911133,-5.18105936050415,1.0217353105545044
1772650956317932000,1.28393212890625,8.257631301879883,-5.528018474578857,0.8267202377319336
1772650956327809500,1.2938095703125,8.45444107055664,-5.875576019287109,0.5527420043945312
1772650956337686800,1.303686767578125,8.645866394042969,-6.029314994812012,0.40797626972198486
1772650956347564300,1.313564208984375,8.74337387084961,-5.992824077606201,0.41216370463371277
1772650956357441800,1.32344189453125,8.709874153137207,-5.910272121429443,0.3445664644241333
1772650956367319000,1.333319091796875,8.508877754211426,-5.901896953582764,0.3026920557022095
1772650956377196500,1.343196533203125,8.274380683898926,-5.765506267547607,0.42831525206565857
1772650956387073800,1.35307373046875,7.941778182983398,-5.651846885681152,0.48574298620224
1772650956396951300,1.362951416015625,7.545167922973633,-5.5962138175964355,0.4336991012096405
1772650956406828500,1.37282861328125,7.2227349281311035,-5.602196216583252,0.41156548261642456
1772650956416706000,1.3827060546875,7.125227451324463,-5.629713535308838,0.3475574851036072
1772650956426583600,1.39258349609375,7.110870838165283,-5.622535228729248,0.357128769159317
1772650956436460800,1.402460693359375,7.127620220184326,-5.56869649887085,0.46420758962631226
1772650956446338300,1.41233837890625,7.239484786987305,-5.488536834716797,0.6245267391204834
1772650956456215800,1.4222158203125,7.492526054382324,-5.438287734985352,0.7734799385070801
1772650956466093000,1.432093017578125,7.8179497718811035,-5.424529075622559,0.8817551732063293
1772650956475970600,1.441970458984375,8.216354370117188,-5.247459888458252,1.0091729164123535
1772650956485847800,1.451847900390625,8.630910873413086,-5.0087761878967285,1.1198409795761108
1772650956495725300,1.461725341796875,8.915059089660645,-5.050650596618652,1.1216355562210083
1772650956505602600,1.4716025390625,8.916254997253418,-5.340780258178711,0.9672985672950745
1772650956515480000,1.48147998046875,8.788239479064941,-5.648257732391357,0.7704889178276062
1772650956525357600,1.491357666015625,8.629117012023926,-5.891129493713379,0.631106972694397
1772650956535234800,1.50123486328125,8.492725372314453,-5.995217323303223,0.5563312768936157
1772650956545112300,1.5111123046875,8.344968795776367,-5.931209087371826,0.5587241053581238
1772650956554989800,1.52098974609375,8.22293472290039,-5.784050464630127,0.7076773047447205
1772650956564867000,1.5308671875,8.0291166305542,-5.678168296813965,0.9314061999320984
1772650956574744600,1.54074462890625,7.749754428863525,-5.641677379608154,1.103689432144165
1772650956584621800,1.550621826171875,7.487142086029053,-5.636293888092041,1.2975081205368042
1772650956594499300,1.560499267578125,7.339385032653809,-5.613562107086182,1.5026925802230835
1772650956604376600,1.57037646484375,7.339385032653809,-5.551348686218262,1.7497515678405762
1772650956614254000,1.580254150390625,7.439883708953857,-5.482554912567139,1.9728822708129883
1772650956624131600,1.590131591796875,7.485347270965576,-5.442475318908691,2.1200408935546875
1772650956634008800,1.6000087890625,7.456633567810059,-5.3934221267700195,2.2911276817321777
1772650956643886300,1.60988623046875,7.396812915802002,-5.323431968688965,2.414358139038086
1772650956653763600,1.619763671875,7.387241840362549,-5.207380294799805,2.544168710708618
1772650956663641000,1.62964111328125,7.513463020324707,-5.093122959136963,2.7355945110321045
1772650956673518600,1.6395185546875,7.730611801147461,-4.960919380187988,2.981456995010376
1772650956683395800,1.649395751953125,8.038687705993652,-4.810770034790039,3.150151014328003
1772650956693273300,1.6592734375,8.391629219055176,-4.732405185699463,3.2267212867736816
1772650956703150600,1.669150634765625,8.764909744262695,-4.8191447257995605,3.2452657222747803
1772650956713028000,1.679028076171875,9.049654960632324,-4.958526611328125,3.257229804992676
1772650956722905600,1.688905517578125,9.268000602722168,-5.1050872802734375,3.3200414180755615
1772650956732782800,1.698782958984375,9.402596473693848,-5.423930644989014,3.332603693008423
1772650956742660400,1.708660400390625,9.497711181640625,-5.887540340423584,3.253640651702881
1772650956752537600,1.71853759765625,9.66221809387207,-6.4564337730407715,3.022733211517334
1772650956762415000,1.7284150390625,10.000802040100098,-6.990631580352783,2.665006160736084
1772650956772292400,1.738292236328125,10.438689231872559,-7.296912670135498,2.341975212097168
1772650956782169900,1.748169921875,10.981261253356934,-7.47637414932251,2.08713960647583
1772650956792047400,1.75804736328125,11.399407386779785,-7.627720355987549,1.8658034801483154
1772650956801924600,1.767924560546875,11.519047737121582,-7.805387496948242,1.6426727771759033
1772650956811802000,1.777802001953125,11.167901039123535,-7.920242786407471,1.4476577043533325
1772650956821679400,1.787679443359375,10.191031455993652,-8.011768341064453,1.2759727239608765
1772650956831543000,1.79754296875,9.09272575378418,-7.980063438415527,1.2508480548858643
1772650956841434400,1.807434326171875,8.209774017333984,-7.640881061553955,1.4506487846374512
1772650956851311600,1.8173115234375,7.542177200317383,-7.250252723693848,1.5948163270950317
1772650956861175300,1.82717529296875,7.17069149017334,-6.914659023284912,1.6977076530456543
1772650956871066400,1.83706640625,7.124031066894531,-6.479763507843018,1.8556339740753174
1772650956880943900,1.84694384765625,7.179664134979248,-6.186044692993164,1.8305093050003052
1772650956890821400,1.8568212890625,7.1270222663879395,-6.227321147918701,1.5355939865112305
1772650956900698600,1.86669873046875,6.966702938079834,-6.281159400939941,1.184447169303894
1772650956910576000,1.876576171875,6.610172748565674,-6.3014984130859375,0.9332008361816406
1772650956920453400,1.886453369140625,6.1704912185668945,-6.246463298797607,0.8626125454902649
1772650956930331000,1.896330810546875,5.812166213989258,-6.165107727050781,1.0516455173492432
1772650956940208000,1.9062080078125,5.480760097503662,-6.120242118835449,1.3668999671936035
1772650956950085600,1.916085693359375,5.153541564941406,-6.128018856048584,1.7114664316177368
1772650956959963100,1.925963134765625,4.817948341369629,-6.1675004959106445,1.9609181880950928
1772650956969840400,1.93584033203125,4.500899314880371,-6.282355785369873,2.0368902683258057
1772650956979718000,1.9457177734375,4.281956195831299,-6.510272026062012,1.9639091491699219
1772650956989595100,1.95559521484375,4.113262176513672,-6.724429607391357,1.8335003852844238
1772650956999472600,1.96547265625,3.9559340476989746,-6.9344000816345215,1.6576279401779175
1772650957009350100,1.97535009765625,3.850649833679199,-7.024729251861572,1.4895321130752563
1772650957019227400,1.985227294921875,3.9176487922668457,-7.0301127433776855,1.415354609489441
1772650957029105000,1.99510498046875,4.120440483093262,-6.935596466064453,1.4518451690673828
1772650957038982100,2.004982177734375,4.411766529083252,-6.821339130401611,1.5708880424499512
1772650957048859600,2.014859619140625,4.841278553009033,-6.7076802253723145,1.7802600860595703
1772650957058737000,2.02473681640625,5.240281581878662,-6.6006011962890625,1.9184455871582031
1772650957068614400,2.034614501953125,5.583651542663574,-6.5629143714904785,1.9692929983139038
1772650957078492000,2.044491943359375,5.8749775886535645,-6.540182590484619,1.9465612173080444
1772650957088369200,2.054369140625,6.151947021484375,-6.474977970123291,1.9423737525939941
1772650957098246700,2.06424658203125,6.402595043182373,-6.359524250030518,1.9567307233810425
1772650957108124200,2.074124267578125,6.547360897064209,-6.22492790222168,1.9645073413848877
1772650957118001400,2.08400146484375,6.57547664642334,-6.093921184539795,1.9489539861679077
1772650957127879000,2.09387890625,6.472585201263428,-6.072385787963867,2.001596212387085
1772650957137756200,2.103756103515625,6.193222999572754,-6.1226348876953125,2.1032910346984863
1772650957147633700,2.113633544921875,5.819344520568848,-6.212964057922363,2.2773690223693848
1772650957157511000,2.123510986328125,5.398207664489746,-6.5282182693481445,2.4580271244049072
1772650957167388400,2.133388427734375,5.029713153839111,-6.894320011138916,2.6560330390930176
1772650957177266000,2.143265869140625,5.015356063842773,-7.356733322143555,2.7086751461029053
1772650957187129300,2.15312939453125,5.293521881103516,-8.229515075683594,2.6805596351623535
1772650957197020700,2.163020751953125,5.6793646812438965,-8.668598175048828,2.7433712482452393
1772650957206898000,2.17289794921875,5.925825119018555,-8.668000221252441,2.909074068069458
1772650957216775400,2.182775390625,6.0711894035339355,-8.419146537780762,3.2584261894226074
1772650957226652700,2.192652587890625,6.189633846282959,-8.127222061157227,3.5533416271209717
1772650957236530200,2.2025302734375,6.239284992218018,-7.754539966583252,3.8638103008270264
1772650957246407700,2.21240771484375,6.394818305969238,-7.715656757354736,4.108476638793945
1772650957256285000,2.222284912109375,6.643671989440918,-7.874779224395752,4.106083869934082
1772650957266162400,2.232162353515625,7.003791809082031,-7.804789066314697,4.04985237121582
1772650957276039700,2.242039794921875,7.355536937713623,-7.915457248687744,4.013959884643555
1772650957285917200,2.251917236328125,7.668996810913086,-8.0291166305542,3.985246181488037
1772650957295794400,2.26179443359375,7.902296543121338,-7.976474285125732,3.9529430866241455
1772650957305672000,2.271671875,8.059624671936035,-7.902296543121338,3.8847475051879883
1772650957315549400,2.281549560546875,8.185846328735352,-7.87777042388916,3.647858142852783
1772650957325426700,2.2914267578125,8.028517723083496,-7.514061450958252,3.332603693008423
1772650957335304200,2.30130419921875,7.539783954620361,-7.181458950042725,3.1477582454681396
1772650957345181400,2.311181396484375,6.915855407714844,-7.130611419677734,2.9186453819274902
1772650957355059000,2.321058837890625,6.28415060043335,-7.007979393005371,2.7864420413970947
1772650957364922600,2.330922607421875,5.745167255401611,-6.592226505279541,2.8145575523376465
1772650957374813700,2.340813720703125,4.989035129547119,-6.296114444732666,2.638087034225464
1772650957384691200,2.350691162109375,4.852644443511963,-5.838487148284912,2.383849620819092
1772650957394555000,2.360554931640625,4.049253940582275,-5.659623622894287,2.242074728012085
1772650957404446000,2.370446044921875,3.662214994430542,-5.686542987823486,2.0315065383911133
1772650957414323500,2.380323486328125,3.4743785858154297,-5.802595138549805,1.9453648328781128
1772650957424200700,2.39020068359375,3.4755749702453613,-5.714060306549072,1.7156537771224976
1772650957434078200,2.400078125,3.8386857509613037,-5.9198431968688965,1.2951152324676514
1772650957443955500,2.40995556640625,4.482355117797852,-6.4325056076049805,0.735194742679596
1772650957453819100,2.419819091796875,5.245665550231934,-6.868597507476807,0.2153540402650833
1772650957463710200,2.429710205078125,5.807978630065918,-7.4362945556640625,-0.47198426723480225
1772650957473587700,2.439587646484375,6.017350673675537,-7.9381890296936035,-0.9302098155021667
1772650957483465200,2.44946533203125,6.381059646606445,-8.018946647644043,-0.7423732280731201
1772650957493342500,2.459342529296875,6.07896614074707,-8.009973526000977,0.3044866919517517
1772650957503220000,2.469219970703125,6.777071952819824,-7.792825222015381,1.031306505203247
1772650957513083400,2.47908349609375,7.3160552978515625,-7.35314416885376,1.932802438735962
1772650957522974700,2.488974609375,7.8628153800964355,-7.0887370109558105,2.235494613647461
1772650957532852200,2.498852294921875,8.222336769104004,-7.142575740814209,1.648654818534851
1772650957542715600,2.508715576171875,8.910273551940918,-7.514659404754639,0.6035895347595215
1772650957552607000,2.51860693359375,8.981459617614746,-8.096115112304688,0.38285163044929504
1772650957562484200,2.528484130859375,8.96829891204834,-8.398807525634766,0.44027936458587646
1772650957572361700,2.53836181640625,8.971888542175293,-8.1493558883667,0.3170489966869354
1772650957582239000,2.548239013671875,8.481359481811523,-7.895118236541748,0.37088751792907715
1772650957592116500,2.558116455078125,8.094321250915527,-7.836493968963623,0.22133609652519226
1772650957601994000,2.567993896484375,8.504091262817383,-7.750950813293457,0.04007977992296219
1772650957611871200,2.577871337890625,8.171489715576172,-7.779664516448975,0.8733802437782288
1772650957621748700,2.587748779296875,7.672585964202881,-7.572087287902832,1.607378602027893
1772650957631626000,2.5976259765625,8.02373218536377,-7.047461032867432,1.4835500717163086
1772650957641503500,2.60750341796875,8.13679313659668,-6.738188743591309,1.327418327331543
1772650957651380700,2.617380615234375,8.007580757141113,-6.713063716888428,0.9846464991569519
1772650957661258200,2.62725830078125,7.798209190368652,-6.771687984466553,0.40677985548973083
1772650957671135700,2.6371357421875,7.458428382873535,-6.69571590423584,-0.24287149310112
1772650957681013000,2.647012939453125,7.128817081451416,-6.416952133178711,-0.6999006271362305
1772650957690890500,2.656890380859375,6.8410797119140625,-6.189035892486572,-0.9415757060050964
1772650957700767700,2.666767822265625,6.440880298614502,-6.006583213806152,-1.1108678579330444
1772650957710645200,2.676645263671875,5.927021503448486,-5.867201328277588,-1.1341979503631592
1772650957720509000,2.686509033203125,5.481956481933594,-5.666802406311035,-0.9343972206115723
1772650957730400000,2.69639990234375,5.2115678787231445,-5.30847692489624,-0.4821537733078003
1772650957740277500,2.706277587890625,5.1343994140625,-4.933402061462402,0.13160525262355804
1772650957750154800,2.71615478515625,5.318048477172852,-4.5547380447387695,0.7130611538887024
1772650957760032300,2.7260322265625,5.661418437957764,-4.361517429351807,1.0863415002822876
1772650957769909500,2.735909423828125,6.067600250244141,-4.402793884277344,1.1353943347930908
1772650957779787000,2.745787109375,6.32363224029541,-4.505086898803711,1.0378868579864502
1772650957789664500,2.75566455078125,6.431309223175049,-4.673182487487793,0.8721838593482971
1772650957799541800,2.765541748046875,6.470790863037109,-4.8329033851623535,0.8781659007072449
1772650957809419300,2.775419189453125,6.578467845916748,-4.884947299957275,1.1479566097259521
1772650957819296500,2.785296630859375,6.793821811676025,-4.88853645324707,1.4709876775741577
1772650957829174000,2.795174072265625,7.048058986663818,-5.045266628265381,1.6289139986038208
1772650957839051300,2.80505126953125,7.256234645843506,-5.031507968902588,1.795215129852295
1772650957848928800,2.8149287109375,7.401000499725342,-4.838287353515625,2.025524377822876
1772650957858806300,2.82480615234375,7.487142086029053,-4.660620212554932,2.076371908187866
1772650957868683500,2.83468359375,7.472784996032715,-4.788636207580566,1.8939191102981567
1772650957878561000,2.84456103515625,7.435098171234131,-5.133800983428955,1.4470595121383667
1772650957888438300,2.854438232421875,7.320840835571289,-5.511867046356201,0.8991031050682068
1772650957898315800,2.864315673828125,7.2089762687683105,-5.584249973297119,0.6329016089439392
1772650957908193000,2.874193115234375,7.189235687255859,-5.573482036590576,0.5042873620986938
1772650957918070500,2.884070556640625,7.375277519226074,-5.4041900634765625,0.6185446381568909
1772650957927948000,2.893947998046875,7.425527095794678,-5.434100151062012,0.4953143000602722
1772650957937825300,2.9038251953125,7.503891944885254,-5.458028316497803,0.2111666053533554
1772650957947702800,2.913702880859375,7.58225679397583,-5.508875846862793,-0.16271193325519562
1772650957957580000,2.923580078125,7.712665557861328,-5.3802618980407715,-0.4576273262500763
1772650957967457500,2.93345751953125,7.8664045333862305,-5.062614440917969,-0.534795880317688
1772650957977335000,2.9433349609375,7.9489569664001465,-4.859224796295166,-0.4899304509162903
1772650957987212300,2.95321240234375,7.88913631439209,-4.756333351135254,-0.43130627274513245
1772650957997089800,2.96308984375,7.648059368133545,-4.810171604156494,-0.4342973232269287
1772650958006967000,2.972967041015625,7.354938507080078,-5.01715087890625,-0.5168496966362
1772650958016844500,2.982844482421875,7.127620220184326,-5.722435474395752,-0.8733802437782288
1772650958026721800,2.9927216796875,6.82014274597168,-6.604788780212402,-1.4901303052902222
1772650958036599300,3.002599365234375,6.369095802307129,-7.5565338134765625,-2.107478618621826
1772650958046463000,3.012462890625,5.9647088050842285,-8.520841598510742,-2.2654049396514893
1772650958056354000,3.02235400390625,5.800800323486328,-9.281759262084961,-1.9310078620910645
1772650958066231600,3.0322314453125,5.97727108001709,-10.123434066772461,-1.470389485359192
1772650958076095200,3.04209521484375,6.3840508460998535,-11.33958625793457,-1.0492527484893799
1772650958085986300,3.051986328125,6.969694137573242,-12.32542896270752,-0.30987054109573364
1772650958095863600,3.061863525390625,7.940581798553467,-12.736396789550781,0.7411768436431885
1772650958105727200,3.071727294921875,9.251250267028809,-12.600006103515625,2.028515338897705
1772650958115618600,3.08161865234375,10.213763236999512,-11.9461669921875,3.4534413814544678
1772650958125495800,3.091495849609375,10.37228775024414,-11.12483024597168,4.764110088348389
1772650958135359500,3.101359375,9.535996437072754,-10.734800338745117,5.72123908996582
1772650958145250600,3.11125048828125,8.641678810119629,-10.680961608886719,6.52462911605835
1772650958155128000,3.121128173828125,7.9830546379089355,-10.611570358276367,7.028916358947754
1772650958164991700,3.13099169921875,7.533204078674316,-10.359725952148438,7.0995049476623535
1772650958174882800,3.1408828125,7.968697547912598,-9.711270332336426,6.383452415466309
1772650958184760300,3.15076025390625,7.406384468078613,-9.69093132019043,5.975476264953613
1772650958194637600,3.160637451171875,6.957131862640381,-9.424132347106934,5.093122959136963
1772650958204515000,3.17051513671875,7.103094100952148,-9.010173797607422,3.3678979873657227
1772650958214392600,3.180392578125,6.904489517211914,-8.825926780700684,2.2474586963653564
1772650958224256000,3.190256103515625,6.7070817947387695,-8.784051895141602,1.2179467678070068
1772650958234147300,3.200147216796875,6.4701924324035645,-8.57348346710205,0.10648060590028763
1772650958244024600,3.210024658203125,6.230910301208496,-8.293522834777832,-0.729810893535614
1772650958253888300,3.21988818359375,6.03529691696167,-8.056035995483398,-1.3130614757537842
1772650958263779300,3.229779296875,5.903093338012695,-7.822137355804443,-1.4979069232940674
1772650958273656800,3.23965673828125,5.804389476776123,-7.554141044616699,-1.350150227546692
1772650958283534300,3.249534423828125,5.789434432983398,-7.248457908630371,-1.0456634759902954
1772650958293411600,3.25941162109375,5.849255084991455,-7.007979393005371,-0.6364908218383789
1772650958303289000,3.2692890625,6.005984783172607,-6.674180507659912,0.08853443711996078
1772650958313166300,3.279166259765625,6.127420425415039,-6.202794551849365,0.9505487680435181
1772650958323043800,3.2890439453125,6.126822471618652,-5.781059741973877,1.6498512029647827
1772650958332921300,3.29892138671875,5.908477306365967,-5.435296535491943,1.963310956954956
1772650958342798600,3.308798583984375,5.584847927093506,-5.2181477546691895,1.8699909448623657
1772650958352676000,3.318676025390625,5.221138954162598,-5.127819061279297,1.4937195777893066
1772650958362553300,3.32855322265625,4.847858905792236,-5.252843856811523,0.97926265001297
1772650958372430800,3.338430908203125,4.609772682189941,-5.542375564575195,0.50907301902771
1772650958382308000,3.34830810546875,4.509274482727051,-5.765506267547607,0.16390834748744965
1772650958392185600,3.358185546875,4.526023864746094,-5.715256690979004,0.15613168478012085
1772650958402063000,3.36806298828125,4.679762840270996,-5.641677379608154,0.5599204897880554
1772650958411940400,3.3779404296875,5.1218366622924805,-5.493920803070068,1.1569297313690186
1772650958421817900,3.38781787109375,5.755336761474609,-5.247459888458252,1.9573289155960083
1772650958431681500,3.397681640625,6.424130439758301,-5.0943193435668945,2.565704107284546
1772650958441572600,3.407572509765625,7.2436723709106445,-5.032105922698975,2.7672994136810303
1772650958451449900,3.417449951171875,7.974679470062256,-5.101497650146484,2.6769702434539795
1772650958461313500,3.4273134765625,8.392227172851562,-5.240880012512207,2.3814568519592285
1772650958471204900,3.437204833984375,8.562117576599121,-5.347360610961914,1.9004993438720703
1772650958481082000,3.44708203125,8.508877754211426,-5.48375129699707,1.3920245170593262
1772650958490959600,3.456959716796875,8.367700576782227,-5.589035511016846,0.8835497498512268
1772650958500836900,3.4668369140625,8.26241683959961,-5.665007591247559,0.4414757788181305
1772650958510714400,3.47671435546875,8.158329010009766,-5.624329566955566,0.03170489892363548
1772650958520578000,3.486578125,7.937591075897217,-5.578866004943848,-0.3655036687850952
1772650958530469000,3.49646923828125,7.665407180786133,-5.630311489105225,-0.7076773047447205
1772650958540346600,3.5063466796875,7.366304397583008,-5.669793128967285,-0.9583254456520081
1772650958550224000,3.516223876953125,7.127620220184326,-5.570491313934326,-0.9631111025810242
1772650958560101400,3.526101318359375,6.973881721496582,-5.346164226531982,-0.6430711150169373
1772650958569978600,3.535978515625,6.890132904052734,-5.045266628265381,-0.05503492057323456
1772650958579856100,3.545856201171875,6.902096748352051,-4.766502857208252,0.6640082597732544
1772650958589733600,3.555733642578125,7.098308563232422,-4.534399032592773,1.4470595121383667
1772650958599611000,3.56561083984375,7.435098171234131,-4.23649263381958,2.26959228515625
1772650958609474600,3.575474609375,7.95553731918335,-3.9224345684051514,3.005983352661133
1772650958619365600,3.58536572265625,8.521439552307129,-3.6747772693634033,3.5611183643341064
1772650958629243100,3.5952431640625,8.965906143188477,-3.576671600341797,3.8781673908233643
1772650958639120400,3.605120361328125,9.133403778076172,-3.665804386138916,3.6945180892944336
1772650958648998000,3.614997802734375,9.083154678344727,-3.914059638977051,3.1992039680480957
1772650958658875400,3.62487548828125,8.94556713104248,-4.280759811401367,2.6051857471466064
1772650958668752600,3.634752685546875,8.883952140808105,-4.6408796310424805,2.049452543258667
1772650958678630100,3.644630126953125,8.944371223449707,-4.948955535888672,1.5278172492980957
1772650958688507400,3.65450732421875,9.090332984924316,-5.251049518585205,1.0636097192764282
1772650958698385000,3.664385009765625,9.31047248840332,-5.502893924713135,0.7794619798660278
1772650958708262100,3.67426220703125,9.474979400634766,-6.03110933303833,0.6149554252624512
1772650958718139600,3.6841396484375,9.662816047668457,-6.723233222961426,0.9882357716560364
1772650958728003300,3.69400341796875,9.745966911315918,-7.6600236892700195,1.6145570278167725
1772650958737894400,3.703894287109375,9.876974105834961,-8.641678810119629,1.6528422832489014
1772650958747772000,3.71377197265625,10.128219604492188,-9.545567512512207,1.2843475341796875
1772650958757635600,3.723635498046875,10.14736270904541,-10.232307434082031,1.0863415002822876
1772650958767526700,3.733526611328125,10.103693962097168,-10.572088241577148,1.2592228651046753
1772650958777404000,3.74340380859375,9.871589660644531,-10.414162635803223,1.1300104856491089
1772650958787281400,3.753281494140625,9.489934921264648,-10.163514137268066,0.7519445419311523
1772650958797159000,3.763158935546875,9.428318977355957,-10.042078018188477,0.03888336941599846
1772650958807036200,3.7730361328125,9.57787036895752,-9.497113227844238,-0.729810893535614
1772650958816899800,3.78289990234375,9.290732383728027,-8.353941917419434,-1.0163514614105225
1772650958826791000,3.792791015625,8.505288124084473,-7.131209850311279,-0.5617151260375977
1772650958836668400,3.80266845703125,7.097710132598877,-6.27996301651001,-0.2793620526790619
1772650958846532000,3.812531982421875,5.367101192474365,-5.888138294219971,-0.3074777126312256
1772650958856423200,3.822423095703125,3.730410575866699,-5.810969829559326,-0.34995031356811523
1772650958866300700,3.83230078125,2.4717857837677,-6.010770320892334,-0.753140926361084
1772650958876164400,3.842164306640625,1.5906288623809814,-6.288337707519531,-1.2735798358917236
1772650958886055400,3.852055419921875,0.9996016621589661,-6.636493682861328,-1.534995675086975
1772650958895932700,3.8619326171875,1.0755738019943237,-7.0959153175354,-1.48055899143219
1772650958905796400,3.87179638671875,1.521835207939148,-7.384250640869141,-1.1024930477142334
1772650958915687700,3.881687744140625,2.2989044189453125,-7.421339511871338,-0.5210371017456055
1772650958925565000,3.89156494140625,3.3242287635803223,-7.39980411529541,0.11306086927652359
1772650958935428600,3.9014287109375,4.646861553192139,-7.442874908447266,0.8093722462654114
1772650958945319700,3.911319580078125,6.160920143127441,-7.725826263427734,1.6145570278167725
1772650958955197200,3.921197265625,7.800003528594971,-8.031509399414062,2.4047868251800537
1772650958965060900,3.931060791015625,9.400801658630371,-8.048856735229492,2.968296527862549
1772650958974952000,3.940951904296875,10.802995681762695,-7.881359577178955,3.239881753921509
1772650958984829400,3.950829345703125,11.762517929077148,-7.793423175811768,3.0831520557403564
1772650958994692900,3.96069287109375,12.091530799865723,-7.816753387451172,2.4580271244049072
1772650959004584200,3.970584228515625,11.56152057647705,-7.7838521003723145,1.5900306701660156
1772650959014461700,3.980461669921875,10.356136322021484,-7.8317084312438965,0.5539384484291077
1772650959024325000,3.9903251953125,8.901898384094238,-7.6600236892700195,-0.3433700501918793
1772650959034216400,4.000216552734375,7.431509017944336,-7.519444942474365,-1.1419745683670044
1772650959044093700,4.01009375,6.251847267150879,-7.4123663902282715,-1.6821542978286743
1772650959053957400,4.019957275390625,5.474180221557617,-7.097710132598877,-1.8735800981521606
1772650959063848400,4.029848388671875,4.980660438537598,-6.689733982086182,-1.8969101905822754
1772650959073726000,4.039725830078125,4.824528694152832,-6.431309223175049,-1.8203397989273071
1772650959083589600,4.049589599609375,4.90109920501709,-6.314659118652344,-1.583450436592102
1772650959093480700,4.059480712890625,5.169095039367676,-6.137589931488037,-1.1001001596450806
1772650959103358200,4.069358154296875,5.431109428405762,-5.888736724853516,-0.3529413342475891
1772650959113221600,4.0792216796875,5.704489231109619,-5.742774486541748,0.5377869009971619
1772650959123113000,4.089113037109375,5.875576019287109,-5.67039155960083,1.3680963516235352
1772650959132990200,4.098990234375,5.971288681030273,-5.484349727630615,2.0614166259765625
1772650959142854000,4.10885400390625,6.134000778198242,-5.352146148681641,2.6697919368743896
1772650959152745200,4.1187451171875,6.445067882537842,-5.30129861831665,3.122633457183838
1772650959162622500,4.12862255859375,6.808178424835205,-5.3353962898254395,3.145963668823242
1772650959172500000,4.1385,7.252047061920166,-5.389235019683838,2.8354947566986084
1772650959182377200,4.148377197265625,7.701299667358398,-5.5483574867248535,2.1990039348602295
1772650959192254700,4.158254638671875,8.118846893310547,-5.842076301574707,1.2281162738800049
1772650959202118400,4.168118408203125,8.617152214050293,-6.141179084777832,0.1423729509115219
1772650959212009500,4.178009521484375,9.011369705200195,-6.487540245056152,-0.8225327730178833
1772650959221887000,4.187886962890625,9.211769104003906,-6.73938512802124,-1.5643078088760376
1772650959231750700,4.197750732421875,9.380462646484375,-6.775875568389893,-1.9674984216690063
1772650959241641700,4.207641845703125,9.678369522094727,-6.594619274139404,-2.0584256649017334
1772650959251519000,4.21751904296875,9.896714210510254,-6.189035892486572,-1.8634105920791626
1772650959261396500,4.227396484375,9.985248565673828,-5.567500114440918,-1.5146567821502686
1772650959271274000,4.23727392578125,9.921838760375977,-4.993820667266846,-1.1389836072921753
1772650959281151200,4.247151123046875,9.638887405395508,-4.593023300170898,-0.7393822073936462
1772650959291028700,4.25702880859375,9.251250267028809,-4.377070903778076,-0.46360939741134644
1772650959300906000,4.266906005859375,8.768498420715332,-4.261617183685303,-0.3966103494167328
1772650959310783500,4.276783447265625,8.314460754394531,-4.3172502517700195,-0.6035895347595215
1772650959320660700,4.28666064453125,8.078168869018555,-4.483551502227783,-0.9158528447151184
1772650959330538200,4.296538330078125,8.011768341064453,-4.6749773025512695,-1.2352946996688843
1772650959340415700,4.306415771484375,8.081160545349121,-4.844269275665283,-1.5080764293670654
1772650959350293000,4.31629296875,8.297112464904785,-5.111667156219482,-1.6109678745269775
1772650959360170500,4.32617041015625,8.606983184814453,-5.432305812835693,-1.5535401105880737
1772650959370047700,4.3360478515625,8.82532787322998,-5.712265968322754,-1.48055899143219
1772650959379925200,4.34592529296875,8.96530818939209,-6.0879387855529785,-1.3866406679153442
1772650959389802800,4.355802734375,9.038887977600098,-6.452246189117432,-1.1186445951461792
1772650959399680000,4.365679931640625,8.916254997253418,-6.711867332458496,-0.7651050686836243
1772650959409557500,4.3755576171875,8.588438987731934,-6.811169624328613,-0.2961117923259735
1772650959419434800,4.385434814453125,8.273782730102539,-6.792026996612549,0.3128615617752075
1772650959429312300,4.395312255859375,7.995616912841797,-6.768697261810303,0.9373882412910461
1772650959439176000,4.405176025390625,7.671389579772949,-6.768697261810303,1.5176477432250977
1772650959449067000,4.41506689453125,7.351947784423828,-6.767500877380371,2.043470621109009
1772650959458944500,4.424944580078125,7.089933395385742,-6.734001159667969,2.4155545234680176
1772650959468808000,4.434807861328125,6.901498794555664,-6.675376892089844,2.627917528152466
1772650959478699300,4.44469921875,6.810571670532227,-6.686742782592773,2.7667012214660645
1772650959488576500,4.454576416015625,6.914061069488525,-6.7076802253723145,2.7804598808288574
1772650959498454000,4.4644541015625,7.130611419677734,-6.666403770446777,2.7487549781799316
1772650959508331300,4.474331298828125,7.368697166442871,-6.6215386390686035,2.6111676692962646
1772650959518208800,4.484208740234375,7.5050883293151855,-6.56829833984375,2.386242389678955
1772650959528086300,4.494086181640625,7.5565338134765625,-6.416952133178711,2.1750757694244385
1772650959537963500,4.503963623046875,7.607979774475098,-6.203990936279297,1.9770697355270386
1772650959547841000,4.513841064453125,7.573283672332764,-6.013163089752197,1.7581263780593872
1772650959557718300,4.52371826171875,7.488936901092529,-5.887540340423584,1.4883357286453247
1772650959567595800,4.533595703125,7.332206726074219,-5.755336761474609,1.1563315391540527
1772650959577473000,4.54347314453125,7.03489875793457,-5.656632900238037,0.8105686902999878
1772650959587350500,4.5533505859375,6.647261142730713,-5.582455158233643,0.5210371017456055
1772650959597228000,4.56322802734375,6.211767673492432,-5.468796253204346,0.35473597049713135
1772650959607105300,4.573105224609375,5.807978630065918,-5.300102233886719,0.39421752095222473
1772650959616982800,4.582982666015625,5.5728840827941895,-5.111069202423096,0.5892325639724731
1772650959626860000,4.592860107421875,5.557928562164307,-4.871188640594482,0.9726824164390564
1772650959636737500,4.602737548828125,5.7750773429870605,-4.569693088531494,1.4931213855743408
1772650959646615000,4.612614990234375,6.197410583496094,-4.261617183685303,1.8813568353652954
1772650959656492300,4.6224921875,6.769893646240234,-4.0528435707092285,2.063211441040039
1772650959666369800,4.632369873046875,7.448258876800537,-3.946960926055908,2.14516544342041
1772650959676233500,4.6422333984375,8.087740898132324,-3.820141315460205,2.1678972244262695
1772650959686124500,4.65212451171875,8.675178527832031,-3.7884364128112793,2.000998020172119
1772650959696001800,4.662001708984375,9.169296264648438,-3.9631125926971436,1.4931213855743408
1772650959705865500,4.671865478515625,9.501898765563965,-4.382454872131348,0.664606511592865
1772650959715756800,4.6817568359375,9.70349407196045,-5.030311584472656,-0.3326023519039154
1772650959725634000,4.691634033203125,9.741779327392578,-5.97727108001709,-1.1545369625091553
1772650959735497700,4.701497802734375,9.627521514892578,-6.920042991638184,-1.6660027503967285
1772650959745389000,4.71138916015625,9.358927726745605,-7.670791149139404,-1.4530415534973145
1772650959755266300,4.721266357421875,8.998807907104492,-8.289336204528809,-1.1162517070770264
1772650959765130000,4.7311298828125,8.840283393859863,-8.433503150939941,-0.6520441770553589
1772650959775021000,4.74102099609375,8.908478736877441,-8.376673698425293,0.22851456701755524
1772650959784898600,4.750898681640625,9.167501449584961,-8.186444282531738,1.1647064685821533
1772650959794762000,4.760761962890625,9.531210899353027,-8.030911445617676,1.9956140518188477
1772650959804653300,4.7706533203125,9.634700775146484,-8.072187423706055,2.681756019592285
1772650959814530800,4.78053076171875,9.531210899353027,-8.187641143798828,3.129213809967041
1772650959824394200,4.790394287109375,9.129216194152832,-8.466404914855957,3.331407308578491
1772650959834285600,4.80028564453125,8.665607452392578,-8.944371223449707,3.4235310554504395
1772650959844162800,4.810162841796875,8.215158462524414,-9.205188751220703,3.5258240699768066
1772650959854040300,4.820040283203125,7.724629878997803,-9.080163955688477,3.3026933670043945
1772650959863917600,4.82991748046875,7.307680130004883,-8.924032211303711,2.868396043777466
1772650959873795000,4.839795166015625,6.795616149902344,-9.142376899719238,2.0955145359039307
1772650959883658800,4.84965869140625,6.293123722076416,-9.776474952697754,1.043868899345398
1772650959893549800,4.8595498046875,6.144768714904785,-10.036694526672363,0.32961133122444153
1772650959903427300,4.86942724609375,6.161518096923828,-10.243075370788574,-0.29730820655822754
1772650959913290800,4.879290771484375,6.4325056076049805,-10.086345672607422,-0.4498506486415863
1772650959923182000,4.88918212890625,6.798607349395752,-9.533005714416504,-0.14715859293937683
1772650959933059300,4.899059326171875,6.6969122886657715,-8.958727836608887,0.3595215976238251
1772650959942936800,4.908936767578125,6.068198204040527,-8.597412109375,0.9918249845504761
1772650959952814300,4.918814453125,5.218746185302734,-8.37846851348877,1.8077775239944458
1772650959962691600,4.928691650390625,4.417150497436523,-8.252246856689453,2.8773691654205322
1772650959972555300,4.93855517578125,3.7334015369415283,-8.068597793579102,4.183252334594727
1772650959982446300,4.9484462890625,3.153141975402832,-7.7491559982299805,5.367101192474365
1772650959992323800,4.95832373046875,2.7212376594543457,-7.481758117675781,6.083153247833252
1772650960002187500,4.9681875,2.589632272720337,-7.29810905456543,6.38165807723999
1772650960012078600,4.97807861328125,2.782254457473755,-7.170093059539795,6.244070529937744
1772650960021956000,4.9879560546875,3.1824541091918945,-7.150352478027344,5.646463394165039
1772650960031833300,4.997833251953125,3.666402578353882,-7.189833641052246,4.837090969085693
1772650960041710800,5.0077109375,4.092324733734131,-7.145566463470459,4.044468402862549
1772650960051588000,5.017588134765625,4.467400074005127,-6.970292568206787,3.202194929122925
1772650960061451800,5.02745166015625,4.866403102874756,-6.743572235107422,2.338385820388794
1772650960071343000,5.037343017578125,5.162514686584473,-6.604788780212402,1.511067509651184
1772650960081220400,5.047220458984375,5.26181697845459,-6.6454668045043945,0.6538388133049011
1772650960091084000,5.057083984375,5.251647472381592,-6.850651264190674,-0.16869398951530457
1772650960100975000,5.06697509765625,5.2181477546691895,-7.112665176391602,-0.8117650747299194
1772650960110852600,5.0768525390625,5.321039199829102,-7.22452974319458,-1.134796142578125
1772650960120716300,5.08671630859375,5.587839126586914,-7.070192813873291,-1.0516455173492432
1772650960130607400,5.096607421875,6.060421466827393,-6.819544315338135,-0.6705885529518127
1772650960140484900,5.10648486328125,6.55992317199707,-6.636493682861328,-0.21415762603282928
1772650960150348300,5.116348388671875,7.011568546295166,-6.544968128204346,0.21954147517681122
1772650960160239600,5.126239501953125,7.34177827835083,-6.561717987060547,0.5688936114311218
1772650960170116900,5.136116943359375,7.585845947265625,-6.628716945648193,0.7806583642959595
1772650960179994400,5.145994384765625,7.76052188873291,-6.63769006729126,0.9541380405426025
1772650960189871600,5.15587158203125,7.8819580078125,-6.591628074645996,1.0480563640594482
1772650960199749000,5.1657490234375,7.95134973526001,-6.596413612365723,1.0001999139785767
1772650960209626600,5.175626708984375,7.901698589324951,-6.656832695007324,0.9439685344696045
1772650960219503900,5.18550390625,7.634300708770752,-6.667002201080322,0.9828519225120544
1772650960229381400,5.19538134765625,7.201797962188721,-6.646064758300781,1.0917253494262695
1772650960239258600,5.205258544921875,6.81296443939209,-6.643074035644531,1.2699905633926392
1772650960249136000,5.21513623046875,6.480959892272949,-6.527620315551758,1.5487544536590576
1772650960259013600,5.225013671875,6.232106685638428,-6.324828624725342,1.8711873292922974
1772650960268891000,5.234890869140625,6.113063812255859,-6.234499454498291,2.1643080711364746
1772650960278768400,5.244768310546875,6.1328043937683105,-6.259026050567627,2.3503501415252686
1772650960288645600,5.254645751953125,6.2327046394348145,-6.238687038421631,2.4185454845428467
1772650960298523100,5.264523193359375,6.369095802307129,-6.154938220977783,2.4053850173950195
1772650960308400400,5.274400390625,6.485147476196289,-6.105885028839111,2.273181438446045
1772650960318278000,5.28427783203125,6.537191390991211,-6.127420425415039,2.001596212387085
1772650960328155400,5.2941552734375,6.479763507843018,-6.211767673492432,1.6360924243927002
1772650960338032600,5.30403271484375,6.369693756103516,-6.289534091949463,1.3058829307556152
1772650960347910100,5.31391015625,6.208776473999023,-6.235097408294678,1.0462616682052612
1772650960357787400,5.323787353515625,6.108277797698975,-6.100501537322998,0.9236295223236084
1772650960367665000,5.333664794921875,6.119643688201904,-5.9784674644470215,0.9936196208000183
1772650960377542100,5.343542236328125,6.164509296417236,-5.804389476776123,1.158724308013916
1772650960387419600,5.353419677734375,6.140581130981445,-5.675177097320557,1.2693923711776733
1772650960397297200,5.363297119140625,6.10468864440918,-5.708078384399414,1.3076776266098022
1772650960407174400,5.37317431640625,6.09332275390625,-5.812166213989258,1.3854442834854126
1772650960417052000,5.383052001953125,6.057430744171143,-5.8337016105651855,1.4333007335662842
1772650960426929200,5.39292919921875,6.0197434425354,-5.870790481567383,1.5032907724380493
1772650960436806700,5.402806640625,6.001199245452881,-5.914459228515625,1.7228323221206665
1772650960446684200,5.41268408203125,6.030511379241943,-5.8851470947265625,2.0368902683258057
1772650960456561400,5.4225615234375,6.185446739196777,-5.873183250427246,2.26959228515625
1772650960466439000,5.43243896484375,6.358327865600586,-5.8923258781433105,2.4598217010498047
1772650960476316200,5.442316162109375,6.5491557121276855,-5.921638011932373,2.5501506328582764
1772650960486193700,5.452193603515625,6.704689025878906,-5.952744483947754,2.4807589054107666
1772650960496071000,5.46207080078125,6.80458927154541,-5.97727108001709,2.3802602291107178
1772650960505948400,5.471948486328125,6.893123626708984,-5.92223596572876,2.355733871459961
1772650960515826000,5.481825927734375,6.942774772644043,-5.795416355133057,2.3641088008880615
1772650960525703200,5.491703125,6.911069869995117,-5.618945598602295,2.4023938179016113
1772650960535580700,5.50158056640625,6.7932233810424805,-5.484349727630615,2.504088878631592
1772650960545458000,5.5114580078125,6.668796539306641,-5.335994720458984,2.6362924575805664
1772650960555335400,5.52133544921875,6.530013084411621,-5.164309501647949,2.6494529247283936
1772650960565212700,5.531212646484375,6.436094760894775,-4.967499732971191,2.6021945476531982
1772650960575090200,5.541090087890625,6.387042045593262,-4.812564373016357,2.5746772289276123
1772650960584967400,5.550967529296875,6.355935096740723,-4.693521499633789,2.5501506328582764
1772650960594845000,5.560844970703125,6.369693756103516,-4.589433670043945,2.4370899200439453
1772650960604722400,5.570722412109375,6.430710792541504,-4.512863636016846,2.245664119720459
1772650960614599700,5.580599609375,6.378068923950195,-4.502694129943848,2.0476579666137695
1772650960624477200,5.590477294921875,6.193821430206299,-4.579264163970947,1.8251254558563232
1772650960634354400,5.6003544921875,5.955137252807617,-4.789234638214111,1.4207384586334229
1772650960644232000,5.61023193359375,5.657230854034424,-5.111069202423096,1.0079765319824219
1772650960654109200,5.620109130859375,5.498706340789795,-5.396413326263428,0.9828519225120544
1772650960663986700,5.629986572265625,5.485546112060547,-5.647659778594971,1.1264212131500244
1772650960673864200,5.6398642578125,5.429912567138672,-5.997011661529541,1.3280165195465088
1772650960683741400,5.649741455078125,5.341378211975098,-6.308676719665527,1.9028922319412231
1772650960693619000,5.659618896484375,5.550750255584717,-6.534200668334961,2.4741785526275635
1772650960703496200,5.66949609375,6.273382663726807,-6.733402729034424,2.606980323791504
1772650960713360000,5.67935986328125,7.143173694610596,-7.073781967163086,2.042274236679077
1772650960723251000,5.6892509765625,7.898707389831543,-7.69531774520874,1.059422254562378
1772650960733128400,5.69912841796875,8.73918628692627,-8.47178840637207,0.0729810893535614
1772650960742992100,5.7089921875,9.642477035522461,-8.994022369384766,-0.7567301392555237
1772650960752883200,5.71888330078125,10.6025972366333,-9.33440113067627,-1.5690934658050537
1772650960762760700,5.7287607421875,11.434103012084961,-9.68375301361084,-2.3048863410949707
1772650960772624400,5.738624267578125,11.790035247802734,-9.972686767578125,-2.946761131286621
1772650960782515500,5.748515380859375,11.880962371826172,-10.04865837097168,-3.218346357345581
1772650960792393000,5.75839306640625,11.307881355285645,-9.733404159545898,-3.4408788681030273
1772650960802270200,5.768270263671875,10.384251594543457,-9.245268821716309,-3.449253797531128
1772650960812147700,5.778147705078125,9.389435768127441,-8.82532787322998,-3.252444267272949
1772650960822025000,5.78802490234375,8.555537223815918,-8.642276763916016,-3.0580272674560547
1772650960831888600,5.797888671875,7.773682594299316,-8.4771728515625,-2.9186453819274902
1772650960841779700,5.80777978515625,7.157530784606934,-8.26660442352295,-2.5704896450042725
1772650960851657200,5.8176572265625,6.978068828582764,-7.960322856903076,-1.9130617380142212
1772650960861521000,5.82752099609375,7.199405193328857,-7.555935859680176,-1.090528964996338
1772650960871412000,5.837411865234375,7.6630144119262695,-7.200003147125244,-0.4007977843284607
1772650960881289500,5.84728955078125,8.118846893310547,-6.9583282470703125,-0.030508488416671753
1772650960891166700,5.857166748046875,8.383254051208496,-6.815357208251953,0.0933200865983963
1772650960901044200,5.867044189453125,8.376075744628906,-6.781259536743164,-0.0975075215101242
1772650960910921500,5.87692138671875,8.014759063720703,-6.714260101318359,-0.4259224236011505
1772650960920799000,5.886799072265625,7.409375190734863,-6.628716945648193,-0.7178468108177185
1772650960930676500,5.896676513671875,6.713662147521973,-6.576074600219727,-0.9296116232872009
1772650960940553700,5.9065537109375,5.955735683441162,-6.452844619750977,-0.99481600522995
1772650960950417400,5.91641748046875,5.493920803070068,-6.247061729431152,-0.9672985672950745
1772650960960308500,5.92630859375,5.2354960441589355,-6.092126369476318,-0.8745766878128052
1772650960970186000,5.93618603515625,5.111069202423096,-5.934200286865234,-0.7495517134666443
1772650960980063200,5.946063232421875,5.14157772064209,-5.761318683624268,-0.4342973232269287
1772650960989940700,5.955940673828125,5.449055194854736,-5.32821798324585,0.11246266216039658
1772650960999818200,5.965818359375,5.660222053527832,-4.974678039550781,0.31106695532798767
1772650961009695500,5.975695556640625,5.650650501251221,-5.643472194671631,-0.02512463741004467
1772650961019573000,5.985572998046875,5.946164131164551,-5.863013744354248,0.38344982266426086
1772650961029450200,5.9954501953125,6.011966705322266,-6.061617851257324,0.5521438121795654
1772650961039327700,6.00532763671875,6.402595043182373,-6.308676719665527,0.9696913957595825
1772650961049205000,6.015205078125,6.877570629119873,-6.656832695007324,1.3148560523986816
1772650961059082500,6.02508251953125,7.665407180786133,-7.05344295501709,1.7473586797714233
1772650961068946200,6.0349462890625,8.312665939331055,-7.363313674926758,2.2671995162963867
1772650961078837200,6.044837158203125,8.925827026367188,-7.596015453338623,2.6608188152313232
1772650961088714800,6.05471484375,9.297910690307617,-7.974081516265869,2.8797619342803955
1772650961098592000,6.064592041015625,9.34277629852295,-8.387441635131836,2.7553353309631348
1772650961108469500,6.074469482421875,9.30329418182373,-8.205587387084961,2.5770699977874756
1772650961118346800,6.0843466796875,9.131608963012695,-7.836493968963623,2.076371908187866
1772650961128224300,6.094224365234375,8.714061737060547,-7.704290866851807,1.2969099283218384
1772650961138101800,6.104101806640625,8.000402450561523,-7.668398380279541,0.3535395562648773
1772650961147979000,6.11397900390625,7.155735969543457,-7.672585964202881,-0.5204389095306396
1772650961157842700,6.1238427734375,6.335596084594727,-7.661220073699951,-1.2604193687438965
1772650961167733800,6.133733642578125,5.672185897827148,-7.564310550689697,-1.8837496042251587
1772650961177611300,6.143611328125,5.2145586013793945,-7.350152969360352,-2.2983062267303467
1772650961187475000,6.153474853515625,5.08355188369751,-6.9756760597229,-2.5022943019866943
1772650961197366000,6.163365966796875,5.19242525100708,-6.649653911590576,-2.5561327934265137
1772650961207243500,6.173243408203125,5.492125988006592,-6.318846225738525,-2.286342144012451
1772650961217120800,6.183120849609375,5.956932067871094,-5.983253002166748,-1.7934205532073975
1772650961226998300,6.192998291015625,6.437291145324707,-5.641677379608154,-1.1359925270080566
1772650961236875500,6.20287548828125,6.872186660766602,-5.455037593841553,-0.486939400434494
1772650961246753000,6.2127529296875,7.321439266204834,-5.343770980834961,0.013160524889826775
1772650961256630300,6.22263037109375,7.782057285308838,-5.210371494293213,0.28654050827026367
1772650961266507800,6.2325078125,8.083553314208984,-5.158327579498291,0.37507495284080505
1772650961276385300,6.24238525390625,8.264809608459473,-5.19242525100708,0.22013968229293823
1772650961286262500,6.252262451171875,8.274380683898926,-5.416153907775879,-0.2183450609445572
1772650961296140000,6.26214013671875,8.150551795959473,-5.654240131378174,-0.6681957244873047
1772650961306017300,6.272017333984375,7.95434045791626,-5.846862316131592,-1.0301101207733154
1772650961315894800,6.281894775390625,7.823931694030762,-6.09033203125,-1.210768222808838
1772650961325772000,6.29177197265625,7.81555700302124,-6.3254265785217285,-1.1126625537872314
1772650961335649500,6.3016494140625,7.944769382476807,-6.15134859085083,-0.6317051649093628
1772650961345526800,6.31152685546875,8.204988479614258,-5.84147834777832,-0.04007977992296219
1772650961355404300,6.321404296875,8.46760082244873,-5.714060306549072,0.46779683232307434
1772650961365281800,6.33128173828125,8.702695846557617,-5.6931233406066895,0.857228696346283
1772650961375159000,6.341158935546875,8.915059089660645,-5.618347644805908,1.103689432144165
1772650961385036500,6.35103662109375,9.127422332763672,-5.545366287231445,1.168893814086914
1772650961394913800,6.360913818359375,9.275776863098145,-5.637490272521973,0.9690931439399719
1772650961404791300,6.370791259765625,9.33559799194336,-5.819344520568848,0.5988038778305054
1772650961414668500,6.38066845703125,9.283554077148438,-6.062216281890869,0.1704886108636856
1772650961424546000,6.390546142578125,9.145368576049805,-6.304489612579346,-0.16749759018421173
1772650961434423600,6.400423583984375,9.009575843811035,-6.514459609985352,-0.381655216217041
1772650961444300800,6.41030078125,9.005388259887695,-6.796812534332275,-0.7028916478157043
1772650961454178300,6.42017822265625,9.055039405822754,-7.41834831237793,-1.1258230209350586
1772650961464055600,6.4300556640625,8.776275634765625,-8.350353240966797,-1.4578272104263306
1772650961473933000,6.43993310546875,8.170890808105469,-9.193822860717773,-1.6498512029647827
1772650961483796700,6.449796630859375,7.730611801147461,-9.589237213134766,-1.420140266418457
1772650961493687800,6.459687744140625,7.774878978729248,-9.544371604919434,-0.6532405614852905
1772650961503565300,6.4695654296875,8.068597793579102,-9.319445610046387,0.05563312768936157
1772650961513442600,6.479442626953125,8.545966148376465,-9.110074043273926,0.27337998151779175
1772650961523320000,6.489320068359375,9.027522087097168,-8.975478172302246,-0.03469592705368996
1772650961533197300,6.499197265625,9.298508644104004,-8.970093727111816,-0.6125625967979431
1772650961543074800,6.50907470703125,9.10229778289795,-9.093324661254883,-1.2131611108779907
1772650961552952000,6.5189521484375,8.359326362609863,-9.214759826660156,-1.6498512029647827
1772650961562829600,6.52882958984375,7.439883708953857,-9.161520004272461,-1.7545372247695923
1772650961572693200,6.538693359375,6.538387775421143,-8.897710800170898,-1.439282774925232
1772650961582584300,6.548584228515625,5.720640659332275,-8.420941352844238,-0.6358926296234131
1772650961592461800,6.5584619140625,4.965106964111328,-7.818548202514648,0.3278166949748993
1772650961602325500,6.568325439453125,4.076173305511475,-7.216753005981445,1.5140584707260132
1772650961612216600,6.578216552734375,3.301496982574463,-6.599404811859131,2.80977201461792
1772650961622093800,6.58809375,2.8773691654205322,-5.785246849060059,4.058825492858887
1772650961631957500,6.59795751953125,2.568695068359375,-5.0602216720581055,5.193621635437012
1772650961641848800,6.607848876953125,2.290529489517212,-4.694717884063721,5.819942951202393
1772650961651726000,6.61772607421875,2.1062822341918945,-4.6169514656066895,5.800800323486328
1772650961661603600,6.627603515625,2.0303099155426025,-4.823930263519287,5.1840500831604
1772650961671480800,6.637480712890625,2.2785654067993164,-5.244469165802002,4.226921081542969
1772650961681358300,6.6473583984375,2.929413080215454,-5.817550182342529,3.108276605606079
1772650961691222000,6.657221923828125,3.946960926055908,-6.358926296234131,1.944766640663147
1772650961701113000,6.667113037109375,5.033900737762451,-6.766902446746826,0.9768698215484619
1772650961710990600,6.676990478515625,6.096313953399658,-7.107281684875488,0.12622138857841492
1772650961720854000,6.68685400390625,7.032505512237549,-7.313064098358154,-0.5234299302101135
1772650961730745300,6.696745361328125,7.696514129638672,-7.478767395019531,-0.9744769930839539
1772650961740622600,6.70662255859375,8.131409645080566,-7.584051132202148,-1.1365907192230225
1772650961750486300,6.716486328125,8.442476272583008,-7.710272789001465,-0.9535398483276367
1772650961760377300,6.72637744140625,8.660821914672852,-7.772486209869385,-0.5916253924369812
1772650961770254800,6.7362548828125,8.715856552124023,-7.634898662567139,-0.15732808411121368
1772650961780132000,6.746132080078125,8.897710800170898,-7.488936901092529,0.3074777126312256
1772650961790009600,6.756009521484375,9.028717994689941,-7.380063056945801,0.6849454641342163
1772650961799887000,6.76588720703125,9.09392261505127,-7.22871732711792,0.9882357716560364
1772650961809764400,6.775764404296875,8.83071231842041,-7.101299285888672,1.2287144660949707
1772650961819641900,6.785641845703125,8.834300994873047,-6.7794647216796875,1.4327025413513184
1772650961829519000,6.79551904296875,8.621339797973633,-6.565307140350342,1.5050854682922363
1772650961839396600,6.805396728515625,8.283353805541992,-6.3732829093933105,1.4901303052902222
1772650961849273900,6.81527392578125,7.8765740394592285,-6.234499454498291,1.4333007335662842
1772650961859151400,6.8251513671875,7.3914289474487305,-6.077171325683594,1.3639088869094849
1772650961869028900,6.83502880859375,6.98704195022583,-5.902495384216309,1.3519448041915894
1772650961878906000,6.844906005859375,6.677769660949707,-5.72422981262207,1.4009976387023926
1772650961888783600,6.85478369140625,6.4695940017700195,-5.550750255584717,1.4333007335662842
1772650961898660900,6.864660888671875,6.327819347381592,-5.372485160827637,1.4177473783493042
1772650961908538400,6.874538330078125,6.199803352355957,-5.173282623291016,1.3495519161224365
1772650961918415600,6.88441552734375,6.148955821990967,-4.963312149047852,1.3716856241226196
1772650961928293000,6.894293212890625,6.184250354766846,-4.800600528717041,1.3770694732666016
1772650961938170400,6.90417041015625,6.272186279296875,-4.681557655334473,1.2993026971817017
1772650961948048000,6.9140478515625,6.424728870391846,-4.709074974060059,1.098903775215149
1772650961957925400,6.92392529296875,6.603592395782471,-4.770689964294434,0.8913264274597168
1772650961967802600,6.933802734375,6.747161865234375,-4.855037212371826,0.7178468108177185
1772650961977680100,6.94368017578125,6.864409923553467,-4.962714195251465,0.6113662123680115
1772650961987557400,6.953557373046875,6.965506553649902,-5.096712112426758,0.527019202709198
1772650961997435000,6.963434814453125,7.149155616760254,-5.14875602722168,0.49591249227523804
1772650962007312400,6.9733125,7.371089935302734,-5.111667156219482,0.5515456199645996
1772650962017189600,6.983189697265625,7.590631484985352,-5.000401020050049,0.6305087804794312
1772650962027067100,6.993067138671875,7.740781307220459,-4.893920421600342,0.7357929348945618
1772650962036944400,7.0029443359375,7.840681552886963,-4.777270317077637,0.9296116232872009
1772650962046822000,7.01282177734375,7.917252063751221,-4.695914268493652,1.186241865158081
1772650962056699100,7.02269921875,8.037490844726562,-4.667200565338135,1.404586911201477
1772650962066582500,7.03258251953125,8.142775535583496,-4.634897232055664,1.4991034269332886
1772650962076461000,7.0424609375,8.149953842163086,-4.769493579864502,1.4171491861343384
1772650962086338600,7.052338623046875,8.139185905456543,-4.953741073608398,1.319043517112732
1772650962096215800,7.0622158203125,8.151748657226562,-5.139782905578613,1.3471591472625732
1772650962106093300,7.07209326171875,8.026723861694336,-5.552545070648193,1.3399807214736938
1772650962115970600,7.081970458984375,8.038687705993652,-6.011966705322266,1.4446666240692139
1772650962125848000,7.09184814453125,8.345566749572754,-6.27996301651001,1.784447431564331
1772650962135725300,7.101725341796875,8.776873588562012,-6.38584566116333,2.224726915359497
1772650962145602800,7.111602783203125,9.169894218444824,-6.500700950622559,2.5842485427856445
1772650962155480300,7.121480224609375,9.44626522064209,-6.816553592681885,2.8414769172668457
1772650962165343700,7.13134375,9.550951957702637,-7.385447025299072,2.9419753551483154
1772650962175235000,7.141235107421875,9.456435203552246,-8.077570915222168,2.973680257797241
1772650962185112300,7.1511123046875,9.276973724365234,-8.397610664367676,3.2177481651306152
1772650962194976000,7.16097607421875,9.06999397277832,-8.711071014404297,3.493520975112915
1772650962204867000,7.1708671875,9.45464038848877,-8.513663291931152,3.9930226802825928
1772650962214744600,7.18074462890625,9.829715728759766,-8.451449394226074,3.871587038040161
1772650962224621800,7.190621826171875,10.357931137084961,-7.769495010375977,3.1214370727539062
1772650962234499300,7.200499267578125,10.415956497192383,-7.216753005981445,1.755733609199524
1772650962244376800,7.210376953125,9.853045463562012,-7.504489898681641,0.25423741340637207
1772650962254240300,7.220240234375,8.935996055603027,-8.036294937133789,-1.0929217338562012
1772650962264131600,7.230131591796875,7.908876895904541,-8.418548583984375,-2.052443504333496
1772650962274008800,7.2400087890625,7.079165935516357,-8.519644737243652,-2.803191661834717
1772650962283872500,7.24987255859375,6.4564337730407715,-8.328817367553711,-3.3104701042175293
1772650962293763600,7.259763671875,6.071787357330322,-7.92861795425415,-3.518047571182251
1772650962303641000,7.26964111328125,5.905486106872559,-7.326822757720947,-3.3308091163635254
1772650962313504800,7.2795048828125,6.024528980255127,-6.550352096557617,-2.802593469619751
1772650962323395800,7.289395751953125,6.16391134262085,-5.918646812438965,-2.362314224243164
1772650962333273300,7.2992734375,6.138786315917969,-5.602794170379639,-2.239083766937256
1772650962343150600,7.309150634765625,5.966503143310547,-5.557928562164307,-2.23848557472229
1772650962353028000,7.319028076171875,5.6584272384643555,-5.532804012298584,-2.2307088375091553
1772650962362905300,7.3289052734375,5.197210788726807,-5.471786975860596,-2.152942180633545
1772650962372782800,7.338782958984375,4.727021217346191,-5.427519798278809,-2.0303099155426025
1772650962382660000,7.34866015625,4.480560302734375,-5.291727066040039,-1.7569299936294556
1772650962392537600,7.35853759765625,4.466203689575195,-5.0949177742004395,-1.3250255584716797
1772650962402415000,7.3684150390625,4.700700283050537,-5.029115200042725,-0.7932206988334656
1772650962412292400,7.378292236328125,4.983651161193848,-5.132604598999023,-0.24526432156562805
1772650962422169900,7.388169921875,5.3748779296875,-5.230710506439209,0.3643072545528412
1772650962432033300,7.398033203125,5.858826160430908,-5.443073272705078,0.9104689955711365
1772650962441924600,7.407924560546875,6.332006931304932,-5.754140377044678,1.378864049911499
1772650962451801900,7.4178017578125,6.835097789764404,-6.193821430206299,1.6271194219589233
1772650962461665500,7.42766552734375,7.400402069091797,-6.5491557121276855,1.6618152856826782
1772650962471556600,7.437556640625,7.984251022338867,-6.80458927154541,1.3836497068405151
1772650962481434000,7.44743408203125,8.427521705627441,-6.842874526977539,0.9272187948226929
1772650962491297800,7.4572978515625,8.708678245544434,-6.74656343460083,0.4103690981864929
1772650962501188900,7.46718896484375,8.812167167663574,-6.600003242492676,-0.010767702013254166
1772650962511066400,7.47706640625,8.787641525268555,-6.5874409675598145,-0.42771705985069275
1772650962520943600,7.486943603515625,8.650053977966309,-7.079763889312744,-0.9942178130149841
1772650962530821000,7.496821044921875,8.577073097229004,-7.351947784423828,-1.2675977945327759
1772650962540698600,7.50669873046875,8.368298530578613,-7.246065139770508,-1.2915260791778564
1772650962550575900,7.516575927734375,8.11824893951416,-6.690331935882568,-0.9744769930839539
1772650962560453400,7.526453369140625,7.774878978729248,-6.098108291625977,-0.5072783827781677
1772650962570330600,7.53633056640625,7.482954502105713,-5.737390518188477,-0.05503492057323456
1772650962580208000,7.5462080078125,7.277172088623047,-5.519643783569336,0.3080759048461914
1772650962590085400,7.55608544921875,7.124031066894531,-5.44426965713501,0.5365904569625854
1772650962599963000,7.565962890625,6.952944278717041,-5.515456199645996,0.6454638838768005
1772650962609840000,7.575840087890625,6.893722057342529,-5.6925249099731445,0.625723123550415
1772650962619717600,7.585717529296875,6.9068827629089355,-5.891129493713379,0.5467599630355835
1772650962629595100,7.59559521484375,7.098308563232422,-6.031707763671875,0.511465847492218
1772650962639472400,7.605472412109375,7.468597888946533,-6.059225082397461,0.4989035129547119
1772650962649350000,7.615349853515625,7.952546119689941,-5.925825119018555,0.5102694034576416
1772650962659227100,7.62522705078125,8.503493309020996,-5.737390518188477,0.5084748268127441
1772650962669104600,7.635104736328125,8.95394229888916,-5.492724418640137,0.4660021960735321
1772650962678982000,7.64498193359375,9.249456405639648,-5.277968406677246,0.40797626972198486
1772650962688859400,7.654859375,8.992227554321289,-5.003392219543457,0.275174617767334
1772650962698736600,7.664736572265625,8.425128936767578,-4.722833633422852,0.10289137065410614
1772650962708614100,7.6746142578125,7.9657063484191895,-4.5816569328308105,-0.14476576447486877
1772650962718491600,7.68449169921875,7.6049885749816895,-4.661816596984863,-0.4091726839542389
1772650962728369000,7.694368896484375,7.327421188354492,-4.803591251373291,-0.6664010882377625
1772650962738246400,7.704246337890625,7.196413993835449,-4.892126083374023,-0.8488538265228271
1772650962748123600,7.71412353515625,7.4261250495910645,-5.011168956756592,-0.9511470198631287
1772650962758001200,7.724001220703125,7.429714202880859,-5.244469165802002,-0.9080761671066284
1772650962767878400,7.73387841796875,7.6839518547058105,-5.533402442932129,-0.7776673436164856
1772650962777756000,7.743755859375,7.971090316772461,-5.496313571929932,-0.4977070987224579
1772650962787633200,7.753633056640625,8.23848819732666,-5.382654666900635,-0.19262222945690155
1772650962797510700,7.7635107421875,8.389236450195312,-5.336592674255371,0.10229317098855972
1772650962807388000,7.773387939453125,8.571090698242188,-5.316253662109375,0.35114672780036926
1772650962817265400,7.783265380859375,8.788837432861328,-5.323431968688965,0.5868397355079651
1772650962827143000,7.793142822265625,9.018548965454102,-5.409573554992676,0.7028916478157043
1772650962837020200,7.803020263671875,9.160323143005371,-5.523232936859131,0.7369893789291382
1772650962846897700,7.812897705078125,9.151350021362305,-5.651846885681152,0.7411768436431885
1772650962856775000,7.82277490234375,9.025128364562988,-5.749952793121338,0.7639086246490479
1772650962866652400,7.83265234375,8.862417221069336,-5.742176055908203,0.8763712644577026
1772650962876529700,7.84252978515625,8.400003433227539,-5.837889194488525,1.017547845840454
1772650962886407200,7.8524072265625,8.181060791015625,-6.084349632263184,1.0923235416412354
1772650962896284400,7.862284423828125,8.026723861694336,-6.174080848693848,1.2149556875228882
1772650962906162000,7.872161865234375,7.755138397216797,-6.427121639251709,1.0660024881362915
1772650962916039400,7.882039306640625,7.505686283111572,-6.700501441955566,1.0271191596984863
1772650962925916700,7.891916748046875,7.456633567810059,-6.936792850494385,1.0007981061935425
1772650962935794200,7.901794189453125,7.53559684753418,-7.040282249450684,1.1114661693572998
1772650962945671400,7.91167138671875,7.648059368133545,-6.865008354187012,1.4518451690673828
1772650962955549000,7.921548828125,7.8526458740234375,-6.5712890625,1.9513468742370605
1772650962965426200,7.93142626953125,8.115856170654297,-6.364908218383789,2.448455810546875
1772650962975303700,7.9413037109375,8.176873207092285,-6.570092678070068,2.705684185028076
1772650962985181000,7.951180908203125,8.032705307006836,-7.1162543296813965,2.5232315063476562
1772650962995058400,7.961058349609375,8.01655387878418,-7.854440212249756,2.1403799057006836
1772650963004936000,7.97093603515625,8.147561073303223,-8.572287559509277,1.815554141998291
1772650963014813200,7.980813232421875,8.306683540344238,-9.025727272033691,1.466800332069397
1772650963024690700,7.990690673828125,8.700303077697754,-9.043673515319824,1.191625714302063
1772650963034568000,8.00056787109375,9.478569030761719,-8.566305160522461,0.9481559991836548
1772650963044445400,8.010445556640626,10.37767219543457,-7.788039684295654,0.6197410821914673
1772650963054309000,8.02030908203125,10.785648345947266,-7.208378314971924,0
1772650963064200200,8.0302001953125,10.411170959472656,-7.179066181182861,-0.8398807644844055
1772650963074077400,8.040077392578125,9.522835731506348,-7.39980411529541,-1.4039887189865112
1772650963083941000,8.049941162109375,8.318648338317871,-7.475177764892578,-1.5966109037399292
1772650963093832400,8.05983251953125,7.014559745788574,-7.395018577575684,-1.4279168844223022
1772650963103709700,8.069709716796876,5.987440586090088,-7.11984395980835,-0.8859425783157349
1772650963113573400,8.079573486328124,5.386841773986816,-6.635895252227783,-0.1453639715909958
1772650963123464400,8.08946435546875,5.254638671875,-6.027520179748535,0.6544370055198669
1772650963133342000,8.099342041015625,5.416153907775879,-5.601597785949707,1.2472587823867798
1772650963143205600,8.10920556640625,5.733202934265137,-5.168497085571289,1.7377874851226807
1772650963153096700,8.1190966796875,6.165705680847168,-4.494917392730713,2.455634355545044
1772650963162974000,8.128973876953125,6.647261142730713,-3.961916208267212,3.1202406883239746
1772650963172837600,8.138837646484374,6.732804775238037,-3.803391695022583,3.273979663848877
1772650963182729000,8.14872900390625,6.845267295837402,-3.900300979614258,3.0071799755096436
1772650963192606200,8.158606201171875,6.7692952156066895,-4.284348964691162,2.5561327934265137
1772650963202483700,8.168483642578124,6.686742782592773,-4.767699241638184,1.9441684484481812
1772650963212361000,8.17836083984375,6.890730857849121,-5.230112075805664,1.3262219429016113
1772650963222238500,8.188238525390625,7.350750923156738,-5.6859450340271,0.8715856671333313
1772650963232102100,8.19810205078125,7.7832536697387695,-6.126822471618652,0.28594231605529785
1772650963241993200,8.2079931640625,7.999804496765137,-6.507281303405762,-0.23988047242164612
1772650963251870500,8.217870361328124,8.350951194763184,-6.681358814239502,-0.3152543902397156
1772650963261748000,8.227748046875,8.69491958618164,-6.566503524780273,-0.18424734473228455
1772650963271625500,8.23762548828125,8.875576972961426,-6.348756790161133,0.014955141581594944
1772650963281502700,8.247502685546875,9.011369705200195,-6.181857109069824,0.24167509377002716
1772650963291380200,8.257380126953125,9.004191398620605,-6.106483459472656,0.40797626972198486
1772650963301257500,8.267257568359375,8.74636459350586,-6.107081413269043,0.47796630859375
1772650963311135000,8.277135009765624,8.285148620605469,-6.0263237953186035,0.5952146053314209
1772650963321012200,8.28701220703125,7.766504287719727,-5.8235321044921875,0.8069794178009033
1772650963330889700,8.2968896484375,7.309474945068359,-5.55314302444458,1.0564311742782593
1772650963340767000,8.30676708984375,6.946363925933838,-5.383851051330566,1.2658032178878784
1772650963350644500,8.31664453125,6.652645111083984,-5.388636589050293,1.3525429964065552
1772650963360522000,8.32652197265625,6.370890140533447,-5.42572546005249,1.3208380937576294
1772650963370399200,8.336399169921876,6.205785751342773,-5.469992637634277,1.2454642057418823
1772650963380276700,8.34627685546875,6.141777515411377,-5.556732177734375,1.1988041400909424
1772650963390154000,8.356154052734375,6.173482418060303,-5.625525951385498,1.1736794710159302
1772650963400031500,8.366031494140625,6.292525291442871,-5.632106304168701,1.1826525926589966
1772650963409908700,8.37590869140625,6.4695940017700195,-5.604588985443115,1.2532408237457275
1772650963419786200,8.3857861328125,6.6484575271606445,-5.542973518371582,1.3663017749786377
1772650963429663500,8.39566357421875,6.859025955200195,-5.498706340789795,1.43389892578125
1772650963439541000,8.405541015625,7.1473612785339355,-5.437689304351807,1.5038890838623047
1772650963449418200,8.415418212890625,7.378866672515869,-5.340780258178711,1.5643078088760376
1772650963459295700,8.425295654296875,7.514659404754639,-5.208576679229736,1.6217355728149414
1772650963469173200,8.43517333984375,7.6498541831970215,-5.052444934844971,1.6462619304656982
1772650963479050500,8.445050537109376,7.8287177085876465,-4.992624282836914,1.6115660667419434
1772650963488928000,8.454927978515625,7.977072715759277,-5.021936416625977,1.5200406312942505
1772650963498805200,8.46480517578125,7.892725467681885,-5.047659397125244,1.3423734903335571
1772650963508682800,8.474682861328125,7.634300708770752,-4.964509010314941,1.1210373640060425
1772650963518560000,8.48456005859375,7.320242881774902,-4.783252239227295,0.9960124492645264
1772650963528437500,8.4944375,7.0067830085754395,-4.6163530349731445,0.857228696346283
1772650963538314800,8.504314697265626,6.711269378662109,-4.339384078979492,0.7746763229370117
1772650963548192300,8.514192138671875,6.433701992034912,-4.111467361450195,0.737587571144104
1772650963558069800,8.52406982421875,6.370890140533447,-3.9589250087738037,0.7459624409675598
1772650963567947000,8.533947021484375,6.573681831359863,-3.8261234760284424,0.8273184299468994
1772650963577824500,8.543824462890624,7.058228492736816,-3.6538400650024414,1.0115658044815063
1772650963587701800,8.55370166015625,7.690532207489014,-3.5377883911132812,1.1539387702941895
1772650963597579300,8.563579345703126,8.199604988098145,-3.6263227462768555,1.1312068700790405
1772650963607456500,8.57345654296875,8.551349639892578,-3.7950167655944824,1.0887342691421509
1772650963617334000,8.583333984375,8.848658561706543,-4.029513359069824,1.1473584175109863
1772650963627211300,8.593211181640624,9.045467376708984,-4.291527271270752,1.1060823202133179
1772650963637088800,8.6030888671875,9.387641906738281,-4.392025947570801,1.2370892763137817
1772650963646952400,8.612952392578125,9.906285285949707,-4.369892120361328,1.561316728591919
1772650963656843500,8.622843505859375,10.237093925476074,-4.459024906158447,1.6325032711029053
1772650963666720800,8.632720703125,10.27896785736084,-4.871188640594482,1.4195420742034912
1772650963676598300,8.642598388671875,10.052248001098633,-5.604588985443115,1.1371889114379883
1772650963686475800,8.652475830078124,9.534799575805664,-6.417550563812256,1.095314621925354
1772650963696353000,8.66235302734375,8.891130447387695,-7.234101295471191,1.3202399015426636
1772650963706216700,8.672216796875,8.297112464904785,-7.905287742614746,1.672582983970642
1772650963716107800,8.682107666015625,7.984251022338867,-8.208578109741211,2.334198474884033
1772650963725985300,8.6919853515625,8.393424034118652,-7.953742504119873,3.329014539718628
1772650963735849000,8.701848876953125,9.33559799194336,-7.445267677307129,3.810570001602173
1772650963745740000,8.711739990234374,10.38365364074707,-7.032505512237549,3.1238300800323486
1772650963755617300,8.7216171875,11.286346435546875,-6.97986364364624,1.7114664316177368
1772650963765481000,8.73148095703125,11.748759269714355,-7.4464640617370605,-0.10348957777023315
1772650963775372300,8.741372314453125,11.59561824798584,-8.145766258239746,-1.8807586431503296
1772650963785249500,8.75124951171875,10.732407569885254,-8.47597599029541,-3.2033913135528564
1772650963795113200,8.76111328125,9.652048110961914,-8.458029747009277,-3.9122650623321533
1772650963805004300,8.77100439453125,8.492127418518066,-8.218149185180664,-4.034298896789551
1772650963814881800,8.7808818359375,7.611568927764893,-7.7114691734313965,-3.607180118560791
1772650963824745200,8.7907451171875,7.10847806930542,-7.033103942871094,-2.794816732406616
1772650963834636500,8.800636474609375,6.966104984283447,-6.241677761077881,-1.7539390325546265
1772650963844513800,8.810513671875,6.959524631500244,-5.377270698547363,-0.6544370055198669
1772650963854377500,8.82037744140625,6.850052833557129,-4.546961307525635,0.18783657252788544
1772650963864268500,8.8302685546875,6.477969169616699,-3.940380573272705,0.6622136831283569
1772650963874146000,8.84014599609375,5.745167255401611,-3.88594388961792,0.6520441770553589
1772650963884009700,8.850009765625,5.0362935066223145,-4.1623148918151855,0.47916272282600403
1772650963893900800,8.85990087890625,4.545166492462158,-4.491328239440918,0.1818545162677765
1772650963903778300,8.8697783203125,4.364508628845215,-4.763511657714844,-0.026919255033135414
1772650963913655600,8.879655517578126,4.36091947555542,-5.0841498374938965,-0.14775680005550385
1772650963923533000,8.889532958984375,4.522434711456299,-5.446064472198486,-0.14715859293937683
1772650963933410300,8.899410400390625,4.958526611328125,-5.753541946411133,-0.04785645380616188
1772650963943287800,8.909287841796875,5.630311489105225,-5.971887111663818,0.08793623000383377
1772650963953165000,8.9191650390625,6.464808464050293,-6.067600250244141,0.22133609652519226
1772650963963042600,8.92904248046875,7.472784996032715,-6.062814235687256,0.3152543902397156
1772650963972906200,8.93890625,8.49033260345459,-6.123831272125244,0.3074777126312256
1772650963982797300,8.94879736328125,9.375079154968262,-6.354738712310791,0.19202402234077454
1772650963992674800,8.9586748046875,10.123434066772461,-6.628716945648193,-0.03888336941599846
1772650964002538200,8.968538330078125,10.670792579650879,-6.865606307983398,-0.37028929591178894
1772650964012429600,8.9784296875,10.865209579467773,-7.121638298034668,-0.7232306599617004
1772650964022306800,8.988306884765626,10.563714027404785,-7.251449108123779,-0.9924231767654419
1772650964032184300,8.998184326171875,9.832706451416016,-7.1264238357543945,-1.0528420209884644
1772650964042061600,9.0080615234375,8.85224723815918,-6.789036273956299,-0.8452646136283875
1772650964051939000,9.01793896484375,7.854440212249756,-6.262016773223877,-0.4749752879142761
1772650964061802800,9.027802734375,7.045666217803955,-5.769693374633789,-0.05802594870328903
1772650964071693800,9.03769384765625,6.381059646606445,-5.429912567138672,0.3439682424068451
1772650964081571000,9.047571044921876,5.962913990020752,-5.237290382385254,0.6795616149902344
1772650964091434800,9.057434814453124,5.762515068054199,-5.137988567352295,0.9200403094291687
1772650964101325800,9.067325927734375,5.731408596038818,-5.07517671585083,1.057627558708191
1772650964111203300,9.077203369140625,5.888736724853516,-5.071587562561035,1.1001001596450806
1772650964121080800,9.087080810546874,6.178267955780029,-5.178068161010742,1.0689935684204102
1772650964130958000,9.0969580078125,6.58265495300293,-5.346762180328369,0.9571290612220764
1772650964140835600,9.106835693359375,7.010372161865234,-5.482554912567139,0.8590233325958252
1772650964150712800,9.116712890625,7.4572319984436035,-5.566303730010986,0.8679963946342468
1772650964160590300,9.12659033203125,7.895118236541748,-5.698507308959961,0.8530412912368774
1772650964170467600,9.136467529296874,8.274978637695312,-5.756533145904541,0.8524430394172668
1772650964180345000,9.146344970703124,8.492127418518066,-5.697908878326416,0.9391828775405884
1772650964190222300,9.156222412109376,8.4771728515625,-5.484349727630615,1.0396814346313477
1772650964200099800,9.166099853515625,8.499305725097656,-5.160720348358154,0.9978070259094238
1772650964209977000,9.17597705078125,7.619345664978027,-4.860421180725098,0.8123632669448853
1772650964219854600,9.1858544921875,7.482356548309326,-5.258227825164795,0.6622136831283569
1772650964229732000,9.195732177734374,9.233902931213379,-5.2977094650268555,1.0516455173492432
1772650964239595500,9.205595458984375,9.976275444030762,-5.2145586013793945,1.262213945388794
1772650964249486800,9.21548681640625,10.160523414611816,-4.835894584655762,1.1030912399291992
1772650964259364000,9.225364013671875,10.188638687133789,-4.589433670043945,1.1623135805130005
1772650964269241600,9.23524169921875,10.077372550964355,-4.818546772003174,1.2460623979568481
1772650964279118800,9.245118896484374,10.051650047302246,-5.01715087890625,1.1623135805130005
