time,seconds_elapsed,z,y,x
1772655993754107000,0.25610693359375,-0.02959728240966797,0.0015673916786909103,0.004565700888633728
1772655993773866000,0.275865966796875,-0.03064250946044922,-0.0019362270832061768,0.008233077824115753
1772655993793625000,0.295625,-0.028398513793945312,-0.0019670911133289337,0.004568509757518768
1772655993813384200,0.31538427734375,-0.02944469451904297,0.0006329119205474854,0.006798677146434784
1772655993833143300,0.335143310546875,-0.02480602264404297,0.0006024111062288284,0.0031342506408691406
1772655993852902400,0.35490234375,-0.028247833251953125,0.0005714986473321915,0.004466608166694641
1772655993872661500,0.37466162109375,-0.02959442138671875,0.000540582463145256,-0.0015919134020805359
1772655993892420600,0.394420654296875,-0.023606300354003906,-0.005357267335057259,-0.001783713698387146
1772655993912179700,0.4141796875,-0.028394699096679688,-0.0004811100661754608,0.0040376558899879456
1772655993931938800,0.433938720703125,-0.027196884155273438,0.0007446128875017166,0.00516115128993988
1772655993951698000,0.453697998046875,-0.029590606689453125,0.004362905398011208,0.00035844743251800537
1772655993971457000,0.47345703125,-0.029590606689453125,-0.0014759022742509842,-0.0020497962832450867
1772655993991216000,0.493216064453125,-0.030788421630859375,-0.00042974576354026794,0.0005382820963859558
1772655994010975200,0.512975341796875,-0.0260009765625,-0.00405217707157135,0.003095172345638275
1772655994030734300,0.532734375,-0.03078937530517578,-0.0016299951821565628,-0.0006006360054016113
1772655994050493400,0.552493408203125,-0.02719879150390625,-0.0016018971800804138,-0.0016621947288513184
1772655994070252500,0.57225244140625,-0.02719879150390625,-0.0003172922879457474,0.0017649531364440918
1772655994090011400,0.592011474609375,-0.024805068969726562,-0.00022974051535129547,0.0030066445469856262
1772655994109770500,0.6117705078125,-0.029592514038085938,0.005664614960551262,0.005385793745517731
1772655994129529600,0.631529541015625,-0.029593467712402344,0.004376411437988281,0.005429856479167938
1772655994149288700,0.651288818359375,-0.024805068969726562,0.003266356885433197,0.007749371230602264
1772655994169047800,0.6710478515625,-0.029442787170410156,-0.005201792344450951,0.003037095069885254
1772655994188807000,0.690806884765625,-0.03078937530517578,-0.0005035866051912308,-0.002812199294567108
1772655994208566000,0.71056591796875,-0.026001930236816406,0.005508570000529289,0.005311787128448486
1772655994228325000,0.7303251953125,-0.02719879150390625,0.0018870048224925995,0.004159286618232727
1772655994248084200,0.750084228515625,-0.026001930236816406,0.0019145384430885315,0.007793761789798737
1772655994267843300,0.76984326171875,-0.033034324645996094,-0.0004503205418586731,0.01148708164691925
1772655994287602400,0.7896025390625,-0.02360820770263672,0.0007752999663352966,0.005427472293376923
1772655994307361500,0.809361572265625,-0.026001930236816406,0.0009818263351917267,0.006668411195278168
1772655994327120600,0.82912060546875,-0.028395652770996094,0.0023250747472047806,-0.0017247274518013
1772655994346879700,0.848879638671875,-0.02719879150390625,-0.00853641889989376,-0.0026360750198364258
1772655994366638800,0.868638916015625,-0.03198528289794922,-0.0013993792235851288,0.0017339810729026794
1772655994386398000,0.88839794921875,-0.02480316162109375,0.004776692017912865,-0.003053143620491028
1772655994406156800,0.90815673828125,-0.027196884155273438,-0.005981169641017914,0.0030218511819839478
1772655994425916200,0.927916259765625,-0.027196884155273438,0.000018090009689331055,0.0028123855590820312
1772655994445675000,0.947675048828125,-0.02480316162109375,0.005956500768661499,0.0016741976141929626
1772655994465434000,0.96743408203125,-0.02839374542236328,-0.0012114234268665314,-0.0006603971123695374
1772655994485193200,0.987193115234375,-0.027196884155273438,0.004786035045981407,0.005323246121406555
1772655994504952300,1.006952392578125,-0.02779388427734375,0.0023452676832675934,0.0005064979195594788
1772655994524711400,1.02671142578125,-0.026597023010253906,0.006126187741756439,0.0003566667437553406
1772655994544470500,1.046470458984375,-0.028990745544433594,0.00853123888373375,-0.0008995532989501953
1772655994564229600,1.066229736328125,-0.02539825439453125,0.005070909857749939,0.006280630826950073
1772655994583988700,1.08598876953125,-0.026597023010253906,0.007535358890891075,0.0016100481152534485
1772655994603747800,1.105747802734375,-0.025400161743164062,0.009881777688860893,-0.0007835328578948975
1772655994623507000,1.1255068359375,-0.021808624267578125,-0.0020139366388320923,-0.005270384252071381
1772655994643266000,1.14526611328125,-0.02061176300048828,-0.0017624497413635254,-0.0018282979726791382
1772655994663025200,1.165025146484375,-0.020610809326171875,0.006687723100185394,0.004064962267875671
1772655994682784000,1.184783935546875,-0.02898883819580078,-0.00042156316339969635,0.0017604008316993713
1772655994702543000,1.204543212890625,-0.028390884399414062,0.0008480604737997055,0.007593244314193726
1772655994722302200,1.22430224609375,-0.02240467071533203,0.005647746846079826,-0.003029249608516693
1772655994742061300,1.244061279296875,-0.023601531982421875,0.003384813666343689,0.006336122751235962
1772655994761820400,1.2638203125,-0.02479839324951172,0.003336716443300247,0.00513661652803421
1772655994781579500,1.28357958984375,-0.029584884643554688,0.005860511213541031,-0.0022222772240638733
1772655994801338600,1.303338623046875,-0.023599624633789062,0.0010855421423912048,0.0013092458248138428
1772655994821097700,1.32309765625,-0.024796485900878906,0.0034918375313282013,0.0012496411800384521
1772655994840856800,1.34285693359375,-0.028388023376464844,-0.00014434568583965302,-0.0035367384552955627
1772655994860616000,1.362615966796875,-0.02359771728515625,0.004715073853731155,0.005918942391872406
1772655994880375000,1.382375,-0.029582977294921875,0.00451790913939476,-0.002459205687046051
1772655994900134000,1.4021337890625,-0.030780792236328125,0.0034230072051286697,-0.008291110396385193
1772655994919893000,1.42189306640625,-0.02838611602783203,0.005886854603886604,-0.0037692561745643616
1772655994939652000,1.441652099609375,-0.02239990234375,0.006015706807374954,0.002274058759212494
1772655994959411200,1.4614111328125,-0.02359771728515625,0.003574380651116371,0.002332262694835663
1772655994979170300,1.48117041015625,-0.027189254760742188,-0.00006308034062385559,-0.0009594038128852844
1772655994998929400,1.500929443359375,-0.02359771728515625,0.0010879114270210266,0.0000289231538772583
1772655995018688500,1.5206884765625,-0.029582977294921875,0.000022130087018013,0.001225098967552185
1772655995038447600,1.540447509765625,-0.027189254760742188,-0.0011614654213190079,-0.005864009261131287
1772655995058206700,1.560206787109375,-0.027189254760742188,-0.001147586852312088,0.0024235621094703674
1772655995077965800,1.5799658203125,-0.0247955322265625,0.0037111379206180573,0.002331860363483429
1772655995097724700,1.599724609375,-0.02599048614501953,0.0037506818771362305,0.0012836754322052002
1772655995117483800,1.61948388671875,-0.02958202362060547,0.0040306150913238525,-0.0036521032452583313
1772655995137243000,1.639242919921875,-0.021203994750976562,-0.0008031073957681656,-0.001048855483531952
1772655995157002000,1.659001953125,-0.025992393493652344,0.0004669688642024994,0.0026001110672950745
1772655995176761000,1.678760986328125,-0.025991439819335938,0.0017954763025045395,-0.0009903758764266968
1772655995196520200,1.698520263671875,-0.023599624633789062,0.005219705402851105,-0.002158321440219879
1772655995216279300,1.718279296875,-0.025992393493652344,0.005289504304528236,0.0026282668113708496
1772655995236038400,1.738038330078125,-0.029584884643554688,0.00882912427186966,-0.004492662847042084
1772655995255797500,1.757797607421875,-0.02120494842529297,0.00405176542699337,-0.0008108615875244141
1772655995275556600,1.777556640625,-0.02120494842529297,0.00771155022084713,0.0038254931569099426
1772655995295315700,1.797315673828125,-0.022400856018066406,0.00670250877737999,0.0037642940878868103
1772655995315074600,1.817074462890625,-0.024794578552246094,0.0007308945059776306,0.002805657684803009
1772655995334833700,1.836833740234375,-0.024643898010253906,0.005470139905810356,0.0048973411321640015
1772655995354592800,1.8565927734375,-0.029582977294921875,0.003029013052582741,-0.0021339207887649536
1772655995374352000,1.876351806640625,-0.029433250427246094,0.0029815752059221268,-0.003388144075870514
1772655995394111000,1.896111083984375,-0.02599334716796875,0.0041900016367435455,0.0062122642993927
1772655995413870000,1.9158701171875,-0.027189254760742188,0.004379237070679665,0.00016796588897705078
1772655995433629200,1.935629150390625,-0.021205902099609375,0.006723359227180481,0.0016006603837013245
1772655995453388300,1.95538818359375,-0.022401809692382812,0.0067920982837677,0.0015405118465423584
1772655995473147400,1.9751474609375,-0.022400856018066406,0.006919069215655327,0.0038725435733795166
1772655995492906200,1.99490625,-0.024794578552246094,0.0032803378999233246,-0.002170346677303314
1772655995512665300,2.014665283203125,-0.0247955322265625,0.006819974631071091,-0.006895020604133606
1772655995532424400,2.034424560546875,-0.021203994750976562,0.0020447932183742523,-0.003301076591014862
1772655995552183600,2.05418359375,-0.02838611602783203,0.005586449056863785,0.0026231855154037476
1772655995571942700,2.073942626953125,-0.0247955322265625,0.005595257505774498,0.005013458430767059
1772655995591701800,2.09370166015625,-0.024794578552246094,-0.00025858543813228607,0.0014210343360900879
1772655995611460900,2.1134609375,-0.022400856018066406,0.00202886201441288,-0.0020503103733062744
1772655995631220000,2.133219970703125,-0.022401809692382812,0.0067656878381967545,-0.0008528754115104675
1772655995650979000,2.15297900390625,-0.02240276336669922,0.010244457051157951,0.001599341630935669
1772655995670738200,2.17273828125,-0.02360057830810547,0.005406223237514496,0.0005202218890190125
1772655995690497000,2.1924970703125,-0.024797439575195312,0.0018269196152687073,0.0040490105748176575
1772655995710256000,2.212256103515625,-0.023599624633789062,0.0005830340087413788,0.0004572570323944092
1772655995730015200,2.23201513671875,-0.027191162109375,0.006516460329294205,0.0015342608094215393
1772655995749774300,2.2517744140625,-0.01881122589111328,0.011369448155164719,0.003984913229942322
1772655995769533400,2.271533447265625,-0.028388023376464844,0.00670679472386837,0.0028443709015846252
1772655995789292500,2.29129248046875,-0.025994300842285156,-0.001775076612830162,-0.0029884502291679382
1772655995809051600,2.3110517578125,-0.027191162109375,0.0030834991484880447,0.0016488507390022278
1772655995828810800,2.330810791015625,-0.02120685577392578,-0.0004940256476402283,0.0031113401055336
1772655995848569900,2.35056982421875,-0.027192115783691406,-0.0005391445010900497,-0.0028123483061790466
1772655995868328700,2.37032861328125,-0.02000904083251953,0.003062702715396881,0.0018246397376060486
1772655995888087800,2.390087890625,-0.02479839324951172,0.0030134133994579315,-0.0018246546387672424
1772655995907847000,2.409846923828125,-0.020010948181152344,0.0004541408270597458,-0.0005681738257408142
1772655995927606000,2.42960595703125,-0.02479839324951172,0.004292931407690048,-0.003946729004383087
1772655995947365000,2.449365234375,-0.025995254516601562,0.006753304973244667,0.0019461289048194885
1772655995967124200,2.469124267578125,-0.02120685577392578,0.0019027702510356903,0.0017663389444351196
1772655995986883300,2.48888330078125,-0.023601531982421875,0.0006309822201728821,0.0017640814185142517
1772655996006642400,2.508642333984375,-0.024796485900878906,0.0019305888563394547,0.0005069896578788757
1772655996026401300,2.5284013671875,-0.02479839324951172,0.006639571860432625,0.0029572993516921997
1772655996046160400,2.548160400390625,-0.020009994506835938,0.0018947198987007141,-0.00404416024684906
1772655996065919500,2.56791943359375,-0.023601531982421875,0.005407249554991722,0.0018796324729919434
1772655996085678600,2.5876787109375,-0.03197956085205078,0.004310568794608116,0.0029551833868026733
1772655996105437700,2.607437744140625,-0.029584884643554688,0.005665510892868042,-0.0017727985978126526
1772655996125196800,2.62719677734375,-0.020009994506835938,0.009174469858407974,0.0030712485313415527
1772655996144956000,2.646955810546875,-0.025995254516601562,0.005564022809267044,-0.004107661545276642
1772655996164715000,2.666715087890625,-0.02479839324951172,0.003152826800942421,0.006718337535858154
1772655996184474000,2.68647412109375,-0.015222549438476562,0.0031944457441568375,0.0030646175146102905
1772655996204233000,2.70623291015625,-0.02360057830810547,0.006765445694327354,0.0018064379692077637
1772655996223992000,2.725991943359375,-0.023599624633789062,0.007999511435627937,0.0017450153827667236
1772655996243751200,2.745751220703125,-0.021207809448242188,0.0018794797360897064,-0.003968946635723114
1772655996263510300,2.76551025390625,-0.024797439575195312,0.0042549017816782,-0.002828948199748993
1772655996283269400,2.785269287109375,-0.020008087158203125,0.0066283829510211945,0.00043417513370513916
1772655996303028500,2.805028564453125,-0.02240276336669922,0.0006271246820688248,0.001719050109386444
1772655996322787600,2.82478759765625,-0.02360057830810547,0.00626356340944767,-0.004353255033493042
1772655996342546400,2.84454638671875,-0.02599620819091797,0.003941413015127182,0.0016889199614524841
1772655996362305800,2.864305908203125,-0.020009994506835938,0.0002762116491794586,-0.007880140095949173
1772655996382064600,2.884064697265625,-0.02599620819091797,0.003848915919661522,0.0016939565539360046
1772655996401823700,2.90382373046875,-0.023601531982421875,0.0015578977763652802,0.004083678126335144
1772655996421582800,2.923582763671875,-0.0188140869140625,0.0026788413524627686,0.004079140722751617
1772655996441342000,2.943342041015625,-0.02479839324951172,0.0012887082993984222,0.0005774199962615967
1772655996461101000,2.96310107421875,-0.02360248565673828,0.002409493550658226,0.0004859119653701782
1772655996480860200,2.982860107421875,-0.024801254272460938,0.0011383183300495148,-0.0063627734780311584
1772655996500619300,3.002619384765625,-0.03318023681640625,0.00004433467984199524,0.00560104101896286
1772655996520378000,3.022378173828125,-0.02480030059814453,0.0035570822656154633,0.006640695035457611
1772655996540137200,3.04213720703125,-0.030785560607910156,-0.0038733240216970444,0.0019400864839553833
1772655996559896300,3.061896240234375,-0.02599811553955078,-0.0002973005175590515,0.0005920305848121643
1772655996579655400,3.081655517578125,-0.02480030059814453,0.0034531205892562866,0.005314923822879791
1772655996599414500,3.10141455078125,-0.022405624389648438,0.004630120471119881,0.0017213299870491028
1772655996619173600,3.121173583984375,-0.022403717041015625,0.0035330038517713547,0.0016599521040916443
1772655996638932700,3.1409326171875,-0.020010948181152344,0.005905997008085251,-0.0007337182760238647
1772655996658691800,3.16069189453125,-0.027193069458007812,0.003552984446287155,0.010028406977653503
1772655996678451000,3.180450927734375,-0.02480030059814453,0.0022204481065273285,0.005233980715274811
1772655996698209800,3.200209716796875,-0.024799346923828125,0.00704495795071125,-0.00314243882894516
1772655996717969000,3.219968994140625,-0.018813133239746094,-0.0001517999917268753,-0.0020618438720703125
1772655996737728000,3.23972802734375,-0.02479839324951172,0.007184132933616638,0.0014675185084342957
1772655996757487000,3.259487060546875,-0.02120685577392578,0.0035743005573749542,0.0026611536741256714
1772655996777246200,3.27924609375,-0.02360057830810547,0.003556031733751297,0.0014621913433074951
1772655996797005300,3.29900537109375,-0.022403717041015625,0.0035369321703910828,0.0013416782021522522
1772655996816764400,3.318764404296875,-0.020009994506835938,0.005909159779548645,0.006240516901016235
1772655996836523300,3.338523193359375,-0.018812179565429688,-0.0012866798788309097,0.0014500916004180908
1772655996856282400,3.358282470703125,-0.02479839324951172,0.0022272225469350815,-0.0021393224596977234
1772655996876041500,3.37804150390625,-0.02240467071533203,0.0035826396197080612,-0.0008826032280921936
1772655996895800600,3.397800537109375,-0.020009994506835938,0.0011721160262823105,0.00025438517332077026
1772655996915559700,3.4175595703125,-0.024799346923828125,0.0010965894907712936,0.0015082433819770813
1772655996935318800,3.43731884765625,-0.022405624389648438,0.002217160537838936,0.0004286840558052063
1772655996955078000,3.457077880859375,-0.021208763122558594,0.003454238176345825,-0.0007088929414749146
1772655996974837000,3.4768369140625,-0.02599620819091797,0.0011021699756383896,0.0028187111020088196
1772655996994595800,3.496595947265625,-0.023603439331054688,0.003359578549861908,-0.0019673407077789307
1772655997014355000,3.51635498046875,-0.021207809448242188,0.0022048354148864746,0.0015624761581420898
1772655997034114000,3.536114013671875,-0.02240467071533203,-0.002594379708170891,-0.006808742880821228
1772655997053873200,3.555873046875,-0.02360248565673828,0.002118213102221489,0.005363866686820984
1772655997073632300,3.57563232421875,-0.015223503112792969,0.0034152045845985413,0.00281650573015213
1772655997093391400,3.595391357421875,-0.021207809448242188,0.00453278049826622,-0.0020287707448005676
1772655997113150500,3.615150390625,-0.02240467071533203,0.002178480848670006,-0.0020866170525550842
1772655997132909300,3.634909423828125,-0.025995254516601562,0.0010243318974971771,0.0026384517550468445
1772655997152668400,3.65466845703125,-0.02360248565673828,0.0032808464020490646,0.005025587975978851
1772655997172427500,3.674427490234375,-0.02240467071533203,0.001948302611708641,0.007291585206985474
1772655997192186600,3.6941865234375,-0.020009994506835938,0.003185030072927475,-0.0011462196707725525
1772655997211945700,3.71394580078125,-0.018812179565429688,0.005558190867304802,-0.0023403093218803406
1772655997231704800,3.733704833984375,-0.020008087158203125,-0.00026413798332214355,-0.0010832026600837708
1772655997251464000,3.7534638671875,-0.02479839324951172,0.003247329965233803,0.002562709152698517
1772655997271222800,3.773222900390625,-0.016419410705566406,0.0032284893095493317,0.0037544891238212585
1772655997290982100,3.792982177734375,-0.028389930725097656,-0.0005549509078264236,0.0036896541714668274
1772655997310741000,3.812740966796875,-0.028389930725097656,0.003015981987118721,-0.0010391175746917725
1772655997330500000,3.8325,-0.03078460693359375,0.004193317145109177,0.003862038254737854
1772655997350259200,3.85225927734375,-0.018815040588378906,0.006741037592291832,0.0051109641790390015
1772655997370018300,3.872018310546875,-0.02480030059814453,-0.002787850797176361,0.003967016935348511
1772655997389777400,3.89177734375,-0.02599620819091797,-0.0051312875002622604,0.00282461941242218
1772655997409536500,3.91153662109375,-0.020009994506835938,-0.005020730197429657,0.0015658512711524963
1772655997429295600,3.931295654296875,-0.022406578063964844,0.0033973772078752518,0.004012793302536011
1772655997449054500,3.951054443359375,-0.028392791748046875,0.0020062290132045746,-0.001851685345172882
1772655997468813600,3.9708134765625,-0.024802207946777344,0.0018115416169166565,-0.0005950555205345154
1772655997488572700,3.99057275390625,-0.02719593048095703,0.004066651687026024,-0.0017902925610542297
1772655997508331800,4.010331787109375,-0.02480316162109375,-0.00414397194981575,0.004247874021530151
1772655997528091000,4.0300908203125,-0.020012855529785156,0.00074739009141922,0.003046378493309021
1772655997547850000,4.04985009765625,-0.02480030059814453,0.004436187446117401,0.0017280727624893188
1772655997567608800,4.06960888671875,-0.023603439331054688,0.0009462889283895493,0.0041746050119400024
1772655997587368000,4.089367919921875,-0.02719402313232422,0.0033195093274116516,-0.0006730034947395325
1772655997607127000,4.109126953125,-0.031982421875,0.005810080096125603,0.0053637027740478516
1772655997626886100,4.12888623046875,-0.02480030059814453,0.0022599361836910248,0.0029647797346115112
1772655997646645200,4.148645263671875,-0.0188140869140625,0.00833672471344471,0.002960026264190674
1772655997666404400,4.168404296875,-0.02360248565673828,0.0022798944264650345,0.000504322350025177
1772655997686163500,4.18816357421875,-0.02599620819091797,-0.00030010752379894257,-0.005443401634693146
1772655997705922600,4.207922607421875,-0.02599620819091797,0.004413831979036331,0.00039011985063552856
1772655997725681400,4.227681396484375,-0.02599620819091797,0.004457877948880196,-0.0008663758635520935
1772655997745440500,4.2474404296875,-0.027193069458007812,0.002052919939160347,-0.001971326768398285
1772655997765199600,4.26719970703125,-0.02599620819091797,-0.003936141729354858,0.004214763641357422
1772655997784958700,4.286958740234375,-0.02480030059814453,0.000842515379190445,-0.0066407471895217896
1772655997804717800,4.3067177734375,-0.020010948181152344,-0.0026942212134599686,0.00397578626871109
1772655997824477000,4.326476806640625,-0.021208763122558594,0.005608927458524704,-0.000871799886226654
1772655997844236000,4.346236083984375,-0.02719402313232422,-0.002833722159266472,0.0003824979066848755
1772655997863995000,4.365994873046875,-0.028390884399414062,0.0032567977905273438,0.0004396885633468628
1772655997883754000,4.38575390625,-0.02360248565673828,-0.00028384849429130554,-0.004284605383872986
1772655997903513000,4.40551318359375,-0.027194976806640625,0.001980988308787346,0.0077323317527771
1772655997923272200,4.425272216796875,-0.025999069213867188,0.002028852701187134,0.0019516348838806152
1772655997943031300,4.44503125,-0.023604393005371094,-0.00031347014009952545,0.005383878946304321
1772655997962790400,4.464790283203125,-0.02480030059814453,-0.000321289524435997,0.0029839277267456055
1772655997982549200,4.48454931640625,-0.02599811553955078,0.00558837503194809,-0.0041931793093681335
1772655998002308400,4.504308349609375,-0.023603439331054688,0.003090832382440567,-0.004097849130630493
1772655998022067500,4.5240673828125,-0.02360248565673828,-0.00018192827701568604,0.0005382373929023743
1772655998041826600,4.54382666015625,-0.031982421875,0.005727052688598633,-0.0006001293659210205
1772655998061585700,4.563585693359375,-0.025997161865234375,0.0057690683752298355,-0.007830921560525894
1772655998081344800,4.5833447265625,-0.029587745666503906,0.0008516348898410797,0.001740865409374237
1772655998101103600,4.603103515625,-0.023601531982421875,-0.0002941172569990158,0.006340496242046356
1772655998120863000,4.622863037109375,-0.030783653259277344,0.0008918307721614838,0.0050154924392700195
1772655998140621800,4.642621826171875,-0.023601531982421875,0.0009410567581653595,0.008651189506053925
1772655998160381000,4.662380859375,-0.021208763122558594,0.005534455180168152,0.007500477135181427
1772655998180140000,4.68214013671875,-0.021207809448242188,-0.0015355367213487625,0.002766028046607971
1772655998199899100,4.701899169921875,-0.028390884399414062,0.004374697804450989,0.008736111223697662
1772655998219658200,4.721658203125,-0.028389930725097656,0.0019086580723524094,-0.0031997859477996826
1772655998239417300,4.741417236328125,-0.021207809448242188,0.006676901131868362,0.001375935971736908
1772655998259176200,4.76117626953125,-0.027193069458007812,0.0007411856204271317,0.0013725608587265015
1772655998278935300,4.780935302734375,-0.021207809448242188,0.004317324608564377,0.0037596970796585083
1772655998298694400,4.8006943359375,-0.028389930725097656,-0.001614285632967949,0.0016297996044158936
1772655998318453500,4.82045361328125,-0.024799346923828125,0.006863096728920937,-0.0009732544422149658
1772655998338212600,4.840212646484375,-0.021207809448242188,0.005589313805103302,0.002612374722957611
1772655998357971700,4.8599716796875,-0.02479839324951172,0.006767319515347481,-0.001096576452255249
1772655998377730600,4.87973046875,-0.0295867919921875,0.001908767968416214,-0.002172917127609253
1772655998397489700,4.89948974609375,-0.028389930725097656,0.002855466678738594,-0.002230040729045868
1772655998417248800,4.919248779296875,-0.03078460693359375,-0.004328597337007523,0.0029102712869644165
1772655998437008000,4.9390078125,-0.024799346923828125,0.0005689933896064758,-0.0010979175567626953
1772655998456767000,4.95876708984375,-0.02479839324951172,0.0016951542347669601,0.0001565590500831604
1772655998476525800,4.97852587890625,-0.02599620819091797,0.0005483385175466537,-0.000890582799911499
1772655998496285000,4.998284912109375,-0.021207809448242188,0.0075907353311777115,-0.0011581853032112122
1772655998516044000,5.0180439453125,-0.02360057830810547,0.002670375630259514,-0.004861317574977875
1772655998535803100,5.03780322265625,-0.025994300842285156,-0.0007503889501094818,0.00013411790132522583
1772655998555562200,5.057562255859375,-0.027191162109375,0.004199502989649773,-0.0012711882591247559
1772655998575321300,5.0773212890625,-0.028388023376464844,-0.0005370508879423141,0.0011787265539169312
1772655998595080200,5.097080078125,-0.022403717041015625,0.0029817987233400345,0.0010573789477348328
1772655998614839300,5.11683935546875,-0.03197765350341797,0.00057993084192276,-0.0015125200152397156
1772655998634598400,5.136598388671875,-0.030778884887695312,0.0006300359964370728,0.004286587238311768
1772655998654357500,5.156357421875,-0.028385162353515625,0.000561833381652832,0.0030239522457122803
1772655998674116600,5.17611669921875,-0.033173561096191406,0.0004933513700962067,0.003017336130142212
1772655998693875700,5.195875732421875,-0.024793624877929688,0.0015015676617622375,0.0006208270788192749
1772655998713634600,5.215634521484375,-0.024793624877929688,-0.002154761925339699,-0.004161909222602844
1772655998733393700,5.2353935546875,-0.025991439819335938,-0.0009644683450460434,0.004208989441394806
1772655998753152800,5.25515283203125,-0.023598670959472656,-0.0009125322103500366,-0.0004613623023033142
1772655998772911900,5.274911865234375,-0.025992393493652344,0.003918414935469627,-0.0005213543772697449
1772655998792671000,5.2946708984375,-0.02599048614501953,0.0063514504581689835,-0.003030151128768921
1772655998812429800,5.314429931640625,-0.023596763610839844,-0.002091880887746811,-0.005415990948677063
1772655998832189000,5.33418896484375,-0.031975746154785156,-0.0010198354721069336,0.0017619654536247253
1772655998851948000,5.353947998046875,-0.025991439819335938,-0.003416791558265686,-0.004217274487018585
1772655998871707100,5.37370703125,-0.025991439819335938,0.001478385180234909,-0.0006854981184005737
1772655998891466200,5.39346630859375,-0.023596763610839844,-0.0020592045038938522,0.0028990283608436584
1772655998911225300,5.413225341796875,-0.02359485626220703,0.007436869665980339,0.0039696767926216125
1772655998930984200,5.432984130859375,-0.02958202362060547,0.0014993585646152496,-0.0007003024220466614
1772655998950743300,5.452743408203125,-0.02599048614501953,-0.0008432883769273758,0.0016892626881599426
1772655998970502400,5.47250244140625,-0.01761150360107422,0.0027940627187490463,-0.004289299249649048
1772655998990261500,5.492261474609375,-0.025991439819335938,0.0015262588858604431,0.0029455646872520447
1772655999010020600,5.5120205078125,-0.02359771728515625,-0.0009933076798915863,0.0018031597137451172
1772655999029779500,5.531779541015625,-0.03077983856201172,0.001390751451253891,0.0006631538271903992
1772655999049538600,5.55153857421875,-0.027189254760742188,0.00018454156816005707,-0.0005934014916419983
1772655999069297700,5.571297607421875,-0.029582977294921875,-0.0034687742590904236,-0.0017297342419624329
1772655999089056800,5.591056884765625,-0.025992393493652344,0.0025613754987716675,0.004187040030956268
1772655999108816000,5.61081591796875,-0.022398948669433594,0.0026661045849323273,0.0004752799868583679
1772655999128574700,5.63057470703125,-0.02479267120361328,0.0003217887133359909,0.003939501941204071
1772655999148333800,5.650333740234375,-0.021201133728027344,0.0015064086765050888,-0.000848814845085144
1772655999168093000,5.670093017578125,-0.028382301330566406,0.003706894814968109,-0.0009079426527023315
1772655999187852000,5.68985205078125,-0.0307769775390625,0.002496054396033287,-0.003415815532207489
1772655999207611100,5.709611083984375,-0.02718639373779297,0.00003470666706562042,-0.0010209158062934875
1772655999227370000,5.729369873046875,-0.028383255004882812,0.010780340060591698,-0.0009610354900360107
1772655999247129000,5.749129150390625,-0.029580116271972656,0.002328692004084587,-0.003350384533405304
1772655999266888200,5.76888818359375,-0.025989532470703125,0.007159149274230003,0.0013834014534950256
1772655999286647300,5.788647216796875,-0.024791717529296875,0.0023696385324001312,0.0037872344255447388
1772655999306406400,5.808406494140625,-0.022398948669433594,-0.0037835389375686646,0.0026019737124443054
1772655999326165200,5.828165283203125,-0.022397994995117188,-0.0013829562813043594,0.00010637938976287842
1772655999345924400,5.84792431640625,-0.025989532470703125,-0.0013186261057853699,-0.0009227469563484192
1772655999365683500,5.867683349609375,-0.02479267120361328,0.0036438610404729843,0.0014543235301971436
1772655999385442600,5.887442626953125,-0.029581069946289062,0.002444915473461151,-0.0008624345064163208
1772655999405201700,5.90720166015625,-0.027187347412109375,0.001249026507139206,-0.0020387545228004456
1772655999424960500,5.92696044921875,-0.024793624877929688,0.0023858826607465744,0.005091674625873566
1772655999444719600,5.9467197265625,-0.033173561096191406,-0.00006375089287757874,0.004022225737571716
1772655999464478700,5.966478759765625,-0.024793624877929688,0.0036424119025468826,0.006539270281791687
1772655999484237800,5.98623779296875,-0.030778884887695312,-0.0010814163833856583,-0.0029244646430015564
1772655999503997000,6.005996826171875,-0.024793624877929688,0.0025663021951913834,-0.0006623193621635437
1772655999523755800,6.025755859375,-0.021203041076660156,0.0002340264618396759,-0.003033846616744995
1772655999543515000,6.045514892578125,-0.02958202362060547,0.003762315958738327,0.0004548951983451843
1772655999563274000,6.06527392578125,-0.029581069946289062,0.0014277976006269455,-0.0031135976314544678
1772655999583033000,6.085033203125,-0.023595809936523438,0.005071504041552544,-0.0008195564150810242
1772655999602792000,6.1047919921875,-0.02718639373779297,0.0002850200980901718,0.003977380692958832
1772655999622551000,6.124551025390625,-0.02599048614501953,-0.0020420122891664505,-0.0005838051438331604
1772655999642310100,6.14431005859375,-0.03197479248046875,0.005074821412563324,-0.0019690468907356262
1772655999662069200,6.1640693359375,-0.03197479248046875,0.006381459534168243,0.005219951272010803
1772655999681828400,6.183828369140625,-0.020005226135253906,-0.0018723681569099426,-0.0017643347382545471
1772655999701587200,6.203587158203125,-0.023596763610839844,0.009005511179566383,-0.0016847103834152222
1772655999721346300,6.22334619140625,-0.021203041076660156,0.0005677025765180588,0.004308648407459259
1772655999741105400,6.24310546875,-0.02239990234375,-0.005285711959004402,0.004317201673984528
1772655999760864500,6.262864501953125,-0.025991439819335938,0.00548013299703598,-0.0017069801688194275
1772655999780623400,6.282623291015625,-0.02718830108642578,0.004277408123016357,-0.0004922077059745789
1772655999800382500,6.302382568359375,-0.02239990234375,0.001941397786140442,-0.0029229670763015747
1772655999820141600,6.3221416015625,-0.02599048614501953,0.0068971700966358185,-0.002900160849094391
1772655999839900700,6.341900634765625,-0.02838420867919922,0.00682763010263443,-0.0005472749471664429
1772655999859659500,6.361659423828125,-0.027187347412109375,-0.0026802867650985718,0.0020097345113754272
1772655999879418600,6.381418701171875,-0.022397994995117188,0.00796126015484333,0.0018139556050300598
1772655999899177700,6.401177734375,-0.02838420867919922,-0.0016678813844919205,0.0006325468420982361
1772655999918936800,6.420936767578125,-0.02718830108642578,0.0018626563251018524,-0.00042866170406341553
1772655999938695700,6.44069580078125,-0.024793624877929688,0.0018620677292346954,-0.000529065728187561
1772655999958454800,6.460454833984375,-0.02838420867919922,0.005385991185903549,-0.0006294921040534973
1772655999978214000,6.4802138671875,-0.027187347412109375,0.013740146532654762,0.0005238726735115051
1772655999997973000,6.499972900390625,-0.021203041076660156,0.005235008895397186,0.002988182008266449
1772656000017732000,6.519732177734375,-0.020005226135253906,-0.0031944476068019867,0.0018043667078018188
1772656000037491000,6.539490966796875,-0.025992393493652344,0.0063119251281023026,0.0019352808594703674
1772656000057250000,6.55925,-0.030780792236328125,0.003972165286540985,0.0008717328310012817
1772656000077009200,6.579009033203125,-0.03317451477050781,0.001696629449725151,0.0009181052446365356
1772656000096768000,6.59876806640625,-0.023598670959472656,0.004026498645544052,-0.0002926364541053772
1772656000116527000,6.618527099609375,-0.025994300842285156,0.0015140566974878311,-0.0013516098260879517
1772656000136286200,6.6382861328125,-0.025995254516601562,0.006292594596743584,0.006013005971908569
1772656000156045300,6.65804541015625,-0.027193069458007812,-0.0020202957093715668,0.001239188015460968
1772656000175804400,6.677804443359375,-0.023601531982421875,0.0015112701803445816,-0.003375701606273651
1772656000195563300,6.697563232421875,-0.0188140869140625,0.005093863233923912,0.0012177005410194397
1772656000215322400,6.717322265625,-0.030782699584960938,0.006398128345608711,0.0011133551597595215
1772656000235081500,6.73708154296875,-0.020009994506835938,0.0016683973371982574,-0.000007636845111846924
1772656000254840600,6.756840576171875,-0.023601531982421875,0.0037610474973917007,0.0011444762349128723
1772656000274599400,6.776599365234375,-0.025997161865234375,-0.0010223202407360077,0.004919841885566711
1772656000294358500,6.796358642578125,-0.028389930725097656,-0.0021519307047128677,0.007406130433082581
1772656000314117600,6.81611767578125,-0.027192115783691406,-0.0033388640731573105,0.009529203176498413
1772656000333876700,6.835876708984375,-0.023601531982421875,0.002763090655207634,0.0023591145873069763
1772656000353635600,6.855635498046875,-0.02599620819091797,0.005150133743882179,-0.000018067657947540283
1772656000373394700,6.875394775390625,-0.025994300842285156,-0.0019057653844356537,0.005971834063529968
1772656000393153800,6.89515380859375,-0.027191162109375,0.0005496107041835785,-0.0022365376353263855
1772656000412912600,6.91491259765625,-0.02838897705078125,0.0029994696378707886,0.00002438575029373169
1772656000432671700,6.934671630859375,-0.023601531982421875,0.0019196048378944397,0.0013535991311073303
1772656000452430800,6.954430908203125,-0.023601531982421875,0.0007824935019016266,0.002620778977870941
1772656000472190000,6.97418994140625,-0.02360057830810547,0.006698533892631531,-0.0010694488883018494
1772656000491948800,6.99394873046875,-0.027193069458007812,0.003162650391459465,0.0025919899344444275
1772656000511708000,7.0137080078125,-0.02479839324951172,0.007936954498291016,0.003856875002384186
1772656000531467000,7.033467041015625,-0.030783653259277344,0.0006964001804590225,0.0014761611819267273
1772656000551226000,7.05322607421875,-0.028390884399414062,0.0018922742456197739,-0.004364795982837677
1772656000570985000,7.07298486328125,-0.02360248565673828,0.0042796991765499115,0.002769075334072113
1772656000590744000,7.092744140625,-0.02360248565673828,-0.0029519423842430115,-0.002056896686553955
1772656000610503200,7.112503173828125,-0.029588699340820312,0.0028532836586236954,0.0004125535488128662
1772656000630262300,7.13226220703125,-0.031983375549316406,0.003027290105819702,0.002935469150543213
1772656000650021000,7.152021240234375,-0.026000022888183594,-0.0006189458072185516,0.0018695816397666931
1772656000669780200,7.1717802734375,-0.025999069213867188,0.006670752540230751,0.0008061155676841736
1772656000689539300,7.191539306640625,-0.0236053466796875,0.001999884843826294,0.004345729947090149
1772656000709298200,7.211298095703125,-0.021211624145507812,-0.002660635858774185,0.004412643611431122
1772656000729057300,7.231057373046875,-0.027196884155273438,-0.0028285644948482513,-0.0004168003797531128
1772656000748816400,7.25081640625,-0.029590606689453125,0.0020759999752044678,0.0008541196584701538
1772656000768575500,7.270575439453125,-0.028395652770996094,0.0005844980478286743,0.0021224990487098694
1772656000788334300,7.290334228515625,-0.026001930236816406,0.00297500379383564,0.0021346360445022583
1772656000808093400,7.310093505859375,-0.024804115295410156,-0.004254130646586418,0.007042966783046722
1772656000827852500,7.3298525390625,-0.026002883911132812,0.004120348021388054,0.0010726451873779297
1772656000847611400,7.349611328125,-0.022411346435546875,0.004232797771692276,0.0022817254066467285
1772656000867370500,7.36937060546875,-0.02719879150390625,-0.0016277208924293518,-0.00009543448686599731
1772656000887129600,7.389129638671875,-0.0260009765625,0.00423235259950161,0.005834504961967468
1772656000906888700,7.408888671875,-0.0260009765625,-0.0017467085272073746,0.007091931998729706
1772656000926647600,7.4286474609375,-0.027200698852539062,0.0018428396433591843,0.0071521177887916565
1772656000946406700,7.44840673828125,-0.02600383758544922,0.0018420368432998657,0.004882693290710449
1772656000966165800,7.468165771484375,-0.02361011505126953,0.007742639631032944,0.00850147008895874
1772656000985924600,7.487924560546875,-0.023609161376953125,-0.001838313415646553,0.002438664436340332
1772656001005683700,7.50768359375,-0.01882171630859375,0.00287579745054245,0.003673925995826721
1772656001025442800,7.52744287109375,-0.02600383758544922,0.0040554143488407135,0.0035937726497650146
1772656001045202000,7.547201904296875,-0.027199745178222656,-0.0007397104054689407,-0.00006952136754989624
1772656001064960800,7.566960693359375,-0.030791282653808594,0.007554909214377403,0.004695028066635132
1772656001084719900,7.586719970703125,-0.027200698852539062,0.003946131095290184,0.004671506583690643
1772656001104479000,7.60647900390625,-0.027199745178222656,0.0015396829694509506,0.005783498287200928
1772656001124238000,7.626238037109375,-0.02480602264404297,0.00015734508633613586,0.004563972353935242
1772656001143997000,7.645996826171875,-0.030790328979492188,0.0025364961475133896,0.0057350099086761475
1772656001163756000,7.665756103515625,-0.02719879150390625,0.0012680832296609879,0.005650028586387634
1772656001183515100,7.68551513671875,-0.023607254028320312,-0.0025635920464992523,0.005506210029125214
1772656001203274000,7.70527392578125,-0.024804115295410156,0.0022702161222696304,0.004286713898181915
1772656001223033000,7.725033203125,-0.02719879150390625,-0.003657076507806778,-0.001708008348941803
1772656001242792200,7.744792236328125,-0.031986236572265625,0.0035667456686496735,0.004313290119171143
1772656001262551000,7.764551025390625,-0.02959442138671875,0.004566259682178497,-0.0027579516172409058
1772656001282310100,7.78431005859375,-0.027200698852539062,0.003353191539645195,0.003325328230857849
1772656001302069200,7.8040693359375,-0.02600383758544922,0.0009471941739320755,0.00455794483423233
1772656001321828400,7.823828369140625,-0.030791282653808594,0.0009948331862688065,-0.0003021061420440674
1772656001341587200,7.843587158203125,-0.023609161376953125,0.005701277405023575,0.004403628408908844
1772656001361346300,7.86334619140625,-0.02480602264404297,0.0033486783504486084,0.004380233585834503
1772656001381105400,7.88310546875,-0.027199745178222656,0.0032128840684890747,0.0007737278938293457
1772656001400864300,7.9028642578125,-0.026001930236816406,-0.0015811342746019363,0.0042827799916267395
1772656001420623400,7.922623291015625,-0.03078937530517578,0.004207281395792961,0.001811876893043518
1772656001440382500,7.942382568359375,-0.029593467712402344,-0.0005881208926439285,-0.0017291828989982605
1772656001460141300,7.962141357421875,-0.027200698852539062,-0.0018491558730602264,-0.0028736740350723267
1772656001479900400,7.981900390625,-0.028397560119628906,-0.004183957353234291,0.0008207038044929504
1772656001499659500,8.001659423828125,-0.028398513793945312,-0.0005413331091403961,-0.001464836299419403
1772656001519418400,8.02141845703125,-0.030792236328125,0.0078109800815582275,0.005691215395927429
1772656001539177500,8.041177490234375,-0.02361011505126953,-0.003022972494363785,0.0008291900157928467
1772656001558936600,8.0609365234375,-0.02480602264404297,-0.0018303301185369492,0.004279285669326782
1772656001578695700,8.08069580078125,-0.02719879150390625,0.0004944875836372375,0.005332671105861664
1772656001598454500,8.10045458984375,-0.028397560119628906,-0.0030985604971647263,-0.00048701465129852295
1772656001618213600,8.120213623046874,-0.02241230010986328,0.00042261555790901184,-0.00294698029756546
1772656001637972500,8.139972412109374,-0.02600383758544922,-0.003406945616006851,0.002959027886390686
1772656001657731600,8.159731689453125,-0.023611068725585938,-0.0023914333432912827,0.009028822183609009
1772656001677490700,8.17949072265625,-0.02720165252685547,-0.001318732276558876,0.009054183959960938
1772656001697249800,8.199249755859375,-0.029595375061035156,-0.00018939562141895294,0.006631717085838318
1772656001717008600,8.219008544921875,-0.029745101928710938,-0.0013335347175598145,-0.000621698796749115
1772656001736767700,8.238767822265626,-0.02495574951171875,0.000989709049463272,0.002890355885028839
1772656001756526800,8.25852685546875,-0.024956703186035156,0.003544304519891739,0.004124023020267487
1772656001776285700,8.27828564453125,-0.028397560119628906,-0.00011596083641052246,0.0052361860871315
1772656001796044800,8.298044921875,-0.02270984649658203,0.002203240990638733,-0.0008200705051422119
1772656001815804000,8.317803955078125,-0.027349472045898438,-0.0001411084085702896,-0.0008316189050674438
1772656001835562800,8.337562744140625,-0.03318500518798828,0.0009855404496192932,0.00041043758392333984
1772656001855321900,8.35732177734375,-0.027350425720214844,0.00569283589720726,0.00278511643409729
1772656001875080700,8.377080810546875,-0.02495574951171875,0.0008337143808603287,0.0016300827264785767
1772656001894839800,8.39683984375,-0.02286243438720703,0.0008224211633205414,0.0004779025912284851
1772656001914599000,8.416598876953126,-0.02645111083984375,0.0033178627490997314,0.0015396848320960999
1772656001934358000,8.43635791015625,-0.023758888244628906,-0.003924744203686714,0.0016407296061515808
1772656001954116900,8.456116943359374,-0.02495574951171875,-0.0003409534692764282,0.0039536431431770325
1772656001973876000,8.4758759765625,-0.032286643981933594,0.0019213426858186722,0.0014836713671684265
1772656001993634800,8.495634765625,-0.031090736389160156,0.004295682534575462,-0.001997940242290497
1772656002013394000,8.515393798828125,-0.027500152587890625,0.0019472911953926086,-0.0031415969133377075
1772656002033153000,8.535153076171875,-0.029893875122070312,0.004381014034152031,0.0016294494271278381
1772656002052912000,8.554912109375,-0.025255203247070312,0.0020922906696796417,-0.004358410835266113
1772656002072671000,8.5746708984375,-0.031090736389160156,0.002196216955780983,0.0004154518246650696
1772656002092430000,8.59443017578125,-0.02630138397216797,0.004629721865057945,-0.0020461976528167725
1772656002112189200,8.614189208984374,-0.024953842163085938,0.002338757738471031,-0.000860556960105896
1772656002131948000,8.633947998046875,-0.030788421630859375,0.0002307835966348648,0.0062345340847969055
1772656002151707100,8.65370703125,-0.026300430297851562,0.003685915842652321,0.0002356022596359253
1772656002171466000,8.673466064453125,-0.02480316162109375,0.0011621266603469849,0.00004493445158004761
1772656002191225000,8.69322509765625,-0.029590606689453125,0.000014485791325569153,0.004808299243450165
1772656002210984200,8.712984130859375,-0.031983375549316406,0.00006461888551712036,-0.0013055205345153809
1772656002230743000,8.732742919921876,-0.030786514282226562,0.0012497976422309875,0.0010728240013122559
1772656002250502100,8.752502197265626,-0.02614879608154297,-0.0013273153454065323,-0.0037195757031440735
1772656002270261200,8.77226123046875,-0.02734661102294922,0.00111398845911026,0.007142074406147003
1772656002290020000,8.79202001953125,-0.023903846740722656,0.0011614784598350525,-0.0036949440836906433
1772656002309779200,8.811779296875,-0.031236648559570312,0.004673432558774948,-0.0023870617151260376
1772656002329538000,8.8315380859375,-0.02540111541748047,0.0011893250048160553,-0.0000059157609939575195
1772656002349297200,8.851297119140625,-0.02615070343017578,-0.001270744949579239,0.0012930110096931458
1772656002369056300,8.87105615234375,-0.028693199157714844,0.00349978543817997,0.006112553179264069
1772656002388815400,8.8908154296875,-0.029740333557128906,0.0034817513078451157,0.003637067973613739
1772656002408574200,8.91057421875,-0.027647972106933594,0.0010753292590379715,-0.004567302763462067
1772656002428333300,8.930333251953124,-0.02734661102294922,-0.002517949789762497,-0.007075779139995575
1772656002448092200,8.950092041015624,-0.025101661682128906,0.0021382030099630356,-0.0011599361896514893
1772656002467851300,8.969851318359375,-0.029590606689453125,-0.0025947745889425278,-0.00236501544713974
1772656002487610400,8.9896103515625,-0.032283782958984375,-0.0012859907001256943,-0.0024910345673561096
1772656002507369200,9.009369140625,-0.03258323669433594,0.005931993946433067,-0.0011861473321914673
1772656002527128300,9.02912841796875,-0.026449203491210938,-0.00245044007897377,-0.0010783076286315918
1772656002546887200,9.04888720703125,-0.0360260009765625,-0.00006549060344696045,-0.0010891705751419067
1772656002566646300,9.068646240234376,-0.029740333557128906,-0.0071115270256996155,0.00123489648103714
1772656002586405400,9.0884052734375,-0.02540111541748047,0.00474051758646965,-0.004741117358207703
1772656002606164200,9.108164306640624,-0.02779674530029297,0.0034868158400058746,0.004880428314208984
1772656002625923300,9.12792333984375,-0.028992652893066406,0.0011010058224201202,0.004807300865650177
1772656002645682400,9.147682373046875,-0.026597976684570312,-0.0003215726464986801,-0.002430833876132965
1772656002665441300,9.167441162109375,-0.026449203491210938,-0.0015044976025819778,0.0010369345545768738
1772656002685200400,9.187200439453125,-0.023006439208984375,0.0022102128714323044,-0.0013563036918640137
1772656002704959500,9.20695947265625,-0.031386375427246094,0.0009035356342792511,-0.00016111135482788086
1772656002724718300,9.22671826171875,-0.02300739288330078,-0.00016422010958194733,-0.00010392069816589355
1772656002744477400,9.2464775390625,-0.030190467834472656,0.0009231381118297577,-0.0011228770017623901
1772656002764236300,9.266236328125,-0.02659893035888672,-0.003727128729224205,0.004907377064228058
1772656002783995400,9.285995361328125,-0.02899169921875,0.004770014435052872,0.002505004405975342
1772656002803754500,9.30575439453125,-0.03378105163574219,0.004827246069908142,0.002555251121520996
1772656002823513300,9.325513427734375,-0.030191421508789062,0.002497239038348198,-0.0033058077096939087
1772656002843272400,9.3452724609375,-0.02779674530029297,0.00023108907043933868,0.002611406147480011
1772656002863031300,9.36503125,-0.028993606567382812,0.0038821306079626083,-0.0021740347146987915
1772656002882790400,9.384790283203126,-0.027795791625976562,0.00041847676038742065,0.005111731588840485
1772656002902549200,9.40454931640625,-0.03363227844238281,0.0016221478581428528,0.006409123539924622
1772656002922308400,9.424308349609374,-0.030191421508789062,0.00282326340675354,-0.0007734969258308411
1772656002942067500,9.4440673828125,-0.033782005310058594,0.002768697217106819,-0.0007146894931793213
1772656002961826300,9.463826416015625,-0.028993606567382812,0.00020783580839633942,-0.003221362829208374
1772656002981585400,9.48358544921875,-0.02540302276611328,0.002724606543779373,-0.0032747238874435425
1772656003001344300,9.50334423828125,-0.02540111541748047,0.003982465714216232,0.002642884850502014
1772656003021103400,9.523103271484375,-0.026449203491210938,-0.004315782338380814,-0.0010070130228996277
1772656003040862500,9.542862548828126,-0.031235694885253906,-0.001787528395652771,-0.0022598132491111755
1772656003060621300,9.562621337890626,-0.03467750549316406,-0.0028482042253017426,0.00263802707195282
1772656003080380400,9.58238037109375,-0.033779144287109375,0.0009292550384998322,0.002629287540912628
1772656003100139300,9.60213916015625,-0.0297393798828125,0.0010564327239990234,-0.0009615570306777954
1772656003119898400,9.6218984375,-0.03093433380126953,0.0011238418519496918,-0.005856014788150787
1772656003139657500,9.641657470703125,-0.03093433380126953,0.00005643628537654877,0.00018590688705444336
1772656003159416300,9.661416259765625,-0.023901939392089844,0.002573525533080101,0.0048416852951049805
1772656003179175400,9.681175537109375,-0.027342796325683594,0.0003076065331697464,-0.0010840296745300293
1772656003198934300,9.700934326171875,-0.027642250061035156,0.0027055777609348297,-0.003471940755844116
