time,seconds_elapsed,z,y,x
1772655993645299700,0.1472998046875,9.780064582824707,-0.02512463741004467,0.0687936544418335
1772655993655179300,0.15717919921875,9.780064582824707,-0.02512463741004467,0.06400800496339798
1772655993674938400,0.1769384765625,9.78245735168457,-0.02512463741004467,0.06161518394947052
1772655993684818000,0.18681787109375,9.784850120544434,-0.02512463741004467,0.07357929646968842
1772655993694697500,0.196697509765625,9.772886276245117,-0.02512463741004467,0.07118647545576096
1772655993704577000,0.206576904296875,9.784850120544434,-0.029910283163189888,0.0687936544418335
1772655993714456600,0.21645654296875,9.78245735168457,-0.02751746028661728,0.07357929646968842
1772655993724336000,0.226336181640625,9.780662536621094,-0.029910283163189888,0.06400800496339798
1772655993734215700,0.236215576171875,9.777671813964844,-0.02512463741004467,0.06400800496339798
1772655993744095200,0.24609521484375,9.78245735168457,-0.02273181453347206,0.07357929646968842
1772655993753974800,0.255974853515625,9.78245735168457,-0.029910283163189888,0.07118647545576096
1772655993763854300,0.265854248046875,9.780064582824707,-0.017946170642971992,0.07357929646968842
1772655993773734000,0.27573388671875,9.77826976776123,-0.03469592705368996,0.07836493849754333
1772655993783613400,0.285613525390625,9.78245735168457,-0.03469592705368996,0.0687936544418335
1772655993793493000,0.295492919921875,9.784850120544434,-0.02751746028661728,0.07357929646968842
1772655993803372500,0.30537255859375,9.775876998901367,-0.02751746028661728,0.07836493849754333
1772655993813252000,0.315252197265625,9.780064582824707,-0.02751746028661728,0.07118647545576096
1772655993823131600,0.325131591796875,9.784850120544434,-0.02512463741004467,0.07118647545576096
1772655993833011200,0.33501123046875,9.78963565826416,-0.02512463741004467,0.07357929646968842
1772655993842890800,0.344890869140625,9.777671813964844,-0.02273181453347206,0.06640082597732544
1772655993852770300,0.354770263671875,9.780662536621094,-0.029910283163189888,0.07357929646968842
1772655993862649900,0.36464990234375,9.780064582824707,-0.02273181453347206,0.07357929646968842
1772655993872529400,0.374529296875,9.78245735168457,-0.02751746028661728,0.06640082597732544
1772655993882409000,0.384408935546875,9.78245735168457,-0.02751746028661728,0.06400800496339798
1772655993892288500,0.39428857421875,9.784850120544434,-0.03469592705368996,0.06640082597732544
1772655993902168000,0.40416796875,9.784850120544434,-0.02751746028661728,0.07357929646968842
1772655993912047600,0.414047607421875,9.780064582824707,-0.02751746028661728,0.07357929646968842
1772655993921927200,0.42392724609375,9.784850120544434,-0.02751746028661728,0.0687936544418335
1772655993931806700,0.433806640625,9.780064582824707,-0.02751746028661728,0.07836493849754333
1772655993941686300,0.443686279296875,9.780064582824707,-0.02512463741004467,0.0687936544418335
1772655993951565800,0.45356591796875,9.78245735168457,-0.02273181453347206,0.06400800496339798
1772655993961445400,0.4634453125,9.780064582824707,-0.02512463741004467,0.07118647545576096
1772655993971325000,0.473324951171875,9.780064582824707,-0.029910283163189888,0.06640082597732544
1772655993981204500,0.48320458984375,9.777671813964844,-0.02751746028661728,0.06640082597732544
1772655993991084000,0.493083984375,9.780064582824707,-0.02751746028661728,0.06640082597732544
1772655994000963600,0.502963623046875,9.777671813964844,-0.0323031060397625,0.07357929646968842
1772655994010843100,0.512843017578125,9.78963565826416,-0.02751746028661728,0.07357929646968842
1772655994020722700,0.52272265625,9.777671813964844,-0.0323031060397625,0.0687936544418335
1772655994030602200,0.532602294921875,9.777671813964844,-0.02751746028661728,0.0687936544418335
1772655994040481800,0.542481689453125,9.78245735168457,-0.02273181453347206,0.06400800496339798
1772655994050361300,0.552361328125,9.784850120544434,-0.0323031060397625,0.0687936544418335
1772655994060241000,0.562240966796875,9.780064582824707,-0.02751746028661728,0.0687936544418335
1772655994070120400,0.572120361328125,9.780064582824707,-0.02751746028661728,0.07118647545576096
1772655994080000000,0.582,9.78963565826416,-0.0323031060397625,0.06400800496339798
1772655994089879600,0.591879638671875,9.78245735168457,-0.02273181453347206,0.07357929646968842
1772655994099759000,0.601759033203125,9.78245735168457,-0.02751746028661728,0.07357929646968842
1772655994109638700,0.611638671875,9.777671813964844,-0.020338991656899452,0.07118647545576096
1772655994119518000,0.62151806640625,9.780064582824707,-0.017946170642971992,0.07836493849754333
1772655994129397800,0.631397705078125,9.78245735168457,-0.02512463741004467,0.07118647545576096
1772655994139277000,0.641277099609375,9.78245735168457,-0.02512463741004467,0.07597211748361588
1772655994149156600,0.651156494140625,9.784850120544434,-0.02512463741004467,0.07357929646968842
1772655994159036200,0.6610361328125,9.77826976776123,-0.0323031060397625,0.0687936544418335
1772655994168915700,0.670915771484375,9.787242889404297,-0.029910283163189888,0.07597211748361588
1772655994178795300,0.680795166015625,9.77527904510498,-0.02751746028661728,0.07118647545576096
1772655994188674800,0.6906748046875,9.78245735168457,-0.0323031060397625,0.062213387340307236
1772655994198554400,0.700554443359375,9.777671813964844,-0.015553346835076809,0.0687936544418335
1772655994208434000,0.710433837890625,9.784850120544434,-0.02273181453347206,0.07118647545576096
1772655994218313500,0.7203134765625,9.78245735168457,-0.02751746028661728,0.07836493849754333
1772655994228193000,0.730193115234375,9.78245735168457,-0.02751746028661728,0.06640082597732544
1772655994238072600,0.740072509765625,9.78245735168457,-0.020338991656899452,0.07357929646968842
1772655994247952100,0.7499521484375,9.784850120544434,-0.02512463741004467,0.08075776696205139
1772655994257831700,0.759831787109375,9.780064582824707,-0.02512463741004467,0.08075776696205139
1772655994267711200,0.769711181640625,9.77826976776123,-0.029910283163189888,0.08075776696205139
1772655994277590800,0.7795908203125,9.777671813964844,-0.02512463741004467,0.07597211748361588
1772655994287470300,0.78947021484375,9.794421195983887,-0.029910283163189888,0.0687936544418335
1772655994297350000,0.799349853515625,9.777671813964844,-0.02273181453347206,0.07357929646968842
1772655994307229400,0.8092294921875,9.784850120544434,-0.02512463741004467,0.07836493849754333
1772655994317109000,0.81910888671875,9.777671813964844,-0.029910283163189888,0.07118647545576096
1772655994326988500,0.828988525390625,9.78245735168457,-0.02512463741004467,0.06161518394947052
1772655994336868000,0.8388681640625,9.78963565826416,-0.029910283163189888,0.0687936544418335
1772655994346747600,0.84874755859375,9.777671813964844,-0.0323031060397625,0.06400800496339798
1772655994356627200,0.858627197265625,9.777671813964844,-0.03469592705368996,0.0687936544418335
1772655994366506800,0.8685068359375,9.780064582824707,-0.029910283163189888,0.07357929646968842
1772655994376386300,0.87838623046875,9.78245735168457,-0.02751746028661728,0.06640082597732544
1772655994386265900,0.888265869140625,9.784850120544434,-0.02273181453347206,0.06161518394947052
1772655994396145400,0.8981455078125,9.787242889404297,-0.02751746028661728,0.0687936544418335
1772655994406025000,0.90802490234375,9.777671813964844,-0.0323031060397625,0.0687936544418335
1772655994415904500,0.917904541015625,9.78245735168457,-0.029910283163189888,0.07118647545576096
1772655994425784000,0.9277841796875,9.780064582824707,-0.02751746028661728,0.07118647545576096
1772655994435663400,0.937663330078125,9.787242889404297,-0.02512463741004467,0.07597211748361588
1772655994445543000,0.94754296875,9.78245735168457,-0.020338991656899452,0.0687936544418335
1772655994455422700,0.957422607421875,9.78245735168457,-0.02512463741004467,0.0687936544418335
1772655994465302000,0.967302001953125,9.78245735168457,-0.029910283163189888,0.06640082597732544
1772655994475181600,0.977181640625,9.78245735168457,-0.02273181453347206,0.07118647545576096
1772655994485061000,0.98706103515625,9.78245735168457,-0.02512463741004467,0.07357929646968842
1772655994494940700,0.996940673828125,9.775876998901367,-0.02751746028661728,0.07357929646968842
1772655994504820200,1.0068203125,9.78544807434082,-0.02273181453347206,0.06640082597732544
1772655994514699800,1.01669970703125,9.787840843200684,-0.02273181453347206,0.06640082597732544
1772655994524579300,1.026579345703125,9.783055305480957,-0.020338991656899452,0.07118647545576096
1772655994534459000,1.036458984375,9.780662536621094,-0.020338991656899452,0.06400800496339798
1772655994544338400,1.04633837890625,9.780662536621094,-0.017946170642971992,0.07118647545576096
1772655994554218000,1.056218017578125,9.77826976776123,-0.02273181453347206,0.07118647545576096
1772655994564097500,1.06609765625,9.78544807434082,-0.02273181453347206,0.07597211748361588
1772655994573977000,1.07597705078125,9.78544807434082,-0.02512463741004467,0.07118647545576096
1772655994583856600,1.085856689453125,9.780662536621094,-0.020338991656899452,0.0687936544418335
1772655994593736200,1.095736083984375,9.78544807434082,-0.013160524889826775,0.06640082597732544
1772655994603615700,1.10561572265625,9.78544807434082,-0.020338991656899452,0.0687936544418335
1772655994613495300,1.115495361328125,9.783055305480957,-0.02273181453347206,0.06400800496339798
1772655994623374800,1.125374755859375,9.790233612060547,-0.02512463741004467,0.06640082597732544
1772655994633254400,1.13525439453125,9.787840843200684,-0.03469592705368996,0.06640082597732544
1772655994643134000,1.145134033203125,9.787840843200684,-0.029910283163189888,0.06161518394947052
1772655994653013500,1.155013427734375,9.787840843200684,-0.02512463741004467,0.0687936544418335
1772655994662893000,1.16489306640625,9.787840843200684,-0.02273181453347206,0.07836493849754333
1772655994672772600,1.174772705078125,9.790233612060547,-0.02512463741004467,0.07118647545576096
1772655994682652000,1.18465185546875,9.775876998901367,-0.02751746028661728,0.06400800496339798
1772655994692531700,1.19453173828125,9.783055305480957,-0.02751746028661728,0.07836493849754333
1772655994702411300,1.204411376953125,9.78245735168457,-0.02751746028661728,0.07836493849754333
1772655994712290600,1.21429052734375,9.780064582824707,-0.0323031060397625,0.06400800496339798
1772655994722170000,1.224170166015625,9.78963565826416,-0.017946170642971992,0.06640082597732544
1772655994732049700,1.234049560546875,9.787242889404297,-0.02512463741004467,0.07118647545576096
1772655994741929200,1.24392919921875,9.78963565826416,-0.02273181453347206,0.07118647545576096
1772655994751808800,1.253808837890625,9.780064582824707,-0.02512463741004467,0.07357929646968842
1772655994761688300,1.263688232421875,9.787242889404297,-0.02751746028661728,0.07836493849754333
1772655994771567900,1.27356787109375,9.78245735168457,-0.020338991656899452,0.0687936544418335
1772655994781447400,1.283447509765625,9.780064582824707,-0.02273181453347206,0.06640082597732544
1772655994791327000,1.293326904296875,9.78245735168457,-0.02751746028661728,0.07118647545576096
1772655994801206500,1.30320654296875,9.784850120544434,-0.02512463741004467,0.06640082597732544
1772655994811086000,1.313086181640625,9.792028427124023,-0.0323031060397625,0.07597211748361588
1772655994820965600,1.322965576171875,9.78245735168457,-0.02273181453347206,0.06640082597732544
1772655994830845200,1.33284521484375,9.784850120544434,-0.02512463741004467,0.06161518394947052
1772655994840724700,1.342724853515625,9.780064582824707,-0.029910283163189888,0.06640082597732544
1772655994850604300,1.352604248046875,9.777671813964844,-0.02751746028661728,0.07597211748361588
1772655994860483800,1.36248388671875,9.78963565826416,-0.02273181453347206,0.07357929646968842
1772655994870363400,1.37236328125,9.78245735168457,-0.02273181453347206,0.0687936544418335
1772655994880243000,1.382242919921875,9.780064582824707,-0.02512463741004467,0.07357929646968842
1772655994890122500,1.39212255859375,9.780064582824707,-0.02751746028661728,0.0568295381963253
1772655994900002000,1.402001953125,9.780064582824707,-0.02273181453347206,0.05922235921025276
1772655994909881600,1.411881591796875,9.780064582824707,-0.020338991656899452,0.06161518394947052
1772655994919761200,1.42176123046875,9.780064582824707,-0.02273181453347206,0.06400800496339798
1772655994929640400,1.431640380859375,9.780064582824707,-0.02512463741004467,0.0687936544418335
1772655994939520000,1.44152001953125,9.78963565826416,-0.020338991656899452,0.0687936544418335
1772655994949399600,1.451399658203125,9.787242889404297,-0.02512463741004467,0.07597211748361588
1772655994959279000,1.461279052734375,9.787242889404297,-0.02751746028661728,0.07357929646968842
1772655994969158700,1.47115869140625,9.784850120544434,-0.029910283163189888,0.0687936544418335
1772655994979038200,1.4810380859375,9.784850120544434,-0.02273181453347206,0.06640082597732544
1772655994988917800,1.490917724609375,9.78245735168457,-0.02751746028661728,0.06640082597732544
1772655994998797300,1.50079736328125,9.787242889404297,-0.02512463741004467,0.0687936544418335
1772655995008676900,1.5106767578125,9.780064582824707,-0.03469592705368996,0.06939185410737991
1772655995018556400,1.520556396484375,9.780064582824707,-0.02512463741004467,0.07118647545576096
1772655995028436000,1.53043603515625,9.78245735168457,-0.02751746028661728,0.06640082597732544
1772655995038315500,1.5403154296875,9.780064582824707,-0.0323031060397625,0.059820566326379776
1772655995048195000,1.550195068359375,9.78245735168457,-0.037088751792907715,0.07836493849754333
1772655995058074600,1.56007470703125,9.787242889404297,-0.02751746028661728,0.06640082597732544
1772655995067954200,1.5699541015625,9.78245735168457,-0.02512463741004467,0.07357929646968842
1772655995077833700,1.579833740234375,9.780064582824707,-0.02512463741004467,0.06640082597732544
1772655995087713300,1.58971337890625,9.787242889404297,-0.02751746028661728,0.07118647545576096
1772655995097592800,1.5995927734375,9.780064582824707,-0.02273181453347206,0.06640082597732544
1772655995107472400,1.609472412109375,9.787242889404297,-0.02512463741004467,0.0687936544418335
1772655995117352000,1.61935205078125,9.77527904510498,-0.02512463741004467,0.0687936544418335
1772655995127231200,1.629231201171875,9.784850120544434,-0.02273181453347206,0.06400800496339798
1772655995137110800,1.63911083984375,9.792028427124023,-0.03469592705368996,0.06640082597732544
1772655995146990300,1.648990234375,9.784850120544434,-0.03469592705368996,0.0687936544418335
1772655995156870000,1.658869873046875,9.78245735168457,-0.02273181453347206,0.07597211748361588
1772655995166749400,1.66874951171875,9.78245735168457,-0.029910283163189888,0.06640082597732544
1772655995176629000,1.67862890625,9.78245735168457,-0.02512463741004467,0.06640082597732544
1772655995186508500,1.688508544921875,9.787242889404297,-0.020338991656899452,0.07118647545576096
1772655995196388000,1.69838818359375,9.784850120544434,-0.02751746028661728,0.0687936544418335
1772655995206267600,1.708267578125,9.78245735168457,-0.02512463741004467,0.06640082597732544
1772655995216147200,1.718147216796875,9.787242889404297,-0.02512463741004467,0.07357929646968842
1772655995226026800,1.72802685546875,9.784850120544434,-0.020338991656899452,0.06161518394947052
1772655995235906300,1.73790625,9.77527904510498,-0.02273181453347206,0.06640082597732544
1772655995245785900,1.747785888671875,9.787242889404297,-0.02512463741004467,0.05922235921025276
1772655995255665400,1.75766552734375,9.787242889404297,-0.02273181453347206,0.07118647545576096
1772655995265545000,1.767544921875,9.792028427124023,-0.02273181453347206,0.07118647545576096
1772655995275424500,1.777424560546875,9.787242889404297,-0.020338991656899452,0.07118647545576096
1772655995285304000,1.787303955078125,9.787242889404297,-0.020338991656899452,0.07836493849754333
1772655995295183600,1.79718359375,9.787242889404297,-0.02512463741004467,0.06640082597732544
1772655995305063200,1.807063232421875,9.787242889404297,-0.029910283163189888,0.07357929646968842
1772655995314942700,1.816942626953125,9.78245735168457,-0.020338991656899452,0.07118647545576096
1772655995324822000,1.826822021484375,9.784850120544434,-0.0323031060397625,0.07118647545576096
1772655995334701600,1.83670166015625,9.783055305480957,-0.02273181453347206,0.07836493849754333
1772655995344581000,1.8465810546875,9.787242889404297,-0.02751746028661728,0.0687936544418335
1772655995354460700,1.856460693359375,9.780064582824707,-0.020338991656899452,0.06400800496339798
1772655995364340200,1.86634033203125,9.77826976776123,-0.03469592705368996,0.06939185410737991
1772655995374219800,1.8762197265625,9.78245735168457,-0.02273181453347206,0.06161518394947052
1772655995384099300,1.886099365234375,9.78245735168457,-0.02273181453347206,0.0687936544418335
1772655995393979000,1.895978759765625,9.78245735168457,-0.02751746028661728,0.07118647545576096
1772655995403858400,1.9058583984375,9.78245735168457,-0.02273181453347206,0.07836493849754333
1772655995413738000,1.915738037109375,9.784850120544434,-0.02751746028661728,0.0687936544418335
1772655995423617500,1.925617431640625,9.78245735168457,-0.02273181453347206,0.0687936544418335
1772655995433497000,1.9354970703125,9.787242889404297,-0.020338991656899452,0.0687936544418335
1772655995443376600,1.945376708984375,9.787242889404297,-0.02751746028661728,0.07597211748361588
1772655995453256200,1.955256103515625,9.784850120544434,-0.020338991656899452,0.06161518394947052
1772655995463135700,1.9651357421875,9.792028427124023,-0.02273181453347206,0.07836493849754333
1772655995473015300,1.975015380859375,9.784850120544434,-0.02273181453347206,0.0687936544418335
1772655995482894800,1.984894775390625,9.78963565826416,-0.02751746028661728,0.07118647545576096
1772655995492774400,1.9947744140625,9.787242889404297,-0.02273181453347206,0.06400800496339798
1772655995502654000,2.004654052734375,9.78245735168457,-0.02512463741004467,0.06400800496339798
1772655995512533500,2.014533447265625,9.784850120544434,-0.02512463741004467,0.06400800496339798
1772655995522412800,2.024412841796875,9.78245735168457,-0.02273181453347206,0.06161518394947052
1772655995532292400,2.034292236328125,9.787242889404297,-0.02512463741004467,0.06400800496339798
1772655995542172000,2.044171875,9.787242889404297,-0.02512463741004467,0.0687936544418335
1772655995552051500,2.054051513671875,9.78245735168457,-0.02751746028661728,0.07357929646968842
1772655995561931000,2.063930908203125,9.787242889404297,-0.02273181453347206,0.06640082597732544
1772655995571810600,2.073810546875,9.78245735168457,-0.02512463741004467,0.07597211748361588
1772655995581690000,2.083690185546875,9.784850120544434,-0.02512463741004467,0.07357929646968842
1772655995591569700,2.093569580078125,9.787242889404297,-0.029910283163189888,0.06640082597732544
1772655995601449200,2.10344921875,9.78245735168457,-0.02751746028661728,0.06640082597732544
1772655995611328800,2.113328857421875,9.792028427124023,-0.02751746028661728,0.07118647545576096
1772655995621208300,2.123208251953125,9.780064582824707,-0.02751746028661728,0.06640082597732544
1772655995631087900,2.133087890625,9.784850120544434,-0.02273181453347206,0.0687936544418335
1772655995640967400,2.142967529296875,9.78963565826416,-0.02273181453347206,0.0687936544418335
1772655995650847000,2.152846923828125,9.78963565826416,-0.017946170642971992,0.0687936544418335
1772655995660726500,2.1627265625,9.78963565826416,-0.017946170642971992,0.07597211748361588
1772655995670606000,2.172606201171875,9.78245735168457,-0.02512463741004467,0.06400800496339798
1772655995680485600,2.182485595703125,9.787242889404297,-0.02751746028661728,0.07118647545576096
1772655995690365000,2.192364990234375,9.787242889404297,-0.029910283163189888,0.0687936544418335
1772655995700244700,2.20224462890625,9.780064582824707,-0.02751746028661728,0.07118647545576096
1772655995710124300,2.212124267578125,9.78963565826416,-0.02751746028661728,0.07118647545576096
1772655995720003600,2.222003662109375,9.780064582824707,-0.02512463741004467,0.0687936544418335
1772655995729883100,2.231883056640625,9.784850120544434,-0.02751746028661728,0.07118647545576096
1772655995739762700,2.2417626953125,9.784850120544434,-0.013160524889826775,0.06400800496339798
1772655995749642200,2.251642333984375,9.78963565826416,-0.017946170642971992,0.07597211748361588
1772655995759521800,2.261521728515625,9.792028427124023,-0.020338991656899452,0.07357929646968842
1772655995769401300,2.2714013671875,9.780064582824707,-0.02273181453347206,0.0687936544418335
1772655995779281000,2.281281005859375,9.78245735168457,-0.0323031060397625,0.07357929646968842
1772655995789160400,2.291160400390625,9.780064582824707,-0.029910283163189888,0.06161518394947052
1772655995799040000,2.3010400390625,9.787242889404297,-0.02751746028661728,0.07118647545576096
1772655995808919600,2.31091943359375,9.780064582824707,-0.02512463741004467,0.07357929646968842
1772655995818799000,2.320799072265625,9.787242889404297,-0.02751746028661728,0.06400800496339798
1772655995828678700,2.3306787109375,9.78963565826416,-0.02512463741004467,0.07118647545576096
1772655995838558200,2.34055810546875,9.78245735168457,-0.03469592705368996,0.0687936544418335
1772655995848437800,2.350437744140625,9.784850120544434,-0.02751746028661728,0.06640082597732544
1772655995858317300,2.3603173828125,9.784850120544434,-0.029910283163189888,0.0687936544418335
1772655995868196900,2.37019677734375,9.787242889404297,-0.029910283163189888,0.06640082597732544
1772655995878076400,2.380076416015625,9.78963565826416,-0.02512463741004467,0.06640082597732544
1772655995887955700,2.389955810546875,9.78245735168457,-0.02512463741004467,0.06161518394947052
1772655995897835300,2.399835205078125,9.787242889404297,-0.0323031060397625,0.07836493849754333
1772655995907714800,2.40971484375,9.792028427124023,-0.02273181453347206,0.06161518394947052
1772655995917594400,2.419594482421875,9.784850120544434,-0.02751746028661728,0.0687936544418335
1772655995927474000,2.429473876953125,9.78963565826416,-0.02751746028661728,0.06161518394947052
1772655995937353500,2.439353515625,9.777671813964844,-0.020338991656899452,0.0687936544418335
1772655995947233000,2.44923291015625,9.78245735168457,-0.020338991656899452,0.07118647545576096
1772655995957112600,2.459112548828125,9.792028427124023,-0.0323031060397625,0.0687936544418335
1772655995966992100,2.4689921875,9.784850120544434,-0.02512463741004467,0.0687936544418335
1772655995976871700,2.47887158203125,9.792028427124023,-0.02751746028661728,0.06640082597732544
1772655995986751200,2.488751220703125,9.784850120544434,-0.02751746028661728,0.07118647545576096
1772655995996630800,2.498630859375,9.784850120544434,-0.0323031060397625,0.07597211748361588
1772655996006510300,2.50851025390625,9.787242889404297,-0.02512463741004467,0.06400800496339798
1772655996016390000,2.518389892578125,9.780064582824707,-0.02273181453347206,0.07357929646968842
1772655996026269400,2.52826953125,9.787242889404297,-0.02273181453347206,0.0687936544418335
1772655996036149000,2.53814892578125,9.787242889404297,-0.02751746028661728,0.06640082597732544
1772655996046028500,2.548028564453125,9.794421195983887,-0.02751746028661728,0.06640082597732544
1772655996055907800,2.557907958984375,9.78245735168457,-0.02512463741004467,0.0687936544418335
1772655996065787400,2.567787353515625,9.787242889404297,-0.02273181453347206,0.06640082597732544
1772655996075667000,2.5776669921875,9.777671813964844,-0.02751746028661728,0.07357929646968842
1772655996085546500,2.58754638671875,9.78245735168457,-0.020338991656899452,0.0687936544418335
1772655996095426000,2.597426025390625,9.77527904510498,-0.02751746028661728,0.0687936544418335
1772655996105305600,2.6073056640625,9.780064582824707,-0.02512463741004467,0.06400800496339798
1772655996115185200,2.61718505859375,9.787242889404297,-0.017946170642971992,0.07118647545576096
1772655996125064700,2.627064697265625,9.792028427124023,-0.02512463741004467,0.07118647545576096
1772655996134944300,2.6369443359375,9.780064582824707,-0.020338991656899452,0.06640082597732544
1772655996144823800,2.64682373046875,9.787242889404297,-0.02512463741004467,0.06161518394947052
1772655996154703400,2.656703369140625,9.784850120544434,-0.02512463741004467,0.07357929646968842
1772655996164583000,2.6665830078125,9.787242889404297,-0.02751746028661728,0.0687936544418335
1772655996174462500,2.67646240234375,9.78245735168457,-0.02273181453347206,0.08075776696205139
1772655996184342000,2.686342041015625,9.799206733703613,-0.02751746028661728,0.0687936544418335
1772655996194221600,2.6962216796875,9.787242889404297,-0.02273181453347206,0.07118647545576096
1772655996204101000,2.70610107421875,9.78963565826416,-0.02512463741004467,0.0687936544418335
1772655996213980700,2.715980712890625,9.787242889404297,-0.02273181453347206,0.07357929646968842
1772655996223860200,2.725860107421875,9.787242889404297,-0.02273181453347206,0.0687936544418335
1772655996233739500,2.735739501953125,9.78245735168457,-0.020338991656899452,0.06400800496339798
1772655996243619000,2.745619140625,9.787242889404297,-0.03469592705368996,0.06640082597732544
1772655996253498600,2.75549853515625,9.78245735168457,-0.017946170642971992,0.06161518394947052
1772655996263378200,2.765378173828125,9.78963565826416,-0.029910283163189888,0.06400800496339798
1772655996273257700,2.7752578125,9.78963565826416,-0.02273181453347206,0.07357929646968842
1772655996283137300,2.78513720703125,9.78963565826416,-0.02273181453347206,0.06640082597732544
1772655996293016800,2.795016845703125,9.787242889404297,-0.02512463741004467,0.07118647545576096
1772655996302896400,2.804896484375,9.784850120544434,-0.0323031060397625,0.0687936544418335
1772655996312776000,2.81477587890625,9.787242889404297,-0.017946170642971992,0.05922235921025276
1772655996322655500,2.824655517578125,9.78963565826416,-0.02512463741004467,0.06640082597732544
1772655996332535000,2.83453515625,9.780064582824707,-0.02751746028661728,0.07118647545576096
1772655996342414600,2.84441455078125,9.784850120544434,-0.02512463741004467,0.07118647545576096
1772655996352294100,2.854294189453125,9.787242889404297,-0.02512463741004467,0.06400800496339798
1772655996362173700,2.864173583984375,9.792028427124023,-0.02751746028661728,0.05922235921025276
1772655996372053000,2.874052978515625,9.787242889404297,-0.029910283163189888,0.06640082597732544
1772655996381932500,2.8839326171875,9.78245735168457,-0.02751746028661728,0.07357929646968842
1772655996391812400,2.893812255859375,9.780064582824707,-0.020338991656899452,0.06400800496339798
1772655996401691600,2.903691650390625,9.792028427124023,-0.029910283163189888,0.07357929646968842
1772655996411571200,2.9135712890625,9.787242889404297,-0.02751746028661728,0.07597211748361588
1772655996421450800,2.92345068359375,9.792028427124023,-0.02512463741004467,0.0687936544418335
1772655996431330300,2.933330322265625,9.78245735168457,-0.02273181453347206,0.07118647545576096
1772655996441209900,2.9432099609375,9.787242889404297,-0.0323031060397625,0.0687936544418335
1772655996451089400,2.95308935546875,9.78245735168457,-0.029910283163189888,0.07118647545576096
1772655996460969000,2.962968994140625,9.787242889404297,-0.02273181453347206,0.0687936544418335
1772655996470848500,2.9728486328125,9.787242889404297,-0.029910283163189888,0.06400800496339798
1772655996480728000,2.98272802734375,9.787242889404297,-0.02512463741004467,0.0568295381963253
1772655996490607600,2.992607666015625,9.780064582824707,-0.02273181453347206,0.07357929646968842
1772655996500487200,3.002487060546875,9.77527904510498,-0.029910283163189888,0.07597211748361588
1772655996510366700,3.01236669921875,9.780064582824707,-0.03469592705368996,0.0687936544418335
1772655996520246300,3.022246337890625,9.787242889404297,-0.02273181453347206,0.08075776696205139
1772655996530125800,3.032125732421875,9.78245735168457,-0.02273181453347206,0.0687936544418335
1772655996540005400,3.04200537109375,9.780064582824707,-0.03469592705368996,0.07118647545576096
1772655996549884700,3.051884765625,9.777671813964844,-0.0323031060397625,0.0687936544418335
1772655996559764200,3.06176416015625,9.784850120544434,-0.02751746028661728,0.0687936544418335
1772655996569643800,3.071643798828125,9.787242889404297,-0.02751746028661728,0.07357929646968842
1772655996579523300,3.0815234375,9.78245735168457,-0.02273181453347206,0.07357929646968842
1772655996589403000,3.09140283203125,9.78245735168457,-0.029910283163189888,0.06640082597732544
1772655996599282400,3.101282470703125,9.787242889404297,-0.02273181453347206,0.07118647545576096
1772655996609162000,3.111161865234375,9.784850120544434,-0.02273181453347206,0.0687936544418335
1772655996619041500,3.12104150390625,9.78963565826416,-0.02751746028661728,0.07357929646968842
1772655996628921000,3.130921142578125,9.78963565826416,-0.02273181453347206,0.06640082597732544
1772655996638800600,3.140800537109375,9.792028427124023,-0.02273181453347206,0.0687936544418335
1772655996648680200,3.15068017578125,9.78963565826416,-0.02751746028661728,0.07357929646968842
1772655996658559700,3.160559814453125,9.777671813964844,-0.02273181453347206,0.07357929646968842
1772655996668439300,3.170439208984375,9.78245735168457,-0.02273181453347206,0.08315058797597885
1772655996678318800,3.18031884765625,9.787242889404297,-0.029910283163189888,0.07357929646968842
1772655996688198400,3.190198486328125,9.780064582824707,-0.020338991656899452,0.06400800496339798
1772655996698077700,3.20007763671875,9.784850120544434,-0.020338991656899452,0.06640082597732544
1772655996707957500,3.20995751953125,9.792028427124023,-0.02512463741004467,0.06640082597732544
1772655996717836800,3.2198369140625,9.78963565826416,-0.0323031060397625,0.06400800496339798
1772655996727716400,3.22971630859375,9.78963565826416,-0.02273181453347206,0.07357929646968842
1772655996737596000,3.239595947265625,9.780064582824707,-0.02273181453347206,0.06640082597732544
1772655996747475500,3.249475341796875,9.784850120544434,-0.02273181453347206,0.07118647545576096
1772655996757355000,3.25935498046875,9.792028427124023,-0.02512463741004467,0.07118647545576096
1772655996767234600,3.269234619140625,9.78963565826416,-0.02751746028661728,0.0687936544418335
1772655996777114000,3.279114013671875,9.787242889404297,-0.02273181453347206,0.07118647545576096
1772655996786993700,3.28899365234375,9.78245735168457,-0.020338991656899452,0.0687936544418335
1772655996796873200,3.298873291015625,9.787242889404297,-0.029910283163189888,0.07118647545576096
1772655996806752800,3.308752685546875,9.787242889404297,-0.020338991656899452,0.0687936544418335
1772655996816632300,3.31863232421875,9.78963565826416,-0.02512463741004467,0.07836493849754333
1772655996826512000,3.328511962890625,9.792028427124023,-0.0323031060397625,0.07357929646968842
1772655996836391400,3.338391357421875,9.79681396484375,-0.02751746028661728,0.0687936544418335
1772655996846271000,3.34827099609375,9.784850120544434,-0.029910283163189888,0.06640082597732544
1772655996856150500,3.358150634765625,9.78245735168457,-0.02512463741004467,0.0687936544418335
1772655996866029800,3.36802978515625,9.787242889404297,-0.02512463741004467,0.0687936544418335
1772655996875909400,3.377909423828125,9.787242889404297,-0.02273181453347206,0.06640082597732544
1772655996885789000,3.387788818359375,9.792028427124023,-0.02273181453347206,0.06400800496339798
1772655996895668500,3.39766845703125,9.787242889404297,-0.0323031060397625,0.07597211748361588
1772655996905548000,3.407548095703125,9.784850120544434,-0.02273181453347206,0.06400800496339798
1772655996915427600,3.417427490234375,9.78245735168457,-0.029910283163189888,0.07118647545576096
1772655996925307100,3.42730712890625,9.787242889404297,-0.0323031060397625,0.07118647545576096
1772655996935186700,3.437186767578125,9.78963565826416,-0.02512463741004467,0.0687936544418335
1772655996945066200,3.447066162109375,9.78963565826416,-0.020338991656899452,0.06400800496339798
1772655996954945800,3.45694580078125,9.78963565826416,-0.02751746028661728,0.07118647545576096
1772655996964825300,3.466825439453125,9.78245735168457,-0.029910283163189888,0.07118647545576096
1772655996974705000,3.476704833984375,9.784850120544434,-0.02751746028661728,0.06640082597732544
1772655996984584400,3.48658447265625,9.784850120544434,-0.02273181453347206,0.07118647545576096
1772655996994464000,3.496464111328125,9.784850120544434,-0.02512463741004467,0.06640082597732544
1772655997004343600,3.506343505859375,9.784850120544434,-0.020338991656899452,0.06640082597732544
1772655997014222800,3.516222900390625,9.787242889404297,-0.02751746028661728,0.0687936544418335
1772655997024102400,3.526102294921875,9.794421195983887,-0.03469592705368996,0.0687936544418335
1772655997033982000,3.53598193359375,9.784850120544434,-0.0323031060397625,0.06400800496339798
1772655997043861500,3.545861572265625,9.784850120544434,-0.0323031060397625,0.06161518394947052
1772655997053741000,3.555740966796875,9.78963565826416,-0.02273181453347206,0.07597211748361588
1772655997063620600,3.56562060546875,9.794421195983887,-0.02273181453347206,0.07357929646968842
1772655997073500200,3.575500244140625,9.78963565826416,-0.02273181453347206,0.07118647545576096
1772655997083379700,3.585379638671875,9.78963565826416,-0.02512463741004467,0.0687936544418335
1772655997093259300,3.59525927734375,9.787242889404297,-0.029910283163189888,0.06640082597732544
1772655997103138800,3.605138916015625,9.792028427124023,-0.020338991656899452,0.07118647545576096
1772655997113018400,3.615018310546875,9.792028427124023,-0.02751746028661728,0.06400800496339798
1772655997122898000,3.62489794921875,9.784850120544434,-0.02751746028661728,0.06640082597732544
1772655997132777500,3.634777587890625,9.78245735168457,-0.02751746028661728,0.0687936544418335
1772655997142657000,3.644656982421875,9.780064582824707,-0.02512463741004467,0.07597211748361588
1772655997152536600,3.65453662109375,9.784850120544434,-0.02751746028661728,0.07118647545576096
1772655997162415900,3.664415771484375,9.787242889404297,-0.020338991656899452,0.07597211748361588
1772655997172295400,3.67429541015625,9.784850120544434,-0.029910283163189888,0.07597211748361588
1772655997182175000,3.684175048828125,9.794421195983887,-0.02751746028661728,0.0687936544418335
1772655997192054500,3.694054443359375,9.787242889404297,-0.02512463741004467,0.06640082597732544
1772655997201934000,3.70393408203125,9.784850120544434,-0.02273181453347206,0.07357929646968842
1772655997211813600,3.713813720703125,9.792028427124023,-0.017946170642971992,0.06640082597732544
1772655997221693200,3.723693115234375,9.792028427124023,-0.02751746028661728,0.0687936544418335
1772655997231572700,3.73357275390625,9.792028427124023,-0.029910283163189888,0.06400800496339798
1772655997241452300,3.743452392578125,9.784850120544434,-0.029910283163189888,0.06640082597732544
1772655997251331800,3.753331787109375,9.787242889404297,-0.02751746028661728,0.07118647545576096
1772655997261211400,3.76321142578125,9.78963565826416,-0.02512463741004467,0.07597211748361588
1772655997271091000,3.773091064453125,9.78963565826416,-0.02512463741004467,0.0687936544418335
1772655997280970500,3.782970458984375,9.787242889404297,-0.020338991656899452,0.0687936544418335
1772655997290850000,3.79285009765625,9.787242889404297,-0.0323031060397625,0.07836493849754333
1772655997300729600,3.8027294921875,9.77527904510498,-0.02273181453347206,0.06640082597732544
1772655997310609000,3.81260888671875,9.784850120544434,-0.02512463741004467,0.07118647545576096
1772655997320488400,3.822488525390625,9.772886276245117,-0.02273181453347206,0.06640082597732544
1772655997330368000,3.832367919921875,9.780064582824707,-0.029910283163189888,0.07357929646968842
1772655997340247600,3.84224755859375,9.792028427124023,-0.02273181453347206,0.07357929646968842
1772655997350127000,3.852127197265625,9.792028427124023,-0.02273181453347206,0.07357929646968842
1772655997360006700,3.862006591796875,9.78245735168457,-0.02273181453347206,0.07597211748361588
1772655997369886200,3.87188623046875,9.787242889404297,-0.029910283163189888,0.0687936544418335
1772655997379765800,3.881765869140625,9.780064582824707,-0.03469592705368996,0.07357929646968842
1772655997389645300,3.891645263671875,9.78245735168457,-0.03469592705368996,0.07118647545576096
1772655997399524900,3.90152490234375,9.792028427124023,-0.029910283163189888,0.07357929646968842
1772655997409404400,3.911404296875,9.787242889404297,-0.037088751792907715,0.07118647545576096
1772655997419284000,3.921283935546875,9.787242889404297,-0.02751746028661728,0.06400800496339798
1772655997429163500,3.93116357421875,9.787242889404297,-0.02273181453347206,0.07357929646968842
1772655997439043000,3.94104296875,9.787242889404297,-0.02751746028661728,0.0687936544418335
1772655997448922400,3.95092236328125,9.787242889404297,-0.02751746028661728,0.07118647545576096
1772655997458802000,3.960802001953125,9.777671813964844,-0.02512463741004467,0.06400800496339798
1772655997468681500,3.970681396484375,9.784850120544434,-0.02512463741004467,0.07118647545576096
1772655997478561000,3.98056103515625,9.784850120544434,-0.02751746028661728,0.05922235921025276
1772655997488440600,3.990440673828125,9.780064582824707,-0.02273181453347206,0.07118647545576096
1772655997498320100,4.000320068359375,9.78245735168457,-0.029910283163189888,0.0687936544418335
1772655997508199700,4.01019970703125,9.784850120544434,-0.0323031060397625,0.07357929646968842
1772655997518079200,4.020079345703125,9.787242889404297,-0.029910283163189888,0.07118647545576096
1772655997527958800,4.029958740234375,9.78963565826416,-0.02751746028661728,0.07118647545576096
1772655997537838300,4.03983837890625,9.78963565826416,-0.02751746028661728,0.0687936544418335
1772655997547718000,4.0497177734375,9.78245735168457,-0.02512463741004467,0.07118647545576096
1772655997557597400,4.059597412109375,9.784850120544434,-0.020338991656899452,0.07357929646968842
1772655997567477000,4.06947705078125,9.787242889404297,-0.0323031060397625,0.0687936544418335
1772655997577356500,4.0793564453125,9.784850120544434,-0.02512463741004467,0.07357929646968842
1772655997587236000,4.089236083984375,9.780064582824707,-0.020338991656899452,0.06640082597732544
1772655997597115400,4.099115478515625,9.780064582824707,-0.029910283163189888,0.0687936544418335
1772655997606995000,4.108994873046875,9.78245735168457,-0.015553346835076809,0.07597211748361588
1772655997616874500,4.11887451171875,9.780064582824707,-0.029910283163189888,0.06640082597732544
1772655997626754000,4.128754150390625,9.78245735168457,-0.02751746028661728,0.07597211748361588
1772655997636633600,4.138633544921875,9.784850120544434,-0.02273181453347206,0.07118647545576096
1772655997646513200,4.14851318359375,9.792028427124023,-0.020338991656899452,0.07597211748361588
1772655997656392700,4.158392822265625,9.794421195983887,-0.02512463741004467,0.06640082597732544
1772655997666272300,4.168272216796875,9.78245735168457,-0.02512463741004467,0.0687936544418335
1772655997676151800,4.17815185546875,9.78963565826416,-0.020338991656899452,0.06161518394947052
1772655997686031400,4.18803125,9.784850120544434,-0.0323031060397625,0.06400800496339798
1772655997695911000,4.197910888671875,9.78245735168457,-0.029910283163189888,0.06400800496339798
1772655997705790500,4.20779052734375,9.78245735168457,-0.02512463741004467,0.07118647545576096
1772655997715670000,4.217669921875,9.777671813964844,-0.020338991656899452,0.0687936544418335
1772655997725549600,4.227549560546875,9.784850120544434,-0.02751746028661728,0.06640082597732544
1772655997735429000,4.23742919921875,9.784850120544434,-0.02273181453347206,0.07118647545576096
1772655997745308400,4.247308349609375,9.78245735168457,-0.02751746028661728,0.05922235921025276
1772655997755188000,4.25718798828125,9.780064582824707,-0.029910283163189888,0.07118647545576096
1772655997765067500,4.267067626953125,9.784850120544434,-0.0323031060397625,0.07597211748361588
1772655997774947000,4.276947021484375,9.784850120544434,-0.02512463741004467,0.06400800496339798
1772655997784826600,4.28682666015625,9.787242889404297,-0.02751746028661728,0.06640082597732544
1772655997794706200,4.2967060546875,9.784850120544434,-0.029910283163189888,0.0687936544418335
1772655997804585700,4.306585693359375,9.78963565826416,-0.029910283163189888,0.0687936544418335
1772655997814465300,4.31646533203125,9.792028427124023,-0.02512463741004467,0.07357929646968842
1772655997824344800,4.3263447265625,9.787242889404297,-0.02512463741004467,0.06640082597732544
1772655997834224400,4.336224365234375,9.784850120544434,-0.02751746028661728,0.06640082597732544
1772655997844104000,4.34610400390625,9.780064582824707,-0.0323031060397625,0.0687936544418335
1772655997853983500,4.3559833984375,9.784850120544434,-0.0323031060397625,0.06640082597732544
1772655997863862800,4.36586279296875,9.780064582824707,-0.02273181453347206,0.07357929646968842
1772655997873742300,4.375742431640625,9.787242889404297,-0.02512463741004467,0.06161518394947052
1772655997883622000,4.385621826171875,9.78245735168457,-0.02751746028661728,0.06400800496339798
1772655997893501400,4.39550146484375,9.784850120544434,-0.029910283163189888,0.0687936544418335
1772655997903381000,4.405381103515625,9.78245735168457,-0.02751746028661728,0.08075776696205139
1772655997913260500,4.415260498046875,9.784850120544434,-0.02273181453347206,0.07118647545576096
1772655997923140000,4.42514013671875,9.780064582824707,-0.02751746028661728,0.0687936544418335
1772655997933019600,4.43501953125,9.784850120544434,-0.02751746028661728,0.07357929646968842
1772655997942899200,4.444899169921875,9.787242889404297,-0.02751746028661728,0.07118647545576096
1772655997952778800,4.45477880859375,9.78963565826416,-0.0323031060397625,0.07118647545576096
1772655997962658300,4.464658203125,9.78245735168457,-0.029910283163189888,0.07357929646968842
1772655997972537900,4.474537841796875,9.784850120544434,-0.020338991656899452,0.07118647545576096
1772655997982417400,4.48441748046875,9.784850120544434,-0.02273181453347206,0.06161518394947052
1772655997992297000,4.494296875,9.787242889404297,-0.02512463741004467,0.06161518394947052
1772655998002176500,4.504176513671875,9.780064582824707,-0.02273181453347206,0.06400800496339798
1772655998012055800,4.514055908203125,9.792028427124023,-0.03469592705368996,0.0687936544418335
1772655998021935400,4.523935302734375,9.780064582824707,-0.02751746028661728,0.0687936544418335
1772655998031815000,4.53381494140625,9.780064582824707,-0.02273181453347206,0.06640082597732544
1772655998041694500,4.543694580078125,9.77527904510498,-0.02273181453347206,0.06640082597732544
1772655998051574000,4.553573974609375,9.784850120544434,-0.02273181453347206,0.06640082597732544
1772655998061453600,4.56345361328125,9.78245735168457,-0.02273181453347206,0.05922235921025276
1772655998071333000,4.5733330078125,9.784850120544434,-0.02512463741004467,0.06400800496339798
1772655998081212700,4.583212646484375,9.777671813964844,-0.02751746028661728,0.07118647545576096
1772655998091092200,4.59309228515625,9.784850120544434,-0.02751746028661728,0.07357929646968842
1772655998100971800,4.6029716796875,9.784850120544434,-0.02512463741004467,0.07357929646968842
1772655998110851300,4.612851318359375,9.78245735168457,-0.03469592705368996,0.08075776696205139
1772655998120731000,4.62273095703125,9.777671813964844,-0.02512463741004467,0.06640082597732544
1772655998130610400,4.6326103515625,9.787242889404297,-0.02512463741004467,0.07597211748361588
1772655998140489700,4.64248974609375,9.78245735168457,-0.02751746028661728,0.07597211748361588
1772655998150369300,4.652369384765625,9.787242889404297,-0.02751746028661728,0.07597211748361588
1772655998160248800,4.662248779296875,9.794421195983887,-0.02273181453347206,0.07836493849754333
1772655998170128400,4.67212841796875,9.780064582824707,-0.02273181453347206,0.07118647545576096
1772655998180008000,4.682008056640625,9.78963565826416,-0.0323031060397625,0.07357929646968842
1772655998189887500,4.691887451171875,9.784850120544434,-0.02512463741004467,0.07357929646968842
1772655998199767000,4.70176708984375,9.78245735168457,-0.02751746028661728,0.07597211748361588
1772655998209646600,4.711646484375,9.784850120544434,-0.02273181453347206,0.07597211748361588
1772655998219526100,4.721526123046875,9.777671813964844,-0.029910283163189888,0.06161518394947052
1772655998229405700,4.73140576171875,9.784850120544434,-0.017946170642971992,0.06640082597732544
1772655998239285200,4.74128515625,9.787242889404297,-0.02751746028661728,0.07836493849754333
1772655998249164800,4.751164794921875,9.787242889404297,-0.02512463741004467,0.06161518394947052
1772655998259044000,4.761044189453125,9.780064582824707,-0.02751746028661728,0.07118647545576096
1772655998268923600,4.770923583984375,9.787242889404297,-0.020338991656899452,0.07357929646968842
1772655998278803200,4.78080322265625,9.787242889404297,-0.02273181453347206,0.07597211748361588
1772655998288682800,4.790682861328125,9.78963565826416,-0.02751746028661728,0.0687936544418335
1772655998298562300,4.800562255859375,9.77527904510498,-0.03469592705368996,0.0687936544418335
1772655998308441900,4.81044189453125,9.784850120544434,-0.02751746028661728,0.06640082597732544
1772655998318321400,4.8203212890625,9.787242889404297,-0.017946170642971992,0.0687936544418335
1772655998328201000,4.830200927734375,9.784850120544434,-0.02273181453347206,0.06640082597732544
1772655998338080500,4.84008056640625,9.78963565826416,-0.02273181453347206,0.07357929646968842
1772655998347960000,4.8499599609375,9.784850120544434,-0.015553346835076809,0.07357929646968842
1772655998357839600,4.859839599609375,9.787242889404297,-0.02751746028661728,0.06400800496339798
1772655998367719200,4.86971923828125,9.78245735168457,-0.02512463741004467,0.06400800496339798
1772655998377598500,4.879598388671875,9.78245735168457,-0.02273181453347206,0.06640082597732544
1772655998387478000,4.88947802734375,9.780064582824707,-0.02751746028661728,0.07357929646968842
1772655998397357600,4.899357666015625,9.777671813964844,-0.02512463741004467,0.06161518394947052
1772655998407237000,4.909237060546875,9.780064582824707,-0.02512463741004467,0.0687936544418335
1772655998417116700,4.91911669921875,9.780064582824707,-0.03469592705368996,0.07118647545576096
1772655998426996200,4.928996337890625,9.78245735168457,-0.0323031060397625,0.06640082597732544
1772655998436875800,4.938875732421875,9.78245735168457,-0.029910283163189888,0.07118647545576096
1772655998446755300,4.94875537109375,9.780064582824707,-0.02273181453347206,0.06640082597732544
1772655998456635000,4.958634765625,9.787242889404297,-0.02751746028661728,0.06640082597732544
1772655998466514400,4.968514404296875,9.787242889404297,-0.02751746028661728,0.0687936544418335
1772655998476394000,4.97839404296875,9.784850120544434,-0.0323031060397625,0.06640082597732544
1772655998486273500,4.9882734375,9.784850120544434,-0.020338991656899452,0.06640082597732544
1772655998496153000,4.998153076171875,9.78963565826416,-0.020338991656899452,0.07357929646968842
1772655998506032400,5.008032470703125,9.78245735168457,-0.020338991656899452,0.06640082597732544
1772655998515912000,5.017911865234375,9.787242889404297,-0.029910283163189888,0.06161518394947052
1772655998525791500,5.02779150390625,9.792028427124023,-0.020338991656899452,0.07118647545576096
1772655998535671000,5.037671142578125,9.780064582824707,-0.02751746028661728,0.0687936544418335
1772655998545550600,5.047550537109375,9.787242889404297,-0.029910283163189888,0.06400800496339798
1772655998555430100,5.05743017578125,9.78245735168457,-0.02273181453347206,0.0687936544418335
1772655998565309700,5.067309814453125,9.777671813964844,-0.029910283163189888,0.06640082597732544
1772655998575189200,5.077189208984375,9.784850120544434,-0.029910283163189888,0.07118647545576096
1772655998585068800,5.08706884765625,9.777671813964844,-0.02751746028661728,0.0687936544418335
1772655998594948400,5.0969482421875,9.787242889404297,-0.02273181453347206,0.07118647545576096
1772655998604828000,5.106827880859375,9.787242889404297,-0.02751746028661728,0.0687936544418335
1772655998614707500,5.11670751953125,9.772886276245117,-0.02512463741004467,0.0687936544418335
1772655998624586800,5.126586669921875,9.78245735168457,-0.02751746028661728,0.0687936544418335
1772655998634466300,5.13646630859375,9.78245735168457,-0.029910283163189888,0.07597211748361588
1772655998644345900,5.146345947265625,9.777671813964844,-0.02512463741004467,0.0687936544418335
1772655998654225400,5.156225341796875,9.780064582824707,-0.029910283163189888,0.07597211748361588
1772655998664105000,5.16610498046875,9.772886276245117,-0.02273181453347206,0.07118647545576096
1772655998673984500,5.175984619140625,9.77527904510498,-0.0323031060397625,0.07597211748361588
1772655998683864000,5.185864013671875,9.787242889404297,-0.02512463741004467,0.07118647545576096
1772655998693743600,5.19574365234375,9.787242889404297,-0.02512463741004467,0.07118647545576096
1772655998703623200,5.205623046875,9.784850120544434,-0.029910283163189888,0.06400800496339798
1772655998713502700,5.215502685546875,9.78245735168457,-0.029910283163189888,0.06400800496339798
1772655998723382000,5.225382080078125,9.78245735168457,-0.029910283163189888,0.07118647545576096
1772655998733261600,5.235261474609375,9.784850120544434,-0.02751746028661728,0.07597211748361588
1772655998743141000,5.24514111328125,9.78245735168457,-0.029910283163189888,0.07118647545576096
1772655998753020700,5.255020751953125,9.787242889404297,-0.02751746028661728,0.06400800496339798
1772655998762900200,5.264900146484375,9.784850120544434,-0.02751746028661728,0.0687936544418335
1772655998772779800,5.27477978515625,9.784850120544434,-0.02273181453347206,0.0687936544418335
1772655998782659300,5.284659423828125,9.78245735168457,-0.017946170642971992,0.07118647545576096
1772655998792539000,5.294538818359375,9.780064582824707,-0.02512463741004467,0.0687936544418335
1772655998802418400,5.30441845703125,9.787242889404297,-0.02751746028661728,0.05922235921025276
1772655998812298000,5.314298095703125,9.78963565826416,-0.029910283163189888,0.06400800496339798
1772655998822177500,5.324177490234375,9.777671813964844,-0.0323031060397625,0.07118647545576096
1772655998832057000,5.33405712890625,9.777671813964844,-0.020338991656899452,0.07118647545576096
1772655998841936400,5.343936279296875,9.780064582824707,-0.03469592705368996,0.06640082597732544
1772655998851816000,5.35381591796875,9.784850120544434,-0.029910283163189888,0.06400800496339798
1772655998861695500,5.363695556640625,9.784850120544434,-0.0323031060397625,0.06640082597732544
1772655998871575000,5.373574951171875,9.78245735168457,-0.02273181453347206,0.06640082597732544
1772655998881454600,5.38345458984375,9.787242889404297,-0.02751746028661728,0.07357929646968842
1772655998891334100,5.393334228515625,9.787242889404297,-0.029910283163189888,0.08075776696205139
1772655998901213700,5.403213623046875,9.784850120544434,-0.029910283163189888,0.06640082597732544
1772655998911093200,5.41309326171875,9.780064582824707,-0.020338991656899452,0.07118647545576096
1772655998920972800,5.422972900390625,9.78963565826416,-0.02273181453347206,0.0687936544418335
1772655998930852400,5.432852294921875,9.77527904510498,-0.02273181453347206,0.07118647545576096
1772655998940731600,5.442731689453125,9.78245735168457,-0.02751746028661728,0.07357929646968842
1772655998950611200,5.452611083984375,9.784850120544434,-0.029910283163189888,0.06640082597732544
1772655998960490800,5.46249072265625,9.787242889404297,-0.02512463741004467,0.07118647545576096
1772655998970370300,5.472370361328125,9.794421195983887,-0.02512463741004467,0.06400800496339798
1772655998980249900,5.482249755859375,9.784850120544434,-0.02751746028661728,0.07118647545576096
1772655998990129400,5.49212939453125,9.787242889404297,-0.02273181453347206,0.0687936544418335
1772655999000009000,5.502009033203125,9.784850120544434,-0.0323031060397625,0.07597211748361588
1772655999009888500,5.511888427734375,9.78245735168457,-0.02751746028661728,0.07118647545576096
1772655999019768000,5.52176806640625,9.78245735168457,-0.02512463741004467,0.07118647545576096
1772655999029647600,5.531647705078125,9.78245735168457,-0.02512463741004467,0.07118647545576096
1772655999039527000,5.54152685546875,9.780064582824707,-0.029910283163189888,0.06400800496339798
1772655999049406500,5.551406494140625,9.780064582824707,-0.029910283163189888,0.07597211748361588
1772655999059286000,5.5612861328125,9.784850120544434,-0.02512463741004467,0.06161518394947052
1772655999069165600,5.57116552734375,9.78245735168457,-0.0323031060397625,0.0687936544418335
1772655999079045000,5.581045166015625,9.77527904510498,-0.02512463741004467,0.06640082597732544
1772655999088924700,5.590924560546875,9.784850120544434,-0.02751746028661728,0.07597211748361588
1772655999098804200,5.60080419921875,9.78963565826416,-0.029910283163189888,0.07836493849754333
1772655999108683800,5.610683837890625,9.784850120544434,-0.020338991656899452,0.07118647545576096
1772655999118563300,5.620563232421875,9.787242889404297,-0.02512463741004467,0.06640082597732544
1772655999128443000,5.63044287109375,9.780064582824707,-0.0323031060397625,0.07357929646968842
1772655999138322200,5.640322265625,9.78963565826416,-0.02751746028661728,0.0687936544418335
1772655999148201700,5.65020166015625,9.787242889404297,-0.02512463741004467,0.06640082597732544
1772655999158081300,5.660081298828125,9.784850120544434,-0.02273181453347206,0.07118647545576096
1772655999167960800,5.6699609375,9.784850120544434,-0.020338991656899452,0.0687936544418335
1772655999177840400,5.67984033203125,9.77527904510498,-0.02751746028661728,0.0687936544418335
1772655999187720000,5.689719970703125,9.78245735168457,-0.02512463741004467,0.06400800496339798
1772655999197599500,5.699599609375,9.777671813964844,-0.029910283163189888,0.0687936544418335
1772655999207479000,5.70947900390625,9.78245735168457,-0.02751746028661728,0.0687936544418335
1772655999217358600,5.719358642578125,9.784850120544434,-0.017946170642971992,0.07118647545576096
1772655999227238000,5.72923779296875,9.78245735168457,-0.015553346835076809,0.06640082597732544
1772655999237117400,5.739117431640625,9.777671813964844,-0.020338991656899452,0.07118647545576096
1772655999246997000,5.7489970703125,9.78245735168457,-0.02751746028661728,0.06640082597732544
1772655999256876500,5.75887646484375,9.780064582824707,-0.02751746028661728,0.06400800496339798
1772655999266756000,5.768756103515625,9.784850120544434,-0.015553346835076809,0.07357929646968842
1772655999276635600,5.7786357421875,9.78245735168457,-0.02512463741004467,0.07118647545576096
1772655999286515200,5.78851513671875,9.780064582824707,-0.02273181453347206,0.07836493849754333
1772655999296394800,5.798394775390625,9.79681396484375,-0.029910283163189888,0.06640082597732544
1772655999306274300,5.8082744140625,9.78245735168457,-0.0323031060397625,0.07357929646968842
1772655999316153900,5.81815380859375,9.787242889404297,-0.02751746028661728,0.07357929646968842
1772655999326033200,5.828033203125,9.78245735168457,-0.029910283163189888,0.0687936544418335
1772655999335912700,5.83791259765625,9.78963565826416,-0.02512463741004467,0.07357929646968842
1772655999345792300,5.847792236328125,9.784850120544434,-0.02512463741004467,0.06640082597732544
1772655999355671800,5.857671875,9.78245735168457,-0.0323031060397625,0.06640082597732544
1772655999365551400,5.86755126953125,9.78245735168457,-0.017946170642971992,0.07118647545576096
1772655999375431000,5.877430908203125,9.78963565826416,-0.029910283163189888,0.07357929646968842
1772655999385310500,5.887310546875,9.780064582824707,-0.02751746028661728,0.06640082597732544
1772655999395190000,5.89718994140625,9.777671813964844,-0.02273181453347206,0.07357929646968842
1772655999405069600,5.907069580078125,9.78245735168457,-0.029910283163189888,0.0687936544418335
1772655999414949000,5.91694921875,9.78245735168457,-0.02273181453347206,0.06161518394947052
1772655999424828400,5.926828369140625,9.784850120544434,-0.02273181453347206,0.07836493849754333
1772655999434708000,5.9367080078125,9.784850120544434,-0.029910283163189888,0.07357929646968842
1772655999444587500,5.94658740234375,9.772886276245117,-0.02512463741004467,0.07118647545576096
1772655999454467000,5.956467041015625,9.78245735168457,-0.029910283163189888,0.07836493849754333
1772655999464346600,5.9663466796875,9.787242889404297,-0.02512463741004467,0.08315058797597885
1772655999474226200,5.97622607421875,9.78245735168457,-0.017946170642971992,0.06161518394947052
1772655999484105700,5.986105712890625,9.77527904510498,-0.03469592705368996,0.07118647545576096
1772655999493985300,5.9959853515625,9.777671813964844,-0.02751746028661728,0.06400800496339798
1772655999503864800,6.00586474609375,9.787242889404297,-0.02273181453347206,0.07118647545576096
1772655999513744400,6.015744384765625,9.787242889404297,-0.02273181453347206,0.06400800496339798
1772655999523623700,6.025623779296875,9.792028427124023,-0.0323031060397625,0.0687936544418335
1772655999533503200,6.035503173828125,9.777671813964844,-0.02273181453347206,0.07118647545576096
1772655999543382800,6.0453828125,9.78245735168457,-0.02512463741004467,0.06640082597732544
1772655999553262300,6.055262451171875,9.78245735168457,-0.029910283163189888,0.07118647545576096
1772655999563142000,6.065141845703125,9.780064582824707,-0.020338991656899452,0.06400800496339798
1772655999573021400,6.075021484375,9.780064582824707,-0.02512463741004467,0.06640082597732544
1772655999582901000,6.08490087890625,9.787242889404297,-0.020338991656899452,0.0687936544418335
1772655999592780500,6.094780517578125,9.787242889404297,-0.02751746028661728,0.07118647545576096
1772655999602660000,6.10466015625,9.78245735168457,-0.02751746028661728,0.07357929646968842
1772655999612539600,6.11453955078125,9.780064582824707,-0.0323031060397625,0.07118647545576096
1772655999622419000,6.1244189453125,9.784850120544434,-0.02273181453347206,0.07118647545576096
1772655999632298500,6.134298583984375,9.780064582824707,-0.03469592705368996,0.0687936544418335
1772655999642178000,6.144177978515625,9.772886276245117,-0.02512463741004467,0.06640082597732544
1772655999652057600,6.1540576171875,9.784850120544434,-0.020338991656899452,0.07118647545576096
1772655999661937200,6.163937255859375,9.777671813964844,-0.015553346835076809,0.07357929646968842
1772655999671816700,6.173816650390625,9.780064582824707,-0.0323031060397625,0.07357929646968842
1772655999681696300,6.1836962890625,9.78963565826416,-0.02512463741004467,0.0687936544418335
1772655999691575600,6.193575439453125,9.78963565826416,-0.02512463741004467,0.06640082597732544
1772655999701455000,6.203455078125,9.78245735168457,-0.020338991656899452,0.06640082597732544
1772655999711334700,6.213334716796875,9.787242889404297,-0.02273181453347206,0.07118647545576096
1772655999721214200,6.223214111328125,9.78963565826416,-0.02751746028661728,0.07597211748361588
1772655999731093800,6.23309375,9.78963565826416,-0.029910283163189888,0.07118647545576096
1772655999740973300,6.242973388671875,9.78963565826416,-0.037088751792907715,0.07357929646968842
1772655999750852900,6.252852783203125,9.78245735168457,-0.02751746028661728,0.07118647545576096
1772655999760732400,6.262732421875,9.787242889404297,-0.020338991656899452,0.06640082597732544
1772655999770612000,6.272612060546875,9.78245735168457,-0.017946170642971992,0.0687936544418335
1772655999780491500,6.282491455078125,9.780064582824707,-0.029910283163189888,0.06640082597732544
1772655999790370800,6.292370849609375,9.784850120544434,-0.02273181453347206,0.0687936544418335
1772655999800250400,6.30225048828125,9.78963565826416,-0.029910283163189888,0.0687936544418335
1772655999810130000,6.3121298828125,9.78245735168457,-0.02273181453347206,0.06400800496339798
1772655999820009500,6.322009521484375,9.784850120544434,-0.02273181453347206,0.06640082597732544
1772655999829889000,6.331888916015625,9.784850120544434,-0.017946170642971992,0.06640082597732544
1772655999839768600,6.3417685546875,9.777671813964844,-0.02273181453347206,0.06640082597732544
1772655999849648000,6.351648193359375,9.78245735168457,-0.02273181453347206,0.07836493849754333
1772655999859527400,6.36152734375,9.78245735168457,-0.0323031060397625,0.0687936544418335
1772655999869407000,6.371406982421875,9.78245735168457,-0.029910283163189888,0.07118647545576096
1772655999879286500,6.38128662109375,9.787242889404297,-0.020338991656899452,0.07118647545576096
1772655999889166000,6.391166015625,9.787242889404297,-0.02273181453347206,0.0687936544418335
1772655999899045600,6.401045654296875,9.780064582824707,-0.029910283163189888,0.0687936544418335
1772655999908925200,6.41092529296875,9.78245735168457,-0.02751746028661728,0.0687936544418335
1772655999918804700,6.4208046875,9.777671813964844,-0.02512463741004467,0.07118647545576096
1772655999928684300,6.430684326171875,9.78963565826416,-0.0323031060397625,0.06640082597732544
1772655999938563800,6.440563720703125,9.78245735168457,-0.02512463741004467,0.07118647545576096
1772655999948443400,6.450443359375,9.784850120544434,-0.020338991656899452,0.06640082597732544
1772655999958322700,6.46032275390625,9.78245735168457,-0.02512463741004467,0.07118647545576096
1772655999968202200,6.4702021484375,9.78245735168457,-0.015553346835076809,0.06640082597732544
1772655999978081800,6.480081787109375,9.78245735168457,-0.015553346835076809,0.07118647545576096
1772655999987961300,6.48996142578125,9.78245735168457,-0.020338991656899452,0.07118647545576096
1772655999997841000,6.4998408203125,9.78963565826416,-0.02512463741004467,0.07118647545576096
1772656000007720400,6.509720458984375,9.78963565826416,-0.02273181453347206,0.07597211748361588
1772656000017600000,6.51960009765625,9.787242889404297,-0.0323031060397625,0.07357929646968842
1772656000027479300,6.529479248046875,9.78963565826416,-0.02751746028661728,0.06640082597732544
1772656000037358800,6.53935888671875,9.78245735168457,-0.017946170642971992,0.07118647545576096
1772656000047238400,6.54923828125,9.784850120544434,-0.02512463741004467,0.07357929646968842
1772656000057118000,6.559117919921875,9.77527904510498,-0.02512463741004467,0.07118647545576096
1772656000066997500,6.56899755859375,9.77527904510498,-0.02273181453347206,0.0687936544418335
1772656000076877000,6.578876953125,9.777671813964844,-0.0323031060397625,0.06640082597732544
1772656000086756600,6.588756591796875,9.78245735168457,-0.02273181453347206,0.0687936544418335
1772656000096636200,6.59863623046875,9.78245735168457,-0.02273181453347206,0.07118647545576096
1772656000106515700,6.608515625,9.787242889404297,-0.02273181453347206,0.06640082597732544
1772656000116395000,6.61839501953125,9.784850120544434,-0.02512463741004467,0.07118647545576096
1772656000126274600,6.628274658203125,9.787242889404297,-0.02512463741004467,0.06640082597732544
1772656000136154000,6.638154052734375,9.780064582824707,-0.02273181453347206,0.07597211748361588
1772656000146033700,6.64803369140625,9.78245735168457,-0.02751746028661728,0.07118647545576096
1772656000155913200,6.657913330078125,9.780064582824707,-0.0323031060397625,0.07357929646968842
1772656000165792800,6.667792724609375,9.787242889404297,-0.02751746028661728,0.0568295381963253
1772656000175672300,6.67767236328125,9.78245735168457,-0.020338991656899452,0.07357929646968842
1772656000185552000,6.6875517578125,9.794421195983887,-0.02751746028661728,0.06640082597732544
1772656000195431400,6.697431396484375,9.78963565826416,-0.02273181453347206,0.07118647545576096
1772656000205310700,6.707310791015625,9.784850120544434,-0.02273181453347206,0.07357929646968842
1772656000215190300,6.717190185546875,9.780064582824707,-0.020338991656899452,0.06400800496339798
1772656000225069800,6.72706982421875,9.780064582824707,-0.02273181453347206,0.07357929646968842
1772656000234949400,6.736949462890625,9.792028427124023,-0.029910283163189888,0.0687936544418335
1772656000244829000,6.746828857421875,9.784850120544434,-0.02512463741004467,0.0687936544418335
1772656000254708500,6.75670849609375,9.784850120544434,-0.02273181453347206,0.06640082597732544
1772656000264588000,6.766588134765625,9.787242889404297,-0.02512463741004467,0.07357929646968842
1772656000274467300,6.77646728515625,9.784850120544434,-0.0323031060397625,0.07597211748361588
1772656000284347000,6.786346923828125,9.78245735168457,-0.02512463741004467,0.07597211748361588
1772656000294226400,6.796226318359375,9.780064582824707,-0.0323031060397625,0.07118647545576096
1772656000304106000,6.80610595703125,9.784850120544434,-0.0323031060397625,0.07836493849754333
1772656000313985500,6.815985595703125,9.78245735168457,-0.029910283163189888,0.08075776696205139
1772656000323865000,6.825864990234375,9.78963565826416,-0.02751746028661728,0.07836493849754333
1772656000333744600,6.83574462890625,9.78245735168457,-0.02273181453347206,0.06400800496339798
1772656000343624000,6.8456240234375,9.777671813964844,-0.02273181453347206,0.07118647545576096
1772656000353503500,6.85550341796875,9.784850120544434,-0.02512463741004467,0.07118647545576096
1772656000363383000,6.865383056640625,9.787242889404297,-0.02512463741004467,0.07597211748361588
1772656000373262600,6.8752626953125,9.784850120544434,-0.029910283163189888,0.07118647545576096
1772656000383142100,6.88514208984375,9.777671813964844,-0.03469592705368996,0.0687936544418335
1772656000393021700,6.895021728515625,9.78963565826416,-0.02273181453347206,0.0687936544418335
1772656000402901200,6.9049013671875,9.777671813964844,-0.02751746028661728,0.06400800496339798
1772656000412780800,6.91478076171875,9.78245735168457,-0.02273181453347206,0.07118647545576096
1772656000422660400,6.924660400390625,9.78245735168457,-0.02512463741004467,0.06640082597732544
1772656000432539600,6.93453955078125,9.787242889404297,-0.02751746028661728,0.0687936544418335
1772656000442419200,6.944419189453125,9.780064582824707,-0.02512463741004467,0.0687936544418335
1772656000452298800,6.954298828125,9.78963565826416,-0.02751746028661728,0.07118647545576096
1772656000462178300,6.96417822265625,9.787242889404297,-0.02751746028661728,0.07357929646968842
1772656000472057900,6.974057861328125,9.787242889404297,-0.02273181453347206,0.0687936544418335
1772656000481937400,6.9839375,9.78245735168457,-0.02273181453347206,0.07118647545576096
1772656000491817000,6.99381689453125,9.784850120544434,-0.02512463741004467,0.0687936544418335
1772656000501696500,7.003696533203125,9.784850120544434,-0.020338991656899452,0.07836493849754333
1772656000511575800,7.013575927734375,9.780064582824707,-0.017946170642971992,0.06400800496339798
1772656000521455400,7.023455322265625,9.784850120544434,-0.02512463741004467,0.07597211748361588
1772656000531335000,7.0333349609375,9.780064582824707,-0.02751746028661728,0.0687936544418335
1772656000541214500,7.04321435546875,9.777671813964844,-0.029910283163189888,0.06161518394947052
1772656000551094000,7.053093994140625,9.777671813964844,-0.02512463741004467,0.06640082597732544
1772656000560973600,7.0629736328125,9.784850120544434,-0.020338991656899452,0.06161518394947052
1772656000570853000,7.07285302734375,9.784850120544434,-0.02751746028661728,0.07836493849754333
1772656000580732400,7.082732421875,9.78963565826416,-0.029910283163189888,0.0687936544418335
1772656000590612000,7.092612060546875,9.78245735168457,-0.0323031060397625,0.07118647545576096
1772656000600491500,7.102491455078125,9.784850120544434,-0.02512463741004467,0.06161518394947052
1772656000610371000,7.11237109375,9.78245735168457,-0.02751746028661728,0.0687936544418335
1772656000620250600,7.122250732421875,9.772886276245117,-0.02273181453347206,0.07357929646968842
1772656000630130200,7.132130126953125,9.780064582824707,-0.02512463741004467,0.0687936544418335
1772656000640009700,7.142009765625,9.780064582824707,-0.02512463741004467,0.07118647545576096
1772656000649889300,7.15188916015625,9.787242889404297,-0.029910283163189888,0.0687936544418335
1772656000659768600,7.1617685546875,9.78963565826416,-0.02751746028661728,0.07118647545576096
1772656000669648100,7.171648193359375,9.78245735168457,-0.02273181453347206,0.06400800496339798
1772656000679527700,7.181527587890625,9.77527904510498,-0.020338991656899452,0.07118647545576096
1772656000689407200,7.1914072265625,9.78963565826416,-0.02512463741004467,0.07597211748361588
1772656000699286800,7.201286865234375,9.787242889404297,-0.029910283163189888,0.07357929646968842
1772656000709166300,7.211166259765625,9.78963565826416,-0.03469592705368996,0.0687936544418335
1772656000719046000,7.2210458984375,9.78963565826416,-0.029910283163189888,0.07118647545576096
1772656000728925200,7.23092529296875,9.777671813964844,-0.029910283163189888,0.07118647545576096
1772656000738804700,7.2408046875,9.780064582824707,-0.02512463741004467,0.06400800496339798
1772656000748684300,7.250684326171875,9.780064582824707,-0.02751746028661728,0.07118647545576096
1772656000758563800,7.260563720703125,9.78245735168457,-0.0323031060397625,0.07118647545576096
1772656000768443400,7.270443359375,9.78245735168457,-0.02751746028661728,0.0687936544418335
1772656000778323000,7.280322998046875,9.780064582824707,-0.02273181453347206,0.0687936544418335
1772656000788202500,7.290202392578125,9.784850120544434,-0.02273181453347206,0.0687936544418335
1772656000798081800,7.300081787109375,9.780064582824707,-0.0323031060397625,0.0687936544418335
1772656000807961300,7.30996142578125,9.78963565826416,-0.0323031060397625,0.07836493849754333
1772656000817841000,7.3198408203125,9.78245735168457,-0.029910283163189888,0.07357929646968842
1772656000827720400,7.329720458984375,9.784850120544434,-0.020338991656899452,0.0687936544418335
1772656000837600000,7.33960009765625,9.784850120544434,-0.02512463741004467,0.07118647545576096
1772656000847479600,7.3494794921875,9.78963565826416,-0.020338991656899452,0.06640082597732544
1772656000857359000,7.359359130859375,9.78245735168457,-0.03469592705368996,0.07357929646968842
1772656000867238400,7.36923828125,9.78245735168457,-0.02751746028661728,0.06400800496339798
1772656000877118000,7.379117919921875,9.780064582824707,-0.02512463741004467,0.07118647545576096
1772656000886997500,7.38899755859375,9.78963565826416,-0.020338991656899452,0.07118647545576096
1772656000896877000,7.398876953125,9.780064582824707,-0.0323031060397625,0.07597211748361588
1772656000906756600,7.408756591796875,9.777671813964844,-0.029910283163189888,0.07118647545576096
1772656000916636200,7.41863623046875,9.794421195983887,-0.02512463741004467,0.07836493849754333
1772656000926515700,7.428515625,9.777671813964844,-0.02751746028661728,0.07357929646968842
1772656000936395000,7.43839501953125,9.78245735168457,-0.02512463741004467,0.07357929646968842
1772656000946274600,7.448274658203125,9.787242889404297,-0.029910283163189888,0.07118647545576096
1772656000956154000,7.458154052734375,9.78245735168457,-0.020338991656899452,0.07357929646968842
1772656000966033700,7.46803369140625,9.78245735168457,-0.02273181453347206,0.07836493849754333
1772656000975913200,7.477913330078125,9.78963565826416,-0.02273181453347206,0.07118647545576096
1772656000985792800,7.487792724609375,9.78245735168457,-0.0323031060397625,0.07118647545576096
1772656000995672300,7.49767236328125,9.792028427124023,-0.02751746028661728,0.07597211748361588
1772656001005551600,7.507551513671875,9.792028427124023,-0.02751746028661728,0.06640082597732544
1772656001015431200,7.51743115234375,9.784850120544434,-0.020338991656899452,0.07357929646968842
1772656001025310700,7.527310791015625,9.784850120544434,-0.020338991656899452,0.06400800496339798
1772656001035190300,7.537190185546875,9.777671813964844,-0.0323031060397625,0.07357929646968842
1772656001045069800,7.54706982421875,9.787242889404297,-0.02751746028661728,0.07118647545576096
1772656001054949400,7.556949462890625,9.784850120544434,-0.02273181453347206,0.06640082597732544
1772656001064828700,7.56682861328125,9.77527904510498,-0.017946170642971992,0.07597211748361588
1772656001074708200,7.576708251953125,9.784850120544434,-0.02512463741004467,0.07118647545576096
1772656001084587800,7.586587890625,9.77527904510498,-0.02273181453347206,0.06640082597732544
1772656001094467300,7.59646728515625,9.784850120544434,-0.02273181453347206,0.07118647545576096
1772656001104347000,7.606346923828125,9.78245735168457,-0.0323031060397625,0.08075776696205139
1772656001114226400,7.616226318359375,9.78245735168457,-0.02512463741004467,0.07357929646968842
1772656001124106000,7.62610595703125,9.787242889404297,-0.02751746028661728,0.0687936544418335
1772656001133985500,7.635985595703125,9.78245735168457,-0.029910283163189888,0.0687936544418335
1772656001143864800,7.64586474609375,9.777671813964844,-0.020338991656899452,0.07357929646968842
1772656001153744400,7.655744384765625,9.780064582824707,-0.02751746028661728,0.08315058797597885
1772656001163624000,7.6656240234375,9.780064582824707,-0.020338991656899452,0.07357929646968842
1772656001173503500,7.67550341796875,9.787242889404297,-0.037088751792907715,0.06400800496339798
1772656001183383000,7.685383056640625,9.78245735168457,-0.02512463741004467,0.07597211748361588
1772656001193262600,7.6952626953125,9.78963565826416,-0.02751746028661728,0.07836493849754333
1772656001203142100,7.70514208984375,9.787242889404297,-0.02751746028661728,0.0687936544418335
1772656001213021400,7.715021484375,9.780064582824707,-0.02751746028661728,0.07357929646968842
1772656001222901000,7.72490087890625,9.78245735168457,-0.029910283163189888,0.06161518394947052
1772656001232780500,7.734780517578125,9.777671813964844,-0.029910283163189888,0.07118647545576096
1772656001242660000,7.74466015625,9.777671813964844,-0.02273181453347206,0.07118647545576096
1772656001252539600,7.75453955078125,9.780064582824707,-0.02512463741004467,0.07357929646968842
1772656001262419200,7.764419189453125,9.784850120544434,-0.02273181453347206,0.06400800496339798
1772656001272298500,7.774298583984375,9.77527904510498,-0.02273181453347206,0.06400800496339798
1772656001282178000,7.784177978515625,9.787242889404297,-0.02512463741004467,0.07357929646968842
1772656001292057600,7.7940576171875,9.78245735168457,-0.017946170642971992,0.07118647545576096
1772656001301937200,7.803937255859375,9.78245735168457,-0.02751746028661728,0.07597211748361588
1772656001311816700,7.813816650390625,9.780064582824707,-0.02751746028661728,0.06640082597732544
1772656001321696300,7.8236962890625,9.77527904510498,-0.02751746028661728,0.06400800496339798
1772656001331575600,7.833575439453125,9.78963565826416,-0.020338991656899452,0.07118647545576096
1772656001341455000,7.843455078125,9.787242889404297,-0.020338991656899452,0.07597211748361588
1772656001351334700,7.853334716796875,9.780064582824707,-0.02751746028661728,0.07597211748361588
1772656001361214200,7.863214111328125,9.787242889404297,-0.02512463741004467,0.0687936544418335
1772656001371093800,7.87309375,9.78245735168457,-0.02512463741004467,0.07357929646968842
1772656001380973300,7.882973388671875,9.780064582824707,-0.017946170642971992,0.06400800496339798
1772656001390852900,7.892852783203125,9.784850120544434,-0.0323031060397625,0.07357929646968842
1772656001400732200,7.902732177734375,9.78245735168457,-0.029910283163189888,0.06640082597732544
1772656001410611700,7.91261181640625,9.78245735168457,-0.02512463741004467,0.07597211748361588
1772656001420491300,7.9224912109375,9.777671813964844,-0.02273181453347206,0.06640082597732544
1772656001430370800,7.932370849609375,9.784850120544434,-0.02273181453347206,0.07118647545576096
1772656001440250400,7.94225048828125,9.780064582824707,-0.029910283163189888,0.06400800496339798
1772656001450130000,7.9521298828125,9.77527904510498,-0.02512463741004467,0.0687936544418335
1772656001460009500,7.962009521484375,9.78245735168457,-0.029910283163189888,0.06640082597732544
1772656001469888800,7.971888671875,9.784850120544434,-0.02751746028661728,0.06400800496339798
1772656001479768300,7.981768310546875,9.780064582824707,-0.0323031060397625,0.07118647545576096
1772656001489647900,7.99164794921875,9.780064582824707,-0.02751746028661728,0.0687936544418335
1772656001499527400,8.00152734375,9.784850120544434,-0.029910283163189888,0.0687936544418335
1772656001509407000,8.011406982421875,9.777671813964844,-0.02273181453347206,0.06400800496339798
1772656001519286500,8.02128662109375,9.777671813964844,-0.017946170642971992,0.07357929646968842
1772656001529165800,8.031165771484375,9.784850120544434,-0.02273181453347206,0.07357929646968842
1772656001539045400,8.04104541015625,9.78245735168457,-0.0323031060397625,0.06640082597732544
1772656001548925000,8.050925048828125,9.792028427124023,-0.03469592705368996,0.0687936544418335
1772656001558804500,8.060804443359375,9.784850120544434,-0.02751746028661728,0.07118647545576096
1772656001568684000,8.07068408203125,9.780064582824707,-0.02273181453347206,0.07357929646968842
1772656001578563600,8.0805634765625,9.784850120544434,-0.029910283163189888,0.07357929646968842
1772656001588443100,8.090443115234375,9.777671813964844,-0.02512463741004467,0.07597211748361588
1772656001598322400,8.100322509765626,9.780064582824707,-0.02751746028661728,0.06640082597732544
1772656001608202000,8.110201904296876,9.784850120544434,-0.0323031060397625,0.06400800496339798
1772656001618081500,8.12008154296875,9.78963565826416,-0.02273181453347206,0.0687936544418335
1772656001627961000,8.129961181640626,9.787242889404297,-0.029910283163189888,0.06161518394947052
1772656001637840600,8.139840576171874,9.78245735168457,-0.03469592705368996,0.07118647545576096
1772656001647720200,8.14972021484375,9.78245735168457,-0.02273181453347206,0.07836493849754333
1772656001657599500,8.159599609375,9.787242889404297,-0.029910283163189888,0.07836493849754333
1772656001667479000,8.16947900390625,9.78245735168457,-0.029910283163189888,0.07836493849754333
1772656001677358600,8.179358642578125,9.784850120544434,-0.02273181453347206,0.07597211748361588
1772656001687238100,8.189238037109375,9.78245735168457,-0.03469592705368996,0.07357929646968842
1772656001697117700,8.19911767578125,9.78245735168457,-0.02512463741004467,0.07357929646968842
1772656001706997200,8.208997314453125,9.78245735168457,-0.02273181453347206,0.07597211748361588
1772656001716876500,8.21887646484375,9.77527904510498,-0.02512463741004467,0.06400800496339798
1772656001726756000,8.228756103515625,9.780064582824707,-0.029910283163189888,0.07118647545576096
1772656001736635600,8.2386357421875,9.787242889404297,-0.029910283163189888,0.07357929646968842
1772656001746515200,8.24851513671875,9.784850120544434,-0.020338991656899452,0.07118647545576096
1772656001756394800,8.258394775390625,9.78245735168457,-0.02273181453347206,0.07357929646968842
1772656001766274300,8.2682744140625,9.787242889404297,-0.02512463741004467,0.07597211748361588
1772656001776153600,8.278153564453126,9.777671813964844,-0.02751746028661728,0.06400800496339798
1772656001786033200,8.288033203125,9.787242889404297,-0.02273181453347206,0.07597211748361588
1772656001795912700,8.29791259765625,9.78245735168457,-0.02273181453347206,0.06400800496339798
1772656001805792300,8.307792236328124,9.787242889404297,-0.02273181453347206,0.0687936544418335
1772656001815671800,8.317671875,9.780064582824707,-0.02751746028661728,0.06640082597732544
1772656001825551400,8.32755126953125,9.784850120544434,-0.02751746028661728,0.06640082597732544
1772656001835430700,8.3374306640625,9.77527904510498,-0.029910283163189888,0.0687936544418335
1772656001845310200,8.347310302734375,9.77527904510498,-0.017946170642971992,0.07597211748361588
1772656001855189800,8.357189697265625,9.78245735168457,-0.017946170642971992,0.07118647545576096
1772656001865069300,8.3670693359375,9.787242889404297,-0.02512463741004467,0.07118647545576096
1772656001874948900,8.376948974609375,9.78245735168457,-0.020338991656899452,0.06640082597732544
1772656001884828400,8.386828369140625,9.787242889404297,-0.029910283163189888,0.06640082597732544
1772656001894707700,8.396707763671875,9.78963565826416,-0.02512463741004467,0.07597211748361588
1772656001904587300,8.406587158203125,9.781859397888184,-0.02273181453347206,0.06400800496339798
1772656001914466800,8.416466796875,9.784850120544434,-0.02512463741004467,0.07118647545576096
1772656001924346400,8.426346435546876,9.78245735168457,-0.02512463741004467,0.07597211748361588
1772656001934226000,8.436225830078126,9.787242889404297,-0.0323031060397625,0.06640082597732544
1772656001944105500,8.44610546875,9.78664493560791,-0.02273181453347206,0.06640082597732544
1772656001953984800,8.45598486328125,9.787242889404297,-0.029910283163189888,0.07357929646968842
1772656001963864300,8.4658642578125,9.77527904510498,-0.0323031060397625,0.07357929646968842
1772656001973743900,8.475743896484374,9.777671813964844,-0.02273181453347206,0.0687936544418335
1772656001983623400,8.48562353515625,9.781859397888184,-0.015553346835076809,0.06640082597732544
1772656001993503000,8.4955029296875,9.77527904510498,-0.02512463741004467,0.07118647545576096
1772656002003382500,8.505382568359375,9.777671813964844,-0.02273181453347206,0.06161518394947052
1772656002013261800,8.51526171875,9.784850120544434,-0.02512463741004467,0.0687936544418335
1772656002023141400,8.525141357421875,9.784850120544434,-0.02273181453347206,0.06400800496339798
1772656002033021000,8.53502099609375,9.781859397888184,-0.017946170642971992,0.07357929646968842
1772656002042900500,8.544900390625,9.780064582824707,-0.020338991656899452,0.0687936544418335
1772656002052780000,8.554780029296875,9.787242889404297,-0.02751746028661728,0.05922235921025276
1772656002062659600,8.56465966796875,9.779465675354004,-0.020338991656899452,0.06640082597732544
1772656002072539000,8.574538818359375,9.780064582824707,-0.02512463741004467,0.07118647545576096
1772656002082418400,8.58441845703125,9.77527904510498,-0.02512463741004467,0.06161518394947052
1772656002092298000,8.594298095703126,9.78245735168457,-0.017946170642971992,0.0687936544418335
1772656002102177500,8.604177490234376,9.78963565826416,-0.02751746028661728,0.07357929646968842
1772656002112057000,8.61405712890625,9.780064582824707,-0.02512463741004467,0.06640082597732544
1772656002121936400,8.623936279296874,9.784850120544434,-0.017946170642971992,0.06400800496339798
1772656002131816000,8.63381591796875,9.780064582824707,-0.02751746028661728,0.07836493849754333
1772656002141695500,8.643695556640624,9.780064582824707,-0.02512463741004467,0.07357929646968842
1772656002151575000,8.653574951171874,9.784850120544434,-0.02751746028661728,0.06640082597732544
1772656002161454600,8.66345458984375,9.78245735168457,-0.020338991656899452,0.07118647545576096
1772656002171334100,8.673334228515625,9.787242889404297,-0.02512463741004467,0.0687936544418335
1772656002181213700,8.683213623046875,9.784850120544434,-0.02512463741004467,0.07118647545576096
1772656002191093000,8.693093017578125,9.772886276245117,-0.02751746028661728,0.07118647545576096
1772656002200972500,8.70297265625,9.78245735168457,-0.02512463741004467,0.07118647545576096
1772656002210852000,8.71285205078125,9.777671813964844,-0.02751746028661728,0.06640082597732544
1772656002220731600,8.722731689453125,9.780064582824707,-0.02751746028661728,0.06640082597732544
1772656002230611200,8.732611083984375,9.772886276245117,-0.020338991656899452,0.0687936544418335
1772656002240490500,8.742490478515625,9.78963565826416,-0.02751746028661728,0.07357929646968842
1772656002250370000,8.7523701171875,9.780064582824707,-0.0323031060397625,0.06400800496339798
1772656002260249600,8.76224951171875,9.78245735168457,-0.02512463741004467,0.07357929646968842
1772656002270129200,8.772129150390626,9.784850120544434,-0.017946170642971992,0.07597211748361588
1772656002280008700,8.7820087890625,9.780064582824707,-0.029910283163189888,0.06640082597732544
1772656002289888000,8.791887939453124,9.787242889404297,-0.02751746028661728,0.06640082597732544
1772656002299767600,8.801767578125,9.784252166748047,-0.020338991656899452,0.06161518394947052
1772656002309647000,8.811647216796874,9.772886276245117,-0.020338991656899452,0.07118647545576096
1772656002319526700,8.821526611328125,9.784252166748047,-0.02512463741004467,0.0687936544418335
1772656002329406200,8.83140625,9.784252166748047,-0.02751746028661728,0.06400800496339798
1772656002339285800,8.84128564453125,9.784850120544434,-0.02751746028661728,0.07357929646968842
1772656002349165000,8.8511650390625,9.784850120544434,-0.02751746028661728,0.07357929646968842
1772656002359044600,8.861044677734375,9.781859397888184,-0.020338991656899452,0.0687936544418335
1772656002368924200,8.870924072265625,9.78245735168457,-0.02751746028661728,0.07597211748361588
1772656002378803700,8.8808037109375,9.779465675354004,-0.015553346835076809,0.07118647545576096
1772656002388683300,8.890683349609375,9.777671813964844,-0.02512463741004467,0.07118647545576096
1772656002398562800,8.900562744140625,9.78245735168457,-0.02751746028661728,0.07118647545576096
1772656002408442000,8.910442138671876,9.781859397888184,-0.02512463741004467,0.06161518394947052
1772656002418321700,8.92032177734375,9.784850120544434,-0.02751746028661728,0.06640082597732544
1772656002428201200,8.930201171875,9.78245735168457,-0.029910283163189888,0.06161518394947052
1772656002438080800,8.940080810546876,9.784252166748047,-0.02273181453347206,0.05922235921025276
1772656002447960300,8.949960205078124,9.780064582824707,-0.02273181453347206,0.0687936544418335
1772656002457839600,8.959839599609374,9.78245735168457,-0.029910283163189888,0.06640082597732544
1772656002467719200,8.96971923828125,9.78245735168457,-0.02751746028661728,0.0687936544418335
1772656002477598700,8.9795986328125,9.77527904510498,-0.02751746028661728,0.0687936544418335
1772656002487478300,8.989478271484375,9.777671813964844,-0.02751746028661728,0.06640082597732544
1772656002497357800,8.99935791015625,9.779465675354004,-0.02273181453347206,0.06400800496339798
1772656002507237000,9.009237060546875,9.77707290649414,-0.02512463741004467,0.06640082597732544
1772656002517116700,9.01911669921875,9.779465675354004,-0.015553346835076809,0.07118647545576096
1772656002526996200,9.028996337890625,9.784850120544434,-0.03469592705368996,0.0687936544418335
1772656002536875800,9.038875732421875,9.77527904510498,-0.029910283163189888,0.06640082597732544
1772656002546755300,9.04875537109375,9.77707290649414,-0.02512463741004467,0.0687936544418335
1772656002556635000,9.058634765625,9.779465675354004,-0.02751746028661728,0.06640082597732544
1772656002566514200,9.06851416015625,9.77527904510498,-0.0323031060397625,0.07118647545576096
1772656002576393700,9.078393798828126,9.780064582824707,-0.029910283163189888,0.06640082597732544
1772656002586273300,9.088273193359376,9.78664493560791,-0.017946170642971992,0.0568295381963253
1772656002596152800,9.09815283203125,9.78664493560791,-0.020338991656899452,0.07836493849754333
1772656002606032400,9.108032470703124,9.77707290649414,-0.02512463741004467,0.0687936544418335
1772656002615911700,9.11791162109375,9.78664493560791,-0.02512463741004467,0.07597211748361588
1772656002625791200,9.127791259765624,9.779465675354004,-0.02751746028661728,0.07357929646968842
1772656002635670800,9.1376708984375,9.779465675354004,-0.02751746028661728,0.06640082597732544
1772656002645550300,9.14755029296875,9.781859397888184,-0.02751746028661728,0.06640082597732544
1772656002655430000,9.157429931640625,9.784850120544434,-0.02512463741004467,0.07357929646968842
1772656002665309400,9.167309326171875,9.784252166748047,-0.02751746028661728,0.06640082597732544
1772656002675188700,9.177188720703125,9.78664493560791,-0.02273181453347206,0.07118647545576096
1772656002685068300,9.187068359375,9.784252166748047,-0.02273181453347206,0.0687936544418335
1772656002694947800,9.19694775390625,9.78664493560791,-0.029910283163189888,0.06640082597732544
1772656002704827400,9.206827392578125,9.774680137634277,-0.02273181453347206,0.0687936544418335
1772656002714707000,9.21670703125,9.781859397888184,-0.02512463741004467,0.06640082597732544
1772656002724586200,9.226586181640625,9.78664493560791,-0.02512463741004467,0.0687936544418335
1772656002734465800,9.2364658203125,9.784252166748047,-0.02751746028661728,0.0687936544418335
1772656002744345300,9.246345458984376,9.77707290649414,-0.02273181453347206,0.0687936544418335
1772656002754225000,9.256224853515626,9.781859397888184,-0.029910283163189888,0.06640082597732544
1772656002764104200,9.266104248046876,9.781859397888184,-0.0323031060397625,0.07597211748361588
1772656002773983700,9.275983642578124,9.78664493560791,-0.02273181453347206,0.07357929646968842
1772656002783863300,9.28586328125,9.779465675354004,-0.017946170642971992,0.07118647545576096
1772656002793742800,9.295742919921874,9.77707290649414,-0.02512463741004467,0.0687936544418335
1772656002803622400,9.305622314453124,9.77707290649414,-0.02273181453347206,0.07357929646968842
1772656002813501700,9.315501708984375,9.774680137634277,-0.020338991656899452,0.07118647545576096
1772656002823381200,9.32538134765625,9.779465675354004,-0.02512463741004467,0.06400800496339798
1772656002833260800,9.3352607421875,9.781859397888184,-0.02751746028661728,0.06640082597732544
1772656002843140400,9.345140380859375,9.781859397888184,-0.02512463741004467,0.0687936544418335
1772656002853020000,9.35502001953125,9.784252166748047,-0.017946170642971992,0.07118647545576096
1772656002862899200,9.364899169921875,9.77707290649414,-0.029910283163189888,0.06640082597732544
1772656002872778800,9.37477880859375,9.78664493560791,-0.02512463741004467,0.07118647545576096
1772656002882658300,9.384658203125,9.779465675354004,-0.02512463741004467,0.07357929646968842
1772656002892537900,9.394537841796875,9.779465675354004,-0.020338991656899452,0.07357929646968842
1772656002902417400,9.40441748046875,9.770493507385254,-0.02751746028661728,0.07357929646968842
1772656002912297000,9.414296875,9.77707290649414,-0.02273181453347206,0.07357929646968842
1772656002922176300,9.42417626953125,9.781859397888184,-0.02751746028661728,0.06400800496339798
1772656002932055800,9.434055908203124,9.774680137634277,-0.02273181453347206,0.0687936544418335
1772656002941935400,9.443935302734374,9.779465675354004,-0.02512463741004467,0.06640082597732544
1772656002951815000,9.45381494140625,9.781859397888184,-0.02273181453347206,0.06400800496339798
1772656002961694500,9.463694580078124,9.779465675354004,-0.02512463741004467,0.0687936544418335
1772656002971573800,9.47357373046875,9.779465675354004,-0.02512463741004467,0.06640082597732544
1772656002981453300,9.483453369140625,9.784252166748047,-0.02273181453347206,0.06400800496339798
1772656002991332900,9.493332763671875,9.78664493560791,-0.02751746028661728,0.0687936544418335
1772656003001212400,9.50321240234375,9.781859397888184,-0.02273181453347206,0.07357929646968842
1772656003011092000,9.513092041015625,9.78664493560791,-0.02512463741004467,0.06640082597732544
1772656003020971300,9.52297119140625,9.78245735168457,-0.0323031060397625,0.0687936544418335
1772656003030850800,9.532850830078125,9.780064582824707,-0.03469592705368996,0.06640082597732544
1772656003040730400,9.54273046875,9.779465675354004,-0.02512463741004467,0.06640082597732544
1772656003050610000,9.55260986328125,9.77527904510498,-0.029910283163189888,0.0687936544418335
1772656003060489200,9.5624892578125,9.77527904510498,-0.029910283163189888,0.06640082597732544
1772656003070368800,9.57236865234375,9.77707290649414,-0.02751746028661728,0.07836493849754333
1772656003080248300,9.582248291015626,9.772287368774414,-0.02512463741004467,0.0687936544418335
1772656003090128000,9.5921279296875,9.781859397888184,-0.02751746028661728,0.06640082597732544
1772656003100007400,9.60200732421875,9.780064582824707,-0.02751746028661728,0.06640082597732544
1772656003109886700,9.61188671875,9.780064582824707,-0.02751746028661728,0.06400800496339798
1772656003119766300,9.621766357421874,9.77527904510498,-0.02751746028661728,0.06400800496339798
1772656003129645800,9.631645751953124,9.779465675354004,-0.017946170642971992,0.0687936544418335
1772656003139525400,9.641525390625,9.780064582824707,-0.029910283163189888,0.06640082597732544
1772656003149405000,9.651405029296875,9.780064582824707,-0.02512463741004467,0.07357929646968842
1772656003159284200,9.6612841796875,9.787242889404297,-0.029910283163189888,0.07836493849754333
1772656003169163800,9.671163818359375,9.78664493560791,-0.02512463741004467,0.06640082597732544
1772656003179043300,9.681043212890625,9.777671813964844,-0.02751746028661728,0.06640082597732544
1772656003188923000,9.6909228515625,9.784850120544434,-0.02512463741004467,0.06640082597732544
1772656003198802400,9.700802490234375,9.78245735168457,-0.02751746028661728,0.06640082597732544
1772656003208681700,9.710681640625,9.78245735168457,-0.02512463741004467,0.06640082597732544
1772656003218561300,9.720561279296875,9.78245735168457,-0.02512463741004467,0.06640082597732544
