time,seconds_elapsed,z,y,x
1772562287648541700,0.074541748046875,-0.8999481201171875,-0.3427581787109375,0.0584564208984375
1772562287658524700,0.084524658203125,-0.9007110595703125,-0.337158203125,0.05072021484375
1772562287668508000,0.0945078125,-0.8971099853515625,-0.3309783935546875,0.0429534912109375
1772562287678489600,0.104489501953125,-0.894134521484375,-0.3278045654296875,0.038665771484375
1772562287688472800,0.114472900390625,-0.9000701904296875,-0.3228759765625,0.0425567626953125
1772562287698455800,0.124455810546875,-0.906829833984375,-0.32275390625,0.04693603515625
1772562287708437800,0.134437744140625,-0.9129791259765625,-0.327972412109375,0.0577850341796875
1772562287718420700,0.144420654296875,-0.9210205078125,-0.335235595703125,0.067901611328125
1772562287728403700,0.15440380859375,-0.9270477294921875,-0.3355255126953125,0.0771484375
1772562287738387000,0.164386962890625,-0.92950439453125,-0.3318023681640625,0.083984375
1772562287748368600,0.17436865234375,-0.92840576171875,-0.3296051025390625,0.08935546875
1772562287758352000,0.184351806640625,-0.9342803955078125,-0.3263702392578125,0.092864990234375
1772562287768334800,0.1943349609375,-0.9351806640625,-0.3209686279296875,0.101715087890625
1772562287778316800,0.20431689453125,-0.943267822265625,-0.3186187744140625,0.1154022216796875
1772562287788299800,0.2142998046875,-0.9547271728515625,-0.318603515625,0.1251068115234375
1772562287798282800,0.22428271484375,-0.96258544921875,-0.3160858154296875,0.1358184814453125
1772562287808264700,0.2342646484375,-0.9820709228515625,-0.31787109375,0.147125244140625
1772562287818247700,0.24424755859375,-1.0016937255859375,-0.328033447265625,0.149871826171875
1772562287828231000,0.25423095703125,-1.0127105712890625,-0.33074951171875,0.1494293212890625
1772562287838212600,0.264212646484375,-1.0088653564453125,-0.322723388671875,0.1519775390625
1772562287848195800,0.27419580078125,-1.0157012939453125,-0.30859375,0.1436004638671875
1772562287858178800,0.2841787109375,-1.0524139404296875,-0.304962158203125,0.1276397705078125
1772562287868160800,0.294160888671875,-1.061004638671875,-0.3138427734375,0.1154632568359375
1772562287878143700,0.304143798828125,-1.0201568603515625,-0.312286376953125,0.1025848388671875
1772562287888127000,0.314126953125,-0.9878692626953125,-0.3078155517578125,0.1018524169921875
1772562287898108700,0.324108642578125,-0.9575653076171875,-0.305206298828125,0.1090850830078125
1772562287908095500,0.334095458984375,-0.9003143310546875,-0.319122314453125,0.133026123046875
1772562287918078500,0.344078369140625,-0.8673248291015625,-0.330810546875,0.15216064453125
1772562287928061400,0.3540615234375,-0.8455352783203125,-0.3307647705078125,0.150634765625
1772562287938043600,0.364043701171875,-0.8237762451171875,-0.330780029296875,0.1170654296875
1772562287948026400,0.3740263671875,-0.8173065185546875,-0.333160400390625,0.066986083984375
1772562287958009600,0.384009521484375,-0.8202972412109375,-0.3443603515625,0.0363922119140625
1772562287967991600,0.393991455078125,-0.82763671875,-0.3636474609375,0.020904541015625
1772562287977974500,0.403974609375,-0.8289031982421875,-0.3778533935546875,0.032440185546875
1772562287987957500,0.41395751953125,-0.81982421875,-0.381866455078125,0.055450439453125
1772562287997939700,0.423939697265625,-0.8250579833984375,-0.3747406005859375,0.0743255615234375
1772562288007922400,0.43392236328125,-0.841400146484375,-0.3642120361328125,0.0915985107421875
1772562288017905400,0.443905517578125,-0.84625244140625,-0.3534698486328125,0.1243438720703125
1772562288027887600,0.4538876953125,-0.824188232421875,-0.32818603515625,0.144256591796875
1772562288037870300,0.463870361328125,-0.78924560546875,-0.2915802001953125,0.14215087890625
1772562288047853600,0.473853515625,-0.776763916015625,-0.260650634765625,0.14483642578125
1772562288057835500,0.48383544921875,-0.7788543701171875,-0.233001708984375,0.157958984375
1772562288067818500,0.493818603515625,-0.79425048828125,-0.213958740234375,0.1810760498046875
1772562288077801500,0.503801513671875,-0.9039154052734375,-0.2176666259765625,0.2209930419921875
1772562288087783700,0.51378369140625,-0.994781494140625,-0.23974609375,0.24847412109375
1772562288097766400,0.523766357421875,-1.039276123046875,-0.292694091796875,0.259490966796875
1772562288107749400,0.533749267578125,-1.083404541015625,-0.367401123046875,0.2635345458984375
1772562288117732600,0.543732666015625,-1.0528717041015625,-0.3387298583984375,0.288238525390625
1772562288127714300,0.55371435546875,-1.0475311279296875,-0.264404296875,0.3267822265625
1772562288137697500,0.563697509765625,-1.04327392578125,-0.227783203125,0.318023681640625
1772562288147680500,0.573680419921875,-1.0333404541015625,-0.2126922607421875,0.3061676025390625
1772562288157662700,0.583662841796875,-1.0206451416015625,-0.1909637451171875,0.3054351806640625
1772562288167645400,0.5936455078125,-1.0109100341796875,-0.1611480712890625,0.2963104248046875
1772562288177628400,0.60362841796875,-0.9748687744140625,-0.1290435791015625,0.2863006591796875
1772562288187610600,0.613610595703125,-0.92950439453125,-0.0792999267578125,0.263397216796875
1772562288197593300,0.62359326171875,-0.896026611328125,-0.043182373046875,0.2181549072265625
1772562288207576600,0.63357666015625,-0.8789825439453125,-0.0538482666015625,0.1606292724609375
1772562288217558500,0.64355859375,-0.8329010009765625,-0.077301025390625,0.0974578857421875
1772562288227541500,0.65354150390625,-0.82696533203125,-0.1141204833984375,0.1070404052734375
1772562288237524500,0.6635244140625,-0.866058349609375,-0.1880645751953125,0.1556854248046875
1772562288247506700,0.673506591796875,-0.942596435546875,-0.2560272216796875,0.166259765625
1772562288257489400,0.683489501953125,-1.0137939453125,-0.2992706298828125,0.142425537109375
1772562288267472400,0.693472412109375,-1.0055694580078125,-0.3133697509765625,0.13336181640625
1772562288277454600,0.70345458984375,-0.9551239013671875,-0.302642822265625,0.135986328125
1772562288287437300,0.713437255859375,-0.9075775146484375,-0.28253173828125,0.1353302001953125
1772562288297420500,0.723420654296875,-0.9187774658203125,-0.2650299072265625,0.1601409912109375
1772562288307403500,0.733403564453125,-0.944366455078125,-0.240509033203125,0.16119384765625
1772562288317385500,0.743385498046875,-0.90716552734375,-0.2008514404296875,0.1281890869140625
1772562288327368400,0.753368408203125,-0.8912506103515625,-0.1812286376953125,0.1116790771484375
1772562288337351700,0.7633515625,-0.879608154296875,-0.173492431640625,0.1046905517578125
1772562288347333400,0.77333349609375,-0.842437744140625,-0.1864776611328125,0.0828399658203125
1772562288357316600,0.783316650390625,-0.759368896484375,-0.251129150390625,0.0839385986328125
1772562288367299600,0.793299560546875,-0.69122314453125,-0.323944091796875,0.1235809326171875
1772562288377281500,0.803281494140625,-0.7545928955078125,-0.362701416015625,0.1841278076171875
1772562288387264500,0.813264404296875,-0.8295135498046875,-0.3729095458984375,0.1933135986328125
1772562288397247500,0.82324755859375,-0.872711181640625,-0.338470458984375,0.1558990478515625
1772562288407229400,0.8332294921875,-0.9353790283203125,-0.1884307861328125,0.192138671875
1772562288417212400,0.84321240234375,-0.960540771484375,-0.01702880859375,0.182159423828125
1772562288427195600,0.853195556640625,-0.9640350341796875,0.037811279296875,0.046051025390625
1772562288437177300,0.86317724609375,-0.7801513671875,-0.0400238037109375,-0.0713348388671875
1772562288447160600,0.87316064453125,-0.6597442626953125,-0.026214599609375,-0.0996246337890625
1772562288457143600,0.8831435546875,-0.577484130859375,0.0369415283203125,-0.0455780029296875
1772562288467125500,0.89312548828125,-0.5388641357421875,0.0427398681640625,0.0291595458984375
1772562288477108500,0.9031083984375,-0.7127532958984375,0.0516204833984375,-0.01776123046875
1772562288487091500,0.913091552734375,-0.749176025390625,0.0295257568359375,-0.13336181640625
1772562288497074700,0.92307470703125,-0.513824462890625,-0.05084228515625,-0.19287109375
1772562288507056400,0.933056396484375,-0.582183837890625,-0.118927001953125,-0.2384490966796875
1772562288517039600,0.94303955078125,-0.5186920166015625,-0.1460723876953125,-0.1929779052734375
1772562288527022600,0.953022705078125,-0.5442352294921875,-0.187896728515625,-0.1674957275390625
1772562288537004500,0.963004638671875,-0.4704132080078125,-0.2070159912109375,-0.130462646484375
1772562288546987500,0.972987548828125,-0.399993896484375,-0.2163543701171875,-0.1021270751953125
1772562288556970500,0.982970458984375,-0.4157867431640625,-0.2471466064453125,-0.090118408203125
1772562288566952400,0.992952392578125,-0.47021484375,-0.2674102783203125,-0.08917236328125
1772562288576935400,1.002935302734375,-0.491180419921875,-0.2905426025390625,-0.1020050048828125
1772562288586918700,1.012918701171875,-0.4803466796875,-0.34698486328125,-0.1278533935546875
1772562288596900400,1.022900390625,-0.6181793212890625,-0.3614959716796875,-0.1889190673828125
1772562288606883600,1.032883544921875,-0.7045745849609375,-0.38092041015625,-0.2725372314453125
1772562288616866600,1.042866455078125,-0.70147705078125,-0.4171295166015625,-0.3848876953125
1772562288626848500,1.0528486328125,-0.7059326171875,-0.4571685791015625,-0.52655029296875
1772562288636831500,1.06283154296875,-0.8795623779296875,-0.467437744140625,-0.566131591796875
1772562288646814500,1.072814453125,-1.162872314453125,-0.4313812255859375,-0.4370880126953125
1772562288656796400,1.08279638671875,-1.19195556640625,-0.3370361328125,-0.36932373046875
1772562288666779400,1.092779296875,-1.3819580078125,-0.313873291015625,-0.2298583984375
1772562288676762600,1.1027626953125,-1.64404296875,-0.3939361572265625,0.008087158203125
1772562288686745300,1.112745361328125,-2.0117034912109375,-0.437591552734375,0.1828155517578125
1772562288696727600,1.1227275390625,-2.4496612548828125,-0.3494720458984375,0.311065673828125
1772562288706710500,1.13271044921875,-2.764251708984375,-0.23980712890625,0.427947998046875
1772562288716693500,1.142693603515625,-3.01080322265625,-0.295379638671875,0.585113525390625
1772562288726675500,1.152675537109375,-3.163787841796875,-0.399658203125,0.5630645751953125
1772562288736658700,1.16265869140625,-3.1629486083984375,-0.3928985595703125,0.38531494140625
1772562288746641400,1.172641357421875,-2.993194580078125,-0.3674163818359375,0.2177276611328125
1772562288756623600,1.18262353515625,-2.848175048828125,-0.3587188720703125,0.190643310546875
1772562288766606600,1.192606689453125,-2.5882110595703125,-0.3082275390625,0.15570068359375
1772562288776589600,1.202589599609375,-2.3082275390625,-0.2917633056640625,0.168426513671875
1772562288786571500,1.212571533203125,-2.0374755859375,-0.26220703125,0.196014404296875
1772562288796554500,1.222554443359375,-1.852325439453125,-0.26654052734375,0.2746124267578125
1772562288806537700,1.232537841796875,-1.736846923828125,-0.3222808837890625,0.4392242431640625
1772562288816519400,1.24251953125,-1.658447265625,-0.3269195556640625,0.536773681640625
1772562288826502700,1.252502685546875,-1.5511016845703125,-0.374176025390625,0.51873779296875
1772562288836485600,1.262485595703125,-1.5769805908203125,-0.47564697265625,0.5745849609375
1772562288846467600,1.272467529296875,-1.4965057373046875,-0.5096282958984375,0.42926025390625
1772562288856450600,1.282450439453125,-1.496826171875,-0.4716796875,0.3240509033203125
1772562288866433500,1.29243359375,-1.589141845703125,-0.4628753662109375,0.35577392578125
1772562288876416500,1.30241650390625,-1.65069580078125,-0.4019622802734375,0.39764404296875
1772562288886398500,1.3123984375,-1.60076904296875,-0.344451904296875,0.36419677734375
1772562288896381700,1.322381591796875,-1.52374267578125,-0.3114776611328125,0.3785858154296875
1772562288906364400,1.332364501953125,-1.4146575927734375,-0.2617034912109375,0.3951416015625
1772562288916343600,1.342343505859375,-1.253173828125,-0.2143402099609375,0.3694000244140625
1772562288926326300,1.352326171875,-1.0265045166015625,-0.1714324951171875,0.3243408203125
1772562288936309200,1.362309326171875,-0.777984619140625,-0.111907958984375,0.289093017578125
1772562288946291500,1.37229150390625,-0.53076171875,-0.040802001953125,0.2638092041015625
1772562288956274200,1.382274169921875,-0.3005828857421875,0.014984130859375,0.2155609130859375
1772562288966257400,1.39225732421875,-0.0876007080078125,0.0518951416015625,0.14630126953125
1772562288976239400,1.4022392578125,0.0848846435546875,0.07073974609375,0.0645751953125
1772562288986222600,1.41222265625,0.2329254150390625,0.0840606689453125,0.0172119140625
1772562288996205300,1.422205322265625,0.3108062744140625,0.087921142578125,-0.054534912109375
1772562289006187500,1.4321875,0.3360443115234375,0.15673828125,-0.09942626953125
1772562289016170500,1.44217041015625,0.4409332275390625,0.2220306396484375,-0.103363037109375
1772562289026153200,1.4521533203125,0.586639404296875,0.1984710693359375,-0.1367950439453125
1772562289036135400,1.462135498046875,0.6747283935546875,0.1562347412109375,-0.1833953857421875
1772562289046118400,1.472118408203125,0.6810455322265625,0.1054840087890625,-0.17413330078125
1772562289056101400,1.482101318359375,0.642730712890625,0.0535888671875,-0.1563720703125
1772562289066084400,1.49208447265625,0.6052398681640625,0.0302886962890625,-0.1360321044921875
1772562289076066600,1.502066650390625,0.579376220703125,0.0427703857421875,-0.115692138671875
1772562289086049300,1.51204931640625,0.553436279296875,0.0975494384765625,-0.0931854248046875
1772562289096032300,1.5220322265625,0.49774169921875,0.164031982421875,-0.0561676025390625
1772562289106014500,1.532014404296875,0.43804931640625,0.2469482421875,-0.013702392578125
1772562289115997400,1.54199755859375,0.36370849609375,0.3602752685546875,0.024078369140625
1772562289125980400,1.55198046875,0.299224853515625,0.45782470703125,0.0126190185546875
1772562289135962400,1.56196240234375,0.2286224365234375,0.4869842529296875,-0.004150390625
1772562289145945300,1.5719453125,0.1437835693359375,0.46002197265625,-0.004241943359375
1772562289155928300,1.58192822265625,0.09381103515625,0.3984527587890625,-0.0097503662109375
1772562289165910500,1.59191064453125,0.04119873046875,0.3480377197265625,-0.0014801025390625
1772562289175893200,1.601893310546875,-0.008636474609375,0.3174896240234375,-0.0025634765625
1772562289185876500,1.61187646484375,-0.0496978759765625,0.285186767578125,-0.0171356201171875
1772562289195858400,1.6218583984375,-0.0635833740234375,0.267242431640625,-0.0151214599609375
1772562289205841400,1.63184130859375,-0.0584259033203125,0.23895263671875,-0.00714111328125
1772562289215824400,1.641824462890625,-0.063873291015625,0.185394287109375,-0.0039825439453125
1772562289225807400,1.651807373046875,-0.0653839111328125,0.1270599365234375,0.0123291015625
1772562289235789300,1.661789306640625,-0.071380615234375,0.0626220703125,0.0107574462890625
1772562289245772300,1.671772216796875,-0.12738037109375,-0.020599365234375,0.0269317626953125
1772562289255755500,1.681755615234375,-0.2150115966796875,-0.0885467529296875,0.06744384765625
1772562289265737200,1.6917373046875,-0.352996826171875,-0.1562347412109375,0.0682525634765625
1772562289275720400,1.701720458984375,-0.558624267578125,-0.2365570068359375,0.058441162109375
1772562289285703400,1.711703369140625,-0.8804168701171875,-0.2851715087890625,0.041015625
1772562289295685400,1.721685302734375,-1.3274688720703125,-0.24810791015625,0.022735595703125
1772562289305668400,1.73166845703125,-1.8650360107421875,-0.1395263671875,0.097991943359375
1772562289315651300,1.7416513671875,-2.4742279052734375,-0.007110595703125,0.268402099609375
1772562289325633300,1.75163330078125,-3.050384521484375,0.1145782470703125,0.4373931884765625
1772562289335616300,1.7616162109375,-3.532928466796875,0.0572509765625,0.59625244140625
1772562289345599500,1.771599609375,-3.9503021240234375,-0.0713653564453125,0.6450958251953125
1772562289355581200,1.781581298828125,-4.3276824951171875,-0.1426239013671875,0.6321258544921875
1772562289365564400,1.791564453125,-4.4630584716796875,-0.1222076416015625,0.7870330810546875
1772562289375547400,1.80154736328125,-4.37872314453125,-0.05926513671875,1.078948974609375
1772562289385529300,1.811529296875,-4.1151885986328125,-0.1624603271484375,1.2045135498046875
1772562289395512300,1.82151220703125,-3.8071136474609375,-0.5162353515625,1.1796722412109375
1772562289405495300,1.831495361328125,-3.5725860595703125,-0.9097442626953125,1.0345001220703125
1772562289415478500,1.841478515625,-3.2902984619140625,-1.0734710693359375,0.912445068359375
1772562289425460200,1.851460205078125,-2.97698974609375,-0.9990081787109375,0.8759307861328125
1772562289435443500,1.861443359375,-2.6903839111328125,-0.7818450927734375,0.856842041015625
1772562289445426400,1.871426513671875,-2.4848785400390625,-0.600738525390625,0.789764404296875
1772562289455408400,1.881408447265625,-2.3093109130859375,-0.4500885009765625,0.74127197265625
1772562289465391400,1.891391357421875,-2.134521484375,-0.340728759765625,0.69903564453125
1772562289475374300,1.901374267578125,-1.9514617919921875,-0.30023193359375,0.6463470458984375
1772562289485356300,1.911356201171875,-1.774078369140625,-0.293701171875,0.579376220703125
1772562289495339500,1.921339599609375,-1.6401519775390625,-0.2900238037109375,0.5172271728515625
1772562289505322500,1.931322509765625,-1.520965576171875,-0.261749267578125,0.4831085205078125
1772562289515304400,1.941304443359375,-1.367828369140625,-0.226806640625,0.3963470458984375
1772562289525287400,1.951287353515625,-1.1751861572265625,-0.15667724609375,0.2940521240234375
1772562289535270400,1.9612705078125,-1.010101318359375,-0.0503082275390625,0.1860198974609375
1772562289545252400,1.97125244140625,-0.8280029296875,0.0312042236328125,0.055419921875
1772562289555235300,1.9812353515625,-0.60687255859375,0.080352783203125,-0.020843505859375
1772562289565218600,1.991218505859375,-0.4012908935546875,0.1459808349609375,-0.0504913330078125
1772562289575200300,2.0012001953125,-0.27630615234375,0.236297607421875,-0.0263214111328125
1772562289585183500,2.01118359375,-0.1413421630859375,0.3045501708984375,0.0059356689453125
1772562289595166500,2.02116650390625,0.0063629150390625,0.341033935546875,0.02581787109375
1772562289605149400,2.0311494140625,0.209136962890625,0.316253662109375,0.0313720703125
1772562289615131400,2.04113134765625,0.4007568359375,0.23248291015625,0.041259765625
1772562289625114400,2.0511142578125,0.5522613525390625,0.1689300537109375,0.05279541015625
1772562289635097600,2.06109765625,0.665496826171875,0.11572265625,0.0515594482421875
1772562289645079300,2.071079345703125,0.73504638671875,0.05108642578125,0.038909912109375
1772562289655062500,2.0810625,0.7777862548828125,0.0130767822265625,0.0206298828125
1772562289665045500,2.09104541015625,0.772674560546875,0.0212554931640625,-0.005157470703125
1772562289675027500,2.10102734375,0.7321014404296875,0.04010009765625,-0.008056640625
1772562289685010400,2.111010498046875,0.6579437255859375,0.0627899169921875,-0.0388641357421875
1772562289694993400,2.120993408203125,0.5914459228515625,0.110382080078125,-0.0908660888671875
1772562289704975400,2.130975341796875,0.494232177734375,0.180572509765625,-0.11279296875
1772562289714958300,2.140958251953125,0.3720550537109375,0.2617034912109375,-0.104827880859375
1772562289724941600,2.150941650390625,0.2857513427734375,0.336883544921875,-0.082794189453125
1772562289734923300,2.16092333984375,0.204833984375,0.3961944580078125,-0.0631866455078125
1772562289744906500,2.170906494140625,0.152130126953125,0.419189453125,-0.048126220703125
1772562289754889500,2.180889404296875,0.1127471923828125,0.4087982177734375,-0.052642822265625
1772562289764872200,2.1908720703125,0.0750732421875,0.3815765380859375,-0.0472564697265625
1772562289774854400,2.2008544921875,0.0665740966796875,0.342803955078125,-0.025543212890625
1772562289784837400,2.21083740234375,0.072845458984375,0.295623779296875,-0.0120697021484375
1772562289794820400,2.2208203125,0.065185546875,0.254608154296875,0.009124755859375
1772562289804802300,2.23080224609375,0.0489349365234375,0.21429443359375,0.048980712890625
1772562289814785500,2.24078564453125,0.0325164794921875,0.1710357666015625,0.0785675048828125
1772562289824768300,2.250768310546875,0.020294189453125,0.1295166015625,0.0972442626953125
1772562289834750500,2.26075048828125,0.0037994384765625,0.0979766845703125,0.130157470703125
1772562289844733400,2.2707333984375,-0.0421295166015625,0.0604095458984375,0.1479339599609375
1772562289854716400,2.28071630859375,-0.0795440673828125,0.0164794921875,0.1389617919921875
1772562289864698400,2.290698486328125,-0.1135406494140625,-0.0411834716796875,0.111328125
1772562289874681600,2.300681640625,-0.1388397216796875,-0.0897674560546875,0.093780517578125
1772562289884664300,2.310664306640625,-0.1426849365234375,-0.1440277099609375,0.0653076171875
1772562289894646500,2.320646484375,-0.189056396484375,-0.20660400390625,0.0402069091796875
1772562289904629500,2.33062939453125,-0.310089111328125,-0.2444610595703125,0.0319671630859375
1772562289914611500,2.340611572265625,-0.5337982177734375,-0.2608642578125,-0.0106201171875
1772562289924593700,2.35059375,-0.8802032470703125,-0.190765380859375,-0.0364837646484375
1772562289934576600,2.36057666015625,-1.3175506591796875,-0.0535736083984375,-0.0203399658203125
1772562289944559600,2.3705595703125,-1.7875823974609375,0.1089324951171875,-0.00384521484375
1772562289954542600,2.38054248046875,-2.2547149658203125,0.2790374755859375,-0.0948333740234375
1772562289964524800,2.39052490234375,-2.706695556640625,0.4083709716796875,-0.2484893798828125
1772562289974507500,2.400507568359375,-3.1702423095703125,0.526763916015625,-0.39337158203125
1772562289984490800,2.41049072265625,-3.6601104736328125,0.666290283203125,-0.46533203125
1772562289994472700,2.42047265625,-4.0608367919921875,0.75042724609375,-0.3913421630859375
1772562290004455700,2.43045556640625,-4.09307861328125,0.7578887939453125,-0.2597808837890625
1772562290014438700,2.440438720703125,-3.8484649658203125,0.58544921875,-0.193450927734375
1772562290024420900,2.4504208984375,-3.540435791015625,0.3372650146484375,-0.12530517578125
1772562290034403600,2.460403564453125,-3.3021697998046875,0.0673675537109375,-0.0550384521484375
1772562290044386600,2.470386474609375,-3.20294189453125,-0.1710052490234375,0.0368499755859375
1772562290054368800,2.48036865234375,-3.151092529296875,-0.337982177734375,0.107208251953125
1772562290064351500,2.4903515625,-3.13189697265625,-0.4182586669921875,0.1699981689453125
1772562290074334700,2.500334716796875,-3.0997161865234375,-0.3771820068359375,0.24554443359375
1772562290084316700,2.510316650390625,-3.0025634765625,-0.2784423828125,0.26513671875
1772562290094299600,2.520299560546875,-2.88165283203125,-0.1649169921875,0.2140655517578125
1772562290104282600,2.53028271484375,-2.7111358642578125,-0.0738677978515625,0.1043853759765625
1772562290114265600,2.540265625,-2.497894287109375,-0.0272216796875,-0.032562255859375
1772562290124247600,2.55024755859375,-2.2451019287109375,-0.0513153076171875,-0.1600799560546875
1772562290134230500,2.56023046875,-2.0381317138671875,-0.102081298828125,-0.2371368408203125
1772562290144213800,2.5702138671875,-1.86669921875,-0.1577606201171875,-0.2724609375
1772562290154195500,2.580195556640625,-1.7029876708984375,-0.2061309814453125,-0.271636962890625
1772562290164178700,2.5901787109375,-1.5764923095703125,-0.21221923828125,-0.2423858642578125
1772562290174161700,2.60016162109375,-1.44476318359375,-0.1795501708984375,-0.1777801513671875
1772562290184143600,2.6101435546875,-1.2737274169921875,-0.104583740234375,-0.106781005859375
1772562290194126600,2.620126708984375,-1.055633544921875,-0.0171051025390625,-0.044830322265625
1772562290204109600,2.630109619140625,-0.82470703125,0.0730133056640625,-0.0048370361328125
1772562290214091500,2.640091552734375,-0.5978851318359375,0.1610107421875,0.029510498046875
1772562290224074500,2.650074462890625,-0.3763885498046875,0.2226104736328125,0.0825042724609375
1772562290234057700,2.6600576171875,-0.1881256103515625,0.2635498046875,0.12060546875
1772562290244039400,2.670039306640625,-0.03271484375,0.3095703125,0.149261474609375
1772562290254022700,2.680022705078125,0.1279296875,0.3617401123046875,0.180206298828125
1772562290264005600,2.690005615234375,0.294219970703125,0.42022705078125,0.2181396484375
1772562290273988600,2.699988525390625,0.4324493408203125,0.4736328125,0.25238037109375
1772562290283970600,2.709970458984375,0.5708160400390625,0.4898223876953125,0.2642364501953125
1772562290293953500,2.71995361328125,0.7539215087890625,0.4490203857421875,0.278717041015625
1772562290303936800,2.729936767578125,0.96673583984375,0.31182861328125,0.29730224609375
1772562290313918500,2.73991845703125,1.17572021484375,0.1779327392578125,0.282958984375
1772562290323901700,2.749901611328125,1.2938385009765625,0.054107666015625,0.238677978515625
1772562290333884700,2.759884765625,1.36260986328125,-0.0544891357421875,0.162445068359375
1772562290343866600,2.76986669921875,1.2656402587890625,-0.12890625,0.0858917236328125
1772562290353849600,2.779849609375,1.0252838134765625,-0.1603851318359375,0.0768280029296875
1772562290363832800,2.789832763671875,0.815765380859375,-0.1566009521484375,0.096038818359375
1772562290373814500,2.799814453125,0.6456298828125,-0.091278076171875,0.106048583984375
1772562290383797800,2.8097978515625,0.51849365234375,0.017974853515625,0.119293212890625
1772562290393780700,2.81978076171875,0.411102294921875,0.116973876953125,0.1505279541015625
1772562290403762700,2.8297626953125,0.3413238525390625,0.2061004638671875,0.164154052734375
1772562290413745700,2.83974560546875,0.2664031982421875,0.264984130859375,0.13592529296875
1772562290423728600,2.849728759765625,0.1777496337890625,0.311553955078125,0.1228179931640625
1772562290433710600,2.859710693359375,0.0816497802734375,0.365386962890625,0.1196746826171875
1772562290443693600,2.869693603515625,0.0396881103515625,0.351470947265625,0.096343994140625
1772562290453676800,2.8796767578125,0.070068359375,0.30712890625,0.059326171875
1772562290463659500,2.889659423828125,0.095367431640625,0.29510498046875,0.0223236083984375
1772562290473641700,2.899641845703125,0.089752197265625,0.2694854736328125,-0.0319366455078125
1772562290483624700,2.909624755859375,0.0402374267578125,0.2394561767578125,-0.0791168212890625
1772562290493607400,2.919607421875,-0.035858154296875,0.1751861572265625,-0.095184326171875
1772562290503589600,2.929589599609375,-0.166595458984375,0.088897705078125,-0.0895233154296875
1772562290513572600,2.939572509765625,-0.318389892578125,0.0189361572265625,-0.082855224609375
1772562290523555800,2.949555908203125,-0.43878173828125,-0.04931640625,-0.0955963134765625
1772562290533537500,2.95953759765625,-0.5759735107421875,-0.091156005859375,-0.1045074462890625
1772562290543520800,2.969520751953125,-0.746246337890625,-0.05291748046875,-0.0780029296875
1772562290553503700,2.979503662109375,-0.9777679443359375,0.041656494140625,-0.0795135498046875
1772562290563485700,2.989485595703125,-1.252960205078125,0.1475982666015625,-0.095947265625
1772562290573468700,2.99946875,-1.528472900390625,0.18194580078125,-0.1321258544921875
1772562290583451600,3.00945166015625,-1.79669189453125,0.13726806640625,-0.2081298828125
1772562290593433600,3.01943359375,-2.087310791015625,0.0507965087890625,-0.2671966552734375
1772562290603416600,3.02941650390625,-2.4806671142578125,0.052978515625,-0.332672119140625
1772562290613399800,3.03939990234375,-2.9682464599609375,0.14935302734375,-0.3488311767578125
1772562290623382500,3.049382568359375,-3.42578125,0.3028106689453125,-0.315948486328125
1772562290633364700,3.05936474609375,-3.8147125244140625,0.470611572265625,-0.1939849853515625
1772562290643347700,3.06934765625,-4.0714263916015625,0.583160400390625,-0.0384368896484375
1772562290653330700,3.07933056640625,-4.080841064453125,0.6488494873046875,0.077392578125
1772562290663312600,3.089312744140625,-3.9044189453125,0.5635223388671875,0.1561126708984375
1772562290673295600,3.099295654296875,-3.6637725830078125,0.36822509765625,0.1449737548828125
1772562290683278600,3.109278564453125,-3.501129150390625,0.187347412109375,0.091522216796875
1772562290693260500,3.119260498046875,-3.4372711181640625,0.050048828125,0.0576629638671875
1772562290703243800,3.129243896484375,-3.4501495361328125,0.0305023193359375,0.0451812744140625
1772562290713226500,3.1392265625,-3.4408111572265625,0.08453369140625,0.067474365234375
1772562290723208700,3.149208740234375,-3.354461669921875,0.1463623046875,0.0871429443359375
1772562290733191700,3.159191650390625,-3.1947479248046875,0.16571044921875,0.0691680908203125
1772562290743174700,3.169174560546875,-2.996246337890625,0.1226043701171875,0.0418701171875
1772562290753156600,3.179156494140625,-2.772491455078125,0.0318756103515625,0.027801513671875
1772562290763139800,3.189139892578125,-2.525115966796875,-0.0724639892578125,0.0399169921875
1772562290773122600,3.19912255859375,-2.3023529052734375,-0.15234375,0.066741943359375
1772562290783105500,3.20910546875,-2.0762481689453125,-0.1898345947265625,0.094635009765625
1772562290793087700,3.219087646484375,-1.83660888671875,-0.19195556640625,0.1216278076171875
1772562290803070500,3.229070556640625,-1.58001708984375,-0.1479949951171875,0.1410369873046875
1772562290813053700,3.2390537109375,-1.289093017578125,-0.0884552001953125,0.1382904052734375
1772562290823035600,3.24903564453125,-0.9696502685546875,-0.02764892578125,0.1326141357421875
1772562290833018600,3.2590185546875,-0.6635284423828125,0.0559539794921875,0.109527587890625
1772562290843001600,3.269001708984375,-0.386505126953125,0.1460418701171875,0.06475830078125
1772562290852983800,3.27898388671875,-0.125701904296875,0.2207183837890625,0.0315399169921875
1772562290862966500,3.288966552734375,0.094696044921875,0.257781982421875,0.020263671875
1772562290872949500,3.298949462890625,0.265899658203125,0.2996673583984375,0.0146331787109375
1772562290882931700,3.308931640625,0.4122314453125,0.326507568359375,0.021820068359375
1772562290892914400,3.31891455078125,0.5324554443359375,0.3207855224609375,0.0260772705078125
1772562290902897700,3.328897705078125,0.6189727783203125,0.286651611328125,0.0405731201171875
1772562290912881200,3.338881103515625,0.677093505859375,0.2194061279296875,0.053955078125
1772562290922863900,3.34886376953125,0.7204742431640625,0.1374359130859375,0.0570526123046875
1772562290932847000,3.35884716796875,0.750213623046875,0.0565948486328125,0.0609283447265625
1772562290942830000,3.368830078125,0.7457733154296875,0.0179290771484375,0.0513153076171875
1772562290952812000,3.37881201171875,0.7280731201171875,0.0146331787109375,0.041351318359375
1772562290962795000,3.388794921875,0.6935577392578125,0.0199127197265625,0.0509185791015625
1772562290972778000,3.398778076171875,0.6336212158203125,0.0499114990234375,0.0735626220703125
1772562290982760000,3.408760009765625,0.5691986083984375,0.098388671875,0.085235595703125
1772562290992743000,3.418742919921875,0.504730224609375,0.179534912109375,0.084442138671875
1772562291002726100,3.42872607421875,0.4465484619140625,0.2552032470703125,0.080352783203125
1772562291012707800,3.438707763671875,0.39697265625,0.3073577880859375,0.08544921875
1772562291022691000,3.448691162109375,0.3599090576171875,0.34136962890625,0.0885009765625
1772562291032674000,3.458674072265625,0.3394927978515625,0.38641357421875,0.0711669921875
1772562291042656000,3.468656005859375,0.32537841796875,0.4315032958984375,0.0545654296875
1772562291052639000,3.478638916015625,0.3050689697265625,0.45355224609375,0.0276031494140625
1772562291062622000,3.4886220703125,0.2840423583984375,0.426055908203125,0.0092315673828125
1772562291072604000,3.49860400390625,0.2801971435546875,0.3524017333984375,-0.023529052734375
1772562291082587000,3.5085869140625,0.2670440673828125,0.292938232421875,-0.0516510009765625
1772562291092570000,3.518570068359375,0.2622222900390625,0.2558441162109375,-0.06201171875
1772562291102553000,3.528552978515625,0.2411041259765625,0.2204437255859375,-0.0731353759765625
1772562291112535000,3.53853515625,0.213470458984375,0.1899871826171875,-0.0738525390625
1772562291122518000,3.54851806640625,0.1835479736328125,0.1709747314453125,-0.0438690185546875
1772562291132501200,3.558501220703125,0.139007568359375,0.164642333984375,-0.0100250244140625
1772562291142483000,3.56848291015625,0.0880279541015625,0.1510467529296875,0.007843017578125
1772562291152466200,3.578466064453125,0.03411865234375,0.106109619140625,0.01025390625
1772562291162449200,3.58844921875,-0.020263671875,0.050750732421875,0.01983642578125
1772562291172431000,3.59843115234375,-0.0854034423828125,-0.0169677734375,0.0331878662109375
1772562291182414000,3.6084140625,-0.1895599365234375,-0.0825042724609375,0.021728515625
1772562291192397000,3.61839697265625,-0.3738861083984375,-0.1043548583984375,0.0124664306640625
1772562291202379000,3.62837890625,-0.670989990234375,-0.0547332763671875,0.008819580078125
1772562291212362000,3.638362060546875,-1.125091552734375,0.066253662109375,0.0110931396484375
1772562291222345200,3.64834521484375,-1.743255615234375,0.267242431640625,0.06427001953125
1772562291232327000,3.658326904296875,-2.2357330322265625,0.4379730224609375,0.147186279296875
1772562291242310100,3.66831005859375,-2.5140228271484375,0.5605926513671875,0.1693267822265625
1772562291252293000,3.678293212890625,-2.83526611328125,0.625946044921875,0.1812286376953125
1772562291262276000,3.688276123046875,-3.3604736328125,0.726348876953125,0.2103424072265625
1772562291272258000,3.698258056640625,-3.97515869140625,0.77813720703125,0.241790771484375
1772562291282241000,3.708240966796875,-4.5301971435546875,0.803436279296875,0.35516357421875
1772562291292224300,3.718224365234375,-4.8321533203125,0.8052978515625,0.404327392578125
1772562291302206000,3.7282060546875,-4.71697998046875,0.7333526611328125,0.276702880859375
1772562291312189200,3.738189208984375,-4.304107666015625,0.5832366943359375,0.1045379638671875
1772562291322172200,3.748172119140625,-3.8967742919921875,0.39013671875,-0.0604400634765625
1772562291332154000,3.758154052734375,-3.698211669921875,0.2086639404296875,-0.1717376708984375
1772562291342137000,3.76813720703125,-3.635772705078125,0.0731201171875,-0.2030792236328125
1772562291352120000,3.7781201171875,-3.5980987548828125,0.051513671875,-0.1999969482421875
1772562291362102000,3.78810205078125,-3.5527191162109375,0.0908203125,-0.14068603515625
1772562291372085000,3.7980849609375,-3.4723358154296875,0.1447601318359375,-0.080535888671875
1772562291382068200,3.808068115234375,-3.2967987060546875,0.1950836181640625,-0.0372314453125
1772562291392050000,3.8180498046875,-3.0589141845703125,0.2183074951171875,0.01678466796875
1772562291402033200,3.828033203125,-2.7840423583984375,0.220672607421875,0.066162109375
1772562291412016000,3.83801611328125,-2.4696197509765625,0.221466064453125,0.0892791748046875
1772562291421999000,3.8479990234375,-2.1113739013671875,0.2305145263671875,0.0916748046875
1772562291431981000,3.85798095703125,-1.7471771240234375,0.249176025390625,0.072052001953125
1772562291441964000,3.867964111328125,-1.39093017578125,0.273651123046875,0.0594635009765625
1772562291451947000,3.877947021484375,-1.0462188720703125,0.3151092529296875,0.0463409423828125
1772562291461929000,3.887928955078125,-0.7097015380859375,0.35833740234375,0.0542755126953125
1772562291471912200,3.897912109375,-0.4038848876953125,0.3936614990234375,0.0697479248046875
1772562291481895000,3.90789501953125,-0.1132049560546875,0.431884765625,0.0976409912109375
1772562291491877000,3.917877197265625,0.1284942626953125,0.4742279052734375,0.141326904296875
1772562291501860000,3.927860107421875,0.341552734375,0.497222900390625,0.1690521240234375
1772562291511843000,3.937843017578125,0.5333099365234375,0.468994140625,0.2047576904296875
1772562291521825000,3.947824951171875,0.641632080078125,0.4252166748046875,0.25250244140625
1772562291531808300,3.957808349609375,0.6963043212890625,0.370361328125,0.295684814453125
1772562291541791000,3.967791015625,0.7509002685546875,0.2977294921875,0.3165435791015625
1772562291551773200,3.977773193359375,0.7907562255859375,0.2313385009765625,0.29571533203125
1772562291561754000,3.987754150390625,0.8166046142578125,0.1698760986328125,0.26220703125
1772562291571736000,3.997736083984375,0.819061279296875,0.1262054443359375,0.21246337890625
1772562291581719000,4.007718994140625,0.7935028076171875,0.123687744140625,0.1637420654296875
1772562291591702000,4.017701904296875,0.7535400390625,0.143890380859375,0.1201629638671875
1772562291601684000,4.02768408203125,0.7341156005859375,0.1613006591796875,0.0628509521484375
1772562291611667200,4.037667236328125,0.7057952880859375,0.2126922607421875,0.0215606689453125
1772562291621650000,4.04764990234375,0.6751861572265625,0.2781829833984375,-0.0346832275390625
1772562291631632100,4.057632080078125,0.6487274169921875,0.33135986328125,-0.1089019775390625
1772562291641615000,4.067614990234375,0.61834716796875,0.3719635009765625,-0.14959716796875
1772562291651598000,4.07759814453125,0.5769805908203125,0.39544677734375,-0.168487548828125
1772562291661581000,4.0875810546875,0.5576324462890625,0.390869140625,-0.1855010986328125
1772562291671563300,4.097563232421875,0.5373687744140625,0.334381103515625,-0.2034454345703125
1772562291681546000,4.1075458984375,0.5146484375,0.288909912109375,-0.1920318603515625
1772562291691529000,4.117529052734375,0.476226806640625,0.2488250732421875,-0.1724090576171875
1772562291701511200,4.12751123046875,0.4190673828125,0.1992340087890625,-0.1435394287109375
1772562291711494000,4.137493896484375,0.3727569580078125,0.165679931640625,-0.1123504638671875
1772562291721477000,4.14747705078125,0.3243560791015625,0.1463165283203125,-0.073699951171875
1772562291731459000,4.157458984375,0.2703399658203125,0.1312255859375,-0.0308074951171875
1772562291741442000,4.167442138671875,0.1949005126953125,0.1212005615234375,0.0028228759765625
1772562291751425000,4.177425048828125,0.097625732421875,0.1331024169921875,0.0396728515625
1772562291761407200,4.1874072265625,-0.003173828125,0.152191162109375,0.058502197265625
1772562291771390000,4.197389892578125,-0.0551300048828125,0.141510009765625,0.067047119140625
1772562291781373000,4.207373046875,-0.0995941162109375,0.1029510498046875,0.0818023681640625
1772562291791355100,4.217355224609375,-0.179443359375,0.0586395263671875,0.101470947265625
1772562291801337900,4.227337890625,-0.324066162109375,0.020294189453125,0.108978271484375
1772562291811321000,4.237321044921875,-0.54296875,0.0267791748046875,0.0728607177734375
1772562291821304000,4.247303955078125,-0.854095458984375,0.1251983642578125,0.0414581298828125
1772562291831286000,4.2572861328125,-1.234771728515625,0.2725677490234375,0.065216064453125
1772562291841269000,4.26726904296875,-1.575347900390625,0.40911865234375,0.128631591796875
1772562291851252000,4.277251953125,-1.8065338134765625,0.4940643310546875,0.1879730224609375
1772562291861234000,4.28723388671875,-1.9563140869140625,0.5551300048828125,0.2253265380859375
1772562291871217000,4.297216796875,-2.158538818359375,0.5941619873046875,0.2625885009765625
1772562291881200000,4.3072001953125,-2.57366943359375,0.6204986572265625,0.3645782470703125
1772562291891181800,4.317181884765625,-3.0669708251953125,0.6449432373046875,0.5933990478515625
1772562291901165000,4.3271650390625,-3.5880279541015625,0.6574554443359375,0.8728179931640625
1772562291911148000,4.33714794921875,-3.9538116455078125,0.740447998046875,1.093780517578125
1772562291921129200,4.347129150390625,-3.9818267822265625,0.7921142578125,1.2384796142578125
1772562291931112200,4.3571123046875,-3.8056182861328125,0.8094024658203125,1.22479248046875
1772562291941095400,4.367095458984375,-3.5488128662109375,0.7145843505859375,1.032745361328125
1772562291951078100,4.377078125,-3.2559661865234375,0.4771881103515625,0.65625
1772562291961060400,4.387060302734375,-3.097259521484375,0.3101654052734375,0.25933837890625
1772562291971043300,4.397043212890625,-3.1397857666015625,0.2950439453125,-0.0286865234375
1772562291981026000,4.407026123046875,-3.28448486328125,0.43182373046875,-0.1583099365234375
1772562291991011300,4.41701123046875,-3.3741912841796875,0.64697265625,-0.158599853515625
1772562292000993300,4.4269931640625,-3.390838623046875,0.8643646240234375,-0.084075927734375
1772562292010976300,4.436976318359375,-3.2859954833984375,0.9638519287109375,0.0010986328125
1772562292020959500,4.44695947265625,-3.0885772705078125,0.941070556640625,0.0592041015625
1772562292030942200,4.456942138671875,-2.8515472412109375,0.8502960205078125,0.1111907958984375
1772562292040924400,4.46692431640625,-2.6050262451171875,0.73162841796875,0.1529083251953125
1772562292050907400,4.476907470703125,-2.3655853271484375,0.5917510986328125,0.188751220703125
1772562292060890000,4.48689013671875,-2.150482177734375,0.48431396484375,0.2144012451171875
1772562292070872300,4.496872314453125,-1.9398956298828125,0.4516448974609375,0.21337890625
1772562292080855300,4.506855224609375,-1.7173919677734375,0.4406280517578125,0.207244873046875
1772562292090838300,4.51683837890625,-1.483978271484375,0.397491455078125,0.1850128173828125
1772562292100820200,4.5268203125,-1.248992919921875,0.358245849609375,0.14691162109375
1772562292110803500,4.536803466796875,-1.0146942138671875,0.3353271484375,0.108551025390625
1772562292120786200,4.5467861328125,-0.7696990966796875,0.321258544921875,0.0566864013671875
1772562292130768400,4.556768310546875,-0.5096588134765625,0.317962646484375,-0.005645751953125
1772562292140751400,4.56675146484375,-0.2387847900390625,0.2828826904296875,-0.039276123046875
1772562292150734000,4.576734130859375,0.0520477294921875,0.270111083984375,-0.05108642578125
1772562292160717300,4.58671728515625,0.327423095703125,0.267791748046875,-0.0566558837890625
1772562292170699300,4.59669921875,0.5516357421875,0.2284393310546875,-0.0462799072265625
1772562292180682200,4.60668212890625,0.740081787109375,0.183624267578125,-0.0181884765625
1772562292190665200,4.616665283203125,0.857147216796875,0.1378173828125,0.041229248046875
1772562292200647400,4.6266474609375,0.908111572265625,0.090484619140625,0.0957794189453125
1772562292210630100,4.636630126953125,0.9039154052734375,0.06024169921875,0.1170806884765625
1772562292220613000,4.646613037109375,0.8744049072265625,0.0298614501953125,0.103302001953125
1772562292230595300,4.65659521484375,0.8668670654296875,-0.0333709716796875,0.05865478515625
1772562292240578000,4.666578125,0.908233642578125,-0.0818634033203125,0.009918212890625
1772562292250561300,4.676561279296875,0.955352783203125,-0.0884857177734375,-0.0117950439453125
1772562292260543200,4.686543212890625,0.9230194091796875,-0.0685882568359375,-0.0082855224609375
1772562292270526200,4.696526123046875,0.80059814453125,-0.0052642822265625,-0.0439910888671875
1772562292280509200,4.70650927734375,0.711334228515625,0.0505523681640625,-0.092193603515625
1772562292290491400,4.716491455078125,0.6541595458984375,0.0839691162109375,-0.1112823486328125
1772562292300474000,4.72647412109375,0.5982208251953125,0.1268310546875,-0.1185302734375
1772562292310457300,4.736457275390625,0.5353240966796875,0.1605987548828125,-0.12591552734375
1772562292320440300,4.7464404296875,0.4665374755859375,0.1729583740234375,-0.123809814453125
1772562292330422300,4.75642236328125,0.390472412109375,0.167816162109375,-0.10968017578125
1772562292340405200,4.7664052734375,0.3301544189453125,0.160736083984375,-0.0529937744140625
1772562292350388200,4.77638818359375,0.259033203125,0.1655731201171875,0.011688232421875
1772562292360370200,4.7863701171875,0.2034759521484375,0.1870269775390625,0.0648651123046875
1772562292370353200,4.796353271484375,0.1576995849609375,0.2105865478515625,0.125030517578125
1772562292380336400,4.80633642578125,0.09649658203125,0.228851318359375,0.173309326171875
1772562292390318000,4.816318115234375,0.0647125244140625,0.218231201171875,0.181884765625
1772562292400301300,4.82630126953125,0.0675811767578125,0.1932525634765625,0.1583404541015625
1772562292410284300,4.8362841796875,0.0628814697265625,0.17181396484375,0.1300811767578125
1772562292420266200,4.846266357421875,0.03802490234375,0.1455841064453125,0.1132049560546875
1772562292430249200,4.856249267578125,-0.0245513916015625,0.1233367919921875,0.092193603515625
1772562292440232200,4.866232177734375,-0.0952606201171875,0.09564208984375,0.0855255126953125
1772562292450214100,4.876214111328125,-0.17596435546875,0.0433349609375,0.09674072265625
1772562292460197000,4.886197021484375,-0.2528533935546875,0.0081329345703125,0.094024658203125
1772562292470180400,4.896180419921875,-0.340606689453125,0.0243377685546875,0.0767974853515625
1772562292480163300,4.906163330078125,-0.5111541748046875,0.1214141845703125,0.0369110107421875
1772562292490145300,4.916145263671875,-0.7922210693359375,0.2806854248046875,0.012359619140625
1772562292500128300,4.926128173828125,-1.1788330078125,0.4897003173828125,-0.00042724609375
1772562292510111200,4.936111328125,-1.5886688232421875,0.67999267578125,0.0291290283203125
1772562292520093200,4.94609326171875,-1.8733673095703125,0.8125457763671875,0.0892791748046875
1772562292530076200,4.956076171875,-2.1406402587890625,0.9201507568359375,0.1150665283203125
1772562292540059400,4.966059326171875,-2.4714202880859375,1.0367584228515625,0.1012115478515625
1772562292550041000,4.976041015625,-2.8261260986328125,1.102203369140625,0.0589447021484375
1772562292560024300,4.9860244140625,-3.1473846435546875,1.1185302734375,0.0232696533203125
1772562292570007300,4.99600732421875,-3.443603515625,1.107452392578125,0.035888671875
1772562292579989200,5.0059892578125,-3.6575775146484375,1.047882080078125,0.1269378662109375
1772562292589972200,5.01597216796875,-3.702178955078125,0.987457275390625,0.261322021484375
1772562292599955200,5.025955078125,-3.6124420166015625,0.9456329345703125,0.368408203125
1772562292609938400,5.0359384765625,-3.568878173828125,0.8613739013671875,0.421722412109375
1772562292619920100,5.045920166015625,-3.6824493408203125,0.72100830078125,0.4316253662109375
1772562292629903400,5.0559033203125,-3.7766571044921875,0.588043212890625,0.405792236328125
1772562292639886300,5.06588623046875,-3.8287200927734375,0.5462646484375,0.3785400390625
1772562292649868300,5.075868408203125,-3.8455963134765625,0.5597381591796875,0.3972015380859375
1772562292659851300,5.085851318359375,-3.745849609375,0.5864715576171875,0.40228271484375
1772562292669834500,5.09583447265625,-3.503509521484375,0.5806121826171875,0.3889007568359375
1772562292679816200,5.105816162109375,-3.1794586181640625,0.50750732421875,0.382049560546875
1772562292689799400,5.11579931640625,-2.86669921875,0.42919921875,0.3819732666015625
1772562292699782400,5.125782470703125,-2.54638671875,0.37188720703125,0.383392333984375
1772562292709764400,5.135764404296875,-2.18768310546875,0.3219757080078125,0.3615264892578125
1772562292719747300,5.145747314453125,-1.8687591552734375,0.2939605712890625,0.3461761474609375
1772562292729730300,5.155730224609375,-1.5489959716796875,0.2803802490234375,0.3333892822265625
1772562292739713300,5.16571337890625,-1.221923828125,0.290496826171875,0.2872161865234375
1772562292749695200,5.1756953125,-0.9029693603515625,0.270782470703125,0.2164459228515625
1772562292759678500,5.185678466796875,-0.6175079345703125,0.2519683837890625,0.1420745849609375
1772562292769661200,5.1956611328125,-0.36907958984375,0.2466278076171875,0.065765380859375
1772562292779643400,5.205643310546875,-0.11273193359375,0.23529052734375,0.0036773681640625
1772562292789626400,5.21562646484375,0.1445159912109375,0.2371063232421875,-0.0430908203125
1772562292799609000,5.225609130859375,0.3702392578125,0.2413482666015625,-0.0680084228515625
1772562292809591300,5.23559130859375,0.5346221923828125,0.2451629638671875,-0.076080322265625
1772562292819574300,5.24557421875,0.6645965576171875,0.2332763671875,-0.0837249755859375
1772562292829557200,5.25555712890625,0.7600250244140625,0.2134857177734375,-0.078277587890625
1772562292839539200,5.265539306640625,0.83123779296875,0.1808929443359375,-0.0595550537109375
1772562292849522400,5.2755224609375,0.8989105224609375,0.117401123046875,-0.0366973876953125
1772562292859505200,5.285505126953125,0.955841064453125,0.04058837890625,-0.0178375244140625
1772562292869487400,5.2954873046875,0.9781036376953125,-0.0249786376953125,-0.0134735107421875
1772562292879470300,5.30547021484375,0.9810638427734375,-0.06939697265625,-0.017059326171875
1772562292889453000,5.315453125,0.9508819580078125,-0.09259033203125,-0.0362548828125
1772562292899436300,5.325436279296875,0.8817138671875,-0.0822296142578125,-0.0601348876953125
1772562292909418200,5.335418212890625,0.789825439453125,-0.047271728515625,-0.062469482421875
1772562292919401500,5.3454013671875,0.694427490234375,0.00921630859375,-0.04730224609375
1772562292929384400,5.355384521484375,0.59912109375,0.07537841796875,-0.0371551513671875
1772562292939366400,5.365366455078125,0.5264129638671875,0.144744873046875,-0.0440216064453125
1772562292949349400,5.375349365234375,0.4467926025390625,0.2012786865234375,-0.027496337890625
1772562292959332400,5.385332275390625,0.3602752685546875,0.262908935546875,-0.014068603515625
1772562292969314300,5.395314208984375,0.290313720703125,0.336578369140625,-0.009246826171875
1772562292979297300,5.40529736328125,0.19317626953125,0.3757476806640625,0.015869140625
1772562292989280500,5.415280517578125,0.12982177734375,0.37982177734375,0.03778076171875
1772562292999262200,5.42526220703125,0.0993804931640625,0.3643341064453125,0.0308074951171875
1772562293009245400,5.435245361328125,0.0687103271484375,0.34686279296875,0.0211639404296875
1772562293019228400,5.445228515625,0.0341339111328125,0.3242340087890625,0.0311279296875
1772562293029211400,5.45521142578125,-0.0064239501953125,0.2874298095703125,0.03955078125
1772562293039193300,5.465193359375,-0.053955078125,0.2621307373046875,0.0389862060546875
1772562293049176600,5.475176513671875,-0.0988311767578125,0.2357025146484375,0.048614501953125
1772562293059159300,5.4851591796875,-0.135772705078125,0.1941680908203125,0.0587615966796875
1772562293069141500,5.4951416015625,-0.17596435546875,0.1518096923828125,0.0690765380859375
1772562293079124500,5.50512451171875,-0.2163848876953125,0.1085968017578125,0.0886077880859375
1772562293089107200,5.515107177734375,-0.251861572265625,0.0637969970703125,0.103302001953125
1772562293099089400,5.52508935546875,-0.2819061279296875,0.0042266845703125,0.10406494140625
1772562293109072400,5.535072265625,-0.3488616943359375,-0.0411376953125,0.0979156494140625
1772562293119055400,5.545055419921875,-0.5052337646484375,0.0064239501953125,0.0854034423828125
1772562293129037300,5.555037353515625,-0.7415313720703125,0.1608123779296875,0.0763397216796875
1772562293139020500,5.5650205078125,-1.0685272216796875,0.3912200927734375,0.0905914306640625
1772562293149003500,5.57500341796875,-1.473052978515625,0.6264190673828125,0.121307373046875
1772562293158985500,5.5849853515625,-1.84088134765625,0.7204437255859375,0.1519622802734375
1772562293168968400,5.594968505859375,-2.1585540771484375,0.70758056640625,0.186004638671875
1772562293178951400,5.604951416015625,-2.408355712890625,0.719635009765625,0.1924591064453125
1772562293188934400,5.614934326171875,-2.7490234375,0.6854705810546875,0.17840576171875
1772562293198916400,5.624916259765625,-3.2400054931640625,0.6483001708984375,0.157440185546875
1772562293208899600,5.634899658203125,-3.657958984375,0.6947479248046875,0.1832733154296875
1772562293218882300,5.64488232421875,-3.7988739013671875,0.7894744873046875,0.227264404296875
1772562293228864500,5.654864501953125,-3.7906036376953125,0.9081878662109375,0.2597503662109375
1772562293238847500,5.664847412109375,-3.6810760498046875,0.9534454345703125,0.233551025390625
1772562293248830200,5.674830322265625,-3.5350189208984375,0.8662567138671875,0.1166839599609375
1772562293258812400,5.6848125,-3.4207000732421875,0.6740264892578125,-0.039337158203125
1772562293268795400,5.69479541015625,-3.3433990478515625,0.4698944091796875,-0.163818359375
1772562293278778400,5.7047783203125,-3.286590576171875,0.342437744140625,-0.2442474365234375
1772562293288760300,5.71476025390625,-3.274658203125,0.3176727294921875,-0.2700042724609375
1772562293298743600,5.72474365234375,-3.230255126953125,0.376312255859375,-0.22222900390625
1772562293308726300,5.734726318359375,-3.1455535888671875,0.46502685546875,-0.1555023193359375
1772562293318709200,5.744709228515625,-3.048614501953125,0.5399169921875,-0.0982818603515625
1772562293328691500,5.75469140625,-2.909942626953125,0.5882720947265625,-0.048309326171875
1772562293338674400,5.76467431640625,-2.7198333740234375,0.5899658203125,-0.021484375
1772562293348657400,5.774657470703125,-2.5231475830078125,0.549835205078125,0.00762939453125
1772562293358639400,5.784639404296875,-2.3351898193359375,0.507598876953125,0.0535736083984375
1772562293368622300,5.794622314453125,-2.1458892822265625,0.472564697265625,0.0843658447265625
1772562293378605300,5.804605224609375,-1.952301025390625,0.42877197265625,0.09820556640625
1772562293388587500,5.81458740234375,-1.7564239501953125,0.396087646484375,0.094268798828125
1772562293398570200,5.8245703125,-1.5341644287109375,0.3759613037109375,0.1115570068359375
1772562293408553500,5.834553466796875,-1.2870330810546875,0.3699188232421875,0.1239471435546875
1772562293418535400,5.844535400390625,-1.0258026123046875,0.3435211181640625,0.1018218994140625
1772562293428518400,5.854518310546875,-0.7867431640625,0.3171234130859375,0.0810394287109375
1772562293438501400,5.86450146484375,-0.578521728515625,0.28875732421875,0.0693206787109375
1772562293448484400,5.874484375,-0.3910369873046875,0.2439117431640625,0.05548095703125
1772562293458466300,5.88446630859375,-0.2128143310546875,0.224700927734375,0.04644775390625
1772562293468449300,5.89444921875,-0.0377349853515625,0.23016357421875,0.042816162109375
1772562293478432500,5.9044326171875,0.1183929443359375,0.234771728515625,0.054290771484375
1772562293488414200,5.914414306640625,0.25665283203125,0.241546630859375,0.0643310546875
1772562293498397400,5.9243974609375,0.3848114013671875,0.238677978515625,0.0679168701171875
1772562293508380400,5.93438037109375,0.51123046875,0.2129974365234375,0.080963134765625
1772562293518362400,5.9443623046875,0.6304168701171875,0.17877197265625,0.09051513671875
1772562293528345300,5.954345458984375,0.7303924560546875,0.124725341796875,0.1088409423828125
1772562293538328300,5.964328369140625,0.815338134765625,0.0472564697265625,0.104736328125
1772562293548310300,5.974310302734375,0.879058837890625,-0.03240966796875,0.103302001953125
1772562293558293200,5.984293212890625,0.89349365234375,-0.111297607421875,0.110015869140625
1772562293568276500,5.9942763671875,0.874725341796875,-0.1616973876953125,0.08673095703125
1772562293578258200,6.004258056640625,0.8031005859375,-0.1729278564453125,0.0735626220703125
1772562293588241400,6.014241455078125,0.7539825439453125,-0.1678009033203125,0.0529327392578125
1772562293598224400,6.024224365234375,0.709442138671875,-0.1571197509765625,0.023193359375
1772562293608207400,6.034207275390625,0.6497802734375,-0.13812255859375,-0.003265380859375
1772562293618189300,6.044189208984375,0.60577392578125,-0.101806640625,-0.03045654296875
1772562293628172300,6.05417236328125,0.565765380859375,-0.047607421875,-0.0536956787109375
1772562293638155500,6.064155517578125,0.52020263671875,0.021270751953125,-0.0732421875
1772562293648137200,6.07413720703125,0.4456024169921875,0.105499267578125,-0.0834197998046875
1772562293658120400,6.084120361328125,0.3470001220703125,0.2047271728515625,-0.0599212646484375
1772562293668103400,6.094103515625,0.2871551513671875,0.2502899169921875,-0.030059814453125
1772562293678085400,6.10408544921875,0.24884033203125,0.2242889404296875,-0.02545166015625
1772562293688068400,6.114068359375,0.2102813720703125,0.2003326416015625,-0.026947021484375
1772562293698051300,6.12405126953125,0.1690826416015625,0.205169677734375,-0.011505126953125
1772562293708033300,6.134033203125,0.1203155517578125,0.2060394287109375,0.0131988525390625
1772562293718016500,6.1440166015625,0.0645599365234375,0.195404052734375,0.0419158935546875
1772562293727999500,6.15399951171875,0.00701904296875,0.192108154296875,0.0752410888671875
1772562293737982200,6.163982177734375,-0.052978515625,0.189971923828125,0.108123779296875
1772562293747964400,6.17396435546875,-0.1194000244140625,0.150909423828125,0.15032958984375
1772562293757947400,6.183947509765625,-0.2043304443359375,0.05218505859375,0.1982269287109375
1772562293767930600,6.1939306640625,-0.3168182373046875,-0.056396484375,0.249847412109375
1772562293777912300,6.203912353515625,-0.4463653564453125,-0.1605377197265625,0.310150146484375
1772562293787895600,6.2138955078125,-0.62579345703125,-0.2579498291015625,0.32879638671875
1772562293797878500,6.22387841796875,-0.874603271484375,-0.2744140625,0.3035430908203125
1772562293807860500,6.233860595703125,-1.1394805908203125,-0.199951171875,0.2370758056640625
1772562293817843500,6.243843505859375,-1.4059600830078125,-0.0725555419921875,0.086944580078125
1772562293827826400,6.253826416015625,-1.749359130859375,0.031158447265625,-0.0618743896484375
1772562293837808400,6.263808349609375,-2.1412506103515625,0.0550079345703125,-0.161102294921875
1772562293847791400,6.273791259765625,-2.4713134765625,0.0577239990234375,-0.208587646484375
1772562293857774600,6.283774658203125,-2.8511962890625,0.1307373046875,-0.2139434814453125
1772562293867757300,6.29375732421875,-3.2462310791015625,0.208282470703125,-0.18536376953125
1772562293877739500,6.303739501953125,-3.59765625,0.2483367919921875,-0.2537689208984375
1772562293887722500,6.313722412109375,-3.8973236083984375,0.2912750244140625,-0.257659912109375
1772562293897705200,6.323705322265625,-4.0035247802734375,0.3179168701171875,-0.220489501953125
1772562293907687400,6.3336875,-3.88653564453125,0.34521484375,-0.2245330810546875
1772562293917671000,6.3436708984375,-3.7010498046875,0.3016204833984375,-0.2205963134765625
1772562293927654100,6.353654052734375,-3.5367431640625,0.1736907958984375,-0.218963623046875
1772562293937635800,6.3636357421875,-3.3669281005859375,0.02874755859375,-0.2261505126953125
1772562293947619000,6.373619140625,-3.1910247802734375,-0.102935791015625,-0.24273681640625
1772562293957602000,6.38360205078125,-3.072296142578125,-0.204833984375,-0.2636566162109375
1772562293967584300,6.393584228515625,-2.9991912841796875,-0.240325927734375,-0.2642059326171875
1772562293977567000,6.40356689453125,-2.932464599609375,-0.199462890625,-0.2099761962890625
1772562293987550000,6.413550048828125,-2.83856201171875,-0.1180267333984375,-0.1111907958984375
1772562293997533200,6.423533203125,-2.703948974609375,-0.0771942138671875,-0.032257080078125
1772562294007515000,6.433514892578125,-2.5362701416015625,-0.0838623046875,0.0285186767578125
1772562294017498000,6.443498046875,-2.3285369873046875,-0.1098175048828125,0.0638427734375
1772562294027481000,6.453481201171875,-2.0807952880859375,-0.154510498046875,0.0506744384765625
1772562294037463000,6.463463134765625,-1.8325653076171875,-0.2152099609375,0.020294189453125
1772562294047446000,6.473446044921875,-1.579437255859375,-0.2408294677734375,0.004180908203125
1772562294057429000,6.483428955078125,-1.3248443603515625,-0.2340240478515625,0.01287841796875
1772562294067411000,6.493410888671875,-1.06915283203125,-0.2082061767578125,0.0114288330078125
1772562294077394000,6.503393798828125,-0.8288421630859375,-0.177093505859375,0.001678466796875
1772562294087377200,6.513377197265625,-0.604461669921875,-0.1299896240234375,-0.0145416259765625
1772562294097358800,6.52335888671875,-0.3981475830078125,-0.0352935791015625,-0.031951904296875
1772562294107342000,6.533342041015625,-0.2258148193359375,0.0650177001953125,-0.02288818359375
1772562294117325000,6.543324951171875,-0.0670623779296875,0.153961181640625,0.0023040771484375
1772562294127308000,6.55330810546875,0.11328125,0.21319580078125,0.0462188720703125
1772562294137290000,6.5632900390625,0.2716064453125,0.21820068359375,0.0641021728515625
1772562294147273000,6.57327294921875,0.3873443603515625,0.19781494140625,0.0742950439453125
1772562294157256200,6.583256103515625,0.4862213134765625,0.1716766357421875,0.1101837158203125
1772562294167238000,6.59323779296875,0.634307861328125,0.1033172607421875,0.112091064453125
1772562294177221000,6.60322119140625,0.7229766845703125,0.01934814453125,0.123779296875
1772562294187204000,6.6132041015625,0.7859649658203125,-0.056610107421875,0.11077880859375
1772562294197186000,6.62318603515625,0.83575439453125,-0.1182708740234375,0.09478759765625
1772562294207169000,6.6331689453125,0.83843994140625,-0.1616363525390625,0.072052001953125
1772562294217152000,6.643152099609375,0.789703369140625,-0.177764892578125,0.050811767578125
1772562294227134000,6.653134033203125,0.714935302734375,-0.16619873046875,0.02691650390625
1772562294237117000,6.663116943359375,0.6586456298828125,-0.1259002685546875,-0.0045166015625
1772562294247100200,6.67310009765625,0.5742034912109375,-0.0543212890625,0.0028228759765625
1772562294257082000,6.68308203125,0.471832275390625,0.0060272216796875,-0.0081939697265625
1772562294267065000,6.693065185546875,0.4167938232421875,0.0632781982421875,-0.04351806640625
1772562294277048000,6.703048095703125,0.3695526123046875,0.1259002685546875,-0.0535430908203125
1772562294287031000,6.713031005859375,0.3071746826171875,0.18310546875,-0.0437164306640625
1772562294297013000,6.723012939453125,0.2166290283203125,0.2333984375,-0.0457305908203125
1772562294306996200,6.732996337890625,0.125701904296875,0.264923095703125,-0.039215087890625
1772562294316979000,6.74297900390625,0.0389404296875,0.292266845703125,-0.03680419921875
1772562294326961200,6.752961181640625,-0.01416015625,0.2958984375,-0.041412353515625
1772562294336944000,6.762944091796875,-0.0187225341796875,0.307525634765625,-0.0376739501953125
1772562294346926800,6.7729267578125,-0.010284423828125,0.3170013427734375,-0.0300140380859375
1772562294356909000,6.782908935546875,-0.0143585205078125,0.2905731201171875,-0.02166748046875
1772562294366892000,6.79289208984375,-0.002960205078125,0.2595062255859375,-0.018890380859375
1772562294376875000,6.802875,0.036224365234375,0.241058349609375,-0.0204620361328125
1772562294386857000,6.81285693359375,0.0742340087890625,0.228668212890625,-0.0146484375
1772562294396840200,6.822840087890625,0.0796661376953125,0.2192840576171875,-0.013031005859375
1772562294406823000,6.832822998046875,0.05450439453125,0.19073486328125,-0.0044708251953125
1772562294416806000,6.842805908203125,0.01904296875,0.1122283935546875,0.012847900390625
1772562294426788000,6.8527880859375,0.02349853515625,0.00579833984375,0.00616455078125
1772562294436770800,6.862770751953125,0.001678466796875,-0.0574798583984375,-0.0044403076171875
1772562294446754000,6.872754150390625,-0.0479583740234375,-0.0813140869140625,-0.0274505615234375
1772562294456736000,6.882736083984375,-0.1210479736328125,-0.12432861328125,-0.079986572265625
1772562294466719000,6.892718994140625,-0.283447265625,-0.0840606689453125,-0.1605682373046875
1772562294476702000,6.902701904296875,-0.6480865478515625,0.0611419677734375,-0.2187957763671875
1772562294486684200,6.91268408203125,-1.0233917236328125,0.1836090087890625,-0.230621337890625
1772562294496667000,6.9226669921875,-1.3195037841796875,0.2328643798828125,-0.28033447265625
1772562294506649900,6.93264990234375,-1.526702880859375,0.35809326171875,-0.351348876953125
1772562294516632000,6.942632080078125,-1.692779541015625,0.549041748046875,-0.5046539306640625
1772562294526614800,6.95261474609375,-2.0283355712890625,0.7241363525390625,-0.6172027587890625
1772562294536598000,6.962597900390625,-2.3326568603515625,0.778594970703125,-0.5703582763671875
1772562294546581000,6.9725810546875,-2.5694732666015625,0.8004913330078125,-0.5390777587890625
1772562294556563000,6.98256298828125,-2.83782958984375,0.91680908203125,-0.40673828125
1772562294566546000,6.9925458984375,-2.961669921875,0.93170166015625,-0.3312835693359375
1772562294576529200,7.002529052734375,-3.076080322265625,0.892791748046875,-0.3553314208984375
1772562294586510800,7.0125107421875,-3.2534027099609375,0.833343505859375,-0.3979644775390625
1772562294596494000,7.022494140625,-3.3833465576171875,0.7427215576171875,-0.4498443603515625
1772562294606477000,7.03247705078125,-3.5742340087890625,0.7269134521484375,-0.4691009521484375
1772562294616459000,7.042458984375,-3.7348175048828125,0.749298095703125,-0.520294189453125
1772562294626442000,7.05244189453125,-3.8624114990234375,0.7702484130859375,-0.6096954345703125
1772562294636425000,7.062425048828125,-3.954193115234375,0.780487060546875,-0.67816162109375
1772562294646407200,7.0724072265625,-3.944549560546875,0.780120849609375,-0.744171142578125
1772562294656390000,7.082389892578125,-3.8732147216796875,0.791656494140625,-0.7662200927734375
1772562294666373000,7.092373046875,-3.7288055419921875,0.7698516845703125,-0.6732177734375
1772562294676356000,7.102356201171875,-3.528350830078125,0.7068023681640625,-0.5226898193359375
1772562294686338000,7.112338134765625,-3.287139892578125,0.621429443359375,-0.3631134033203125
1772562294696321000,7.122321044921875,-3.0317840576171875,0.525970458984375,-0.2060089111328125
1772562294706304000,7.132303955078125,-2.7586822509765625,0.456390380859375,-0.0759124755859375
1772562294716286000,7.142285888671875,-2.4591217041015625,0.3947296142578125,-0.0098419189453125
1772562294726269000,7.15226904296875,-2.15289306640625,0.3416900634765625,-0.0079498291015625
1772562294736252200,7.162252197265625,-1.8610687255859375,0.310882568359375,-0.0248260498046875
1772562294746233900,7.17223388671875,-1.5535125732421875,0.2594451904296875,-0.0670166015625
1772562294756217000,7.182217041015625,-1.251983642578125,0.1988525390625,-0.09393310546875
1772562294766200000,7.192199951171875,-0.965423583984375,0.15533447265625,-0.1029510498046875
1772562294776182000,7.20218212890625,-0.6948089599609375,0.142730712890625,-0.1058349609375
1772562294786165000,7.2121650390625,-0.4336090087890625,0.1439056396484375,-0.1066741943359375
1772562294796148000,7.22214794921875,-0.20379638671875,0.1383209228515625,-0.061676025390625
1772562294806131200,7.232131103515625,-0.007049560546875,0.16119384765625,-0.0085906982421875
1772562294816113000,7.24211279296875,0.1702117919921875,0.159881591796875,0.04119873046875
1772562294826096000,7.25209619140625,0.3428802490234375,0.1408233642578125,0.07598876953125
1772562294836079000,7.2620791015625,0.4818267822265625,0.1449127197265625,0.0823211669921875
1772562294846061000,7.27206103515625,0.57354736328125,0.1652984619140625,0.0721435546875
1772562294856044000,7.2820439453125,0.63214111328125,0.1471099853515625,0.07965087890625
1772562294866027000,7.292027099609375,0.66815185546875,0.1124725341796875,0.110687255859375
1772562294876009000,7.302009033203125,0.6834716796875,0.085784912109375,0.1389007568359375
1772562294885992000,7.311991943359375,0.694610595703125,0.056182861328125,0.162567138671875
1772562294895975200,7.32197509765625,0.7075958251953125,0.0325469970703125,0.175933837890625
1772562294905956900,7.331956787109375,0.701080322265625,0.03466796875,0.1873016357421875
1772562294915943000,7.34194287109375,0.6774444580078125,0.055328369140625,0.1981353759765625
1772562294925926000,7.35192578125,0.662353515625,0.051544189453125,0.1920318603515625
1772562294935909000,7.3619091796875,0.631256103515625,0.0632171630859375,0.17962646484375
1772562294945890800,7.371890869140625,0.5861968994140625,0.112548828125,0.175994873046875
1772562294955874000,7.3818740234375,0.561553955078125,0.1206512451171875,0.1526031494140625
1772562294965857000,7.39185693359375,0.5093841552734375,0.12628173828125,0.139678955078125
1772562294975839000,7.4018388671875,0.456512451171875,0.1412353515625,0.1443634033203125
1772562294985822000,7.411822021484375,0.3997650146484375,0.1318817138671875,0.12841796875
1772562294995805000,7.421804931640625,0.3406829833984375,0.1119384765625,0.114990234375
1772562295005787000,7.431786865234375,0.27520751953125,0.1298980712890625,0.1195220947265625
1772562295015769900,7.441769775390625,0.184234619140625,0.1259613037109375,0.10009765625
1772562295025753000,7.451753173828125,0.081817626953125,0.10174560546875,0.0626068115234375
1772562295035735000,7.461735107421875,-0.0246429443359375,0.1002349853515625,0.0482025146484375
1772562295045718000,7.471718017578125,-0.1489105224609375,0.094024658203125,0.0278778076171875
1772562295055701000,7.481700927734375,-0.1688690185546875,0.0788726806640625,0.004058837890625
1772562295065684000,7.49168408203125,-0.09002685546875,0.0029144287109375,-0.0191497802734375
1772562295075666000,7.501666015625,-0.1269683837890625,-0.1632232666015625,-0.0522918701171875
1772562295085649000,7.51164892578125,-0.2603912353515625,-0.34832763671875,-0.04681396484375
1772562295095632100,7.521632080078125,-0.4645538330078125,-0.448699951171875,0.0256805419921875
1772562295105613800,7.53161376953125,-0.7066650390625,-0.4897003173828125,0.090576171875
1772562295115597000,7.54159716796875,-0.9856109619140625,-0.47705078125,0.0989532470703125
1772562295125580000,7.551580078125,-1.1246490478515625,-0.438934326171875,0.064697265625
1772562295135562000,7.56156201171875,-1.1461639404296875,-0.5136871337890625,-0.000213623046875
1772562295145545000,7.571544921875,-1.198486328125,-0.6201324462890625,-0.0585174560546875
1772562295155528200,7.581528076171875,-1.3376312255859375,-0.7007904052734375,-0.0856475830078125
1772562295165510000,7.591510009765625,-1.4709625244140625,-0.8394622802734375,-0.0828704833984375
1772562295175493000,7.6014931640625,-1.60552978515625,-0.9536895751953125,-0.0607452392578125
1772562295185476000,7.61147607421875,-1.7152099609375,-0.99615478515625,-0.1095733642578125
1772562295195459000,7.621458984375,-1.8690948486328125,-1.028228759765625,-0.2234344482421875
1772562295205441000,7.63144091796875,-2.038848876953125,-1.0530242919921875,-0.294097900390625
1772562295215424000,7.641424072265625,-2.1710052490234375,-1.1009521484375,-0.35125732421875
1772562295225407200,7.6514072265625,-2.220306396484375,-1.100555419921875,-0.442626953125
1772562295235389000,7.661388916015625,-2.221954345703125,-1.0584259033203125,-0.5522918701171875
1772562295245372200,7.6713720703125,-2.2307281494140625,-0.99334716796875,-0.5852203369140625
1772562295255355100,7.681355224609375,-2.2553863525390625,-0.9398651123046875,-0.564666748046875
1772562295265337000,7.691337158203125,-2.210418701171875,-0.9316558837890625,-0.4998779296875
1772562295275320000,7.701320068359375,-2.217742919921875,-0.8929901123046875,-0.419677734375
1772562295285303000,7.711302978515625,-2.2837677001953125,-0.819976806640625,-0.322784423828125
1772562295295285000,7.721284912109375,-2.3296966552734375,-0.7818145751953125,-0.2323150634765625
1772562295305268000,7.73126806640625,-2.3272552490234375,-0.787994384765625,-0.1801910400390625
1772562295315251200,7.741251220703125,-2.270751953125,-0.8127288818359375,-0.1723175048828125
1772562295325234000,7.75123388671875,-2.1668701171875,-0.8728485107421875,-0.1993255615234375
1772562295335216000,7.761216064453125,-2.0655670166015625,-0.9347381591796875,-0.257659912109375
1772562295345199000,7.77119921875,-1.997711181640625,-0.9541778564453125,-0.280364990234375
1772562295355181800,7.781181884765625,-1.924468994140625,-0.9582061767578125,-0.250274658203125
1772562295365164000,7.7911640625,-1.8404541015625,-0.93304443359375,-0.1865234375
1772562295375147000,7.80114697265625,-1.7344207763671875,-0.884307861328125,-0.11187744140625
1772562295385130000,7.8111298828125,-1.600189208984375,-0.829254150390625,-0.054168701171875
1772562295395112000,7.82111181640625,-1.468994140625,-0.757781982421875,-0.0210113525390625
1772562295405095200,7.83109521484375,-1.320098876953125,-0.6788787841796875,-0.0188751220703125
1772562295415078000,7.841077880859375,-1.1390228271484375,-0.6249847412109375,-0.0614471435546875
1772562295425060000,7.85106005859375,-0.9965667724609375,-0.5818328857421875,-0.11285400390625
1772562295435043000,7.86104296875,-0.86090087890625,-0.5072784423828125,-0.1361236572265625
1772562295445026000,7.871026123046875,-0.7206573486328125,-0.438323974609375,-0.1503143310546875
1772562295455009000,7.881009033203125,-0.596466064453125,-0.36346435546875,-0.1659698486328125
1772562295464991000,7.890990966796875,-0.50665283203125,-0.271087646484375,-0.169921875
1772562295474974000,7.900973876953125,-0.4213409423828125,-0.18634033203125,-0.1382904052734375
1772562295484957000,7.91095703125,-0.31634521484375,-0.11541748046875,-0.1018218994140625
1772562295494939100,7.920939208984375,-0.2177581787109375,-0.0493316650390625,-0.069732666015625
1772562295504921900,7.930921875,-0.129486083984375,-0.0021820068359375,-0.02935791015625
1772562295514905000,7.940905029296875,-0.0376434326171875,0.022613525390625,0.0111846923828125
1772562295524887000,7.950886962890625,0.045806884765625,0.0328521728515625,0.0441741943359375
1772562295534870000,7.9608701171875,0.1098480224609375,0.03082275390625,0.0852508544921875
1772562295544853000,7.97085302734375,0.1507568359375,0.0219573974609375,0.1334381103515625
1772562295554835200,7.980835205078125,0.19122314453125,0.0003204345703125,0.1578369140625
1772562295564816000,7.99081591796875,0.2271270751953125,-0.0188140869140625,0.1646728515625
1772562295574798000,8.000798095703125,0.250274658203125,-0.0290374755859375,0.1602935791015625
1772562295584781000,8.010781005859375,0.270050048828125,-0.023468017578125,0.13848876953125
1772562295594764000,8.020763916015625,0.2863616943359375,-0.00091552734375,0.10882568359375
1772562295604746000,8.03074609375,0.2835693359375,0.046966552734375,0.0880279541015625
1772562295614729000,8.04072900390625,0.2851409912109375,0.094451904296875,0.078399658203125
1772562295624712000,8.0507119140625,0.30023193359375,0.1243896484375,0.06195068359375
1772562295634695200,8.060695068359376,0.3363800048828125,0.1376953125,0.0470428466796875
1772562295644676900,8.0706767578125,0.3656005859375,0.1409149169921875,0.035919189453125
1772562295654660000,8.08066015625,0.3876800537109375,0.14923095703125,0.03216552734375
1772562295664643000,8.09064306640625,0.3917236328125,0.174102783203125,0.0429840087890625
1772562295674625000,8.100625,0.3752593994140625,0.208587646484375,0.050262451171875
1772562295684608000,8.11060791015625,0.3477325439453125,0.2404937744140625,0.06060791015625
1772562295694591000,8.120591064453125,0.3209686279296875,0.26953125,0.09454345703125
1772562295704573000,8.130572998046874,0.26141357421875,0.2874755859375,0.1237335205078125
1772562295714556000,8.140555908203124,0.213897705078125,0.2762298583984375,0.1321258544921875
1772562295724539100,8.1505390625,0.2200164794921875,0.23638916015625,0.1418609619140625
1772562295734520800,8.160520751953126,0.2381134033203125,0.16363525390625,0.1794281005859375
1772562295744504000,8.170504150390625,0.238006591796875,0.07568359375,0.2210235595703125
1772562295754487000,8.180487060546875,0.2263031005859375,-0.0043487548828125,0.276824951171875
1772562295764469000,8.190468994140625,0.1889801025390625,-0.0907745361328125,0.3539581298828125
1772562295774452000,8.200451904296875,0.1045379638671875,-0.1319427490234375,0.3844757080078125
1772562295784435000,8.21043505859375,-0.0261077880859375,-0.1159820556640625,0.3160552978515625
1772562295794418200,8.220418212890625,-0.2122955322265625,-0.0905609130859375,0.1996307373046875
1772562295804399900,8.23039990234375,-0.4588623046875,-0.1636810302734375,0.0854644775390625
1772562295814383000,8.240383056640624,-0.75469970703125,-0.3122100830078125,-0.0321502685546875
1772562295824366000,8.250365966796876,-1.0731048583984375,-0.4280548095703125,-0.1807708740234375
1772562295834348000,8.26034814453125,-1.37213134765625,-0.523895263671875,-0.34326171875
1772562295844331000,8.2703310546875,-1.68658447265625,-0.59295654296875,-0.5400238037109375
1772562295854314000,8.28031396484375,-2.069091796875,-0.5982208251953125,-0.7375640869140625
1772562295864296000,8.2902958984375,-2.463653564453125,-0.5883941650390625,-0.8928375244140625
1772562295874279000,8.30027880859375,-2.7274017333984375,-0.5965423583984375,-0.9725341796875
1772562295884262100,8.31026220703125,-2.9248199462890625,-0.5791778564453125,-1.0009613037109375
1772562295894243800,8.320243896484374,-3.0869598388671875,-0.5694122314453125,-1.0076751708984375
1772562295904227000,8.33022705078125,-3.2440185546875,-0.563720703125,-0.964813232421875
1772562295914210000,8.3402099609375,-3.408966064453125,-0.51611328125,-0.980621337890625
1772562295924188700,8.350188720703125,-3.5251312255859375,-0.4599456787109375,-1.09051513671875
1772562295934170600,8.360170654296875,-3.595001220703125,-0.4320526123046875,-1.21893310546875
1772562295944153900,8.37015380859375,-3.5906829833984375,-0.4568023681640625,-1.34161376953125
1772562295954136600,8.380136474609374,-3.56585693359375,-0.52655029296875,-1.4234161376953125
1772562295964118800,8.390118896484376,-3.4778900146484375,-0.6143646240234375,-1.4663238525390625
1772562295974101800,8.400101806640626,-3.3296356201171875,-0.6732635498046875,-1.487030029296875
1772562295984084500,8.41008447265625,-3.1804351806640625,-0.672149658203125,-1.4664764404296875
1772562295994066700,8.420066650390625,-2.9819488525390625,-0.6359405517578125,-1.3631439208984375
1772562296004049700,8.430049560546875,-2.7537078857421875,-0.5910797119140625,-1.216094970703125
1772562296014032600,8.44003271484375,-2.527618408203125,-0.5492095947265625,-1.0188751220703125
1772562296024014600,8.4500146484375,-2.3118743896484375,-0.5258941650390625,-0.839874267578125
1772562296033997800,8.459997802734375,-2.1253509521484375,-0.5031890869140625,-0.66802978515625
1772562296043980500,8.46998046875,-1.931396484375,-0.495880126953125,-0.4962615966796875
1772562296053963800,8.4799638671875,-1.7139892578125,-0.4920654296875,-0.3602752685546875
1772562296063945700,8.48994580078125,-1.5087127685546875,-0.475250244140625,-0.2542266845703125
1772562296073928700,8.4999287109375,-1.30291748046875,-0.4609832763671875,-0.1610107421875
1772562296083911700,8.50991162109375,-1.09613037109375,-0.426605224609375,-0.099945068359375
1772562296093894000,8.519893798828125,-0.8936309814453125,-0.376434326171875,-0.075439453125
1772562296103876600,8.529876708984375,-0.695037841796875,-0.297088623046875,-0.0583648681640625
1772562296113859600,8.539859619140625,-0.4942474365234375,-0.189605712890625,-0.0412139892578125
1772562296123841800,8.549841796875,-0.296234130859375,-0.078948974609375,-0.0224609375
1772562296133824500,8.559824462890624,-0.108673095703125,0.05072021484375,0.004608154296875
1772562296143807700,8.569807861328124,0.079925537109375,0.1800384521484375,0.054046630859375
1772562296153790700,8.579790771484374,0.2815093994140625,0.2740020751953125,0.11968994140625
1772562296163772700,8.589772705078126,0.464385986328125,0.3282623291015625,0.1904449462890625
1772562296173755600,8.599755615234375,0.6303558349609375,0.3506622314453125,0.2672119140625
1772562296183738600,8.609738525390625,0.7733612060546875,0.3587799072265625,0.3391876220703125
1772562296193720600,8.619720458984375,0.8784637451171875,0.346405029296875,0.4129791259765625
1772562296203703600,8.62970361328125,0.954833984375,0.3255767822265625,0.469818115234375
1772562296213686800,8.639686767578125,1.00311279296875,0.2889251708984375,0.51153564453125
1772562296223668500,8.64966845703125,1.0692138671875,0.2238006591796875,0.5357208251953125
1772562296233651700,8.659651611328124,1.1120452880859375,0.19964599609375,0.55078125
1772562296243634700,8.669634765625,1.1007232666015625,0.18157958984375,0.544342041015625
1772562296253616600,8.67961669921875,1.0814056396484375,0.1530609130859375,0.526824951171875
1772562296263599600,8.689599609375,1.0281982421875,0.1317901611328125,0.5016326904296875
1772562296273582600,8.69958251953125,0.94219970703125,0.1248016357421875,0.470184326171875
1772562296283565800,8.70956591796875,0.8620147705078125,0.1445770263671875,0.436859130859375
1772562296293547500,8.719547607421875,0.762176513671875,0.1793670654296875,0.3921966552734375
1772562296303530800,8.72953076171875,0.6752777099609375,0.191070556640625,0.3346099853515625
1772562296313513700,8.739513671875,0.53369140625,0.2273712158203125,0.2726593017578125
1772562296323495700,8.74949560546875,0.4661102294921875,0.2599945068359375,0.2200469970703125
1772562296333478700,8.759478759765624,0.38922119140625,0.3941192626953125,0.1400146484375
1772562296343461600,8.769461669921874,0.2378387451171875,0.4727325439453125,0.1025848388671875
1772562296353443600,8.779443603515626,0.17864990234375,0.5001678466796875,0.06414794921875
1772562296363426600,8.789426513671875,0.123016357421875,0.5145721435546875,0.035858154296875
1772562296373409800,8.799409912109375,0.016387939453125,0.5124053955078125,0.0060272216796875
1772562296383391700,8.809391845703125,-0.09210205078125,0.5043487548828125,0.0073394775390625
1772562296393374700,8.819374755859375,-0.20355224609375,0.47076416015625,0.0108184814453125
1772562296403357700,8.829357666015625,-0.29791259765625,0.4040374755859375,-0.021697998046875
1772562296413340700,8.839340576171875,-0.3948974609375,0.327362060546875,-0.084442138671875
1772562296423322600,8.849322509765624,-0.5223388671875,0.2685394287109375,-0.1604766845703125
1772562296433305900,8.859305908203124,-0.6412506103515625,0.1868896484375,-0.21893310546875
1772562296443288600,8.86928857421875,-0.757171630859375,0.094268798828125,-0.2759857177734375
1772562296453270800,8.879270751953126,-0.9680938720703125,0.035003662109375,-0.314361572265625
1772562296463253800,8.889253662109375,-1.2108154296875,-0.025848388671875,-0.2934722900390625
1772562296473236700,8.89923681640625,-1.396087646484375,-0.0805206298828125,-0.2938385009765625
1772562296483218700,8.90921875,-1.60711669921875,-0.0821990966796875,-0.321319580078125
1772562296493201700,8.91920166015625,-1.8885955810546875,-0.0613555908203125,-0.3336334228515625
1772562296503185000,8.929184814453125,-2.157440185546875,-0.062530517578125,-0.3505706787109375
1772562296513166600,8.93916650390625,-2.365081787109375,-0.0433807373046875,-0.428375244140625
1772562296523149800,8.94914990234375,-2.5755462646484375,0.006072998046875,-0.532196044921875
1772562296533132800,8.9591328125,-2.81280517578125,0.0178680419921875,-0.604034423828125
1772562296543115500,8.969115478515626,-3.08038330078125,0.0224151611328125,-0.6515350341796875
1772562296553097700,8.97909765625,-3.398529052734375,0.102813720703125,-0.6650390625
1772562296563080700,8.989080810546875,-3.64697265625,0.18963623046875,-0.6572265625
1772562296573063700,8.999063720703125,-3.7710723876953125,0.2598724365234375,-0.6854400634765625
1772562296583045600,9.009045654296875,-3.8471221923828125,0.3160552978515625,-0.6899566650390625
1772562296593028900,9.01902880859375,-3.9102783203125,0.34735107421875,-0.6484527587890625
1772562296603011600,9.029011474609375,-3.9232940673828125,0.3523712158203125,-0.5995025634765625
1772562296612993800,9.038993896484374,-3.9155120849609375,0.38299560546875,-0.5277099609375
1772562296622976800,9.048976806640624,-3.8434600830078125,0.470428466796875,-0.4390411376953125
1772562296632959500,9.05895947265625,-3.6479949951171875,0.5399932861328125,-0.29058837890625
1772562296642941700,9.068941650390625,-3.4128265380859375,0.57904052734375,-0.1094970703125
1772562296652924700,9.078924560546875,-3.2042999267578125,0.5961761474609375,0.056365966796875
1772562296662907600,9.08890771484375,-3.016448974609375,0.5544891357421875,0.1961822509765625
1772562296672890600,9.098890625,-2.8330535888671875,0.4791412353515625,0.2688751220703125
1772562296682872800,9.108872802734375,-2.6390838623046875,0.3827362060546875,0.244476318359375
1772562296692855600,9.11885546875,-2.4295501708984375,0.2989044189453125,0.162353515625
1772562296702838800,9.1288388671875,-2.1959686279296875,0.20989990234375,0.0516510009765625
1772562296712820700,9.13882080078125,-1.9727630615234375,0.12615966796875,-0.0913238525390625
1772562296722803700,9.1488037109375,-1.7531585693359375,0.070556640625,-0.2503814697265625
1772562296732786700,9.15878662109375,-1.5228118896484375,0.03509521484375,-0.381103515625
1772562296742768600,9.1687685546875,-1.29595947265625,0.010040283203125,-0.4546966552734375
1772562296752751600,9.178751708984375,-1.0593414306640625,0.01739501953125,-0.4725494384765625
1772562296762734600,9.188734619140625,-0.823638916015625,0.0556793212890625,-0.44561767578125
1772562296772716800,9.198716796875,-0.5994415283203125,0.113861083984375,-0.38726806640625
1772562296782699500,9.208699462890625,-0.384063720703125,0.1789703369140625,-0.32281494140625
1772562296792682800,9.218682861328125,-0.1818389892578125,0.239105224609375,-0.2653656005859375
1772562296802665700,9.228665771484375,0.0198822021484375,0.286468505859375,-0.2371368408203125
1772562296812647700,9.238647705078124,0.2180938720703125,0.309295654296875,-0.2315673828125
1772562296822630700,9.248630615234376,0.3932647705078125,0.311309814453125,-0.2241973876953125
1772562296832613600,9.258613525390626,0.527740478515625,0.312347412109375,-0.19342041015625
1772562296842595600,9.268595703125,0.626922607421875,0.308197021484375,-0.16864013671875
1772562296852578600,9.27857861328125,0.72210693359375,0.3091888427734375,-0.1433868408203125
1772562296862561800,9.288561767578125,0.8048248291015625,0.294677734375,-0.097747802734375
1772562296872543500,9.29854345703125,0.8639068603515625,0.270111083984375,-0.061004638671875
1772562296882526700,9.308526611328125,0.924102783203125,0.225982666015625,-0.0297088623046875
1772562296892509700,9.318509765625,0.9828033447265625,0.187957763671875,0.015380859375
1772562296902491600,9.32849169921875,1.0152587890625,0.1674346923828125,0.07220458984375
1772562296912474600,9.338474609375,1.0252838134765625,0.1425323486328125,0.1326751708984375
1772562296922458400,9.348458251953126,1.032440185546875,0.111114501953125,0.1867828369140625
1772562296932441300,9.35844140625,1.024017333984375,0.0957489013671875,0.2319793701171875
1772562296942423300,9.36842333984375,1.011810302734375,0.08502197265625,0.25299072265625
1772562296952406500,9.378406494140625,0.9819793701171875,0.087066650390625,0.265899658203125
1772562296962389200,9.38838916015625,0.941497802734375,0.0927581787109375,0.2730560302734375
1772562296972371500,9.398371337890625,0.9045257568359375,0.1061248779296875,0.2688751220703125
1772562296982354400,9.4083544921875,0.854827880859375,0.12420654296875,0.2441864013671875
1772562296992337200,9.418337158203125,0.7911834716796875,0.1509246826171875,0.2053070068359375
1772562297002319400,9.4283193359375,0.6865997314453125,0.176483154296875,0.16448974609375
1772562297012302300,9.43830224609375,0.6149749755859375,0.21844482421875,0.097930908203125
1772562297022285300,9.448285400390626,0.571197509765625,0.272003173828125,0.0505218505859375
1772562297032268300,9.458268310546876,0.450927734375,0.3065948486328125,0.035400390625
1772562297042250500,9.46825048828125,0.3734130859375,0.2858123779296875,0.008697509765625
1772562297052233200,9.478233154296875,0.3192138671875,0.2650299072265625,-0.002471923828125
1772562297062216200,9.48821630859375,0.26605224609375,0.239044189453125,0.0026092529296875
1772562297072198400,9.498198486328125,0.193450927734375,0.1911773681640625,0.01220703125
1772562297082181000,9.50818115234375,0.1190948486328125,0.121063232421875,0.010772705078125
1772562297092164400,9.518164306640625,0.0406341552734375,0.0355072021484375,0.0162811279296875
1772562297102146300,9.528146240234374,-0.0620574951171875,-0.0421905517578125,0.0424957275390625
1772562297112129300,9.53812939453125,-0.195068359375,-0.1424102783203125,0.079803466796875
1772562297122112300,9.5481123046875,-0.3809356689453125,-0.2579803466796875,0.1367340087890625
1772562297132094500,9.558094482421875,-0.570404052734375,-0.363525390625,0.1602325439453125
1772562297142077200,9.5680771484375,-0.8095855712890625,-0.3376922607421875,0.125274658203125
1772562297152060200,9.57806005859375,-1.1529541015625,-0.212432861328125,0.05718994140625
1772562297162043400,9.58804345703125,-1.5560760498046875,-0.1020660400390625,-0.1091766357421875
1772562297172025000,9.598025146484375,-1.8794403076171875,-0.0369720458984375,-0.3858795166015625
1772562297182008300,9.60800830078125,-2.045867919921875,0.059326171875,-0.68267822265625
1772562297191991300,9.6179912109375,-2.3808746337890625,0.178253173828125,-0.8533935546875
1772562297201973200,9.62797314453125,-2.7748260498046875,0.21771240234375,-0.923675537109375
1772562297211956200,9.637956298828126,-3.125640869140625,0.2159881591796875,-0.9511566162109375
1772562297221939200,9.647939208984376,-3.422088623046875,0.1651763916015625,-0.9577789306640625
1772562297231921200,9.657921142578125,-3.7351531982421875,0.1609344482421875,-0.916656494140625
1772562297241904400,9.667904296875,-3.8999176025390625,0.1409149169921875,-0.835601806640625
1772562297251887400,9.677887451171875,-3.9745330810546875,0.165618896484375,-0.80535888671875
1772562297261869300,9.687869384765625,-4.01416015625,0.21630859375,-0.79296875
1772562297271852300,9.697852294921875,-3.9831695556640625,0.2608642578125,-0.8335418701171875
1772562297281835300,9.707835205078124,-3.9285125732421875,0.256805419921875,-0.927459716796875
1772562297291817200,9.717817138671874,-3.8181304931640625,0.22052001953125,-1.093902587890625
1772562297301800200,9.72780029296875,-3.73797607421875,0.1907806396484375,-1.1857757568359375
1772562297311783400,9.737783447265626,-3.5712127685546875,0.1533203125,-1.1836395263671875
1772562297321766400,9.747766357421876,-3.3236236572265625,0.131195068359375,-1.107513427734375
1772562297331748400,9.757748291015625,-3.056396484375,0.1226043701171875,-0.9697113037109375
1772562297341731300,9.7677314453125,-2.8044891357421875,0.12200927734375,-0.816497802734375
1772562297351714300,9.77771435546875,-2.5752410888671875,0.130859375,-0.6600799560546875
1772562297361696300,9.7876962890625,-2.369354248046875,0.149566650390625,-0.5059356689453125
1772562297371679200,9.79767919921875,-2.1587371826171875,0.169891357421875,-0.3694610595703125
1772562297381662500,9.807662353515624,-1.9424285888671875,0.1945953369140625,-0.2441864013671875
1772562297391644200,9.81764404296875,-1.7020111083984375,0.204559326171875,-0.160614013671875
1772562297401627400,9.82762744140625,-1.4724578857421875,0.203826904296875,-0.110198974609375
1772562297411610400,9.8376103515625,-1.282928466796875,0.232879638671875,-0.0745849609375
1772562297421593000,9.847593017578125,-1.1246490478515625,0.2850189208984375,-0.043731689453125
1772562297431575300,9.8575751953125,-0.958282470703125,0.3298492431640625,-0.004486083984375
1772562297441558300,9.867558349609375,-0.7794647216796875,0.375091552734375,0.0531463623046875
1772562297451541500,9.87754150390625,-0.6144561767578125,0.425628662109375,0.1015625
1772562297461523200,9.887523193359375,-0.4661712646484375,0.4671630859375,0.15045166015625
1772562297471506400,9.89750634765625,-0.326568603515625,0.4895782470703125,0.1801300048828125
1772562297481489400,9.907489501953124,-0.20147705078125,0.5114593505859375,0.19207763671875
1772562297491471400,9.917471435546876,-0.0924530029296875,0.54425048828125,0.1983795166015625
1772562297501454300,9.927454345703126,0.0089111328125,0.56787109375,0.202423095703125
1772562297511437300,9.937437255859376,0.095367431640625,0.5817718505859375,0.2015533447265625
1772562297521420300,9.947420166015625,0.176116943359375,0.590240478515625,0.20953369140625
1772562297531402200,9.95740234375,0.256561279296875,0.57952880859375,0.2117462158203125
1772562297541385500,9.967385498046875,0.32989501953125,0.546417236328125,0.2148590087890625
1772562297551368200,9.9773681640625,0.38531494140625,0.4974365234375,0.2263641357421875
1772562297561350400,9.987350341796875,0.426666259765625,0.4465484619140625,0.24481201171875
1772562297571333400,9.99733349609375,0.4566497802734375,0.3914031982421875,0.24725341796875
1772562297581316400,10.00731640625,0.4783477783203125,0.3325042724609375,0.2348175048828125
1772562297591298300,10.01729833984375,0.5030975341796875,0.2783203125,0.2171783447265625
1772562297601281300,10.02728125,0.5193023681640625,0.23309326171875,0.2065277099609375
1772562297611264300,10.03726416015625,0.514129638671875,0.1800384521484375,0.1928863525390625
1772562297621246500,10.04724658203125,0.500396728515625,0.120574951171875,0.182342529296875
1772562297631229400,10.0572294921875,0.4902496337890625,0.10430908203125,0.15313720703125
1772562297641212200,10.067212158203125,0.4889373779296875,0.1265716552734375,0.11859130859375
1772562297651195400,10.0771953125,0.494140625,0.138458251953125,0.100982666015625
1772562297661177300,10.08717724609375,0.4779510498046875,0.1438751220703125,0.0979461669921875
1772562297671160300,10.097160400390624,0.4494781494140625,0.12725830078125,0.09954833984375
1772562297681143300,10.107143310546874,0.4411468505859375,0.089447021484375,0.1060333251953125
1772562297691125500,10.11712548828125,0.4542083740234375,0.0527191162109375,0.121124267578125
1772562297701108200,10.127108154296875,0.44293212890625,0.0034332275390625,0.1420745849609375
1772562297711091200,10.13709130859375,0.4268341064453125,-0.078887939453125,0.183380126953125
1772562297721073400,10.147073486328125,0.431976318359375,-0.1946563720703125,0.2333831787109375
1772562297731056000,10.15705615234375,0.3987274169921875,-0.3035736083984375,0.2985382080078125
1772562297741039400,10.167039306640625,0.3509979248046875,-0.381134033203125,0.36590576171875
1772562297751021300,10.177021240234374,0.244171142578125,-0.469268798828125,0.4122161865234375
1772562297761004300,10.18700439453125,0.1158447265625,-0.577911376953125,0.4395751953125
1772562297770987300,10.1969873046875,-0.050384521484375,-0.688751220703125,0.461334228515625
1772562297780970200,10.20697021484375,-0.2862091064453125,-0.892547607421875,0.4322662353515625
1772562297790952200,10.2169521484375,-0.6413116455078125,-1.0296783447265625,0.2506561279296875
1772562297800935200,10.22693505859375,-1.1661376953125,-0.980438232421875,0.0719451904296875
1772562297810918400,10.23691845703125,-1.6765899658203125,-0.81817626953125,-0.087005615234375
1772562297820900000,10.246900146484375,-2.0008544921875,-0.73828125,-0.2995758056640625
1772562297830883300,10.25688330078125,-2.224517822265625,-0.730133056640625,-0.5756683349609375
1772562297840866300,10.2668662109375,-2.538848876953125,-0.515411376953125,-0.6694793701171875
1772562297850848300,10.27684814453125,-2.640411376953125,-0.3215179443359375,-0.7292938232421875
1772562297860831200,10.286831298828124,-2.8153533935546875,-0.2206878662109375,-0.7278900146484375
1772562297870814200,10.296814208984374,-3.04449462890625,-0.164764404296875,-0.5732879638671875
1772562297880796200,10.306796142578126,-3.0838623046875,-0.172119140625,-0.3747406005859375
1772562297890779100,10.316779052734375,-3.07989501953125,-0.171844482421875,-0.1936798095703125
1772562297900762400,10.326762451171875,-3.044830322265625,-0.1757659912109375,-0.06585693359375
1772562297910745300,10.336745361328125,-2.883697509765625,-0.18524169921875,0.016357421875
1772562297920727300,10.346727294921875,-2.671600341796875,-0.1980438232421875,0.0561676025390625
1772562297930710300,10.356710205078125,-2.44683837890625,-0.2216644287109375,0.0821533203125
1772562297940693500,10.366693603515625,-2.1809234619140625,-0.303558349609375,0.09686279296875
1772562297950675200,10.37667529296875,-1.918914794921875,-0.4244842529296875,0.0974578857421875
1772562297960658400,10.386658447265624,-1.70867919921875,-0.5105743408203125,0.0921630859375
1772562297970641400,10.396641357421874,-1.5546417236328125,-0.55712890625,0.071258544921875
1772562297980623400,10.406623291015626,-1.4410400390625,-0.54010009765625,0.053131103515625
1772562297990606300,10.4166064453125,-1.3004302978515625,-0.4850921630859375,0.023345947265625
1772562298000589300,10.42658935546875,-1.142242431640625,-0.4272308349609375,-0.0142822265625
1772562298010572300,10.436572265625,-0.99981689453125,-0.3648223876953125,-0.0232391357421875
1772562298020554200,10.44655419921875,-0.868194580078125,-0.3134613037109375,-0.008758544921875
1772562298030537500,10.456537353515625,-0.7724151611328125,-0.2827911376953125,-0.006561279296875
1772562298040520200,10.466520263671875,-0.7080535888671875,-0.23040771484375,-0.003692626953125
1772562298050502400,10.47650244140625,-0.6378936767578125,-0.192596435546875,0.004791259765625
1772562298060485400,10.4864853515625,-0.5747222900390625,-0.19390869140625,0.010284423828125
1772562298070468000,10.496468017578126,-0.5408935546875,-0.1995849609375,0.0206298828125
1772562298080450300,10.5064501953125,-0.5215911865234375,-0.19647216796875,0.0354156494140625
1772562298090433300,10.516433349609375,-0.5091705322265625,-0.208221435546875,0.04248046875
1772562298100416300,10.526416259765625,-0.500701904296875,-0.234893798828125,0.038726806640625
1772562298110398200,10.536398193359375,-0.49688720703125,-0.241973876953125,0.049896240234375
1772562298120381400,10.54638134765625,-0.505767822265625,-0.2402191162109375,0.052276611328125
1772562298130364200,10.5563642578125,-0.5087738037109375,-0.2481231689453125,0.0455780029296875
1772562298140347100,10.56634716796875,-0.4990997314453125,-0.2696685791015625,0.032989501953125
1772562298150329300,10.576329345703124,-0.4903106689453125,-0.2965850830078125,0.0294189453125
1772562298160312000,10.58631201171875,-0.477203369140625,-0.3195648193359375,0.037933349609375
1772562298170295300,10.59629541015625,-0.4671783447265625,-0.334320068359375,0.0495452880859375
1772562298180277200,10.60627734375,-0.463958740234375,-0.3482666015625,0.09002685546875
1772562298190260200,10.61626025390625,-0.4585113525390625,-0.359893798828125,0.1168365478515625
1772562298200243200,10.6262431640625,-0.444793701171875,-0.36260986328125,0.100921630859375
1772562298210225400,10.636225341796875,-0.454193115234375,-0.353179931640625,0.0615692138671875
1772562298220208000,10.6462080078125,-0.5062103271484375,-0.3261566162109375,0.0401611328125
1772562298230191000,10.656191162109375,-0.5396270751953125,-0.30499267578125,0.036956787109375
1772562298240173300,10.66617333984375,-0.5481719970703125,-0.3083953857421875,0.0137176513671875
1772562298250156300,10.67615625,-0.582061767578125,-0.305419921875,0.000457763671875
1772562298260139300,10.68613916015625,-0.6358184814453125,-0.3129730224609375,0.0167083740234375
1772562298270122200,10.696122314453126,-0.664642333984375,-0.365509033203125,0.05462646484375
1772562298280104200,10.706104248046875,-0.6501617431640625,-0.4209442138671875,0.103424072265625
1772562298290087200,10.716087158203125,-0.6077117919921875,-0.453216552734375,0.141387939453125
1772562298300070400,10.7260703125,-0.5612335205078125,-0.448394775390625,0.1537933349609375
1772562298310052000,10.736052001953125,-0.541229248046875,-0.3902740478515625,0.135284423828125
1772562298320035300,10.746035400390625,-0.600189208984375,-0.3059844970703125,0.1367645263671875
1772562298330018300,10.756018310546875,-0.750213623046875,-0.235321044921875,0.157684326171875
1772562298340000300,10.766000244140624,-0.918487548828125,-0.194183349609375,0.1225128173828125
1772562298349983200,10.775983154296876,-1.056427001953125,-0.2062225341796875,0.054443359375
1772562298359966200,10.78596630859375,-1.10382080078125,-0.2476348876953125,0.0230865478515625
1772562298369948200,10.7959482421875,-1.0592498779296875,-0.2729034423828125,0.0685272216796875
1772562298379931100,10.80593115234375,-0.993133544921875,-0.287384033203125,0.113494873046875
1772562298389914400,10.815914306640625,-0.9781646728515625,-0.2828369140625,0.1245880126953125
1772562298399897300,10.8258974609375,-1.0268707275390625,-0.238128662109375,0.130401611328125
1772562298409879300,10.83587939453125,-1.09783935546875,-0.18194580078125,0.121795654296875
1772562298419862300,10.8458623046875,-1.17352294921875,-0.164764404296875,0.0996246337890625
1772562298429845200,10.85584521484375,-1.2362213134765625,-0.1918487548828125,0.077301025390625
1772562298439827200,10.8658271484375,-1.2867889404296875,-0.224822998046875,0.0862274169921875
1772562298449810200,10.87581005859375,-1.3487396240234375,-0.213714599609375,0.140106201171875
1772562298459793400,10.88579345703125,-1.3756103515625,-0.184722900390625,0.2130584716796875
1772562298469775000,10.895775146484375,-1.354583740234375,-0.1499786376953125,0.2534637451171875
1772562298479758300,10.90575830078125,-1.259185791015625,-0.11993408203125,0.2585906982421875
1772562298489741300,10.9157412109375,-1.151031494140625,-0.0975799560546875,0.248809814453125
1772562298499724000,10.92572412109375,-1.1678314208984375,-0.0139312744140625,0.204132080078125
1772562298509706200,10.935706298828125,-1.2651214599609375,0.102081298828125,0.067840576171875
1772562298519689200,10.945689208984374,-1.1690826416015625,0.1143035888671875,-0.0194091796875
1772562298529672200,10.955672119140624,-1.0929412841796875,0.1239471435546875,-0.080291748046875
1772562298539654100,10.965654052734376,-1.13214111328125,0.1555938720703125,-0.11590576171875
1772562298549637400,10.975637451171876,-1.214935302734375,0.2220458984375,-0.171112060546875
1772562298559620400,10.985620361328126,-1.1566619873046875,0.2348785400390625,-0.23297119140625
1772562298569602300,10.995602294921875,-1.0551605224609375,0.166168212890625,-0.2260284423828125
1772562298579585300,11.005585205078125,-1.040802001953125,0.0672760009765625,-0.1936187744140625
1772562298589568300,11.015568359375,-1.073150634765625,-0.046417236328125,-0.1386871337890625
1772562298599550200,11.02555029296875,-1.1158905029296875,-0.1350860595703125,-0.0323486328125
1772562298609533200,11.035533203125,-1.1165313720703125,-0.1349029541015625,0.08038330078125
1772562298619516400,11.045516357421874,-1.110198974609375,-0.088714599609375,0.1403045654296875
1772562298629499100,11.0554990234375,-1.0907135009765625,-0.0716705322265625,0.1548004150390625
1772562298639481300,11.0654814453125,-1.0451507568359375,-0.079864501953125,0.1392974853515625
1772562298649464300,11.07546435546875,-0.9951171875,-0.0985107421875,0.1064910888671875
1772562298659447300,11.085447265625,-0.9500732421875,-0.12017822265625,0.07073974609375
1772562298669429200,11.09542919921875,-0.90765380859375,-0.1498870849609375,0.0475006103515625
1772562298679412500,11.10541259765625,-0.8791351318359375,-0.17987060546875,0.050872802734375
1772562298689395200,11.115395263671875,-0.8935546875,-0.2074127197265625,0.0793609619140625
1772562298699377400,11.12537744140625,-0.9100494384765625,-0.2367706298828125,0.12420654296875
1772562298709360400,11.1353603515625,-0.9027862548828125,-0.263824462890625,0.169586181640625
1772562298719343000,11.145343017578124,-0.874847412109375,-0.2877655029296875,0.1970367431640625
1772562298729326300,11.155326416015624,-0.8736724853515625,-0.3182525634765625,0.209503173828125
1772562298739308300,11.165308349609376,-0.9220428466796875,-0.3603973388671875,0.2497100830078125
1772562298749291300,11.175291259765626,-0.882415771484375,-0.367156982421875,0.2563629150390625
1772562298759274200,11.185274169921875,-0.865875244140625,-0.4021759033203125,0.23492431640625
1772562298769256400,11.19525634765625,-0.874664306640625,-0.43524169921875,0.20721435546875
1772562298779239200,11.2052392578125,-0.8333587646484375,-0.4591522216796875,0.2066497802734375
1772562298789222100,11.21522216796875,-0.7893218994140625,-0.4709320068359375,0.2111663818359375
1772562298799204400,11.225204345703125,-0.7877655029296875,-0.4759979248046875,0.21087646484375
1772562298809187000,11.23518701171875,-0.796295166015625,-0.479278564453125,0.2089385986328125
1772562298819170300,11.24517041015625,-0.810882568359375,-0.49066162109375,0.2036285400390625
1772562298829152300,11.25515234375,-0.821380615234375,-0.5025482177734375,0.198486328125
1772562298839135200,11.26513525390625,-0.828033447265625,-0.505767822265625,0.2009735107421875
1772562298849118200,11.2751181640625,-0.817413330078125,-0.4906463623046875,0.2052764892578125
1772562298859101200,11.28510107421875,-0.7846527099609375,-0.4629974365234375,0.1988372802734375
1772562298869083100,11.295083251953125,-0.7687225341796875,-0.4410247802734375,0.1959075927734375
1772562298879066000,11.305066162109375,-0.76971435546875,-0.4456939697265625,0.1919403076171875
1772562298889049300,11.31504931640625,-0.776763916015625,-0.4668121337890625,0.1839447021484375
1772562298899031000,11.325031005859374,-0.774658203125,-0.4759368896484375,0.1692047119140625
1772562298909014300,11.33501416015625,-0.7918548583984375,-0.4795989990234375,0.16912841796875
1772562298918997200,11.344997314453124,-0.7905426025390625,-0.4918670654296875,0.178924560546875
1772562298928979000,11.35497900390625,-0.7844085693359375,-0.497283935546875,0.1988372802734375
1772562298938962000,11.3649619140625,-0.6615142822265625,-0.4862060546875,0.2520294189453125
1772562298948945000,11.37494482421875,-0.7712249755859375,-0.492034912109375,0.3462066650390625
1772562298958926800,11.3849267578125,-0.7982940673828125,-0.5322265625,0.3666839599609375
1772562298968910000,11.39491015625,-0.793365478515625,-0.56036376953125,0.3363037109375
1772562298978892800,11.404892822265625,-0.855316162109375,-0.575042724609375,0.3269195556640625
1772562298988875800,11.414875732421875,-0.8846435546875,-0.58685302734375,0.3188323974609375
1772562298998858000,11.42485791015625,-0.8903656005859375,-0.5525054931640625,0.338714599609375
1772562299008840700,11.4348408203125,-0.8465728759765625,-0.5064544677734375,0.3278045654296875
1772562299018824000,11.444823974609376,-0.734039306640625,-0.47845458984375,0.3172454833984375
1772562299028806000,11.454805908203125,-0.7176971435546875,-0.4743194580078125,0.3388824462890625
1772562299038788900,11.464788818359375,-0.7700347900390625,-0.4691925048828125,0.3231964111328125
