time,seconds_elapsed,z,y,x
1772562287648541700,0.074541748046875,0.007278951816260815,-0.23513394594192505,0.34261009097099304
1772562287658524700,0.084524658203125,0.014370417222380638,-0.10078413784503937,0.27745530009269714
1772562287668508000,0.0945078125,0.016412528231739998,0.04698694869875908,0.18379274010658264
1772562287678489600,0.104489501953125,0.01648976095020771,0.18685483932495117,0.07711449265480042
1772562287688472800,0.114472900390625,0.023985760286450386,0.2809903919696808,-0.022361231967806816
1772562287698455800,0.124455810546875,0.031267907470464706,0.3333478569984436,-0.09235096722841263
1772562287708437800,0.134437744140625,0.03708531707525253,0.3539801836013794,-0.13524436950683594
1772562287718420700,0.144420654296875,0.03581738471984863,0.35324886441230774,-0.15354588627815247
1772562287728403700,0.15440380859375,0.03652285784482956,0.3377271592617035,-0.16212153434753418
1772562287738387000,0.164386962890625,0.041797515004873276,0.3403216302394867,-0.15376000106334686
1772562287748368600,0.17436865234375,0.04807112365961075,0.33530688285827637,-0.13535276055335999
1772562287758352000,0.184351806640625,0.056478723883628845,0.31425967812538147,-0.10777813196182251
1772562287768334800,0.1943349609375,0.0601874403655529,0.2883202135562897,-0.06928426772356033
1772562287778316800,0.20431689453125,0.05872483178973198,0.22849522531032562,-0.029472937807440758
1772562287788299800,0.2142998046875,0.04904530569911003,0.15731531381607056,0.0023518374655395746
1772562287798282800,0.22428271484375,0.029450034722685814,0.0801723301410675,0.006202768534421921
1772562287808264700,0.2342646484375,0.008614527061581612,-0.0177579578012228,-0.002490588231012225
1772562287818247700,0.24424755859375,-0.004607268609106541,-0.12429878115653992,-0.002662362065166235
1772562287828231000,0.25423095703125,-0.027473969385027885,-0.2123708426952362,0.002400306984782219
1772562287838212600,0.264212646484375,-0.05969821661710739,-0.2939797043800354,0.0128159299492836
1772562287848195800,0.27419580078125,-0.08718790113925934,-0.4383467137813568,0.0034818167332559824
1772562287858178800,0.2841787109375,-0.09968052059412003,-0.6275973320007324,-0.010378871113061905
1772562287868160800,0.294160888671875,-0.09828262776136398,-0.7383244037628174,-0.007957791909575462
1772562287878143700,0.304143798828125,-0.102998286485672,-0.7699241042137146,0.006075735669583082
1772562287888127000,0.314126953125,-0.13217854499816895,-0.7543321251869202,0.022107699885964394
1772562287898108700,0.324108642578125,-0.17420083284378052,-0.6550087332725525,0.03952663764357567
1772562287908095500,0.334095458984375,-0.2208239883184433,-0.48649561405181885,0.07056258618831635
1772562287918078500,0.344078369140625,-0.2633432149887085,-0.32999974489212036,0.1141878217458725
1772562287928061400,0.3540615234375,-0.27757728099823,-0.17903046309947968,0.16062669456005096
1772562287938043600,0.364043701171875,-0.22750478982925415,-0.023692013695836067,0.1790645569562912
1772562287948026400,0.3740263671875,-0.14726296067237854,0.14251719415187836,0.15212509036064148
1772562287958009600,0.384009521484375,-0.03335076570510864,0.30567044019699097,0.07631687819957733
1772562287967991600,0.393991455078125,0.08885397017002106,0.46996402740478516,-0.0564531572163105
1772562287977974500,0.403974609375,0.1968643218278885,0.6282748579978943,-0.23285295069217682
1772562287987957500,0.41395751953125,0.2881055474281311,0.7664985060691833,-0.43566492199897766
1772562287997939700,0.423939697265625,0.3835039734840393,0.8804165720939636,-0.6542872786521912
1772562288007922400,0.43392236328125,0.4769819974899292,0.9575464725494385,-0.8418148159980774
1772562288017905400,0.443905517578125,0.548204243183136,0.9990899562835693,-0.9369378685951233
1772562288027887600,0.4538876953125,0.600206196308136,1.086308479309082,-0.9001284837722778
1772562288037870300,0.463870361328125,0.620383620262146,1.2276123762130737,-0.76069575548172
1772562288047853600,0.473853515625,0.6074814200401306,1.4085527658462524,-0.6054307818412781
1772562288057835500,0.48383544921875,0.5581591725349426,1.5550096035003662,-0.45545992255210876
1772562288067818500,0.493818603515625,0.4863169193267822,1.5540580749511719,-0.3942045569419861
1772562288077801500,0.503801513671875,0.4165247976779938,1.339381456375122,-0.47609809041023254
1772562288087783700,0.51378369140625,0.38286057114601135,1.0805163383483887,-0.6388230919837952
1772562288097766400,0.523766357421875,0.43541350960731506,0.769585371017456,-0.8461866974830627
1772562288107749400,0.533749267578125,0.5143741369247437,0.5082099437713623,-0.9963697791099548
1772562288117732600,0.543732666015625,0.49720683693885803,0.2868024706840515,-1.058949589729309
1772562288127714300,0.55371435546875,0.41897594928741455,0.0796293169260025,-1.061210036277771
1772562288137697500,0.563697509765625,0.36734846234321594,-0.13257348537445068,-1.0000414848327637
1772562288147680500,0.573680419921875,0.3537735044956207,-0.3481646478176117,-0.8467973470687866
1772562288157662700,0.583662841796875,0.32897841930389404,-0.6159300208091736,-0.6283518075942993
1772562288167645400,0.5936455078125,0.2766757905483246,-0.8692845106124878,-0.36470311880111694
1772562288177628400,0.60362841796875,0.18456505239009857,-1.008927345275879,-0.10851875692605972
1772562288187610600,0.613610595703125,0.05035132169723511,-1.0096880197525024,0.13126534223556519
1772562288197593300,0.62359326171875,-0.09006357938051224,-0.8918375372886658,0.33356305956840515
1772562288207576600,0.63357666015625,-0.15151655673980713,-0.5801824331283569,0.5211494565010071
1772562288217558500,0.64355859375,-0.17574626207351685,-0.19503048062324524,0.704658031463623
1772562288227541500,0.65354150390625,-0.20233100652694702,0.09387935698032379,0.8756745457649231
1772562288237524500,0.6635244140625,-0.1980435699224472,0.14275822043418884,0.9624909162521362
1772562288247506700,0.673506591796875,-0.1182643249630928,0.029861493036150932,0.9608775973320007
1772562288257489400,0.683489501953125,0.023683492094278336,-0.09511346369981766,0.925523042678833
1772562288267472400,0.693472412109375,0.15053197741508484,0.10867055505514145,0.8308077454566956
1772562288277454600,0.70345458984375,0.2244195193052292,0.45185720920562744,0.6947398781776428
1772562288287437300,0.713437255859375,0.1960504651069641,0.6916069388389587,0.5401319265365601
1772562288297420500,0.723420654296875,0.11003169417381287,0.5918790102005005,0.3655926287174225
1772562288307403500,0.733403564453125,0.04308408871293068,0.21492162346839905,0.1876753568649292
1772562288317385500,0.743385498046875,0.041375402361154556,-0.26418212056159973,0.00589757040143013
1772562288327368400,0.753368408203125,0.09561201184988022,-0.7877803444862366,-0.2122797667980194
1772562288337351700,0.7633515625,0.22701290249824524,-1.1020927429199219,-0.4738674461841583
1772562288347333400,0.77333349609375,0.41025224328041077,-1.0832914113998413,-0.678059458732605
1772562288357316600,0.783316650390625,0.6200006604194641,-0.6678723096847534,-0.71115642786026
1772562288367299600,0.793299560546875,0.8263565301895142,-0.2640193998813629,-0.7126960158348083
1772562288377281500,0.803281494140625,1.064649224281311,-0.1870010495185852,-0.7603788375854492
1772562288387264500,0.813264404296875,1.3395529985427856,-0.3499649167060852,-0.9383618831634521
1772562288397247500,0.82324755859375,1.634384036064148,-0.5818610191345215,-1.2481071949005127
1772562288407229400,0.8332294921875,1.87840735912323,-0.6210678219795227,-1.6857497692108154
1772562288417212400,0.84321240234375,2.0269241333007812,-0.06246737390756607,-2.1312010288238525
1772562288427195600,0.853195556640625,2.0342068672180176,-0.2534647583961487,-2.258941173553467
1772562288437177300,0.86317724609375,1.985390305519104,-0.31483757495880127,-2.110229730606079
1772562288447160600,0.87316064453125,1.880104422569275,-0.2083074003458023,-1.7901347875595093
1772562288457143600,0.8831435546875,1.7249094247817993,-0.024924524128437042,-1.3272286653518677
1772562288467125500,0.89312548828125,1.5753910541534424,0.10368351638317108,-0.9306808114051819
1772562288477108500,0.9031083984375,1.3993606567382812,-0.5616753101348877,-0.49918079376220703
1772562288487091500,0.913091552734375,1.3759897947311401,-0.6417107582092285,-0.033975012600421906
1772562288497074700,0.92307470703125,1.4275264739990234,-0.8745477199554443,0.452671080827713
1772562288507056400,0.933056396484375,1.4115736484527588,-1.0408722162246704,0.8999473452568054
1772562288517039600,0.94303955078125,1.3246467113494873,-1.1111890077590942,1.2267835140228271
1772562288527022600,0.953022705078125,1.1951161623001099,-1.0867114067077637,1.3873507976531982
1772562288537004500,0.963004638671875,1.0043158531188965,-0.814943253993988,1.4018248319625854
1772562288546987500,0.972987548828125,0.7796103358268738,-0.5079953074455261,1.3293874263763428
1772562288556970500,0.982970458984375,0.6042038798332214,-0.2537214756011963,1.1564886569976807
1772562288566952400,0.992952392578125,0.5571995973587036,-0.005572398193180561,0.8869311809539795
1772562288576935400,1.002935302734375,0.5869689583778381,0.5542021989822388,0.48611530661582947
1772562288586918700,1.012918701171875,0.6717267036437988,0.8117789030075073,0.07586973160505295
1772562288596900400,1.022900390625,0.7261114120483398,0.6665375232696533,-0.3445994555950165
1772562288606883600,1.032883544921875,0.7363552451133728,0.6236401796340942,-0.7648811936378479
1772562288616866600,1.042866455078125,0.7134158611297607,0.8260667324066162,-1.1653963327407837
1772562288626848500,1.0528486328125,0.6484251022338867,1.1435725688934326,-1.478793978691101
1772562288636831500,1.06283154296875,0.5129932761192322,1.1501593589782715,-1.6874432563781738
1772562288646814500,1.072814453125,0.32527849078178406,1.5981576442718506,-1.634087085723877
1772562288656796400,1.08279638671875,0.08723822981119156,1.9331412315368652,-1.2155945301055908
1772562288666779400,1.092779296875,-0.021275993436574936,1.7635498046875,-0.6055602431297302
1772562288676762600,1.1027626953125,0.23206652700901031,1.6784332990646362,-0.10251571983098984
1772562288686745300,1.112745361328125,0.617986798286438,1.4323532581329346,0.2415015697479248
1772562288696727600,1.1227275390625,0.6137896776199341,1.1518672704696655,0.6066172122955322
1772562288706710500,1.13271044921875,0.21454718708992004,0.6518813967704773,1.0906778573989868
1772562288716693500,1.142693603515625,-0.1555970460176468,0.017257817089557648,1.4691146612167358
1772562288726675500,1.152675537109375,-0.28335925936698914,-0.37386468052864075,1.5364881753921509
1772562288736658700,1.16265869140625,-0.2081039398908615,-0.38047730922698975,1.3172104358673096
1772562288746641400,1.172641357421875,-0.053938064724206924,-0.3119959831237793,0.9223083257675171
1772562288756623600,1.18262353515625,0.15936808288097382,-0.2906946837902069,0.5147711634635925
1772562288766606600,1.192606689453125,0.478487491607666,-0.05068794637918472,0.27829259634017944
1772562288776589600,1.202589599609375,0.756963312625885,0.09512198716402054,0.2751122713088989
1772562288786571500,1.212571533203125,0.9361701011657715,0.20275923609733582,0.4459918737411499
1772562288796554500,1.222554443359375,0.9551496505737305,0.20839928090572357,0.6726990342140198
1772562288806537700,1.232537841796875,0.9221464395523071,0.26807352900505066,0.8170426487922668
1772562288816519400,1.24251953125,0.8696238398551941,0.4505802094936371,0.8887264132499695
1772562288826502700,1.252502685546875,0.8336887359619141,0.46104565262794495,0.9426122903823853
1772562288836485600,1.262485595703125,0.7031919956207275,0.40159937739372253,0.9599635601043701
1772562288846467600,1.272467529296875,0.5106387734413147,0.47036537528038025,0.8177984356880188
1772562288856450600,1.282450439453125,0.3869152367115021,0.6031039953231812,0.5655952095985413
1772562288866433500,1.29243359375,0.3378451466560364,0.6189655065536499,0.2921421229839325
1772562288876416500,1.30241650390625,0.40227073431015015,0.6027801632881165,0.12798939645290375
1772562288886398500,1.3123984375,0.5443146824836731,0.5522567629814148,0.10472375154495239
1772562288896381700,1.322381591796875,0.7096751928329468,0.43558448553085327,0.1852702498435974
1772562288906364400,1.332364501953125,0.8554515242576599,0.27773600816726685,0.3384283781051636
1772562288916343600,1.342343505859375,0.9688092470169067,0.10359510034322739,0.5292654633522034
1772562288926326300,1.352326171875,1.0527758598327637,-0.03272545710206032,0.7453919053077698
1772562288936309200,1.362309326171875,1.0912741422653198,-0.15564632415771484,0.9436394572257996
1772562288946291500,1.37229150390625,1.0736565589904785,-0.3253088593482971,1.1442992687225342
1772562288956274200,1.382274169921875,0.9862031936645508,-0.549617350101471,1.3869808912277222
1772562288966257400,1.39225732421875,0.8512855768203735,-0.8039606809616089,1.66470468044281
1772562288976239400,1.4022392578125,0.691209077835083,-1.0159586668014526,1.8977464437484741
1772562288986222600,1.41222265625,0.5200548768043518,-1.087815284729004,1.9650176763534546
1772562288996205300,1.422205322265625,0.4091891050338745,-1.0387691259384155,1.8027629852294922
1772562289006187500,1.4321875,0.2990996241569519,-0.7581431269645691,1.561835527420044
1772562289016170500,1.44217041015625,0.1947135627269745,-0.4229547083377838,1.451682209968567
1772562289026153200,1.4521533203125,0.18827056884765625,-0.15944425761699677,1.5203224420547485
1772562289036135400,1.462135498046875,0.23841071128845215,-0.07525453716516495,1.6472127437591553
1772562289046118400,1.472118408203125,0.27134308218955994,-0.12994228303432465,1.6649763584136963
1772562289056101400,1.482101318359375,0.2696077823638916,-0.20032750070095062,1.4776437282562256
1772562289066084400,1.49208447265625,0.24525396525859833,-0.24306164681911469,1.0637333393096924
1772562289076066600,1.502066650390625,0.20789992809295654,-0.2146872729063034,0.5035656690597534
1772562289086049300,1.51204931640625,0.14270734786987305,-0.13146455585956573,-0.11358807981014252
1772562289096032300,1.5220322265625,0.0422971248626709,0.04415281489491463,-0.6962509751319885
1772562289106014500,1.532014404296875,-0.09849594533443451,0.21207258105278015,-1.1496754884719849
1772562289115997400,1.54199755859375,-0.24347950518131256,0.3339180648326874,-1.4500373601913452
1772562289125980400,1.55198046875,-0.33870962262153625,0.40797364711761475,-1.593191146850586
1772562289135962400,1.56196240234375,-0.3912377953529358,0.37554699182510376,-1.627423644065857
1772562289145945300,1.5719453125,-0.391184538602829,0.3141525983810425,-1.6056430339813232
1772562289155928300,1.58192822265625,-0.3724502623081207,0.2394258975982666,-1.6019835472106934
1772562289165910500,1.59191064453125,-0.36113131046295166,0.18423588573932648,-1.678736686706543
1772562289175893200,1.601893310546875,-0.37481915950775146,0.169289693236351,-1.8355549573898315
1772562289185876500,1.61187646484375,-0.42657527327537537,0.18639996647834778,-2.0028321743011475
1772562289195858400,1.6218583984375,-0.4984619915485382,0.23474059998989105,-2.1230576038360596
1772562289205841400,1.63184130859375,-0.543798565864563,0.27975335717201233,-2.1685092449188232
1772562289215824400,1.641824462890625,-0.5836285352706909,0.30617350339889526,-2.125657558441162
1772562289225807400,1.651807373046875,-0.6466932892799377,0.327933669090271,-2.0599026679992676
1772562289235789300,1.661789306640625,-0.693827748298645,0.3444972038269043,-2.057429313659668
1772562289245772300,1.671772216796875,-0.7497301697731018,0.31563490629196167,-2.1360671520233154
1772562289255755500,1.681755615234375,-0.7965589165687561,0.2344372719526291,-2.3039305210113525
1772562289265737200,1.6917373046875,-0.8385817408561707,0.22427570819854736,-2.610227346420288
1772562289275720400,1.701720458984375,-0.8317677974700928,0.37208062410354614,-3.080798625946045
1772562289285703400,1.711703369140625,-0.7534018754959106,0.6386289596557617,-3.674379825592041
1772562289295685400,1.721685302734375,-0.572043240070343,1.0064623355865479,-4.12162971496582
1772562289305668400,1.73166845703125,-0.36361923813819885,1.3711473941802979,-4.105248928070068
1772562289315651300,1.7416513671875,-0.1785859912633896,1.4734865427017212,-3.444056987762451
1772562289325633300,1.75163330078125,0.05548909306526184,1.3567053079605103,-2.4686219692230225
1772562289335616300,1.7616162109375,0.23614302277565002,1.4024025201797485,-1.8441306352615356
1772562289345599500,1.771599609375,0.4061754643917084,2.0723989009857178,-1.7444727420806885
1772562289355581200,1.781581298828125,0.4815045893192291,2.864797830581665,-1.5043576955795288
1772562289365564400,1.791564453125,0.36943477392196655,2.9840285778045654,-0.2352607250213623
1772562289375547400,1.80154736328125,0.2155485302209854,2.426136016845703,1.7780154943466187
1772562289385529300,1.811529296875,0.03128468617796898,1.6440050601959229,3.498103380203247
1772562289395512300,1.82151220703125,-0.21757759153842926,1.0318151712417603,4.079870223999023
1772562289405495300,1.831495361328125,-0.33318275213241577,0.5712041258811951,3.732996702194214
1772562289415478500,1.841478515625,-0.3429102301597595,0.019448798149824142,3.163179636001587
1772562289425460200,1.851460205078125,-0.28028491139411926,-0.5218647718429565,2.6549975872039795
1772562289435443500,1.861443359375,-0.18059641122817993,-0.8935618996620178,2.230386734008789
1772562289445426400,1.871426513671875,-0.014639662578701973,-1.1331063508987427,1.8838714361190796
1772562289455408400,1.881408447265625,0.15408597886562347,-1.414991021156311,1.7804027795791626
1772562289465391400,1.891391357421875,0.2717287242412567,-1.5927159786224365,1.7557307481765747
1772562289475374300,1.901374267578125,0.3242742121219635,-1.6919437646865845,1.623835802078247
1772562289485356300,1.911356201171875,0.29604098200798035,-1.7105014324188232,1.366284966468811
1772562289495339500,1.921339599609375,0.20865361392498016,-1.7679247856140137,1.0230200290679932
1772562289505322500,1.931322509765625,0.12264122813940048,-1.8567357063293457,0.6355700492858887
1772562289515304400,1.941304443359375,0.04358289763331413,-1.864717960357666,0.32684096693992615
1772562289525287400,1.951287353515625,-0.053702909499406815,-1.8322529792785645,0.12772972881793976
1772562289535270400,1.9612705078125,-0.06162954121828079,-1.811134934425354,0.08906782418489456
1772562289545252400,1.97125244140625,0.006731672212481499,-1.7060925960540771,0.23355576395988464
1772562289555235300,1.9812353515625,0.09666475653648376,-1.535645842552185,0.5119903087615967
1772562289565218600,1.991218505859375,0.2026604264974594,-1.3965648412704468,0.8146575093269348
1772562289575200300,2.0012001953125,0.2353973388671875,-1.3802013397216797,1.195784330368042
1772562289585183500,2.01118359375,0.2281777709722519,-1.5237246751785278,1.6653555631637573
1772562289595166500,2.02116650390625,0.21123474836349487,-1.7052001953125,2.130999803543091
1772562289605149400,2.0311494140625,0.19166210293769836,-1.8010880947113037,2.459360361099243
1772562289615131400,2.04113134765625,0.12332779169082642,-1.837992548942566,2.5735936164855957
1772562289625114400,2.0511142578125,0.011023356579244137,-1.825278878211975,2.4658212661743164
1772562289635097600,2.06109765625,-0.15044356882572174,-1.7267051935195923,2.189969301223755
1772562289645079300,2.071079345703125,-0.32760876417160034,-1.5090309381484985,1.797993540763855
1772562289655062500,2.0810625,-0.4611761271953583,-1.2532492876052856,1.3510208129882812
1772562289665045500,2.09104541015625,-0.611564576625824,-1.1360222101211548,0.8984615802764893
1772562289675027500,2.10102734375,-0.7716354727745056,-1.1154013872146606,0.40248167514801025
1772562289685010400,2.111010498046875,-0.9079512357711792,-1.099233627319336,-0.10927562415599823
1772562289694993400,2.120993408203125,-0.9920618534088135,-1.0356570482254028,-0.5857431292533875
1772562289704975400,2.130975341796875,-1.0059549808502197,-0.9719430208206177,-1.012137532234192
1772562289714958300,2.140958251953125,-0.9724178314208984,-0.9082964062690735,-1.3094654083251953
1772562289724941600,2.150941650390625,-0.927092969417572,-0.9165716171264648,-1.4818254709243774
1772562289734923300,2.16092333984375,-0.8875860571861267,-0.9530776739120483,-1.5596736669540405
1772562289744906500,2.170906494140625,-0.8255794048309326,-0.9218266010284424,-1.6053683757781982
1772562289754889500,2.180889404296875,-0.7453407645225525,-0.826296329498291,-1.682053804397583
1772562289764872200,2.1908720703125,-0.6428830623626709,-0.7001264095306396,-1.7544941902160645
1772562289774854400,2.2008544921875,-0.5139232277870178,-0.5327177047729492,-1.8010106086730957
1772562289784837400,2.21083740234375,-0.3821881115436554,-0.3437515199184418,-1.8169344663619995
1772562289794820400,2.2208203125,-0.2947184443473816,-0.17360082268714905,-1.8198498487472534
1772562289804802300,2.23080224609375,-0.2430693805217743,-0.03604721650481224,-1.7960680723190308
1772562289814785500,2.24078564453125,-0.2236570566892624,0.06404583156108856,-1.7525522708892822
1772562289824768300,2.250768310546875,-0.234538733959198,0.1303526759147644,-1.71834397315979
1772562289834750500,2.26075048828125,-0.28297364711761475,0.1301068663597107,-1.7271803617477417
1772562289844733400,2.2707333984375,-0.3530307710170746,0.12979581952095032,-1.815710186958313
1772562289854716400,2.28071630859375,-0.42134830355644226,0.14234596490859985,-1.9436191320419312
1772562289864698400,2.290698486328125,-0.4876021444797516,0.13037239015102386,-2.085540771484375
1772562289874681600,2.300681640625,-0.5481160879135132,0.14435185492038727,-2.1925368309020996
1772562289884664300,2.310664306640625,-0.5398911833763123,0.23164893686771393,-2.276931047439575
1772562289894646500,2.320646484375,-0.5006998181343079,0.2881961166858673,-2.423969268798828
1772562289904629500,2.33062939453125,-0.46568727493286133,0.32210612297058105,-2.703646659851074
1772562289914611500,2.340611572265625,-0.4586767554283142,0.38434261083602905,-3.143679141998291
1772562289924593700,2.35059375,-0.48703089356422424,0.4508867561817169,-3.6754438877105713
1772562289934576600,2.36057666015625,-0.5134590268135071,0.4896914064884186,-4.046648025512695
1772562289944559600,2.3705595703125,-0.4680851697921753,0.5893111824989319,-3.9940271377563477
1772562289954542600,2.38054248046875,-0.3264782428741455,0.9072515964508057,-3.4501419067382812
1772562289964524800,2.39052490234375,-0.20032963156700134,1.2224407196044922,-2.710603952407837
1772562289974507500,2.400507568359375,-0.20947732031345367,1.4280719757080078,-2.0998375415802
1772562289984490800,2.41049072265625,-0.24856586754322052,1.4904298782348633,-1.4580990076065063
1772562289994472700,2.42047265625,-0.21680209040641785,1.5035128593444824,-0.6363298296928406
1772562290004455700,2.43045556640625,-0.04351392015814781,1.4221165180206299,0.576596200466156
1772562290014438700,2.440438720703125,0.1754482537508011,1.2180076837539673,1.8366072177886963
1772562290024420900,2.4504208984375,0.35171011090278625,1.0742722749710083,2.828315258026123
1772562290034403600,2.460403564453125,0.43646731972694397,0.9358630180358887,3.2595176696777344
1772562290044386600,2.470386474609375,0.45524394512176514,0.8499705195426941,3.1985487937927246
1772562290054368800,2.48036865234375,0.43321162462234497,0.6424708366394043,2.8501977920532227
1772562290064351500,2.4903515625,0.30650854110717773,0.22691065073013306,2.4320950508117676
1772562290074334700,2.500334716796875,0.1437060385942459,-0.30420756340026855,2.1947174072265625
1772562290084316700,2.510316650390625,-0.026929352432489395,-0.8733285665512085,2.1629984378814697
1772562290094299600,2.520299560546875,-0.20431426167488098,-1.3599021434783936,2.336500406265259
1772562290104282600,2.53028271484375,-0.3560081720352173,-1.6125973463058472,2.6217687129974365
1772562290114265600,2.540265625,-0.44508665800094604,-1.6099820137023926,2.9341437816619873
1772562290124247600,2.55024755859375,-0.5011725425720215,-1.444381594657898,3.1390419006347656
1772562290134230500,2.56023046875,-0.53438401222229,-1.2015495300292969,3.1380093097686768
1772562290144213800,2.5702138671875,-0.5476351380348206,-0.9706761240959167,2.97255802154541
1772562290154195500,2.580195556640625,-0.5277911424636841,-0.8323872089385986,2.7078232765197754
1772562290164178700,2.5901787109375,-0.482634574174881,-0.78482985496521,2.4057776927948
1772562290174161700,2.60016162109375,-0.42727088928222656,-0.8075540661811829,2.1421523094177246
1772562290184143600,2.6101435546875,-0.3831271529197693,-0.9192118644714355,2.025386095046997
1772562290194126600,2.620126708984375,-0.33236169815063477,-1.075627088546753,2.065399169921875
1772562290204109600,2.630109619140625,-0.2840690016746521,-1.2509464025497437,2.2065937519073486
1772562290214091500,2.640091552734375,-0.2406887710094452,-1.4173550605773926,2.364859104156494
1772562290224074500,2.650074462890625,-0.22816765308380127,-1.5554226636886597,2.504836320877075
1772562290234057700,2.6600576171875,-0.18835259974002838,-1.6274681091308594,2.5195703506469727
1772562290244039400,2.670039306640625,-0.12060897052288055,-1.6720612049102783,2.4293150901794434
1772562290254022700,2.680022705078125,-0.048287373036146164,-1.7604395151138306,2.2755720615386963
1772562290264005600,2.690005615234375,-0.05380357801914215,-1.8480627536773682,2.0621049404144287
1772562290273988600,2.699988525390625,-0.1646544635295868,-1.9238238334655762,1.8399958610534668
1772562290283970600,2.709970458984375,-0.3280654847621918,-1.8617823123931885,1.6388158798217773
1772562290293953500,2.71995361328125,-0.5800239443778992,-1.6795352697372437,1.3159669637680054
1772562290303936800,2.729936767578125,-0.7871241569519043,-1.1593650579452515,1.138527512550354
1772562290313918500,2.73991845703125,-0.9489210247993469,-0.6134421229362488,1.0727343559265137
1772562290323901700,2.749901611328125,-1.0420796871185303,-0.2013738602399826,1.0455658435821533
1772562290333884700,2.759884765625,-1.013622760772705,0.18670383095741272,0.9638147950172424
1772562290343866600,2.76986669921875,-0.8881524801254272,0.5775613188743591,0.5959488749504089
1772562290353849600,2.779849609375,-0.7080059051513672,0.8869301080703735,-0.02334899827837944
1772562290363832800,2.789832763671875,-0.5070053935050964,0.9749464988708496,-0.7959941029548645
1772562290373814500,2.799814453125,-0.3143264949321747,0.9370798468589783,-1.6337907314300537
1772562290383797800,2.8097978515625,-0.16701428592205048,0.8648439645767212,-2.445998430252075
1772562290393780700,2.81978076171875,-0.07848095893859863,0.7835898995399475,-3.1578872203826904
1772562290403762700,2.8297626953125,-0.03620700538158417,0.7105819582939148,-3.7323944568634033
1772562290413745700,2.83974560546875,-0.031064707785844803,0.6005505323410034,-4.141941547393799
1772562290423728600,2.849728759765625,-0.09482105076313019,0.4069025218486786,-4.37749719619751
1772562290433710600,2.859710693359375,-0.16916079819202423,0.1963985413312912,-4.349697589874268
1772562290443693600,2.869693603515625,-0.17139679193496704,0.0598691925406456,-4.083438396453857
1772562290453676800,2.8796767578125,-0.16392555832862854,0.026452645659446716,-3.7071516513824463
1772562290463659500,2.889659423828125,-0.1700843721628189,0.0774090364575386,-3.3036956787109375
1772562290473641700,2.899641845703125,-0.15283028781414032,0.17334222793579102,-2.9702627658843994
1772562290483624700,2.909624755859375,-0.13841407001018524,0.3088585138320923,-2.714846611022949
1772562290493607400,2.919607421875,-0.13197587430477142,0.42661309242248535,-2.572117328643799
1772562290503589600,2.929589599609375,-0.16326668858528137,0.46726226806640625,-2.5713133811950684
1772562290513572600,2.939572509765625,-0.21877548098564148,0.44914132356643677,-2.7006139755249023
1772562290523555800,2.949555908203125,-0.2701958119869232,0.4424695670604706,-2.891643762588501
1772562290533537500,2.95953759765625,-0.3513028919696808,0.4226157069206238,-3.089298725128174
1772562290543520800,2.969520751953125,-0.4460661709308624,0.3341132700443268,-3.2037720680236816
1772562290553503700,2.979503662109375,-0.5252217054367065,0.18496505916118622,-3.116300344467163
1772562290563485700,2.989485595703125,-0.5240355134010315,0.1320115625858307,-2.8142428398132324
1772562290573468700,2.99946875,-0.43511125445365906,0.30239129066467285,-2.357344388961792
1772562290583451600,3.00945166015625,-0.3444654941558838,0.6252694725990295,-1.9431147575378418
1772562290593433600,3.01943359375,-0.33949950337409973,0.9928083419799805,-1.7951998710632324
1772562290603416600,3.02941650390625,-0.4259049594402313,1.2875337600708008,-1.9597384929656982
1772562290613399800,3.03939990234375,-0.5307267308235168,1.490451455116272,-2.1465272903442383
1772562290623382500,3.049382568359375,-0.5961805582046509,1.5570844411849976,-2.0395736694335938
1772562290633364700,3.05936474609375,-0.5515499711036682,1.4113504886627197,-1.5030708312988281
1772562290643347700,3.06934765625,-0.4062140882015228,1.0382375717163086,-0.6656456589698792
1772562290653330700,3.07933056640625,-0.26458051800727844,0.546711266040802,0.3579237759113312
1772562290663312600,3.089312744140625,-0.18593551218509674,0.1533256322145462,1.3031011819839478
1772562290673295600,3.099295654296875,-0.18150295317173004,-0.05650615319609642,1.8719981908798218
1772562290683278600,3.109278564453125,-0.2159155160188675,-0.07106165587902069,1.9766104221343994
1772562290693260500,3.119260498046875,-0.2886403203010559,-0.025679530575871468,1.7324414253234863
1772562290703243800,3.129243896484375,-0.35683587193489075,0.09458136558532715,1.3983722925186157
1772562290713226500,3.1392265625,-0.39220958948135376,0.1429041624069214,1.2578387260437012
1772562290723208700,3.149208740234375,-0.37107500433921814,0.08851414918899536,1.4467697143554688
1772562290733191700,3.159191650390625,-0.2609032392501831,-0.04182760789990425,1.8694045543670654
1772562290743174700,3.169174560546875,-0.07994889467954636,-0.17345327138900757,2.3205857276916504
1772562290753156600,3.179156494140625,0.11120641231536865,-0.23412488400936127,2.647782802581787
1772562290763139800,3.189139892578125,0.25670236349105835,-0.28969040513038635,2.8027546405792236
1772562290773122600,3.19912255859375,0.33351245522499084,-0.38188743591308594,2.7991793155670166
1772562290783105500,3.20910546875,0.3558494448661804,-0.49851205945014954,2.703073024749756
1772562290793087700,3.219087646484375,0.29847031831741333,-0.6458503603935242,2.5800671577453613
1772562290803070500,3.229070556640625,0.16035452485084534,-0.7937048077583313,2.49721097946167
1772562290813053700,3.2390537109375,0.0009054747642949224,-0.9228713512420654,2.512871265411377
1772562290823035600,3.24903564453125,-0.1785351186990738,-1.0021488666534424,2.5867443084716797
1772562290833018600,3.2590185546875,-0.3516610860824585,-1.004959225654602,2.681016683578491
1772562290843001600,3.269001708984375,-0.5008226037025452,-0.9236170053482056,2.815500259399414
1772562290852983800,3.27898388671875,-0.6152395009994507,-0.7999866604804993,2.964945077896118
1772562290862966500,3.288966552734375,-0.6751843094825745,-0.689487874507904,3.0865654945373535
1772562290872949500,3.298949462890625,-0.7064074873924255,-0.612241804599762,3.174335479736328
1772562290882931700,3.308931640625,-0.718710720539093,-0.541691780090332,3.233701467514038
1772562290892914400,3.31891455078125,-0.7097891569137573,-0.46979811787605286,3.2341949939727783
1772562290902897700,3.328897705078125,-0.6786602735519409,-0.42404821515083313,3.1641881465911865
1772562290912881200,3.338881103515625,-0.6261951923370361,-0.4148659110069275,3.0064589977264404
1772562290922863900,3.34886376953125,-0.572179913520813,-0.39964938163757324,2.7695727348327637
1772562290932847000,3.35884716796875,-0.5104537010192871,-0.3351079523563385,2.443880558013916
1772562290942830000,3.368830078125,-0.4290403127670288,-0.21645960211753845,2.0321383476257324
1772562290952812000,3.37881201171875,-0.3519761562347412,-0.07594216614961624,1.5664583444595337
1772562290962795000,3.388794921875,-0.2935413420200348,0.05481664463877678,1.04231595993042
1772562290972778000,3.398778076171875,-0.2589133083820343,0.163557231426239,0.48894599080085754
1772562290982760000,3.408760009765625,-0.2594214379787445,0.22859029471874237,-0.07466624677181244
1772562290992743000,3.418742919921875,-0.2860456109046936,0.24405154585838318,-0.6019497513771057
1772562291002726100,3.42872607421875,-0.3344552218914032,0.18371815979480743,-1.0377483367919922
1772562291012707800,3.438707763671875,-0.3831428587436676,0.05924814194440842,-1.3453477621078491
1772562291022691000,3.448691162109375,-0.41720521450042725,-0.0631139874458313,-1.5580298900604248
1772562291032674000,3.458674072265625,-0.4449188709259033,-0.15936702489852905,-1.707600474357605
1772562291042656000,3.468656005859375,-0.47390952706336975,-0.1912064403295517,-1.834987759590149
1772562291052639000,3.478638916015625,-0.47096139192581177,-0.17547674477100372,-1.9788583517074585
1772562291062622000,3.4886220703125,-0.42734599113464355,-0.11065247654914856,-2.086348533630371
1772562291072604000,3.49860400390625,-0.34702906012535095,-0.0259288027882576,-2.1531436443328857
1772562291082587000,3.5085869140625,-0.2508932054042816,0.07893157005310059,-2.2307958602905273
1772562291092570000,3.518570068359375,-0.15437333285808563,0.21665054559707642,-2.341403007507324
1772562291102553000,3.528552978515625,-0.07071997225284576,0.3465595543384552,-2.490103244781494
1772562291112535000,3.53853515625,-0.00818229652941227,0.4627159833908081,-2.6314103603363037
1772562291122518000,3.54851806640625,0.023680562153458595,0.5126752853393555,-2.7249817848205566
1772562291132501200,3.558501220703125,0.022011026740074158,0.4672524034976959,-2.7592267990112305
1772562291142483000,3.56848291015625,0.021339910104870796,0.3531431555747986,-2.775895118713379
1772562291152466200,3.578466064453125,0.02587074600160122,0.22779294848442078,-2.834174871444702
1772562291162449200,3.58844921875,0.02225310727953911,0.12317066639661789,-2.974428176879883
1772562291172431000,3.59843115234375,0.042866241186857224,0.053217947483062744,-3.251225233078003
1772562291182414000,3.6084140625,0.08347252011299133,0.045291315764188766,-3.6584367752075195
1772562291192397000,3.61839697265625,0.11137525737285614,0.05953336879611015,-4.169416427612305
1772562291202379000,3.62837890625,0.12101723253726959,0.10533440858125687,-4.684561252593994
1772562291212362000,3.638362060546875,0.1769808977842331,0.2750251889228821,-5.097375392913818
1772562291222345200,3.64834521484375,0.24320092797279358,0.6698196530342102,-5.06394100189209
1772562291232327000,3.658326904296875,0.41084718704223633,1.4109712839126587,-4.376346111297607
1772562291242310100,3.66831005859375,0.7226213216781616,2.1186254024505615,-3.3558876514434814
1772562291252293000,3.678293212890625,0.8653337359428406,2.232680320739746,-2.627967596054077
1772562291262276000,3.688276123046875,0.8132292628288269,1.810180902481079,-2.332355499267578
1772562291272258000,3.698258056640625,0.630756676197052,1.1904101371765137,-2.49184250831604
1772562291282241000,3.708240966796875,0.432836651802063,0.5305551886558533,-2.832618474960327
1772562291292224300,3.718224365234375,0.38469067215919495,-0.04641596972942352,-2.8332674503326416
1772562291302206000,3.7282060546875,0.4314827024936676,-0.6549258828163147,-2.035733222961426
1772562291312189200,3.738189208984375,0.509284257888794,-0.9893121123313904,-0.747621476650238
1772562291322172200,3.748172119140625,0.5534541606903076,-0.9419369101524353,0.3558689057826996
1772562291332154000,3.758154052734375,0.4891529083251953,-0.7285095453262329,0.9810038805007935
1772562291342137000,3.76813720703125,0.30586671829223633,-0.4837253987789154,1.2082388401031494
1772562291352120000,3.7781201171875,0.06239546835422516,-0.27806198596954346,1.308452844619751
1772562291362102000,3.78810205078125,-0.1389637440443039,-0.20463809370994568,1.464907169342041
1772562291372085000,3.7980849609375,-0.23248250782489777,-0.26420024037361145,1.7991397380828857
1772562291382068200,3.808068115234375,-0.24301157891750336,-0.3988483250141144,2.2866363525390625
1772562291392050000,3.8180498046875,-0.21723990142345428,-0.5505318641662598,2.7831830978393555
1772562291402033200,3.828033203125,-0.19850216805934906,-0.7056564688682556,3.187891721725464
1772562291412016000,3.83801611328125,-0.2285359650850296,-0.8737570643424988,3.493513584136963
1772562291421999000,3.8479990234375,-0.29861998558044434,-1.002044677734375,3.6791651248931885
1772562291431981000,3.85798095703125,-0.3871205449104309,-1.0810058116912842,3.7662293910980225
1772562291441964000,3.867964111328125,-0.4725742042064667,-1.0942745208740234,3.7803053855895996
1772562291451947000,3.877947021484375,-0.527726411819458,-1.0538616180419922,3.7991342544555664
1772562291461929000,3.887928955078125,-0.5638854503631592,-0.9324954748153687,3.811047315597534
1772562291471912200,3.897912109375,-0.5687417387962341,-0.7791871428489685,3.8639822006225586
1772562291481895000,3.90789501953125,-0.5456652045249939,-0.6135297417640686,3.964618682861328
1772562291491877000,3.917877197265625,-0.4933644235134125,-0.40703195333480835,4.071678161621094
1772562291501860000,3.927860107421875,-0.4132962226867676,-0.20751777291297913,4.165072441101074
1772562291511843000,3.937843017578125,-0.3506743907928467,-0.054007839411497116,4.2190752029418945
1772562291521825000,3.947824951171875,-0.3196810483932495,0.021016335114836693,4.129544258117676
1772562291531808300,3.957808349609375,-0.32436636090278625,0.027815917506814003,3.900521993637085
1772562291541791000,3.967791015625,-0.35209545493125916,0.009229451417922974,3.5567502975463867
1772562291551773200,3.977773193359375,-0.3834608495235443,0.01836143061518669,3.1255948543548584
1772562291561754000,3.987754150390625,-0.3641880750656128,-0.0020703414920717478,2.701920986175537
1772562291571736000,3.997736083984375,-0.30674901604652405,0.04198739677667618,2.2769289016723633
1772562291581719000,4.007718994140625,-0.25477850437164307,0.129617378115654,1.807957410812378
1772562291591702000,4.017701904296875,-0.18342947959899902,0.22677642107009888,1.2832697629928589
1772562291601684000,4.02768408203125,-0.12968848645687103,0.2610049545764923,0.7784669995307922
1772562291611667200,4.037667236328125,-0.12539973855018616,0.2541619837284088,0.2668412923812866
1772562291621650000,4.04764990234375,-0.11776098608970642,0.16645929217338562,-0.2016654759645462
1772562291631632100,4.057632080078125,-0.10991797596216202,0.06887786835432053,-0.6379964351654053
1772562291641615000,4.067614990234375,-0.1341135948896408,-0.032516930252313614,-1.0796148777008057
1772562291651598000,4.07759814453125,-0.18858908116817474,-0.06504824012517929,-1.5223699808120728
1772562291661581000,4.0875810546875,-0.2127801775932312,-0.011011372320353985,-1.9552528858184814
1772562291671563300,4.097563232421875,-0.22630584239959717,0.09316562861204147,-2.3332300186157227
1772562291681546000,4.1075458984375,-0.23568202555179596,0.20082658529281616,-2.636888265609741
1772562291691529000,4.117529052734375,-0.21166883409023285,0.31312036514282227,-2.8977439403533936
1772562291701511200,4.12751123046875,-0.15916648507118225,0.4255366623401642,-3.123859405517578
1772562291711494000,4.137493896484375,-0.10482814162969589,0.5054064393043518,-3.2972090244293213
1772562291721477000,4.14747705078125,-0.07375545054674149,0.5620854496955872,-3.4121644496917725
1772562291731459000,4.157458984375,-0.06427672505378723,0.5666937828063965,-3.4885005950927734
1772562291741442000,4.167442138671875,-0.08061548322439194,0.49020272493362427,-3.519197463989258
1772562291751425000,4.177425048828125,-0.1275574266910553,0.32731714844703674,-3.5191810131073
1772562291761407200,4.1874072265625,-0.16411490738391876,0.16412769258022308,-3.454554557800293
1772562291771390000,4.197389892578125,-0.20318295061588287,0.06899771094322205,-3.3028414249420166
1772562291781373000,4.207373046875,-0.2577713429927826,-0.006363623309880495,-3.127340078353882
1772562291791355100,4.217355224609375,-0.33126315474510193,-0.03175952658057213,-3.0257036685943604
1772562291801337900,4.227337890625,-0.38743293285369873,0.06520243734121323,-3.139798164367676
1772562291811321000,4.237321044921875,-0.400743693113327,0.25632739067077637,-3.5008955001831055
1772562291821304000,4.247303955078125,-0.42370253801345825,0.4814302921295166,-3.9970290660858154
1772562291831286000,4.2572861328125,-0.5178785920143127,0.6549131274223328,-4.367198944091797
1772562291841269000,4.26726904296875,-0.6290602087974548,0.8555340766906738,-4.3341474533081055
1772562291851252000,4.277251953125,-0.6546140313148499,1.2273342609405518,-3.851740837097168
1772562291861234000,4.28723388671875,-0.6247320175170898,1.6831939220428467,-3.0980372428894043
1772562291871217000,4.297216796875,-0.4503341317176819,2.0512797832489014,-2.501472234725952
1772562291881200000,4.3072001953125,-0.13219159841537476,2.264120578765869,-2.383413553237915
1772562291891181800,4.317181884765625,0.1478472501039505,2.3207011222839355,-2.746476650238037
1772562291901165000,4.3271650390625,0.2700173556804657,1.916054129600525,-3.3067352771759033
1772562291911148000,4.33714794921875,0.2325935661792755,0.9708241820335388,-3.274508237838745
1772562291921129200,4.347129150390625,0.20862138271331787,-0.3453978896141052,-2.3559725284576416
1772562291931112200,4.3571123046875,0.16267573833465576,-1.4727728366851807,-1.1162868738174438
1772562291941095400,4.367095458984375,0.16106557846069336,-1.9524472951889038,0.037511155009269714
1772562291951078100,4.377078125,0.31078025698661804,-1.804280400276184,0.7866889834403992
1772562291961060400,4.387060302734375,0.48305320739746094,-1.3276622295379639,1.0119702816009521
1772562291971043300,4.397043212890625,0.6003180742263794,-0.6226587891578674,0.867400586605072
1772562291981026000,4.407026123046875,0.6898918747901917,-0.0041121868416666985,0.7712447643280029
1772562291991011300,4.41701123046875,0.7242554426193237,0.26230672001838684,1.0617282390594482
1772562292000993300,4.4269931640625,0.7107130289077759,0.2663262188434601,1.6686198711395264
1772562292010976300,4.436976318359375,0.7293151617050171,0.08043146133422852,2.4377565383911133
1772562292020959500,4.44695947265625,0.7416080832481384,-0.12875504791736603,3.169438600540161
1772562292030942200,4.456942138671875,0.7366399168968201,-0.25104740262031555,3.645029067993164
1772562292040924400,4.46692431640625,0.6980991959571838,-0.22920656204223633,3.7592949867248535
1772562292050907400,4.476907470703125,0.6285515427589417,-0.13273034989833832,3.58270525932312
1772562292060890000,4.48689013671875,0.5366591811180115,-0.0687234029173851,3.22845721244812
1772562292070872300,4.496872314453125,0.4289814531803131,-0.0820288211107254,2.870107650756836
1772562292080855300,4.506855224609375,0.33543020486831665,-0.1919289529323578,2.641061782836914
1772562292090838300,4.51683837890625,0.271408349275589,-0.42682960629463196,2.573639392852783
1772562292100820200,4.5268203125,0.2551899552345276,-0.744038462638855,2.616672992706299
1772562292110803500,4.536803466796875,0.24440494179725647,-1.0625394582748413,2.7169852256774902
1772562292120786200,4.5467861328125,0.23659975826740265,-1.3247735500335693,2.8547208309173584
1772562292130768400,4.556768310546875,0.2625080645084381,-1.4713152647018433,3.001328229904175
1772562292140751400,4.56675146484375,0.3178059160709381,-1.4571951627731323,3.103644609451294
1772562292150734000,4.576734130859375,0.3597821295261383,-1.324082612991333,3.150667667388916
1772562292160717300,4.58671728515625,0.38875865936279297,-1.1344658136367798,3.1471548080444336
1772562292170699300,4.59669921875,0.4164794981479645,-0.8480426073074341,3.1086618900299072
1772562292180682200,4.60668212890625,0.4501138925552368,-0.5698978304862976,3.0378129482269287
1772562292190665200,4.616665283203125,0.4366644024848938,-0.40729454159736633,2.909770965576172
1772562292200647400,4.6266474609375,0.3658845126628876,-0.4018539488315582,2.7202844619750977
1772562292210630100,4.636630126953125,0.24548806250095367,-0.47233983874320984,2.4472548961639404
1772562292220613000,4.646613037109375,0.08415748924016953,-0.5465080738067627,2.121535539627075
1772562292230595300,4.65659521484375,-0.05845265835523605,-0.6378744840621948,1.829892635345459
1772562292240578000,4.666578125,-0.17587941884994507,-0.757851779460907,1.6594250202178955
1772562292250561300,4.676561279296875,-0.32941704988479614,-0.8312673568725586,1.530791163444519
1772562292260543200,4.686543212890625,-0.4811549186706543,-0.7507480382919312,1.2008166313171387
1772562292270526200,4.696526123046875,-0.5916220545768738,-0.5577343702316284,0.612153947353363
1772562292280509200,4.70650927734375,-0.6471816897392273,-0.2913338541984558,-0.0911267101764679
1772562292290491400,4.716491455078125,-0.6472868919372559,-0.030223149806261063,-0.811198353767395
1772562292300474000,4.72647412109375,-0.5913136601448059,0.1840055286884308,-1.4502373933792114
1772562292310457300,4.736457275390625,-0.4966907203197479,0.29644471406936646,-1.9627180099487305
1772562292320440300,4.7464404296875,-0.36988404393196106,0.29714804887771606,-2.352346181869507
1772562292330422300,4.75642236328125,-0.2181677520275116,0.25105565786361694,-2.635647773742676
1772562292340405200,4.7664052734375,-0.07879840582609177,0.17600378394126892,-2.844708204269409
1772562292350388200,4.77638818359375,0.05058860778808594,0.08851282298564911,-3.018979549407959
1772562292360370200,4.7863701171875,0.1415211707353592,0.015807991847395897,-3.12502384185791
1772562292370353200,4.796353271484375,0.14544588327407837,-0.04487399756908417,-3.170070171356201
1772562292380336400,4.80633642578125,0.11387383937835693,-0.11136674135923386,-3.1195902824401855
1772562292390318000,4.816318115234375,0.09475740045309067,-0.14414891600608826,-2.978008270263672
1772562292400301300,4.82630126953125,0.10566464066505432,-0.14419259130954742,-2.801659345626831
1772562292410284300,4.8362841796875,0.12168249487876892,-0.10215406864881516,-2.644230842590332
1772562292420266200,4.846266357421875,0.13895335793495178,-0.041299767792224884,-2.5612943172454834
1772562292430249200,4.856249267578125,0.16067169606685638,0.027126958593726158,-2.5438392162323
1772562292440232200,4.866232177734375,0.1776815801858902,0.11031532287597656,-2.5947608947753906
1772562292450214100,4.876214111328125,0.1677868664264679,0.22890615463256836,-2.727116823196411
1772562292460197000,4.886197021484375,0.13119930028915405,0.3780570328235626,-2.9065592288970947
1772562292470180400,4.896180419921875,0.10741966962814331,0.5614878535270691,-3.12870717048645
1772562292480163300,4.906163330078125,0.12471609562635422,0.7278051972389221,-3.3988699913024902
1772562292490145300,4.916145263671875,0.1728878915309906,0.8803014755249023,-3.6900525093078613
1772562292500128300,4.926128173828125,0.261136531829834,1.0031957626342773,-3.8461177349090576
1772562292510111200,4.936111328125,0.33922919631004333,1.1438671350479126,-3.6502840518951416
1772562292520093200,4.94609326171875,0.3754708170890808,1.2292286157608032,-3.0740721225738525
1772562292530076200,4.956076171875,0.3718622326850891,1.1114414930343628,-2.354546070098877
1772562292540059400,4.966059326171875,0.43003925681114197,0.9007617831230164,-1.806138277053833
1772562292550041000,4.976041015625,0.6301864385604858,0.8696837425231934,-1.5913034677505493
1772562292560024300,4.9860244140625,0.832723081111908,1.1433035135269165,-1.7218209505081177
1772562292570007300,4.99600732421875,0.9493204951286316,1.4205328226089478,-1.9036935567855835
1772562292579989200,5.0059892578125,0.9782906174659729,1.4347937107086182,-1.7421188354492188
1772562292589972200,5.01597216796875,0.9761595726013184,1.1303342580795288,-1.0308438539505005
1772562292599955200,5.025955078125,0.9303694367408752,0.7136642932891846,0.034998197108507156
1772562292609938400,5.0359384765625,0.8186037540435791,0.3840544521808624,1.0179437398910522
1772562292619920100,5.045920166015625,0.661990225315094,0.2726730704307556,1.6898428201675415
1772562292629903400,5.0559033203125,0.5230309963226318,0.3341931700706482,2.1267647743225098
1772562292639886300,5.06588623046875,0.4129263162612915,0.3879440128803253,2.468388319015503
1772562292649868300,5.075868408203125,0.37836754322052,0.31369319558143616,2.8050222396850586
1772562292659851300,5.085851318359375,0.40556854009628296,0.10892195254564285,3.1639392375946045
1772562292669834500,5.09583447265625,0.464743971824646,-0.15973374247550964,3.556065559387207
1772562292679816200,5.105816162109375,0.5253439545631409,-0.48463672399520874,3.8771004676818848
1772562292689799400,5.11579931640625,0.5315554738044739,-0.7762352824211121,4.043093681335449
1772562292699782400,5.125782470703125,0.5051524043083191,-1.0771781206130981,4.090634822845459
1772562292709764400,5.135764404296875,0.44336679577827454,-1.2852617502212524,4.051579475402832
1772562292719747300,5.145747314453125,0.3528424799442291,-1.4410998821258545,3.9478583335876465
1772562292729730300,5.155730224609375,0.21979467570781708,-1.532752275466919,3.853771209716797
1772562292739713300,5.16571337890625,0.06314568221569061,-1.5792633295059204,3.791729688644409
1772562292749695200,5.1756953125,-0.06732391566038132,-1.5281990766525269,3.7039639949798584
1772562292759678500,5.185678466796875,-0.18198151886463165,-1.3584680557250977,3.5365569591522217
1772562292769661200,5.1956611328125,-0.2750776410102844,-1.130251407623291,3.304514169692993
1772562292779643400,5.205643310546875,-0.35457032918930054,-0.8810858130455017,3.080125570297241
1772562292789626400,5.21562646484375,-0.39569592475891113,-0.6268324851989746,2.894202709197998
1772562292799609000,5.225609130859375,-0.40119457244873047,-0.4174369275569916,2.730818510055542
1772562292809591300,5.23559130859375,-0.35851287841796875,-0.271928995847702,2.5768966674804688
1772562292819574300,5.24557421875,-0.2785027325153351,-0.21046748757362366,2.413576364517212
1772562292829557200,5.25555712890625,-0.2085215151309967,-0.23025956749916077,2.2355434894561768
1772562292839539200,5.265539306640625,-0.18030425906181335,-0.30617377161979675,2.031965970993042
1772562292849522400,5.2755224609375,-0.2049962878227234,-0.39509886503219604,1.8213797807693481
1772562292859505200,5.285505126953125,-0.27465471625328064,-0.4736655652523041,1.5550700426101685
1772562292869487400,5.2954873046875,-0.36002421379089355,-0.47618865966796875,1.2116892337799072
1772562292879470300,5.30547021484375,-0.43211519718170166,-0.3787904679775238,0.7616403698921204
1772562292889453000,5.315453125,-0.482521653175354,-0.22161228954792023,0.22362670302391052
1772562292899436300,5.325436279296875,-0.524817705154419,-0.0658852756023407,-0.34387853741645813
1772562292909418200,5.335418212890625,-0.5766081809997559,0.04219245910644531,-0.8877674341201782
1772562292919401500,5.3454013671875,-0.6314181685447693,0.10095643997192383,-1.357161283493042
1772562292929384400,5.355384521484375,-0.6726061105728149,0.13385367393493652,-1.745395302772522
1772562292939366400,5.365366455078125,-0.6902926564216614,0.17214299738407135,-2.077674388885498
1772562292949349400,5.375349365234375,-0.6925387978553772,0.16444966197013855,-2.3560776710510254
1772562292959332400,5.385332275390625,-0.684043824672699,0.13648247718811035,-2.5506670475006104
1772562292969314300,5.395314208984375,-0.6919081807136536,0.06149425357580185,-2.6804440021514893
1772562292979297300,5.40529736328125,-0.6883437633514404,-0.03308524936437607,-2.724790334701538
1772562292989280500,5.415280517578125,-0.6423161029815674,-0.10038945078849792,-2.6462488174438477
1772562292999262200,5.42526220703125,-0.5591735243797302,-0.13151487708091736,-2.5166566371917725
1772562293009245400,5.435245361328125,-0.48149287700653076,-0.1372465342283249,-2.3860299587249756
1772562293019228400,5.445228515625,-0.4135609567165375,-0.12783199548721313,-2.2675135135650635
1772562293029211400,5.45521142578125,-0.33785393834114075,-0.0970863327383995,-2.1875860691070557
1772562293039193300,5.465193359375,-0.2721090018749237,-0.07499407976865768,-2.158546209335327
1772562293049176600,5.475176513671875,-0.24277615547180176,-0.06388603895902634,-2.179565668106079
1772562293059159300,5.4851591796875,-0.23357786238193512,-0.06199359521269798,-2.2468371391296387
1772562293069141500,5.4951416015625,-0.2560368478298187,-0.0816410630941391,-2.3280341625213623
1772562293079124500,5.50512451171875,-0.2961248755455017,-0.11276489496231079,-2.4044737815856934
1772562293089107200,5.515107177734375,-0.33679667115211487,-0.1815873682498932,-2.458195209503174
1772562293099089400,5.52508935546875,-0.37503406405448914,-0.24411652982234955,-2.5487191677093506
1772562293109072400,5.535072265625,-0.3751765489578247,-0.2862943410873413,-2.7939422130584717
1772562293119055400,5.545055419921875,-0.3517228960990906,-0.2781280279159546,-3.2325692176818848
1772562293129037300,5.555037353515625,-0.32837867736816406,-0.20131100714206696,-3.7613351345062256
1772562293139020500,5.5650205078125,-0.3225969672203064,-0.09881472587585449,-4.155416965484619
1772562293149003500,5.57500341796875,-0.258563369512558,0.09008994698524475,-3.9944674968719482
1772562293158985500,5.5849853515625,-0.07036497443914413,0.26602768898010254,-3.2205965518951416
1772562293168968400,5.594968505859375,0.19520197808742523,0.3339795768260956,-2.453468084335327
1772562293178951400,5.604951416015625,0.4097222685813904,0.5519334673881531,-2.1639955043792725
1772562293188934400,5.614934326171875,0.5122805833816528,0.8173331618309021,-2.454003095626831
1772562293198916400,5.624916259765625,0.5426507592201233,0.8799489140510559,-2.974954128265381
1772562293208899600,5.634899658203125,0.575481653213501,0.8119996786117554,-3.108497142791748
1772562293218882300,5.64488232421875,0.6102138161659241,0.4127257764339447,-2.4799723625183105
1772562293228864500,5.654864501953125,0.5410872101783752,-0.23885118961334229,-1.158865213394165
1772562293238847500,5.664847412109375,0.4050508141517639,-0.8102483749389648,0.3533836305141449
1772562293248830200,5.674830322265625,0.17304155230522156,-1.0356851816177368,1.516753077507019
1772562293258812400,5.6848125,-0.04815394803881645,-0.979924738407135,2.1079559326171875
1772562293268795400,5.69479541015625,-0.23686474561691284,-0.6807063817977905,2.249912977218628
1772562293278778400,5.7047783203125,-0.3790770173072815,-0.33288875222206116,2.153120279312134
1772562293288760300,5.71476025390625,-0.4825038015842438,-0.10904739052057266,2.1098763942718506
1772562293298743600,5.72474365234375,-0.5199127197265625,-0.04249632731080055,2.3040060997009277
1772562293308726300,5.734726318359375,-0.5031560659408569,-0.1197839230298996,2.695996046066284
1772562293318709200,5.744709228515625,-0.4724852442741394,-0.2577255368232727,3.1229023933410645
1772562293328691500,5.75469140625,-0.43884286284446716,-0.39934101700782776,3.52524471282959
1772562293338674400,5.76467431640625,-0.3979199528694153,-0.5133053660392761,3.812159299850464
1772562293348657400,5.774657470703125,-0.3801209628582001,-0.584888756275177,3.935636043548584
1772562293358639400,5.784639404296875,-0.37404629588127136,-0.6194568276405334,3.885483741760254
1772562293368622300,5.794622314453125,-0.36570820212364197,-0.5918521285057068,3.7111644744873047
1772562293378605300,5.804605224609375,-0.35990092158317566,-0.5696994066238403,3.5021255016326904
1772562293388587500,5.81458740234375,-0.3502999544143677,-0.5906433463096619,3.3071529865264893
1772562293398570200,5.8245703125,-0.38667207956314087,-0.6677389144897461,3.1544675827026367
1772562293408553500,5.834553466796875,-0.4451202154159546,-0.7504082322120667,3.064344882965088
1772562293418535400,5.844535400390625,-0.4828643798828125,-0.8212328553199768,2.973017930984497
1772562293428518400,5.854518310546875,-0.5235137939453125,-0.8698377013206482,2.835312604904175
1772562293438501400,5.86450146484375,-0.5368133783340454,-0.914161741733551,2.65999698638916
1772562293448484400,5.874484375,-0.5182596445083618,-0.9407720565795898,2.4753637313842773
1772562293458466300,5.88446630859375,-0.470829039812088,-0.9464059472084045,2.3301889896392822
1772562293468449300,5.89444921875,-0.429627001285553,-0.9621931910514832,2.2455713748931885
1772562293478432500,5.9044326171875,-0.4110724925994873,-0.9957410097122192,2.197334051132202
1772562293488414200,5.914414306640625,-0.4116104543209076,-0.9984848499298096,2.128286361694336
1772562293498397400,5.9243974609375,-0.42175257205963135,-0.9575704336166382,2.0046329498291016
1772562293508380400,5.93438037109375,-0.4298967719078064,-0.8709319829940796,1.8402485847473145
1772562293518362400,5.9443623046875,-0.4593569338321686,-0.764883279800415,1.6642727851867676
1772562293528345300,5.954345458984375,-0.5213990211486816,-0.6412534713745117,1.505103588104248
1772562293538328300,5.964328369140625,-0.5748521089553833,-0.5036061406135559,1.4044147729873657
1772562293548310300,5.974310302734375,-0.6406867504119873,-0.3921121060848236,1.3165233135223389
1772562293558293200,5.984293212890625,-0.673579216003418,-0.2695973813533783,1.230154037475586
1772562293568276500,5.9942763671875,-0.6847605109214783,-0.17378883063793182,1.0552093982696533
1772562293578258200,6.004258056640625,-0.6765342354774475,-0.0672573372721672,0.7785069346427917
1772562293588241400,6.014241455078125,-0.6451108455657959,0.07795152068138123,0.4248514175415039
1772562293598224400,6.024224365234375,-0.5943722724914551,0.21113328635692596,-0.005455485545098782
1772562293608207400,6.034207275390625,-0.5343126654624939,0.366560161113739,-0.5005744099617004
1772562293618189300,6.044189208984375,-0.4604315161705017,0.5094329118728638,-0.978644609451294
1772562293628172300,6.05417236328125,-0.3844435513019562,0.6125262379646301,-1.3955597877502441
1772562293638155500,6.064155517578125,-0.3034141957759857,0.6668304800987244,-1.7258607149124146
1772562293648137200,6.07413720703125,-0.22967500984668732,0.6403469443321228,-1.9785568714141846
1772562293658120400,6.084120361328125,-0.18071810901165009,0.5610343217849731,-2.1173346042633057
1772562293668103400,6.094103515625,-0.09660883247852325,0.4653461277484894,-2.1072094440460205
1772562293678085400,6.10408544921875,0.03838067874312401,0.41818445920944214,-2.020775079727173
1772562293688068400,6.114068359375,0.18585827946662903,0.41824546456336975,-1.9829058647155762
1772562293698051300,6.12405126953125,0.32688596844673157,0.4530170261859894,-2.0423033237457275
1772562293708033300,6.134033203125,0.46368908882141113,0.5133618712425232,-2.1721420288085938
1772562293718016500,6.1440166015625,0.5836589336395264,0.5670751333236694,-2.3157799243927
1772562293727999500,6.15399951171875,0.6678822040557861,0.5979875326156616,-2.420778751373291
1772562293737982200,6.163982177734375,0.7153072357177734,0.5950157046318054,-2.453129291534424
1772562293747964400,6.17396435546875,0.7313442230224609,0.5474905371665955,-2.4060165882110596
1772562293757947400,6.183947509765625,0.7212756276130676,0.4507772922515869,-2.3511228561401367
1772562293767930600,6.1939306640625,0.6678621768951416,0.30132603645324707,-2.3760616779327393
1772562293777912300,6.203912353515625,0.5824463963508606,0.13882260024547577,-2.534158945083618
1772562293787895600,6.2138955078125,0.48363643884658813,-0.08165384829044342,-2.8341710567474365
1772562293797878500,6.22387841796875,0.3479848802089691,-0.34369930624961853,-3.112574815750122
1772562293807860500,6.233860595703125,0.2747924029827118,-0.5480028986930847,-3.1859633922576904
1772562293817843500,6.243843505859375,0.34064599871635437,-0.5882363319396973,-3.0003302097320557
1772562293827826400,6.253826416015625,0.5048418641090393,-0.44662994146347046,-2.493462562561035
1772562293837808400,6.263808349609375,0.658781886100769,-0.12547776103019714,-1.6713449954986572
1772562293847791400,6.273791259765625,0.7662348747253418,0.23508840799331665,-0.825029730796814
1772562293857774600,6.283774658203125,0.7623703479766846,0.42053577303886414,-0.30677270889282227
1772562293867757300,6.29375732421875,0.7671011686325073,0.5849217772483826,-0.11958711594343185
1772562293877739500,6.303739501953125,0.7082080245018005,0.6548582315444946,-0.07157538086175919
1772562293887722500,6.313722412109375,0.46930837631225586,0.5196170806884766,-0.0067726848646998405
1772562293897705200,6.323705322265625,0.15109017491340637,0.2360849678516388,0.35697516798973083
1772562293907687400,6.3336875,-0.12457708269357681,-0.02665451355278492,1.0047358274459839
1772562293917671000,6.3436708984375,-0.3152754008769989,-0.23720163106918335,1.6820194721221924
1772562293927654100,6.353654052734375,-0.4414599537849426,-0.36468929052352905,2.1509830951690674
1772562293937635800,6.3636357421875,-0.5288097858428955,-0.3794839382171631,2.409506320953369
1772562293947619000,6.373619140625,-0.5957049131393433,-0.3143531382083893,2.50277042388916
1772562293957602000,6.38360205078125,-0.6309635639190674,-0.23595474660396576,2.446594476699829
1772562293967584300,6.393584228515625,-0.6388502717018127,-0.1772077977657318,2.3379902839660645
1772562293977567000,6.40356689453125,-0.650336742401123,-0.21307872235774994,2.2956714630126953
1772562293987550000,6.413550048828125,-0.7020500302314758,-0.32035696506500244,2.371073007583618
1772562293997533200,6.423533203125,-0.7759245038032532,-0.48206090927124023,2.550100088119507
1772562294007515000,6.433514892578125,-0.8694086670875549,-0.6629492044448853,2.74104380607605
1772562294017498000,6.443498046875,-0.9331434369087219,-0.826529860496521,2.867300271987915
1772562294027481000,6.453481201171875,-0.9823152422904968,-0.8989446759223938,2.8378026485443115
1772562294037463000,6.463463134765625,-0.9858580231666565,-0.8892403841018677,2.672386884689331
1772562294047446000,6.473446044921875,-0.947795033454895,-0.8196269869804382,2.441554307937622
1772562294057429000,6.483428955078125,-0.8774593472480774,-0.7821666598320007,2.2549328804016113
1772562294067411000,6.493410888671875,-0.8017033338546753,-0.725654125213623,2.086331367492676
1772562294077394000,6.503393798828125,-0.7107833027839661,-0.5795866847038269,1.8747726678848267
1772562294087377200,6.513377197265625,-0.5856165885925293,-0.39304181933403015,1.6463568210601807
1772562294097358800,6.52335888671875,-0.4589795768260956,-0.14239628612995148,1.4766671657562256
1772562294107342000,6.533342041015625,-0.3479318618774414,0.1209394708275795,1.4412071704864502
1772562294117325000,6.543324951171875,-0.26763835549354553,0.31389668583869934,1.552091121673584
1772562294127308000,6.55330810546875,-0.2416299283504486,0.4488888382911682,1.7313971519470215
1772562294137290000,6.5632900390625,-0.21064165234565735,0.5460993051528931,1.8781863451004028
1772562294147273000,6.57327294921875,-0.2011653333902359,0.7256264090538025,1.915246605873108
1772562294157256200,6.583256103515625,-0.24391067028045654,0.7269366979598999,1.8971621990203857
1772562294167238000,6.59323779296875,-0.3206302225589752,0.756361186504364,1.79194974899292
1772562294177221000,6.60322119140625,-0.37780746817588806,0.7082248330116272,1.5180753469467163
1772562294187204000,6.6132041015625,-0.3989796042442322,0.5875372886657715,1.1401125192642212
1772562294197186000,6.62318603515625,-0.399251252412796,0.47101518511772156,0.7417071461677551
1772562294207169000,6.6331689453125,-0.37747856974601746,0.3896292448043823,0.3571096658706665
1772562294217152000,6.643152099609375,-0.34128302335739136,0.365330308675766,-0.058403655886650085
1772562294227134000,6.653134033203125,-0.27644065022468567,0.4455777406692505,-0.4859776198863983
1772562294237117000,6.663116943359375,-0.1961279660463333,0.5190572738647461,-0.8421748876571655
1772562294247100200,6.67310009765625,-0.11853037774562836,0.5470902323722839,-1.1059695482254028
1772562294257082000,6.68308203125,-0.03033606708049774,0.581892192363739,-1.2904105186462402
1772562294267065000,6.693065185546875,0.05512823164463043,0.625019907951355,-1.4248769283294678
1772562294277048000,6.703048095703125,0.12751108407974243,0.6547317504882812,-1.5281522274017334
1772562294287031000,6.713031005859375,0.16890913248062134,0.6119353175163269,-1.572568655014038
1772562294297013000,6.723012939453125,0.1868646889925003,0.4625180959701538,-1.5864351987838745
1772562294306996200,6.732996337890625,0.19328103959560394,0.2573665678501129,-1.5869563817977905
1772562294316979000,6.74297900390625,0.22516919672489166,0.03677745535969734,-1.5808290243148804
1772562294326961200,6.752961181640625,0.30467042326927185,-0.18026484549045563,-1.5698986053466797
1772562294336944000,6.762944091796875,0.3791273534297943,-0.357858270406723,-1.5760630369186401
1772562294346926800,6.7729267578125,0.42416325211524963,-0.4530026316642761,-1.6029340028762817
1772562294356909000,6.782908935546875,0.4492292106151581,-0.46786707639694214,-1.638851284980774
1772562294366892000,6.79289208984375,0.4547795057296753,-0.42083749175071716,-1.6643986701965332
1772562294376875000,6.802875,0.4476640522480011,-0.2666260898113251,-1.656628131866455
1772562294386857000,6.81285693359375,0.4164978861808777,-0.09562798589468002,-1.6511825323104858
1772562294396840200,6.822840087890625,0.3705005645751953,0.01774677261710167,-1.647873044013977
1772562294406823000,6.832822998046875,0.32625213265419006,0.045633796602487564,-1.647080421447754
1772562294416806000,6.842805908203125,0.3176115155220032,0.03212730959057808,-1.6812336444854736
1772562294426788000,6.8527880859375,0.3233109414577484,0.028603948652744293,-1.8187733888626099
1772562294436770800,6.862770751953125,0.30327731370925903,0.030226612463593483,-2.1051924228668213
1772562294446754000,6.872754150390625,0.3684493899345398,0.00010865696822293103,-2.4975032806396484
1772562294456736000,6.882736083984375,0.5268406271934509,0.016390956938266754,-2.9638378620147705
1772562294466719000,6.892718994140625,0.6066180467605591,-0.09313313663005829,-3.4945671558380127
1772562294476702000,6.902701904296875,0.3853705823421478,-0.4226367473602295,-4.0124125480651855
1772562294486684200,6.91268408203125,0.06775534152984619,-0.7495613098144531,-4.295304775238037
1772562294496667000,6.9226669921875,-0.22878897190093994,-0.7941461205482483,-4.271420478820801
1772562294506649900,6.93264990234375,-0.43696853518486023,-0.37433046102523804,-3.9347519874572754
1772562294516632000,6.942632080078125,-0.5239047408103943,0.08942388743162155,-3.607741355895996
1772562294526614800,6.95261474609375,-0.566047191619873,0.42086946964263916,-3.47639536857605
1772562294536598000,6.962597900390625,-0.40280815958976746,0.6026525497436523,-3.450701951980591
1772562294546581000,6.9725810546875,-0.24613547325134277,0.3067737817764282,-3.464434862136841
1772562294556563000,6.98256298828125,-0.27074041962623596,-0.27693307399749756,-3.1851794719696045
1772562294566546000,6.9925458984375,-0.3435951769351959,-1.0090054273605347,-2.5969979763031006
1772562294576529200,7.002529052734375,-0.39640459418296814,-1.508320689201355,-2.04400372505188
1772562294586510800,7.0125107421875,-0.4539129137992859,-1.7445502281188965,-1.7186105251312256
1772562294596494000,7.022494140625,-0.6337149143218994,-1.8935184478759766,-1.62959623336792
1772562294606477000,7.03247705078125,-0.930302083492279,-2.0448718070983887,-1.62480628490448
1772562294616459000,7.042458984375,-1.1699734926223755,-2.117860794067383,-1.4914016723632812
1772562294626442000,7.05244189453125,-1.2771735191345215,-2.072129249572754,-1.2011375427246094
1772562294636425000,7.062425048828125,-1.2187559604644775,-1.655897855758667,-0.8064422011375427
1772562294646407200,7.0724072265625,-1.0542969703674316,-0.8676301836967468,-0.3263040781021118
1772562294656390000,7.082389892578125,-0.9076969027519226,-0.005942577496170998,0.23513928055763245
1772562294666373000,7.092373046875,-0.8195902109146118,0.6397514939308167,0.8695535063743591
1772562294676356000,7.102356201171875,-0.7689563632011414,0.9979645013809204,1.4986374378204346
1772562294686338000,7.112338134765625,-0.767726480960846,1.0229079723358154,2.0608415603637695
1772562294696321000,7.122321044921875,-0.8861353993415833,0.7183346748352051,2.5139479637145996
1772562294706304000,7.132303955078125,-1.1074973344802856,0.2632952928543091,2.9133763313293457
1772562294716286000,7.142285888671875,-1.3518022298812866,-0.1718207597732544,3.32351016998291
1772562294726269000,7.15226904296875,-1.5616371631622314,-0.5008625388145447,3.6697609424591064
1772562294736252200,7.162252197265625,-1.7304242849349976,-0.5889644622802734,3.895477533340454
1772562294746233900,7.17223388671875,-1.832083821296692,-0.2939346730709076,3.9595160484313965
1772562294756217000,7.182217041015625,-1.8434081077575684,0.2767903208732605,3.9102580547332764
1772562294766200000,7.192199951171875,-1.823267936706543,0.8976134061813354,3.778613805770874
1772562294776182000,7.20218212890625,-1.8001378774642944,1.452134132385254,3.6073648929595947
1772562294786165000,7.2121650390625,-1.7686079740524292,1.7799068689346313,3.421220064163208
1772562294796148000,7.22214794921875,-1.7528185844421387,1.9381117820739746,3.175827980041504
1772562294806131200,7.232131103515625,-1.712692141532898,1.9091898202896118,2.880247116088867
1772562294816113000,7.24211279296875,-1.6193300485610962,1.7777012586593628,2.597787857055664
1772562294826096000,7.25209619140625,-1.4449816942214966,1.6376011371612549,2.361666679382324
1772562294836079000,7.2620791015625,-1.2072402238845825,1.5762273073196411,2.177086353302002
1772562294846061000,7.27206103515625,-0.9354419708251953,1.5026726722717285,2.0687785148620605
1772562294856044000,7.2820439453125,-0.7261183261871338,1.38938307762146,2.0380234718322754
1772562294866027000,7.292027099609375,-0.6077029705047607,1.1972280740737915,2.027355432510376
1772562294876009000,7.302009033203125,-0.5610417723655701,0.9657423496246338,2.017627716064453
1772562294885992000,7.311991943359375,-0.575764000415802,0.7684212923049927,2.0095577239990234
1772562294895975200,7.32197509765625,-0.6250540018081665,0.5532408356666565,2.014238119125366
1772562294905956900,7.331956787109375,-0.7242117524147034,0.275675505399704,2.0086216926574707
1772562294915943000,7.34194287109375,-0.8380928039550781,-0.025663018226623535,2.012754201889038
1772562294925926000,7.35192578125,-0.9294325709342957,-0.3094713091850281,2.008124589920044
1772562294935909000,7.3619091796875,-1.0162217617034912,-0.5435764789581299,1.9522624015808105
1772562294945890800,7.371890869140625,-1.0374128818511963,-0.674543023109436,1.8952736854553223
1772562294955874000,7.3818740234375,-0.9727203845977783,-0.7246171236038208,1.8103004693984985
1772562294965857000,7.39185693359375,-0.8880907297134399,-0.6298540830612183,1.6800391674041748
1772562294975839000,7.4018388671875,-0.7880640029907227,-0.45856037735939026,1.508981466293335
1772562294985822000,7.411822021484375,-0.6392468214035034,-0.42087265849113464,1.2830204963684082
1772562294995805000,7.421804931640625,-0.5321221947669983,-0.5192239880561829,0.9637513756752014
1772562295005787000,7.431786865234375,-0.5245809555053711,-0.7181376218795776,0.5993169546127319
1772562295015769900,7.441769775390625,-0.5444076657295227,-0.9810198545455933,0.24974219501018524
1772562295025753000,7.451753173828125,-0.5856916904449463,-1.220737099647522,-0.028786374256014824
1772562295035735000,7.461735107421875,-0.6456101536750793,-1.4026480913162231,-0.21345582604408264
1772562295045718000,7.471718017578125,-0.7081449031829834,-1.4474189281463623,-0.29735925793647766
1772562295055701000,7.481700927734375,-0.724753737449646,-1.119126558303833,-0.206124410033226
1772562295065684000,7.49168408203125,-0.6238071322441101,-0.6018930673599243,0.012012188322842121
1772562295075666000,7.501666015625,-0.3833540380001068,-0.08672637492418289,0.19713570177555084
1772562295085649000,7.51164892578125,-0.1183580681681633,0.27419906854629517,0.2035645693540573
1772562295095632100,7.521632080078125,0.03413160517811775,0.29400473833084106,0.031147798523306847
1772562295105613800,7.53161376953125,0.034090325236320496,-0.050336938351392746,-0.2760169506072998
1772562295115597000,7.54159716796875,-0.1805865615606308,-0.6076833009719849,-0.5608435869216919
1772562295125580000,7.551580078125,-0.5013150572776794,-0.9843498468399048,-0.5122705101966858
1772562295135562000,7.56156201171875,-0.774298906326294,-1.109865665435791,-0.22066420316696167
1772562295145545000,7.571544921875,-0.9551547169685364,-1.0509347915649414,0.1345575451850891
1772562295155528200,7.581528076171875,-0.9591140151023865,-0.7793170809745789,0.383562296628952
1772562295165510000,7.591510009765625,-0.7657075524330139,-0.5072711706161499,0.5225593447685242
1772562295175493000,7.6014931640625,-0.5328343510627747,-0.3970158100128174,0.5743777751922607
1772562295185476000,7.61147607421875,-0.3229442238807678,-0.4966166913509369,0.5208056569099426
1772562295195459000,7.621458984375,-0.3202536404132843,-0.7338558435440063,0.3078044354915619
1772562295205441000,7.63144091796875,-0.48410674929618835,-0.8696661591529846,-0.06992875039577484
1772562295215424000,7.641424072265625,-0.6433387398719788,-0.7707512974739075,-0.5658314228057861
1772562295225407200,7.6514072265625,-0.6476339101791382,-0.4282698631286621,-1.0942153930664062
1772562295235389000,7.661388916015625,-0.4508635699748993,0.07018627971410751,-1.5351037979125977
1772562295245372200,7.6713720703125,-0.13024082779884338,0.4881824553012848,-1.822669267654419
1772562295255355100,7.681355224609375,0.23872655630111694,0.8396387696266174,-1.8049150705337524
1772562295265337000,7.691337158203125,0.5382173657417297,1.0513286590576172,-1.5075483322143555
1772562295275320000,7.701320068359375,0.6131097674369812,0.9264727234840393,-1.1260877847671509
1772562295285303000,7.711302978515625,0.45026808977127075,0.4883025586605072,-0.7515818476676941
1772562295295285000,7.721284912109375,0.16305921971797943,-0.04813716933131218,-0.35261479020118713
1772562295305268000,7.73126806640625,-0.13062699139118195,-0.46833524107933044,0.08537428826093674
1772562295315251200,7.741251220703125,-0.3052366077899933,-0.6597930788993835,0.570694088935852
1772562295325234000,7.75123388671875,-0.2894216775894165,-0.6133129596710205,1.0152432918548584
1772562295335216000,7.761216064453125,-0.12773746252059937,-0.39379018545150757,1.25338613986969
1772562295345199000,7.77119921875,0.05710696056485176,-0.13748356699943542,1.2655665874481201
1772562295355181800,7.781181884765625,0.16349118947982788,0.03768080100417137,1.1220449209213257
1772562295365164000,7.7911640625,0.16325922310352325,0.08706379681825638,0.9253299832344055
1772562295375147000,7.80114697265625,0.1033407673239708,0.04289872944355011,0.7524202466011047
1772562295385130000,7.8111298828125,0.03609089180827141,-0.05555993318557739,0.6221352219581604
1772562295395112000,7.82111181640625,-0.0208288487046957,-0.21813179552555084,0.5560280680656433
1772562295405095200,7.83109521484375,-0.0685654804110527,-0.3360903859138489,0.5472974181175232
1772562295415078000,7.841077880859375,-0.0781581848859787,-0.29175513982772827,0.5453062057495117
1772562295425060000,7.85106005859375,-0.08254627883434296,-0.15121695399284363,0.5392863750457764
1772562295435043000,7.86104296875,-0.11101626604795456,0.04561968147754669,0.553053617477417
1772562295445026000,7.871026123046875,-0.13077852129936218,0.30289968848228455,0.5636548399925232
1772562295455009000,7.881009033203125,-0.14287805557250977,0.5153035521507263,0.5586156249046326
1772562295464991000,7.890990966796875,-0.16473914682865143,0.6273747086524963,0.5466185808181763
1772562295474974000,7.900973876953125,-0.19670693576335907,0.7378367781639099,0.5724025368690491
1772562295484957000,7.91095703125,-0.22570502758026123,0.8173361420631409,0.6716585159301758
1772562295494939100,7.920939208984375,-0.23139327764511108,0.8118129968643188,0.8407453298568726
1772562295504921900,7.930921875,-0.22669439017772675,0.7339813113212585,1.0619887113571167
1772562295514905000,7.940905029296875,-0.20230436325073242,0.6075405478477478,1.3027666807174683
1772562295524887000,7.950886962890625,-0.16414020955562592,0.4122570753097534,1.5176470279693604
1772562295534870000,7.9608701171875,-0.13184991478919983,0.18285423517227173,1.6563341617584229
1772562295544853000,7.97085302734375,-0.11091107130050659,-0.028176510706543922,1.6982437372207642
1772562295554835200,7.980835205078125,-0.08265599608421326,-0.19807766377925873,1.6715670824050903
1772562295564816000,7.99081591796875,-0.05488002672791481,-0.3353936970233917,1.5690711736679077
1772562295574798000,8.000798095703125,-0.04141455143690109,-0.37918245792388916,1.3859950304031372
1772562295584781000,8.010781005859375,-0.023241406306624413,-0.32674428820610046,1.1456583738327026
1772562295594764000,8.020763916015625,-0.012941897846758366,-0.28287139534950256,0.8659912943840027
1772562295604746000,8.03074609375,-0.02545848861336708,-0.2572200894355774,0.5723966956138611
1772562295614729000,8.04072900390625,-0.05342727154493332,-0.20475953817367554,0.28982916474342346
1772562295624712000,8.0507119140625,-0.05838900804519653,-0.057440388947725296,0.042210038751363754
1772562295634695200,8.060695068359376,-0.014157364144921303,0.14091743528842926,-0.15348783135414124
1772562295644676900,8.0706767578125,0.07028800994157791,0.33105117082595825,-0.3047255575656891
1772562295654660000,8.08066015625,0.14231480658054352,0.5192602276802063,-0.42249637842178345
1772562295664643000,8.09064306640625,0.18731822073459625,0.6664882898330688,-0.5179717540740967
1772562295674625000,8.100625,0.2229531854391098,0.7564389705657959,-0.6108500361442566
1772562295684608000,8.11060791015625,0.23374192416667938,0.7476577162742615,-0.7044340372085571
1772562295694591000,8.120591064453125,0.218119278550148,0.6439017653465271,-0.8063074350357056
1772562295704573000,8.130572998046874,0.20788821578025818,0.433803915977478,-0.9470230340957642
1772562295714556000,8.140555908203124,0.2331879884004593,0.19395855069160461,-1.1049654483795166
1772562295724539100,8.1505390625,0.2866264283657074,-0.017614413052797318,-1.2186635732650757
1772562295734520800,8.160520751953126,0.36107537150382996,-0.2119162529706955,-1.2708860635757446
1772562295744504000,8.170504150390625,0.4592192471027374,-0.4324376881122589,-1.295907974243164
1772562295754487000,8.180487060546875,0.5246986746788025,-0.7340060472488403,-1.3326271772384644
1772562295764469000,8.190468994140625,0.49238651990890503,-1.1834805011749268,-1.430533766746521
1772562295774452000,8.200451904296875,0.4037961959838867,-1.763784408569336,-1.6640127897262573
1772562295784435000,8.21043505859375,0.3540954887866974,-2.3456854820251465,-2.0311217308044434
1772562295794418200,8.220418212890625,0.35315245389938354,-2.779780864715576,-2.5222370624542236
1772562295804399900,8.23039990234375,0.48439306020736694,-2.9697530269622803,-3.06323504447937
1772562295814383000,8.240383056640624,0.7515560388565063,-2.9709832668304443,-3.5827713012695312
1772562295824366000,8.250365966796876,1.0854402780532837,-2.7096776962280273,-4.036561965942383
1772562295834348000,8.26034814453125,1.4236774444580078,-2.154350996017456,-4.387684345245361
1772562295844331000,8.2703310546875,1.7265992164611816,-1.454892873764038,-4.73842716217041
1772562295854314000,8.28031396484375,1.949826955795288,-0.7522865533828735,-5.059206962585449
1772562295864296000,8.2902958984375,2.0421364307403564,-0.3177012801170349,-5.199018955230713
1772562295874279000,8.30027880859375,1.94734787940979,-0.04099190607666969,-4.949557304382324
1772562295884262100,8.31026220703125,1.6958609819412231,0.11139683425426483,-4.3154778480529785
1772562295894243800,8.320243896484374,1.3520336151123047,0.036142557859420776,-3.319173812866211
1772562295904227000,8.33022705078125,0.9827173352241516,-0.3662901222705841,-2.1742947101593018
1772562295914210000,8.3402099609375,0.6392270922660828,-0.9002981185913086,-0.9676821827888489
1772562295924188700,8.350188720703125,0.32924261689186096,-1.279752254486084,0.17863552272319794
1772562295934170600,8.360170654296875,0.02466806210577488,-1.3711977005004883,1.2789682149887085
1772562295944153900,8.37015380859375,-0.2512767016887665,-1.2331594228744507,2.2011678218841553
1772562295954136600,8.380136474609374,-0.47746163606643677,-0.8977593183517456,2.8012359142303467
1772562295964118800,8.390118896484376,-0.629123330116272,-0.3571578562259674,3.0558555126190186
1772562295974101800,8.400101806640626,-0.7161895036697388,0.24450668692588806,3.002500534057617
1772562295984084500,8.41008447265625,-0.7889622449874878,0.8380603194236755,2.7996673583984375
1772562295994066700,8.420066650390625,-0.8311600685119629,1.3861758708953857,2.664774179458618
1772562296004049700,8.430049560546875,-0.8633973598480225,1.7382217645645142,2.697312593460083
1772562296014032600,8.44003271484375,-0.8770396709442139,1.8544708490371704,2.896552562713623
1772562296024014600,8.4500146484375,-0.8637259602546692,1.7396937608718872,3.1294450759887695
1772562296033997800,8.459997802734375,-0.8708304762840271,1.4803385734558105,3.316577196121216
1772562296043980500,8.46998046875,-0.892959475517273,1.1457699537277222,3.451932907104492
1772562296053963800,8.4799638671875,-0.9311737418174744,0.7689408659934998,3.5257699489593506
1772562296063945700,8.48994580078125,-0.9882940053939819,0.39626824855804443,3.5152199268341064
1772562296073928700,8.4999287109375,-1.0568383932113647,0.0795970931649208,3.425483465194702
1772562296083911700,8.50991162109375,-1.0932409763336182,-0.12559227645397186,3.2470290660858154
1772562296093894000,8.519893798828125,-1.0808053016662598,-0.1814907044172287,2.998420000076294
1772562296103876600,8.529876708984375,-1.0148060321807861,-0.057430803775787354,2.7097110748291016
1772562296113859600,8.539859619140625,-0.9086697697639465,0.2254728078842163,2.4564599990844727
1772562296123841800,8.549841796875,-0.7801805138587952,0.5977883338928223,2.244849920272827
1772562296133824500,8.559824462890624,-0.6886311173439026,1.0575404167175293,2.07967472076416
1772562296143807700,8.569807861328124,-0.6474131345748901,1.5887995958328247,1.9883322715759277
1772562296153790700,8.579790771484374,-0.6299148201942444,2.1015803813934326,1.9782793521881104
1772562296163772700,8.589772705078126,-0.5785592198371887,2.480177402496338,1.9874281883239746
1772562296173755600,8.599755615234375,-0.49251115322113037,2.730660915374756,1.947894811630249
1772562296183738600,8.609738525390625,-0.3660983741283417,2.784905195236206,1.8199083805084229
1772562296193720600,8.619720458984375,-0.18832702934741974,2.6638169288635254,1.6208850145339966
1772562296203703600,8.62970361328125,0.01504339836537838,2.443459987640381,1.3995065689086914
1772562296213686800,8.639686767578125,0.21912355720996857,2.217897415161133,1.1816093921661377
1772562296223668500,8.64966845703125,0.3776610195636749,2.022610902786255,0.9602842330932617
1772562296233651700,8.659651611328124,0.4770893156528473,1.8114720582962036,0.6685554385185242
1772562296243634700,8.669634765625,0.5617464184761047,1.6009405851364136,0.2941456139087677
1772562296253616600,8.67961669921875,0.6478512287139893,1.4391860961914062,-0.1669865846633911
1772562296263599600,8.689599609375,0.7153791189193726,1.258605718612671,-0.7215818762779236
1772562296273582600,8.69958251953125,0.7334753274917603,1.0965195894241333,-1.3354719877243042
1772562296283565800,8.70956591796875,0.69651859998703,0.9104181528091431,-1.9718194007873535
1772562296293547500,8.719547607421875,0.66050124168396,0.7343123555183411,-2.5566353797912598
1772562296303530800,8.72953076171875,0.6520091891288757,0.6136040091514587,-3.0778234004974365
1772562296313513700,8.739513671875,0.7099452018737793,0.5390158295631409,-3.4175798892974854
1772562296323495700,8.74949560546875,0.8340708613395691,0.6061210632324219,-3.6722919940948486
1772562296333478700,8.759478759765624,0.8966980576515198,0.636134922504425,-3.7932794094085693
1772562296343461600,8.769461669921874,0.9165673851966858,0.667598307132721,-3.7485063076019287
1772562296353443600,8.779443603515626,0.9125885963439941,0.6993897557258606,-3.503723382949829
1772562296363426600,8.789426513671875,0.926568865776062,0.5711580514907837,-3.1973190307617188
1772562296373409800,8.799409912109375,0.9213751554489136,0.1982041597366333,-2.9531972408294678
1772562296383391700,8.809391845703125,0.8626380562782288,-0.30817434191703796,-2.8317923545837402
1772562296393374700,8.819374755859375,0.7731667757034302,-0.8179087042808533,-2.8099465370178223
1772562296403357700,8.829357666015625,0.730063796043396,-1.2210787534713745,-2.8469321727752686
1772562296413340700,8.839340576171875,0.7341621518135071,-1.427699089050293,-2.954775094985962
1772562296423322600,8.849322509765624,0.765102207660675,-1.3260360956192017,-3.0530974864959717
1772562296433305900,8.859305908203124,0.8613592386245728,-0.9785109162330627,-3.0463850498199463
1772562296443288600,8.86928857421875,1.0307530164718628,-0.6238494515419006,-3.0054543018341064
1772562296453270800,8.879270751953126,1.140783667564392,-0.4656989872455597,-3.0094449520111084
1772562296463253800,8.889253662109375,1.139973759651184,-0.41229116916656494,-3.045205593109131
1772562296473236700,8.89923681640625,1.0119343996047974,-0.4162752330303192,-3.1314220428466797
1772562296483218700,8.90921875,0.7396035194396973,-0.5421769618988037,-3.3232734203338623
1772562296493201700,8.91920166015625,0.34670335054397583,-0.6899302005767822,-3.558464527130127
1772562296503185000,8.929184814453125,0.01996944658458233,-0.7970468401908875,-3.710076093673706
1772562296513166600,8.93916650390625,-0.10729902237653732,-0.8500208258628845,-3.7586960792541504
1772562296523149800,8.94914990234375,-0.048230912536382675,-0.8229596614837646,-3.7668497562408447
1772562296533132800,8.9591328125,0.09435206651687622,-0.6568625569343567,-3.7631802558898926
1772562296543115500,8.969115478515626,0.15538053214550018,-0.5344695448875427,-3.757981061935425
1772562296553097700,8.97909765625,0.05197478458285332,-0.4819141626358032,-3.6232752799987793
1772562296563080700,8.989080810546875,-0.12125052511692047,-0.4115356206893921,-3.1529619693756104
1772562296573063700,8.999063720703125,-0.28387725353240967,-0.2705947458744049,-2.3395767211914062
1772562296583045600,9.009045654296875,-0.411283403635025,0.044497694820165634,-1.4523698091506958
1772562296593028900,9.01902880859375,-0.4471801519393921,0.5597386956214905,-0.7563414573669434
1772562296603011600,9.029011474609375,-0.30562064051628113,1.1192200183868408,-0.40557733178138733
1772562296612993800,9.038993896484374,-0.02263287454843521,1.5479741096496582,-0.3315070867538452
1772562296622976800,9.048976806640624,0.2945099174976349,1.8950817584991455,-0.22393988072872162
1772562296632959500,9.05895947265625,0.5512905716896057,2.0784783363342285,0.1680918037891388
1772562296642941700,9.068941650390625,0.7064436674118042,1.9672293663024902,0.7911146283149719
1772562296652924700,9.078924560546875,0.7336300611495972,1.52095365524292,1.4583598375320435
1772562296662907600,9.08890771484375,0.6658323407173157,0.8838096857070923,2.0194344520568848
1772562296672890600,9.098890625,0.6228209733963013,0.2132883071899414,2.4680824279785156
1772562296682872800,9.108872802734375,0.6426207423210144,-0.4289878308773041,2.8808469772338867
1772562296692855600,9.11885546875,0.6172131299972534,-0.9766501188278198,3.2967445850372314
1772562296702838800,9.1288388671875,0.509131133556366,-1.3006702661514282,3.621108055114746
1772562296712820700,9.13882080078125,0.39127108454704285,-1.3614236116409302,3.745553731918335
1772562296722803700,9.1488037109375,0.29560527205467224,-1.1484932899475098,3.6438584327697754
1772562296732786700,9.15878662109375,0.22887977957725525,-0.6388798356056213,3.3953638076782227
1772562296742768600,9.1687685546875,0.1912573128938675,0.02731923945248127,3.117514133453369
1772562296752751600,9.178751708984375,0.15500450134277344,0.6898505687713623,2.9330801963806152
1772562296762734600,9.188734619140625,0.0953851118683815,1.2210558652877808,2.881789445877075
1772562296772716800,9.198716796875,0.01751268096268177,1.547109603881836,2.9526312351226807
1772562296782699500,9.208699462890625,-0.09541067481040955,1.6624833345413208,3.1073997020721436
1772562296792682800,9.218682861328125,-0.21578742563724518,1.6583211421966553,3.311016798019409
1772562296802665700,9.228665771484375,-0.2908640503883362,1.6682392358779907,3.519763946533203
1772562296812647700,9.238647705078124,-0.2813054323196411,1.765180230140686,3.6893582344055176
1772562296822630700,9.248630615234376,-0.20107132196426392,1.9695039987564087,3.7533228397369385
1772562296832613600,9.258613525390626,-0.07636640965938568,2.2177133560180664,3.7008090019226074
1772562296842595600,9.268595703125,0.06254833191633224,2.433253049850464,3.5891358852386475
1772562296852578600,9.27857861328125,0.17392678558826447,2.6247947216033936,3.4406497478485107
1772562296862561800,9.288561767578125,0.22014541923999786,2.7547659873962402,3.2771661281585693
1772562296872543500,9.29854345703125,0.22445201873779297,2.785148859024048,3.0938310623168945
1772562296882526700,9.308526611328125,0.18314984440803528,2.6813549995422363,2.8941855430603027
1772562296892509700,9.318509765625,0.09370066225528717,2.4969801902770996,2.673088788986206
1772562296902491600,9.32849169921875,-0.014328605495393276,2.2391393184661865,2.410534620285034
1772562296912474600,9.338474609375,-0.07741116732358932,1.9536278247833252,2.0791895389556885
1772562296922458400,9.348458251953126,-0.11361045390367508,1.5955150127410889,1.6907908916473389
1772562296932441300,9.35844140625,-0.12868954241275787,1.1735594272613525,1.265426516532898
1772562296942423300,9.36842333984375,-0.13168345391750336,0.7016739845275879,0.8014916181564331
1772562296952406500,9.378406494140625,-0.12746155261993408,0.22360113263130188,0.3057524561882019
1772562296962389200,9.38838916015625,-0.09715504199266434,-0.20711563527584076,-0.21981598436832428
1772562296972371500,9.398371337890625,-0.03543389216065407,-0.5802431702613831,-0.7605876326560974
1772562296982354400,9.4083544921875,0.05727101117372513,-0.8716001510620117,-1.3015904426574707
1772562296992337200,9.418337158203125,0.1662033498287201,-1.0156939029693604,-1.727906346321106
1772562297002319400,9.4283193359375,0.30193030834198,-1.1663141250610352,-2.1798481941223145
1772562297012302300,9.43830224609375,0.44631117582321167,-1.1280388832092285,-2.5810258388519287
1772562297022285300,9.448285400390626,0.5051494836807251,-1.0597541332244873,-2.8355722427368164
1772562297032268300,9.458268310546876,0.5406414270401001,-1.0470441579818726,-2.924189567565918
1772562297042250500,9.46825048828125,0.5498766899108887,-1.0988916158676147,-2.8364763259887695
1772562297052233200,9.478233154296875,0.5391236543655396,-1.1761456727981567,-2.6184427738189697
1772562297062216200,9.48821630859375,0.49248504638671875,-1.2704588174819946,-2.3684256076812744
1772562297072198400,9.498198486328125,0.40933266282081604,-1.3770755529403687,-2.160207986831665
1772562297082181000,9.50818115234375,0.30181416869163513,-1.4661623239517212,-2.043355941772461
1772562297092164400,9.518164306640625,0.14682486653327942,-1.552316665649414,-2.0470614433288574
1772562297102146300,9.528146240234374,-0.0392342209815979,-1.6589981317520142,-2.2002546787261963
1772562297112129300,9.53812939453125,-0.25242799520492554,-1.8094698190689087,-2.5291523933410645
1772562297122112300,9.5481123046875,-0.4863038659095764,-2.0263671875,-2.992154359817505
1772562297132094500,9.558094482421875,-0.7579071521759033,-2.315218925476074,-3.571445941925049
1772562297142077200,9.5680771484375,-1.1459089517593384,-2.7799975872039795,-4.290464401245117
1772562297152060200,9.57806005859375,-1.5370758771896362,-3.367992401123047,-5.06500768661499
1772562297162043400,9.58804345703125,-1.7325268983840942,-3.930946111679077,-5.6505866050720215
1772562297172025000,9.598025146484375,-1.596100091934204,-3.922894239425659,-5.744505405426025
1772562297182008300,9.60800830078125,-1.2355996370315552,-3.268217086791992,-5.391756057739258
1772562297191991300,9.6179912109375,-0.8241058588027954,-2.2665791511535645,-4.891409397125244
1772562297201973200,9.62797314453125,-0.4688838720321655,-1.2099230289459229,-4.387197971343994
1772562297211956200,9.637956298828126,-0.17172595858573914,-0.2970886528491974,-3.8921194076538086
1772562297221939200,9.647939208984376,-0.021698104217648506,0.14032036066055298,-3.4863669872283936
1772562297231921200,9.657921142578125,-0.0911400318145752,0.17283223569393158,-3.0361390113830566
1772562297241904400,9.667904296875,-0.28124791383743286,-0.03773113340139389,-2.354041814804077
1772562297251887400,9.677887451171875,-0.5157211422920227,-0.4863222539424896,-1.4762181043624878
1772562297261869300,9.687869384765625,-0.7556799650192261,-0.9612882137298584,-0.42216747999191284
1772562297271852300,9.697852294921875,-1.0358308553695679,-1.3339166641235352,0.6478073000907898
1772562297281835300,9.707835205078124,-1.347060203552246,-1.265867829322815,1.5651695728302002
1772562297291817200,9.717817138671874,-1.6376326084136963,-0.8313373923301697,2.0935564041137695
1772562297301800200,9.72780029296875,-1.8997507095336914,-0.24538418650627136,2.258199453353882
1772562297311783400,9.737783447265626,-2.1057941913604736,0.27358654141426086,2.3516151905059814
1772562297321766400,9.747766357421876,-2.279420852661133,0.6489819884300232,2.519904375076294
1772562297331748400,9.757748291015625,-2.463740825653076,0.8407325148582458,2.784179925918579
1772562297341731300,9.7677314453125,-2.6648993492126465,0.8238059878349304,3.0710811614990234
1772562297351714300,9.77771435546875,-2.867887258529663,0.6290873885154724,3.2924983501434326
1772562297361696300,9.7876962890625,-3.039789915084839,0.28935831785202026,3.4392738342285156
1772562297371679200,9.79767919921875,-3.1709933280944824,-0.17418165504932404,3.5677237510681152
1772562297381662500,9.807662353515624,-3.2412004470825195,-0.6519330143928528,3.6985888481140137
1772562297391644200,9.81764404296875,-3.1883111000061035,-0.9669770002365112,3.8251399993896484
1772562297401627400,9.82762744140625,-3.01621413230896,-1.0650180578231812,3.850107192993164
1772562297411610400,9.8376103515625,-2.739222526550293,-0.9557619094848633,3.717707872390747
1772562297421593000,9.847593017578125,-2.3933768272399902,-0.7132208943367004,3.485201835632324
1772562297431575300,9.8575751953125,-2.028656005859375,-0.3860619366168976,3.2487218379974365
1772562297441558300,9.867558349609375,-1.707952857017517,-0.02996482327580452,3.0774190425872803
1772562297451541500,9.87754150390625,-1.4402217864990234,0.24383635818958282,2.9780068397521973
1772562297461523200,9.887523193359375,-1.2162848711013794,0.4282115399837494,2.9150278568267822
1772562297471506400,9.89750634765625,-1.0021158456802368,0.6209477186203003,2.8180153369903564
1772562297481489400,9.907489501953124,-0.8119913935661316,0.8332207798957825,2.660207509994507
1772562297491471400,9.917471435546876,-0.6265395283699036,1.074666976928711,2.437629461288452
1772562297501454300,9.927454345703126,-0.43465450406074524,1.31093168258667,2.184807300567627
1772562297511437300,9.937437255859376,-0.25435692071914673,1.521083116531372,1.9402108192443848
1772562297521420300,9.947420166015625,-0.09226281940937042,1.7322278022766113,1.7696812152862549
1772562297531402200,9.95740234375,0.07303319871425629,1.911723256111145,1.712522029876709
1772562297541385500,9.967385498046875,0.2384895384311676,2.0027406215667725,1.7432283163070679
1772562297551368200,9.9773681640625,0.37552621960639954,1.9847735166549683,1.833114743232727
1772562297561350400,9.987350341796875,0.49448803067207336,1.8854660987854004,1.942583680152893
1772562297571333400,9.99733349609375,0.6249224543571472,1.6828557252883911,2.0618693828582764
1772562297581316400,10.00731640625,0.7488691806793213,1.3753376007080078,2.1566131114959717
1772562297591298300,10.01729833984375,0.8366986513137817,1.0410642623901367,2.18869686126709
1772562297601281300,10.02728125,0.8567942976951599,0.7199190258979797,2.1397550106048584
1772562297611264300,10.03726416015625,0.8087564706802368,0.4341389238834381,2.0156354904174805
1772562297621246500,10.04724658203125,0.7206412553787231,0.23345457017421722,1.8427159786224365
1772562297631229400,10.0572294921875,0.609320878982544,0.15897873044013977,1.5874192714691162
1772562297641212200,10.067212158203125,0.49068450927734375,0.17692497372627258,1.2697012424468994
1772562297651195400,10.0771953125,0.3875887393951416,0.2629253566265106,0.8745490908622742
1772562297661177300,10.08717724609375,0.31047558784484863,0.41023680567741394,0.428350031375885
1772562297671160300,10.097160400390624,0.2893495261669159,0.5727396607398987,-0.02076280303299427
1772562297681143300,10.107143310546874,0.31176507472991943,0.775040328502655,-0.4345972537994385
1772562297691125500,10.11712548828125,0.364356130361557,0.9752264022827148,-0.7891327142715454
1772562297701108200,10.127108154296875,0.4278120696544647,1.1258788108825684,-1.101353406906128
1772562297711091200,10.13709130859375,0.493360698223114,1.2481439113616943,-1.3597506284713745
1772562297721073400,10.147073486328125,0.5106489062309265,1.2630493640899658,-1.520959496498108
1772562297731056000,10.15705615234375,0.46589499711990356,1.0271573066711426,-1.6811747550964355
1772562297741039400,10.167039306640625,0.34568336606025696,0.5430179834365845,-1.8165751695632935
1772562297751021300,10.177021240234374,0.17240798473358154,-0.12866130471229553,-1.9494876861572266
1772562297761004300,10.18700439453125,-0.006618488114327192,-0.8008551597595215,-2.1179518699645996
1772562297770987300,10.1969873046875,-0.1023857593536377,-1.2719770669937134,-2.383244037628174
1772562297780970200,10.20697021484375,0.03086443804204464,-1.609480619430542,-2.854569911956787
1772562297790952200,10.2169521484375,0.23375257849693298,-1.9021910429000854,-3.716460704803467
1772562297800935200,10.22693505859375,0.25724565982818604,-2.1752965450286865,-4.89475679397583
1772562297810918400,10.23691845703125,0.13448511064052582,-2.260190486907959,-6.000789165496826
1772562297820900000,10.246900146484375,0.1503644734621048,-1.9285176992416382,-6.621663570404053
1772562297830883300,10.25688330078125,0.19205892086029053,-1.1966999769210815,-6.771936893463135
1772562297840866300,10.2668662109375,0.18737176060676575,-0.2075236290693283,-6.436894416809082
1772562297850848300,10.27684814453125,0.2705569267272949,0.8533836007118225,-5.655843734741211
1772562297860831200,10.286831298828124,0.34583917260169983,1.593625783920288,-4.8874735832214355
1772562297870814200,10.296814208984374,0.2958979606628418,1.891026496887207,-4.1005682945251465
1772562297880796200,10.306796142578126,0.1716090440750122,1.7830030918121338,-3.373617649078369
1772562297890779100,10.316779052734375,-0.02708594687283039,1.2625399827957153,-2.728041887283325
1772562297900762400,10.326762451171875,-0.24392345547676086,0.5565130710601807,-2.0320794582366943
1772562297910745300,10.336745361328125,-0.4145636260509491,-0.0854930654168129,-1.2207725048065186
1772562297920727300,10.346727294921875,-0.49204936623573303,-0.6184470057487488,-0.3257701098918915
1772562297930710300,10.356710205078125,-0.4688625633716583,-1.0101505517959595,0.6200403571128845
1772562297940693500,10.366693603515625,-0.2884962558746338,-1.168709635734558,1.495462417602539
1772562297950675200,10.37667529296875,-0.003518834710121155,-1.1201926469802856,2.150707721710205
1772562297960658400,10.386658447265624,0.30354630947113037,-0.9300687909126282,2.488222360610962
1772562297970641400,10.396641357421874,0.556649923324585,-0.6848808526992798,2.499851703643799
1772562297980623400,10.406623291015626,0.6822025179862976,-0.39196324348449707,2.3096234798431396
1772562297990606300,10.4166064453125,0.7089076638221741,-0.06281384825706482,2.075676441192627
1772562298000589300,10.42658935546875,0.6514270305633545,0.25200000405311584,1.9007645845413208
1772562298010572300,10.436572265625,0.537970781326294,0.5186372995376587,1.8321927785873413
1772562298020554200,10.44655419921875,0.40809667110443115,0.7023879885673523,1.8640484809875488
1772562298030537500,10.456537353515625,0.2898448705673218,0.7433886528015137,1.944669246673584
1772562298040520200,10.466520263671875,0.19566164910793304,0.6916245222091675,2.052685022354126
1772562298050502400,10.47650244140625,0.13511280715465546,0.5975502133369446,2.1875710487365723
1772562298060485400,10.4864853515625,0.10454665124416351,0.4686673581600189,2.2978994846343994
1772562298070468000,10.496468017578126,0.07064114511013031,0.33154889941215515,2.3544504642486572
1772562298080450300,10.5064501953125,0.0022855247370898724,0.2115098536014557,2.3426547050476074
1772562298090433300,10.516433349609375,-0.07113330066204071,0.11029401421546936,2.273332357406616
1772562298100416300,10.526416259765625,-0.16418787837028503,0.051006194204092026,2.151529550552368
1772562298110398200,10.536398193359375,-0.27382516860961914,0.04253201559185982,1.9848936796188354
1772562298120381400,10.54638134765625,-0.3641747534275055,0.06513319909572601,1.7764112949371338
1772562298130364200,10.5563642578125,-0.4021788537502289,0.12175066769123077,1.5332387685775757
1772562298140347100,10.56634716796875,-0.37153148651123047,0.2062000334262848,1.2540916204452515
1772562298150329300,10.576329345703124,-0.3003920614719391,0.32257992029190063,0.9340206384658813
1772562298160312000,10.58631201171875,-0.2072053849697113,0.474531352519989,0.5701398849487305
1772562298170295300,10.59629541015625,-0.10569074004888535,0.6071650385856628,0.1675431877374649
1772562298180277200,10.60627734375,-0.028980785980820656,0.721165657043457,-0.27059206366539
1772562298190260200,10.61626025390625,0.04104224219918251,0.8230464458465576,-0.7322771549224854
1772562298200243200,10.6262431640625,0.09802057594060898,0.9273736476898193,-1.176733136177063
1772562298210225400,10.636225341796875,0.08254201710224152,1.007131576538086,-1.6027600765228271
1772562298220208000,10.6462080078125,-0.025236913934350014,1.1520661115646362,-1.9813308715820312
1772562298230191000,10.656191162109375,-0.13198359310626984,1.3272273540496826,-2.2523279190063477
1772562298240173300,10.66617333984375,-0.18817336857318878,1.4199681282043457,-2.3892180919647217
1772562298250156300,10.67615625,-0.21921277046203613,1.3660234212875366,-2.4334378242492676
1772562298260139300,10.68613916015625,-0.22612421214580536,1.2227838039398193,-2.4176008701324463
1772562298270122200,10.696122314453126,-0.20788662135601044,1.0557299852371216,-2.3451364040374756
1772562298280104200,10.706104248046875,-0.19161124527454376,0.9263853430747986,-2.2243669033050537
1772562298290087200,10.716087158203125,-0.16536977887153625,0.9060859680175781,-2.095500946044922
1772562298300070400,10.7260703125,-0.14916551113128662,0.9767710566520691,-2.000687837600708
1772562298310052000,10.736052001953125,-0.15630704164505005,0.9782528281211853,-1.977327823638916
1772562298320035300,10.746035400390625,-0.226655513048172,0.6784453392028809,-2.027951955795288
1772562298330018300,10.756018310546875,-0.3656879663467407,0.07261321693658829,-2.0954763889312744
1772562298340000300,10.766000244140624,-0.5565860271453857,-0.6735911965370178,-2.171903133392334
1772562298349983200,10.775983154296876,-0.7180793285369873,-1.1891469955444336,-2.2475264072418213
1772562298359966200,10.78596630859375,-0.8434321880340576,-1.2810786962509155,-2.2338833808898926
1772562298369948200,10.7959482421875,-0.9754807353019714,-0.9515272378921509,-2.0493085384368896
1772562298379931100,10.80593115234375,-1.091635823249817,-0.43081316351890564,-1.725962519645691
1772562298389914400,10.815914306640625,-1.1721922159194946,-0.06025322154164314,-1.3676154613494873
1772562298399897300,10.8258974609375,-1.2034372091293335,0.04262522608041763,-1.069274663925171
1772562298409879300,10.83587939453125,-1.1754300594329834,-0.007869907654821873,-0.8813472986221313
1772562298419862300,10.8458623046875,-1.0967307090759277,-0.14118722081184387,-0.8043055534362793
1772562298429845200,10.85584521484375,-0.978873074054718,-0.2546708881855011,-0.7754725813865662
1772562298439827200,10.8658271484375,-0.8648767471313477,-0.4859813451766968,-0.7706506252288818
1772562298449810200,10.87581005859375,-0.8034442663192749,-0.8279435038566589,-0.7456467747688293
1772562298459793400,10.88579345703125,-0.7905076742172241,-1.2320184707641602,-0.7233188152313232
1772562298469775000,10.895775146484375,-0.7973032593727112,-1.5433963537216187,-0.6856289505958557
1772562298479758300,10.90575830078125,-0.8251785635948181,-1.6495411396026611,-0.5478180646896362
1772562298489741300,10.9157412109375,-0.8982115387916565,-1.6839317083358765,-0.3118484318256378
1772562298499724000,10.92572412109375,-0.8806642293930054,-1.3910478353500366,-0.24876827001571655
1772562298509706200,10.935706298828125,-0.7919101119041443,-1.0046937465667725,-0.13512372970581055
1772562298519689200,10.945689208984374,-0.6473939418792725,-0.31276562809944153,0.0603373758494854
1772562298529672200,10.955672119140624,-0.46967455744743347,0.39708396792411804,0.23979102075099945
1772562298539654100,10.965654052734376,-0.2824098467826843,0.810684859752655,0.3095743656158447
1772562298549637400,10.975637451171876,-0.09990662336349487,0.9543783664703369,0.32015910744667053
1772562298559620400,10.985620361328126,0.10079691559076309,1.1982709169387817,0.3903413712978363
1772562298569602300,10.995602294921875,0.3330032527446747,1.4362225532531738,0.5000420212745667
1772562298579585300,11.005585205078125,0.6117081046104431,1.5123108625411987,0.6198424696922302
1772562298589568300,11.015568359375,0.8748595714569092,1.3553540706634521,0.7120488286018372
1772562298599550200,11.02555029296875,1.0150444507598877,1.0927330255508423,0.7873883247375488
1772562298609533200,11.035533203125,1.0207949876785278,0.7955378890037537,0.8475083708763123
1772562298619516400,11.045516357421874,0.9233381748199463,0.5050309300422668,0.9094969630241394
1772562298629499100,11.0554990234375,0.8010450005531311,0.28113019466400146,1.0189858675003052
1772562298639481300,11.0654814453125,0.7184146046638489,0.12129766494035721,1.1918343305587769
1772562298649464300,11.07546435546875,0.7036604285240173,0.05086584389209747,1.4228172302246094
1772562298659447300,11.085447265625,0.7639729976654053,0.06475716084241867,1.6962826251983643
1772562298669429200,11.09542919921875,0.8737951517105103,0.12017008662223816,1.9902764558792114
1772562298679412500,11.10541259765625,0.9946349859237671,0.11345891654491425,2.267268180847168
1772562298689395200,11.115395263671875,1.0922411680221558,0.007148190401494503,2.489119291305542
1772562298699377400,11.12537744140625,1.1407480239868164,-0.12399757653474808,2.6588973999023438
1772562298709360400,11.1353603515625,1.1337954998016357,-0.1910509169101715,2.780857801437378
1772562298719343000,11.145343017578124,1.0761528015136719,-0.145849347114563,2.848759651184082
1772562298729326300,11.155326416015624,0.9318469762802124,-0.09009154140949249,2.7296957969665527
1772562298739308300,11.165308349609376,0.688969612121582,-0.06068039312958717,2.5195887088775635
1772562298749291300,11.175291259765626,0.43376103043556213,-0.05636367201805115,2.2875843048095703
1772562298759274200,11.185274169921875,0.2223300039768219,-0.09502904117107391,2.0107531547546387
1772562298769256400,11.19525634765625,0.06872713565826416,-0.07559195905923843,1.733520269393921
1772562298779239200,11.2052392578125,-0.06535743176937103,0.07004433125257492,1.480385184288025
1772562298789222100,11.21522216796875,-0.1630706787109375,0.24076786637306213,1.2351586818695068
1772562298799204400,11.225204345703125,-0.21930359303951263,0.37326866388320923,0.9667990803718567
1772562298809187000,11.23518701171875,-0.23284097015857697,0.4465937316417694,0.6893078684806824
1772562298819170300,11.24517041015625,-0.1914522498846054,0.4604738652706146,0.43076735734939575
1772562298829152300,11.25515234375,-0.11000826209783554,0.4185258746147156,0.22347143292427063
1772562298839135200,11.26513525390625,-0.01270061545073986,0.34108221530914307,0.08801107853651047
1772562298849118200,11.2751181640625,0.0654170885682106,0.323525607585907,0.037748176604509354
1772562298859101200,11.28510107421875,0.11772982776165009,0.37396854162216187,0.052028313279151917
1772562298869083100,11.295083251953125,0.1536468118429184,0.4645490348339081,0.07774672657251358
1772562298879066000,11.305066162109375,0.18425612151622772,0.5649925470352173,0.09685197472572327
1772562298889049300,11.31504931640625,0.22404028475284576,0.7062162756919861,0.11361391097307205
1772562298899031000,11.325031005859374,0.2683989703655243,0.8408036231994629,0.11508717387914658
1772562298909014300,11.33501416015625,0.3012399971485138,0.9586213231086731,0.1220334991812706
1772562298918997200,11.344997314453124,0.31649112701416016,1.070462703704834,0.1344906985759735
1772562298928979000,11.35497900390625,0.31374648213386536,1.2112445831298828,0.21766148507595062
1772562298938962000,11.3649619140625,0.20805147290229797,1.1629656553268433,0.40026113390922546
1772562298948945000,11.37494482421875,0.05968436971306801,0.7102370858192444,0.502933144569397
1772562298958926800,11.3849267578125,-0.021036043763160706,0.3076326549053192,0.5631970763206482
1772562298968910000,11.39491015625,-0.06847493350505829,-0.11726457625627518,0.5098784565925598
1772562298978892800,11.404892822265625,-0.0781126469373703,-0.4460243582725525,0.3810754418373108
1772562298988875800,11.414875732421875,-0.111440509557724,-0.6353495121002197,0.21749743819236755
1772562298998858000,11.42485791015625,-0.16000191867351532,-0.7535526156425476,0.0991087406873703
1772562299008840700,11.4348408203125,-0.19239367544651031,-0.811366617679596,0.14627093076705933
1772562299018824000,11.444823974609376,-0.19142082333564758,-0.8908857107162476,0.3033076822757721
1772562299028806000,11.454805908203125,-0.11250390857458115,-1.1381471157073975,0.39234328269958496
1772562299038788900,11.464788818359375,0.07756190001964569,-1.4454245567321777,0.4135923683643341
