time,seconds_elapsed,z,y,x
1772650714379469800,0.1654697265625,0.7812736630439758,0.4747810363769531,-0.005955760832875967
1772650714399224300,0.185224365234375,0.9643751382827759,0.6113054156303406,-0.2473931461572647
1772650714409101600,0.1951015625,0.990183413028717,0.5796940326690674,-0.3452814221382141
1772650714418978800,0.204978759765625,0.9533798694610596,0.4622586667537689,-0.3611634373664856
1772650714428856000,0.21485595703125,0.922837495803833,0.3892624080181122,-0.31290650367736816
1772650714438733300,0.2247333984375,0.9060391783714294,0.35887277126312256,-0.23792500793933868
1772650714448610600,0.234610595703125,0.8867974877357483,0.3339807391166687,-0.1623326539993286
1772650714458487800,0.24448779296875,0.8727480173110962,0.32787227630615234,-0.10582929104566574
1772650714468365000,0.254364990234375,0.8699992299079895,0.3358132839202881,-0.055587101727724075
1772650714478242300,0.2642421875,0.8777875304222107,0.33947837352752686,-0.010842538438737392
1772650714488119600,0.27411962890625,0.9074136018753052,0.35230615735054016,-0.012980503961443901
1772650714497996800,0.283996826171875,0.9555178284645081,0.376740038394928,-0.08047912269830704
1772650714507874000,0.2938740234375,0.9785773158073425,0.3961344361305237,-0.21196399629116058
1772650714517751300,0.303751220703125,0.9709417223930359,0.37261682748794556,-0.3348970115184784
1772650714527628500,0.313628662109375,1.060430884361267,0.4352286756038666,-0.4984513521194458
1772650714537505800,0.323505859375,1.1459494829177856,0.5125008225440979,-0.6051968932151794
1772650714547383000,0.333383056640625,1.2226108312606812,0.591605544090271,-0.6160394549369812
1772650714557260300,0.34326025390625,1.1618314981460571,0.6371136903762817,-0.5335750579833984
1772650714567137500,0.353137451171875,1.0250016450881958,0.6036698222160339,-0.3799470067024231
1772650714577014800,0.363014892578125,0.8674030900001526,0.478751540184021,-0.19684553146362305
1772650714586892000,0.37289208984375,0.7153021693229675,0.26434415578842163,0.03695625811815262
1772650714596769300,0.382769287109375,0.6206207871437073,0.029320668429136276,0.23273280262947083
1772650714606646500,0.392646484375,0.6093201637268066,-0.1916533261537552,0.3639122545719147
1772650714616523800,0.402523681640625,0.652384877204895,-0.3718532621860504,0.39857783913612366
1772650714626401000,0.412401123046875,0.7287407517433167,-0.4975350797176361,0.3310792148113251
1772650714636278300,0.4222783203125,0.7780666947364807,-0.5925218462944031,0.20646637678146362
1772650714646141700,0.4321416015625,0.8235748410224915,-0.6306998133659363,0.1378987729549408
1772650714656032800,0.44203271484375,0.8484668135643005,-0.671015739440918,0.14248012006282806
1772650714665910000,0.451909912109375,0.8493831157684326,-0.7362236380577087,0.16431790590286255
1772650714675773700,0.461773681640625,0.8832851648330688,-0.7878402471542358,0.15469707548618317
1772650714685664500,0.47166455078125,0.8871029615402222,-0.8359444737434387,0.12430741637945175
1772650714695541800,0.481541748046875,0.8025006055831909,-0.895349383354187,0.07986827939748764
1772650714705405400,0.491405517578125,0.730573296546936,-0.9355126023292542,-0.03695625811815262
1772650714715296300,0.501296142578125,0.7101099491119385,-0.8156337738037109,-0.22021043300628662
1772650714725173800,0.511173828125,0.7346965670585632,-0.6716265678405762,-0.4271349310874939
1772650714735037200,0.521037109375,0.781884491443634,-0.5161659121513367,-0.6598677635192871
1772650714744928000,0.530927978515625,0.8412894010543823,-0.46363306045532227,-0.8507575392723083
1772650714754805500,0.540805419921875,1.0155335664749146,-0.2154763638973236,-1.074938416481018
1772650714764669000,0.5506689453125,1.5585768222808838,0.7478297352790833,-1.8406355381011963
1772650714774560000,0.56056005859375,2.51653790473938,2.2549426555633545,-2.776758909225464
1772650714784437200,0.570437255859375,3.1250946521759033,3.949127435684204,-2.895263195037842
1772650714794300700,0.58030078125,2.6101503372192383,3.228633165359497,-2.030303478240967
1772650714804191700,0.590191650390625,1.333632230758667,0.4462239146232605,-0.8570187091827393
1772650714814069000,0.600069091796875,0.3584146201610565,-1.4170129299163818,-0.09575030952692032
1772650714823932400,0.609932373046875,-0.11942064017057419,-1.7221311330795288,0.18997350335121155
1772650714833823500,0.619823486328125,-0.3032856583595276,-1.4765704870224,0.31031039357185364
1772650714843700700,0.62970068359375,-0.16721943020820618,-1.2284138202667236,0.4049917459487915
1772650714853564200,0.639564208984375,0.0844496339559555,-1.1909993886947632,0.5234960913658142
1772650714863455200,0.649455322265625,0.217308908700943,-1.0098832845687866,0.6491779088973999
1772650714873332500,0.65933251953125,0.241742804646492,-0.6994200944900513,0.7957812547683716
1772650714883196000,0.66919580078125,0.06413896381855011,-0.5349494814872742,1.060125470161438
1772650714893087000,0.6790869140625,-0.23655059933662415,-0.5932853817939758,1.3582189083099365
1772650714902964200,0.688964111328125,-0.45706647634506226,-0.5506787896156311,1.5298669338226318
1772650714912827600,0.69882763671875,-0.5309789776802063,-0.35200074315071106,1.6129422187805176
1772650714922718700,0.70871875,-0.5691569447517395,-0.21288026869297028,1.6686819791793823
1772650714932596000,0.718595947265625,-0.5870242118835449,-0.2101314514875412,1.6564650535583496
1772650714942459400,0.72845947265625,-0.6050441861152649,-0.3179459869861603,1.5484977960586548
1772650714952350500,0.7383505859375,-0.6294780969619751,-0.4155288338661194,1.3718101978302002
1772650714962227700,0.748227783203125,-0.6540647149085999,-0.3897205591201782,1.1749646663665771
1772650714972091400,0.75809130859375,-0.6897992491722107,-0.3255815804004669,0.999346137046814
1772650714981982200,0.767982177734375,-0.7595885396003723,-0.2695363461971283,0.8298360109329224
1772650714991859500,0.777859375,-0.8898517489433289,-0.2686200737953186,0.6565080881118774
1772650715001723100,0.78772314453125,-1.090362310409546,-0.367730051279068,0.5844281315803528
1772650715011614200,0.7976142578125,-1.2227635383605957,-0.4077405333518982,0.48547086119651794
1772650715021491500,0.807491455078125,-1.355470061302185,-0.5089884996414185,0.32542887330055237
1772650715031355000,0.81735498046875,-1.464048147201538,-0.6513158679008484,0.16630317270755768
1772650715041246000,0.827245849609375,-1.5674340724945068,-0.7908945083618164,-0.07864658534526825
1772650715051123200,0.837123291015625,-1.602405071258545,-0.7908945083618164,-0.3871244490146637
1772650715060986600,0.846986572265625,-1.543152928352356,-0.6342121958732605,-0.6792621612548828
1772650715070877700,0.856877685546875,-1.3979239463806152,-0.34375429153442383,-0.90909343957901
1772650715080755000,0.8667548828125,-1.2375766038894653,-0.013591351918876171,-1.0361496210098267
1772650715090618600,0.87661865234375,-1.1673290729522705,0.28816720843315125,-1.0213366746902466
1772650715100509700,0.886509765625,-1.1192249059677124,0.5609105229377747,-0.9168817400932312
1772650715110386700,0.89638671875,-1.1131163835525513,0.7598940134048462,-0.7670714259147644
1772650715120250400,0.90625048828125,-1.167176365852356,0.8492304086685181,-0.5572454333305359
1772650715130141400,0.916141357421875,-1.2180293798446655,0.8321266770362854,-0.32161107659339905
1772650715140018700,0.926018798828125,-1.2413944005966187,0.7507312893867493,-0.10353861004114151
1772650715149896000,0.93589599609375,-1.283237338066101,0.6844543814659119,-0.0012216945178806782
1772650715159773200,0.945773193359375,-1.2833900451660156,0.6762079000473022,-0.028098974376916885
1772650715169650400,0.955650390625,-1.2180293798446655,0.7411104440689087,-0.15057384967803955
1772650715179527700,0.965527587890625,-1.0911259651184082,0.8322793841362,-0.3321481943130493
1772650715189405000,0.975405029296875,-0.9935430884361267,0.8988617658615112,-0.5318952798843384
1772650715199282200,0.9852822265625,-0.9127585291862488,0.9381086826324463,-0.7511894106864929
1772650715209145900,0.995145751953125,-0.8133431077003479,1.0083560943603516,-0.9374978542327881
1772650715219037000,1.005036865234375,-0.7299624681472778,1.0934165716171265,-1.0201148986816406
1772650715228914200,1.0149140625,-0.6971294283866882,1.1893196105957031,-0.9932376146316528
1772650715238777600,1.024777587890625,-0.6832326650619507,1.2780451774597168,-0.9017632603645325
1772650715248668700,1.034668701171875,-0.730573296546936,1.3021736145019531,-0.7699729800224304
1772650715258546000,1.0445458984375,-0.8622109293937683,1.259719729423523,-0.5960342288017273
1772650715268409300,1.054409423828125,-1.0074398517608643,1.148698329925537,-0.3793361485004425
1772650715278300400,1.064300537109375,-1.1360231637954712,1.0304993391036987,-0.13514995574951172
1772650715288177700,1.074177734375,-1.2345223426818848,0.8141067028045654,0.12995775043964386
1772650715298041300,1.084041259765625,-1.2313153743743896,0.5908420085906982,0.37704548239707947
1772650715307932400,1.093932373046875,-0.996444582939148,0.5302154421806335,0.5015056133270264
1772650715317809700,1.1038095703125,-0.6676560640335083,0.6348230242729187,0.6041279435157776
1772650715327673000,1.113673095703125,-0.32817769050598145,0.846939742565155,0.7293516397476196
1772650715337564200,1.123564208984375,-0.08918370306491852,1.0410364866256714,0.7869240045547485
1772650715347441400,1.13344140625,0.21440738439559937,1.5005463361740112,0.8470924496650696
1772650715357304800,1.143304931640625,0.6722373962402344,2.169424057006836,1.2094775438308716
1772650715367196000,1.15319580078125,0.8872556686401367,2.2673122882843018,1.9082868099212646
1772650715377073200,1.1630732421875,0.5435013771057129,1.6257699728012085,2.1188764572143555
1772650715386936800,1.172936767578125,0.4349232614040375,0.5439594984054565,1.4400724172592163
1772650715396827600,1.18282763671875,0.5616740584373474,-0.15530791878700256,0.605960488319397
1772650715406705000,1.192704833984375,0.11835165321826935,-0.6265766024589539,0.1757712960243225
1772650715416568600,1.202568603515625,-0.5856497883796692,-0.9652913808822632,-0.03924693539738655
1772650715426459400,1.21245947265625,-1.2203201055526733,-1.0424108505249023,-0.3268032968044281
1772650715436337000,1.2223369140625,-1.5312414169311523,-0.9393303990364075,-0.5783196687698364
1772650715446214100,1.232214111328125,-1.7250326871871948,-0.793337881565094,-0.5909947156906128
1772650715456091400,1.24209130859375,-1.6853275299072266,-0.5934380888938904,-0.35795649886131287
1772650715465968600,1.25196875,-1.3577607870101929,-0.28755635023117065,-0.022906772792339325
1772650715475832000,1.26183203125,-0.8959602117538452,-0.06902574002742767,0.27411770820617676
1772650715485723100,1.27172314453125,-0.4384356141090393,-0.06917845457792282,0.4610369801521301
1772650715495600400,1.281600341796875,0.049020491540431976,-0.2289150059223175,0.4556920528411865
1772650715505464000,1.291464111328125,0.4080459773540497,-0.30786702036857605,0.24968381226062775
1772650715515355000,1.30135498046875,0.8116632699966431,-0.2533488869667053,-0.08490777015686035
1772650715525232400,1.311232421875,1.155417561531067,-0.04810422286391258,-0.3949127495288849
1772650715535095800,1.321095703125,1.346612811088562,0.11835165321826935,-0.6578825116157532
1772650715544987000,1.33098681640625,1.3837217092514038,0.20066332817077637,-0.8582404255867004
1772650715554864000,1.340864013671875,1.3441693782806396,0.1560714691877365,-0.9517000317573547
1772650715564727600,1.3507275390625,1.2342169284820557,0.20707722008228302,-0.9188669919967651
1772650715574618600,1.36061865234375,1.1169341802597046,0.27411770820617676,-0.777303159236908
1772650715584495900,1.370495849609375,1.0259180068969727,0.3843756318092346,-0.6018372774124146
1772650715594359600,1.380359619140625,0.9842276573181152,0.5028799772262573,-0.4086568057537079
1772650715604250600,1.390250732421875,0.9330691695213318,0.5931326746940613,-0.22524993121623993
1772650715614127900,1.4001279296875,0.7994463443756104,0.6293253898620605,-0.037567105144262314
1772650715623991300,1.4099912109375,0.6036698222160339,0.5418215394020081,0.1575985997915268
1772650715633882400,1.41988232421875,0.40850409865379333,0.4524851143360138,0.402395635843277
1772650715643759600,1.429759521484375,0.25121092796325684,0.3764346241950989,0.6925480961799622
1772650715653623000,1.439623046875,0.13988402485847473,0.2973299026489258,0.9168817400932312
1772650715663514000,1.44951416015625,0.18081079423427582,0.17592400312423706,1.0573766231536865
1772650715673391400,1.459391357421875,0.353985995054245,0.1620272397994995,1.1662601232528687
1772650715683255000,1.469255126953125,0.5004366040229797,0.07971556484699249,1.1242643594741821
1772650715693145900,1.479145751953125,0.5004366040229797,-0.11056335270404816,0.9897252917289734
1772650715703023400,1.4890234375,0.4772244095802307,-0.2620534598827362,0.8139539957046509
1772650715712900600,1.498900634765625,0.476308137178421,-0.35322242975234985,0.670404851436615
1772650715722777900,1.50877783203125,0.42576053738594055,-0.4121691882610321,0.543806791305542
1772650715732655000,1.518655029296875,0.3370349705219269,-0.6565080881118774,0.35948359966278076
1772650715742532400,1.528532470703125,0.41537612676620483,-0.5757235288619995,0.3429907262325287
1772650715752409600,1.53840966796875,0.45080527663230896,-0.5650337338447571,0.30435463786125183
1772650715762286800,1.548286865234375,0.3943018913269043,-0.6994200944900513,0.24632415175437927
1772650715772164400,1.558164306640625,0.3211529552936554,-0.7682931423187256,0.23502348363399506
1772650715782041600,1.56804150390625,0.3318427801132202,-0.7241594195365906,0.18081079423427582
1772650715791918800,1.5779189453125,0.34573954343795776,-0.6784985661506653,0.0910162404179573
1772650715801782300,1.5877822265625,0.34421244263648987,-0.6711684465408325,-0.005955760832875967
1772650715811673300,1.59767333984375,0.30435463786125183,-0.6598677635192871,-0.09544488787651062
1772650715821550600,1.607550537109375,0.30313295125961304,-0.5975613594055176,-0.21410197019577026
1772650715831414300,1.617414306640625,0.36971530318260193,-0.47325390577316284,-0.279920756816864
1772650715841305300,1.627305419921875,0.4127800464630127,-0.3671191930770874,-0.26403874158859253
1772650715851182600,1.6371826171875,0.42102646827697754,-0.32161107659339905,-0.3127537965774536
1772650715861046000,1.6470458984375,0.5609105229377747,-0.09300149232149124,-0.5931326746940613
1772650715870937000,1.65693701171875,0.8828269839286804,0.44820916652679443,-1.1034955978393555
1772650715880814300,1.666814453125,1.1778662204742432,0.7957812547683716,-1.4412940740585327
1772650715890678000,1.676677978515625,1.296217918395996,1.1494618654251099,-1.4481661319732666
1772650715900568800,1.68656884765625,1.513068675994873,1.5286452770233154,-1.4750434160232544
1772650715910446300,1.6964462890625,1.4950486421585083,1.2212363481521606,-1.7873390913009644
1772650715920309800,1.706309814453125,1.2685770988464355,0.61313796043396,-1.9431051015853882
1772650715930200800,1.716200927734375,0.7207997441291809,0.2214321345090866,-1.4564125537872314
1772650715940078000,1.726078125,0.003359660040587187,-0.183865025639534,-0.7973083853721619
1772650715949941500,1.73594140625,-0.44515493512153625,-0.6520794630050659,-0.21150586009025574
1772650715959832600,1.74583251953125,-0.7873821258544922,-1.1601516008377075,0.46928340196609497
1772650715969709800,1.755709716796875,-1.0069817304611206,-1.5729316473007202,1.0390511751174927
1772650715979573500,1.765573486328125,-1.0619579553604126,-1.6418046951293945,1.301868200302124
1772650715989464600,1.775464599609375,-1.1186140775680542,-1.5390297174453735,1.2873605489730835
1772650715999341800,1.785341796875,-1.107618808746338,-1.3046170473098755,1.221083641052246
1772650716009205200,1.795205322265625,-0.9462023973464966,-0.9006943106651306,1.0996778011322021
1772650716019096300,1.805096435546875,-0.7302678823471069,-0.47355934977531433,0.8719844818115234
1772650716028973600,1.8149736328125,-0.5396835803985596,-0.2492256760597229,0.5363239049911499
1772650716038837200,1.824837158203125,-0.4291202127933502,-0.20157960057258606,0.17897824943065643
1772650716048728300,1.834728271484375,-0.3949127495288849,-0.22754059731960297,-0.11590826511383057
1772650716058605600,1.84460546875,-0.399952232837677,-0.22906772792339325,-0.3432961702346802
1772650716068469000,1.854468994140625,-0.3826957941055298,-0.12766708433628082,-0.48928865790367126
1772650716078360000,1.864360107421875,-0.3865135908126831,-0.0030542362947016954,-0.5714476108551025
1772650716088237300,1.8742373046875,-0.453095942735672,-0.029778804630041122,-0.5399889945983887
1772650716098101000,1.88410107421875,-0.5344913601875305,-0.15286453068256378,-0.41949936747550964
1772650716107992000,1.893991943359375,-0.5580089688301086,-0.2533488869667053,-0.2982461750507355
1772650716117869300,1.903869384765625,-0.5126535892486572,-0.2608317732810974,-0.22280654311180115
1772650716127732700,1.913732666015625,-0.42423340678215027,-0.18081079423427582,-0.20249587297439575
1772650716137623800,1.923623779296875,-0.3304683566093445,-0.04153761267662048,-0.19974705576896667
1772650716147501000,1.9335009765625,-0.2629697322845459,0.12659808993339539,-0.1847812980413437
1772650716157364700,1.94336474609375,-0.22158484160900116,0.2826695740222931,-0.15622419118881226
1772650716167255800,1.953255859375,-0.16752485930919647,0.40636613965034485,-0.10796725004911423
1772650716177133000,1.963133056640625,-0.1047603040933609,0.5161659121513367,-0.05528167635202408
1772650716186996500,1.97299658203125,-0.06337540596723557,0.5680879354476929,-0.012675080448389053
1772650716196887600,1.982887451171875,-0.045202698558568954,0.5867187976837158,0.0038177953101694584
1772650716206764800,1.992764892578125,-0.03955236077308655,0.5903838872909546,-0.051463883370161057
1772650716216642000,2.00264208984375,-0.0778830274939537,0.5512896776199341,-0.14935214817523956
1772650716226519600,2.01251953125,-0.10552386194467545,0.5357130169868469,-0.26632940769195557
1772650716236396800,2.022396728515625,-0.11300674080848694,0.5502206683158875,-0.39949411153793335
1772650716246260200,2.03226025390625,-0.11606097966432571,0.5560237169265747,-0.5312843918800354
1772650716256151300,2.0421513671875,-0.1044548824429512,0.6113054156303406,-0.677582323551178
1772650716266028500,2.052028564453125,-0.04428642615675926,0.7290462255477905,-0.8451071977615356
1772650716275892200,2.061892333984375,0.04031591862440109,0.8768712282180786,-1.0469921827316284
1772650716285783300,2.071783203125,0.06780404597520828,0.8609892129898071,-1.2027583122253418
1772650716295660500,2.08166064453125,-0.007330167107284069,0.6449019908905029,-1.2395617961883545
1772650716305524000,2.09152392578125,-0.1623326539993286,0.3248180150985718,-1.0726478099822998
1772650716315415000,2.1014150390625,-0.30633988976478577,0.06368082761764526,-0.8037222623825073
1772650716325292300,2.111292236328125,-0.37979426980018616,-0.08780929446220398,-0.5341859459877014
1772650716335169800,2.121169677734375,-0.39506545662879944,-0.13973131775856018,-0.3077143132686615
1772650716345047000,2.131047119140625,-0.39766156673431396,-0.13331741094589233,-0.12186402827501297
1772650716354924300,2.14092431640625,-0.409420371055603,-0.10201149433851242,0.03924693539738655
1772650716364801500,2.150801513671875,-0.43141087889671326,-0.129499614238739,0.22158484160900116
1772650716374678800,2.1606787109375,-0.4095730781555176,-0.2435753494501114,0.4178195297718048
1772650716384556300,2.170556396484375,-0.30695074796676636,-0.29061058163642883,0.5766398310661316
1772650716394419700,2.180419677734375,-0.16065283119678497,-0.19379130005836487,0.6649072170257568
1772650716404310800,2.190310791015625,0.029320668429136276,0.06688777357339859,0.70797199010849
1772650716414188000,2.20018798828125,0.2880144715309143,0.580763041973114,0.6649072170257568
1772650716424051700,2.2100517578125,0.5450284481048584,1.1894723176956177,0.554649293422699
1772650716433942500,2.219942626953125,0.70797199010849,1.72823965549469,0.6103891134262085
1772650716443820000,2.229820068359375,0.6317687630653381,2.068634271621704,1.08074152469635
1772650716453683500,2.239683349609375,0.3439069986343384,1.4203726053237915,1.5396405458450317
1772650716463574500,2.249574462890625,-0.029626091942191124,0.0791047215461731,1.242616057395935
1772650716473451800,2.25945166015625,-0.7275190949440002,-1.2241379022598267,0.5320479869842529
1772650716483315500,2.2693154296875,-1.1627477407455444,-1.8479657173156738,-0.2641914486885071
1772650716493206300,2.279206298828125,-1.1289983987808228,-1.4808465242385864,-0.7916580438613892
1772650716503083800,2.289083740234375,-1.0462286472320557,-1.1966497898101807,-1.1809204816818237
1772650716512947200,2.298947265625,-0.8176190853118896,-0.925128161907196,-1.3182083368301392
1772650716522838300,2.30883837890625,-0.5777087807655334,-0.6894938349723816,-1.1598461866378784
1772650716532715500,2.318715576171875,-0.4434750974178314,-0.49860408902168274,-0.823116660118103
1772650716542579200,2.3285791015625,-0.3608580231666565,-0.35765108466148376,-0.3561239540576935
1772650716552470000,2.338469970703125,-0.26999449729919434,-0.2605263590812683,0.09330692142248154
1772650716562347500,2.348347412109375,-0.10002623498439789,-0.08139539510011673,0.4140017330646515
1772650716572211000,2.3582109375,0.09895725548267365,0.12995775043964386,0.5891621708869934
1772650716582102000,2.36810205078125,0.1916533261537552,0.11972606182098389,0.6981984376907349
1772650716591979300,2.377979248046875,0.18798823654651642,-0.06902574002742767,0.7539382576942444
1772650716601843000,2.387843017578125,0.13179029524326324,-0.32603973150253296,0.7369872331619263
1772650716611734000,2.397734130859375,0.08047912269830704,-0.5144860744476318,0.6479562520980835
1772650716621611300,2.407611328125,0.04932591691613197,-0.6109999418258667,0.5282301902770996
1772650716631474700,2.417474609375,0.033596597611904144,-0.6624638438224792,0.41705596446990967
1772650716641365800,2.42736572265625,0.10842538625001907,-0.6195518374443054,0.36513394117355347
1772650716651243000,2.437242919921875,0.11911521852016449,-0.6697940230369568,0.35383328795433044
1772650716661106700,2.447106689453125,0.24281178414821625,-0.5312843918800354,0.34421244263648987
1772650716670997800,2.456997802734375,0.24510246515274048,-0.5308262705802917,0.2683146595954895
1772650716680875000,2.466875,0.2761029601097107,-0.4921901822090149,0.16065283119678497
1772650716690738700,2.47673876953125,0.18371231853961945,-0.5195255875587463,0.0328330397605896
1772650716700629500,2.48662939453125,0.013133215717971325,-0.6479562520980835,-0.02092151902616024
1772650716710507000,2.496507080078125,-0.0713164210319519,-0.6620057225227356,0.0975828468799591
1772650716720370400,2.506370361328125,-0.10689827054738998,-0.6201626658439636,0.337340384721756
1772650716730261500,2.516261474609375,-0.11117420345544815,-0.5923691391944885,0.5639647245407104
1772650716740138800,2.526138671875,-0.03955236077308655,-0.5309789776802063,0.7290462255477905
1772650716750002400,2.53600244140625,0.11911521852016449,-0.4080459773540497,0.7937960028648376
1772650716759893500,2.5458935546875,0.3032856583595276,-0.29717719554901123,0.7702783942222595
1772650716769770800,2.555770751953125,0.5141806602478027,-0.1754658818244934,0.6717792749404907
1772650716779648000,2.56564794921875,0.7021689414978027,-0.05894676223397255,0.5372401475906372
1772650716789525200,2.575525146484375,0.841747522354126,0.025350160896778107,0.3906368315219879
1772650716799402500,2.585402587890625,0.9199360013008118,0.0859767496585846,0.27060532569885254
1772650716809266200,2.59526611328125,0.9225320816040039,0.12247487902641296,0.19256959855556488
1772650716819157200,2.6051572265625,0.8628217577934265,0.14217470586299896,0.1569877415895462
1772650716829034500,2.615034423828125,0.7591304183006287,0.09804098308086395,0.17210622131824493
1772650716838911700,2.624911865234375,0.6351284384727478,-0.004275931045413017,0.24586601555347443
1772650716848789000,2.6347890625,0.538919985294342,-0.09177979826927185,0.3217637836933136
1772650716858666500,2.64466650390625,0.49325916171073914,-0.12934690713882446,0.36009445786476135
1772650716868543700,2.654543701171875,0.48363831639289856,-0.12995775043964386,0.3668137788772583
1772650716878421000,2.6644208984375,0.504865288734436,-0.08735115826129913,0.33352261781692505
1772650716888298200,2.67429833984375,0.5468609929084778,-0.03008422814309597,0.2545706033706665
1772650716898162000,2.684161865234375,0.5998520255088806,-0.0006108472589403391,0.13484452664852142
1772650716908052700,2.694052734375,0.6786513328552246,0.04932591691613197,-0.013438640162348747
1772650716917930200,2.70393017578125,0.7542436718940735,0.056808795779943466,-0.21349111199378967
1772650716927793700,2.713793701171875,0.8098307251930237,0.045202698558568954,-0.43232715129852295
1772650716937684700,2.723684814453125,0.8631271719932556,-0.007024743594229221,-0.6093201637268066
1772650716947562000,2.73356201171875,0.8321266770362854,-0.18340688943862915,-0.6537593007087708
1772650716957425700,2.74342578125,0.8002098798751831,-0.3640649616718292,-0.5471664071083069
1772650716967316700,2.753316650390625,0.8241856694221497,-0.4289674758911133,-0.388651579618454
1772650716977194000,2.763194091796875,0.9657495021820068,-0.28068432211875916,-0.28847262263298035
1772650716987057700,2.7730576171875,1.1796988248825073,-0.00259610079228878,-0.27381229400634766
1772650716996948500,2.782948486328125,1.206423282623291,0.22616620361804962,-0.16095824539661407
1772650717006826000,2.792825927734375,1.1796988248825073,0.057114217430353165,0.06444438546895981
1772650717016689400,2.802689453125,1.1923738718032837,-0.022754060104489326,-0.16691401600837708
1772650717026580500,2.81258056640625,1.2913310527801514,0.10323318839073181,-0.5798467397689819
1772650717036457700,2.822457763671875,1.3226370811462402,0.15546062588691711,-0.7776085734367371
1772650717046321400,2.8323212890625,1.23940908908844,0.25258535146713257,-0.9594883322715759
1772650717056212500,2.84221240234375,1.0828794240951538,0.11315945535898209,-1.01370108127594
1772650717066089700,2.85208984375,0.8226585388183594,-0.16172181069850922,-0.8003626465797424
1772650717075953200,2.861953125,0.5586197972297668,-0.3752129375934601,-0.40575528144836426
1772650717085844200,2.87184423828125,0.2644968628883362,-0.46134239435195923,-0.020463382825255394
1772650717095721700,2.8817216796875,-0.013133215717971325,-0.603058934211731,0.3223746418952942
1772650717105585200,2.891585205078125,-0.2357870489358902,-0.6583406329154968,0.5491516590118408
1772650717115476200,2.901476318359375,-0.4121691882610321,-0.6200099587440491,0.6644490957260132
1772650717125353500,2.911353515625,-0.543195903301239,-0.616802990436554,0.6861341595649719
1772650717135217200,2.921217041015625,-0.6032116413116455,-0.6009209752082825,0.5395308136940002
1772650717145108200,2.931108154296875,-0.5772506594657898,-0.5036435723304749,0.2011214643716812
1772650717154985500,2.9409853515625,-0.5517477989196777,-0.34940463304519653,-0.17928366363048553
1772650717164849000,2.950848876953125,-0.5376983284950256,-0.20707722008228302,-0.43583953380584717
1772650717174740000,2.960739990234375,-0.4946335554122925,0.06352811306715012,-0.420873761177063
1772650717184617200,2.9706171875,-0.6453601121902466,0.017409147694706917,-0.13942588865756989
1772650717194481000,2.98048095703125,-0.7944068312644958,-0.10811996459960938,0.3274141252040863
1772650717204372000,2.9903720703125,-0.8819107413291931,-0.16844113171100616,0.7895200848579407
1772650717214249200,3.000249267578125,-0.870151937007904,-0.12400199472904205,1.1387720108032227
1772650717224113000,3.01011279296875,-0.813648521900177,0.02504473738372326,1.3513468503952026
1772650717234004000,3.02000390625,-0.735460102558136,0.20005246996879578,1.424495816230774
1772650717243881200,3.029881103515625,-0.5974085927009583,0.4428642690181732,1.366618037223816
1772650717253744600,3.03974462890625,-0.43385425209999084,0.7081246972084045,1.185807228088379
1772650717263635700,3.0496357421875,-0.3032856583595276,0.8988617658615112,0.9240592122077942
1772650717273513000,3.059512939453125,-0.2226538211107254,1.0033166408538818,0.6241331696510315
1772650717283376600,3.069376708984375,-0.1841704547405243,0.9927794933319092,0.3384093940258026
1772650717293267700,3.079267822265625,-0.19501298666000366,0.9187142848968506,0.07696675509214401
1772650717303145000,3.08914501953125,-0.20310671627521515,0.8509102463722229,-0.16859383881092072
1772650717313008600,3.099008544921875,-0.2241809368133545,0.7911999225616455,-0.4121691882610321
1772650717322899700,3.108899658203125,-0.2790044844150543,0.7496622800827026,-0.6639909744262695
1772650717332777000,3.11877685546875,-0.33230090141296387,0.7716528177261353,-0.8669449687004089
1772650717342640400,3.128640380859375,-0.34757208824157715,0.8753440976142883,-1.0176715850830078
1772650717352531500,3.138531494140625,-0.35138988494873047,1.0350806713104248,-1.1283875703811646
1772650717362409000,3.148408935546875,-0.38941511511802673,1.1998567581176758,-1.2340642213821411
1772650717372272400,3.1582724609375,-0.4274403750896454,1.3056859970092773,-1.353484869003296
1772650717382163500,3.16816357421875,-0.5037962794303894,1.2094775438308716,-1.397007703781128
1772650717392040700,3.178040771484375,-0.7368345260620117,0.7192726731300354,-1.2604832649230957
1772650717401904400,3.187904296875,-1.0448542833328247,0.15149012207984924,-1.0489774942398071
1772650717411795500,3.19779541015625,-1.267202615737915,-0.2176143378019333,-0.8799254894256592
1772650717421672700,3.207672607421875,-1.3850961923599243,-0.4146125912666321,-0.7843278646469116
1772650717431536000,3.2175361328125,-1.4257174730300903,-0.5448757410049438,-0.753480076789856
1772650717441427200,3.22742724609375,-1.4335057735443115,-0.7247702479362488,-0.7365291118621826
1772650717451304400,3.237304443359375,-1.3272184133529663,-0.7751652002334595,-0.7166765332221985
1772650717461168000,3.247168212890625,-1.1830583810806274,-0.8032641410827637,-0.6757497787475586
1772650717471059200,3.25705908203125,-0.9918632507324219,-0.7727217674255371,-0.6026008129119873
1772650717480936400,3.2669365234375,-0.7385143637657166,-0.6209262609481812,-0.4909684956073761
1772650717490800000,3.276800048828125,-0.48333290219306946,-0.5619794726371765,-0.4143071472644806
1772650717500691200,3.286691162109375,-0.2551814317703247,-0.5412106513977051,-0.4043808877468109
1772650717510568400,3.296568359375,-0.04199574887752533,-0.40010493993759155,-0.36192700266838074
1772650717520431900,3.306431884765625,0.12904147803783417,-0.18401773273944855,-0.1769929975271225
1772650717530323000,3.316322998046875,0.2999260127544403,0.05512896552681923,0.23059484362602234
1772650717540200200,3.3262001953125,0.5515950918197632,0.6247440576553345,0.9881981611251831
1772650717550063900,3.33606396484375,0.8648070096969604,1.5796509981155396,2.314958333969116
1772650717559955000,3.345954833984375,1.1662601232528687,2.30228328704834,3.2707817554473877
1772650717569832200,3.355832275390625,1.1977187395095825,2.6312246322631836,2.664363145828247
1772650717579695900,3.36569580078125,1.3443220853805542,2.464157819747925,1.2229162454605103
1772650717589586700,3.375586669921875,1.4174710512161255,1.9777706861495972,0.03649812191724777
1772650717599464200,3.385464111328125,0.934290885925293,0.5025745630264282,-0.3271087110042572
1772650717609327600,3.39532763671875,0.312142938375473,-1.0781453847885132,-0.453095942735672
1772650717619218700,3.40521875,-0.13453911244869232,-1.7816886901855469,-0.6209262609481812
1772650717629096000,3.415095947265625,-0.47294849157333374,-1.6280606985092163,-0.7458444833755493
1772650717638959600,3.424959716796875,-0.7044596076011658,-1.2739219665527344,-0.7069029808044434
1772650717648850700,3.4348505859375,-0.8012788891792297,-0.9639169573783875,-0.5318952798843384
1772650717658728000,3.44472802734375,-0.7504258751869202,-0.733169436454773,-0.39766156673431396
1772650717668591600,3.454591552734375,-0.5934380888938904,-0.5421269536018372,-0.4253024160861969
1772650717678482700,3.464482666015625,-0.3503209054470062,-0.2629697322845459,-0.48669254779815674
1772650717688360000,3.47435986328125,-0.12843063473701477,-0.02214321307837963,-0.4491254389286041
1772650717698223400,3.484223388671875,-0.010689826682209969,0.055587101727724075,-0.37047886848449707
1772650717708114400,3.494114501953125,-0.01954711228609085,0.04443913698196411,-0.2777827978134155
1772650717717992000,3.503991943359375,-0.10048437118530273,-0.07360709458589554,-0.18462859094142914
1772650717727855400,3.51385546875,-0.2357870489358902,-0.3239017724990845,-0.09773556143045425
1772650717737746400,3.523746337890625,-0.3605526089668274,-0.6676560640335083,0.024433890357613564
1772650717747623700,3.533623779296875,-0.40712970495224,-0.9130639433860779,0.20738264918327332
1772650717757487400,3.5434873046875,-0.38910970091819763,-0.9871291518211365,0.4291202127933502
1772650717767378400,3.55337841796875,-0.31886225938796997,-0.9208522439002991,0.6426113247871399
1772650717777255700,3.563255615234375,-0.19027891755104065,-0.7588250041007996,0.8163973689079285
1772650717787119000,3.573119140625,-0.09437590092420578,-0.6587987542152405,0.8739697337150574
1772650717797010200,3.58301025390625,0.0050394898280501366,-0.5609105229377747,0.8365553021430969
1772650717806887700,3.5928876953125,0.09697200357913971,-0.44255882501602173,0.7284353375434875
1772650717816751000,3.602751220703125,0.1432436853647232,-0.3527642786502838,0.5433486104011536
1772650717826642200,3.61264208984375,0.15378080308437347,-0.3052709102630615,0.35169529914855957
1772650717836519400,3.62251953125,0.16095824539661407,-0.2545706033706665,0.18157434463500977
1772650717846383000,3.632383056640625,0.1707318127155304,-0.17867282032966614,0.06581879407167435
1772650717856274200,3.642274169921875,0.18218518793582916,-0.13056860864162445,0.03436015918850899
1772650717866151400,3.6521513671875,0.22479179501533508,-0.04886778071522713,0.046729814261198044
1772650717876015000,3.66201513671875,0.28694549202919006,0.045355409383773804,0.07864658534526825
1772650717885906000,3.671906005859375,0.36788275837898254,0.11346487700939178,0.13026317954063416
1772650717895783400,3.681783447265625,0.4500417113304138,0.15622419118881226,0.20845162868499756
1772650717905646800,3.691646728515625,0.5225798487663269,0.1707318127155304,0.29717719554901123
1772650717915538000,3.701537841796875,0.5795413255691528,0.16996824741363525,0.3755183517932892
1772650717925415400,3.71141552734375,0.6274928450584412,0.19363857805728912,0.45508119463920593
1772650717935278800,3.72127880859375,0.6502469182014465,0.265718549489975,0.49081575870513916
1772650717945170000,3.731169921875,0.6116108298301697,0.30191126465797424,0.5053234100341797
1772650717955047200,3.741047119140625,0.527161180973053,0.279920756816864,0.5166240930557251
1772650717964924400,3.75092431640625,0.4494308829307556,0.22876229882240295,0.504865288734436
1772650717974802000,3.760802001953125,0.38788801431655884,0.10613471269607544,0.44546034932136536
1772650717984679200,3.77067919921875,0.33978378772735596,-0.0656660795211792,0.32939937710762024
1772650717994542600,3.78054248046875,0.34940463304519653,-0.21303297579288483,0.14553436636924744
1772650718004433700,3.79043359375,0.4372139275074005,-0.2564031481742859,-0.1322484314441681
1772650718014311000,3.800310791015625,0.6183301210403442,-0.208298921585083,-0.504865288734436
1772650718024174600,3.810174560546875,0.8290724158287048,-0.1513374149799347,-0.9071081876754761
1772650718034065700,3.820065673828125,1.0279031991958618,-0.14034216105937958,-1.2563600540161133
1772650718043943000,3.82994287109375,1.2516260147094727,-0.12888877093791962,-1.466949701309204
1772650718053806600,3.839806640625,1.472294569015503,-0.07803573459386826,-1.5006990432739258
1772650718063697700,3.84969775390625,1.7436635494232178,0.0656660795211792,-1.2995775938034058
1772650718073575000,3.859574951171875,2.192636251449585,0.60825115442276,-0.903901219367981
1772650718083438300,3.869438232421875,2.6248106956481934,1.796349048614502,0.12171131372451782
1772650718093329400,3.879329345703125,2.9928462505340576,2.0356485843658447,1.281252145767212
1772650718103207000,3.88920703125,2.777675151824951,1.436254620552063,1.392731785774231
1772650718113070300,3.8990703125,1.9143953323364258,0.5158604979515076,0.8574768304824829
1772650718122961400,3.90896142578125,1.0986088514328003,-0.34726667404174805,0.01954711228609085
1772650718132839000,3.9188388671875,0.6365028619766235,-0.9578084945678711,-0.9619317054748535
1772650718142702300,3.928702392578125,0.33535513281822205,-0.9981244206428528,-1.6566177606582642
1772650718152593400,3.938593505859375,-0.05528167635202408,-0.9581139087677002,-1.9015674591064453
1772650718162470700,3.948470703125,-0.35948359966278076,-0.913369357585907,-1.799556016921997
1772650718172334300,3.958334228515625,-0.5772506594657898,-0.8634325861930847,-1.5278817415237427
1772650718182225400,3.968225341796875,-0.8570187091827393,-0.9643751382827759,-1.2504043579101562
1772650718192102700,3.9781025390625,-1.0786035060882568,-1.1845855712890625,-0.8817580342292786
1772650718201966000,3.987966064453125,-1.008203387260437,-1.1955808401107788,-0.4549284875392914
1772650718211857200,3.997857177734375,-0.7977665066719055,-0.9359707236289978,-0.1751604527235031
1772650718221734700,4.007734619140625,-0.6119162440299988,-0.6004628539085388,0.04413371533155441
1772650718231612000,4.01761181640625,-0.48333290219306946,-0.30160582065582275,0.2838912606239319
1772650718241489200,4.0274892578125,-0.386208176612854,-0.09941539168357849,0.5352548956871033
1772650718251366700,4.03736669921875,-0.39078953862190247,-0.0713164210319519,0.8031114339828491
1772650718261230000,4.04722998046875,-0.45324867963790894,-0.1363716572523117,1.1205992698669434
1772650718271121200,4.05712109375,-0.5088357925415039,-0.12140589207410812,1.4209834337234497
1772650718280998400,4.066998291015625,-0.6342121958732605,-0.05405998229980469,1.5937005281448364
1772650718290862000,4.076862060546875,-0.8104416131973267,-0.049020491540431976,1.6300458908081055
1772650718300753200,4.086753173828125,-0.9390249252319336,-0.02107422985136509,1.4687821865081787
1772650718310630400,4.09663037109375,-0.982700526714325,0.0656660795211792,1.1201411485671997
1772650718320493800,4.106493896484375,-0.9582666158676147,0.2092151790857315,0.6626165509223938
1772650718330385200,4.11638525390625,-0.9069554805755615,0.35108447074890137,0.20310671627521515
1772650718340262400,4.126262451171875,-0.8918370008468628,0.3536805510520935,-0.15454435348510742
1772650718350125800,4.136125732421875,-0.9805625677108765,0.14064757525920868,-0.3512371778488159
1772650718360017000,4.146016845703125,-1.0900568962097168,-0.14034216105937958,-0.42011019587516785
1772650718369894400,4.155894287109375,-1.1299147605895996,-0.31351736187934875,-0.4399627447128296
1772650718379757800,4.1657578125,-1.0902096033096313,-0.32939937710762024,-0.4534013867378235
1772650718389649000,4.17564892578125,-1.0337063074111938,-0.256708562374115,-0.4808894991874695
1772650718399526100,4.185526123046875,-0.9970554113388062,-0.1650814712047577,-0.5083776116371155
1772650718409389800,4.195389892578125,-0.9779664874076843,-0.07146912813186646,-0.5138752460479736
1772650718419281000,4.205281005859375,-0.9303203821182251,0.02229592576622963,-0.474017471075058
1772650718429158100,4.215158203125,-0.832584798336029,0.14843589067459106,-0.38697174191474915
1772650718439021800,4.225021728515625,-0.7249229550361633,0.32817769050598145,-0.27839362621307373
1772650718448913000,4.234912841796875,-0.6552863717079163,0.45737189054489136,-0.12720894813537598
1772650718458790100,4.2447900390625,-0.6116108298301697,0.5280774831771851,-0.005650337319821119
1772650718468653600,4.254653564453125,-0.5832064151763916,0.5494571328163147,0.042759306728839874
1772650718478544600,4.264544677734375,-0.5661026835441589,0.4987567961215973,-0.012216945178806782
1772650718488422100,4.274422119140625,-0.51998370885849,0.39414918422698975,-0.15897299349308014
1772650718498285600,4.28428564453125,-0.39445462822914124,0.3124483823776245,-0.40636613965034485
1772650718508176600,4.2941767578125,-0.28404396772384644,0.16217994689941406,-0.6520794630050659
1772650718518054000,4.304053955078125,-0.2498365342617035,-0.010231691412627697,-0.8426637649536133
1772650718527931400,4.313931396484375,-0.28373855352401733,-0.17745113372802734,-0.9483403563499451
1772650718537808600,4.32380859375,-0.3381039500236511,-0.2748812735080719,-0.9851438999176025
1772650718547686000,4.333685791015625,-0.38193225860595703,-0.29229041934013367,-1.0002623796463013
1772650718557563400,4.3435634765625,-0.4056025743484497,-0.2976353168487549,-0.985602080821991
1772650718567440600,4.353440673828125,-0.40514445304870605,-0.31321191787719727,-0.9541434049606323
1772650718577318000,4.36331787109375,-0.39353835582733154,-0.3292466700077057,-0.9694145917892456
1772650718587181600,4.373181640625,-0.40636613965034485,-0.3239017724990845,-1.035691499710083
1772650718597072600,4.38307275390625,-0.4369085133075714,-0.4169032573699951,-1.0731059312820435
1772650718606950000,4.392949951171875,-0.39292749762535095,-0.4106420576572418,-1.068982720375061
1772650718616813300,4.402813232421875,-0.2745758295059204,-0.27350685000419617,-0.9865183234214783
1772650718626704400,4.412704345703125,-0.11239589750766754,-0.06704048812389374,-0.9000834226608276
1772650718636582000,4.422581787109375,0.16966283321380615,0.3067980408668518,-0.6143596172332764
1772650718646445300,4.4324453125,0.580763041973114,0.9234483242034912,-0.27060532569885254
1772650718656336400,4.44233642578125,1.042563557624817,1.353790283203125,0.27091076970100403
1772650718666213600,4.452213623046875,1.3588297367095947,1.380972981452942,1.2177239656448364
1772650718676077300,4.462077392578125,1.3227897882461548,1.238340139389038,2.565711259841919
1772650718685968400,4.471968505859375,1.0717315673828125,1.3070604801177979,3.2524561882019043
1772650718695845600,4.481845703125,0.9190196990966797,1.1821421384811401,2.5272278785705566
1772650718705709300,4.491709228515625,0.6671979427337646,0.39888325333595276,1.0407310724258423
1772650718715600100,4.50160009765625,0.45447036623954773,-0.05131116881966591,-0.6305471062660217
1772650718725477600,4.5114775390625,0.19745637476444244,-0.21333840489387512,-1.851325273513794
1772650718735341000,4.521341064453125,-0.27854636311531067,-0.5322006940841675,-2.5528833866119385
1772650718745232100,4.531232177734375,-0.8145648241043091,-0.705681324005127,-2.640692710876465
1772650718755109400,4.541109375,-1.174659252166748,-0.4987567961215973,-2.268533945083618
1772650718764973000,4.55097314453125,-1.2768235206604004,-0.16660858690738678,-1.5000882148742676
1772650718774864100,4.560864013671875,-1.031110167503357,0.08948912471532822,-0.7482879161834717
1772650718784741400,4.570741455078125,-0.5799994468688965,0.24449162185192108,-0.2764083743095398
1772650718794605000,4.58060498046875,-0.16217994689941406,0.2814478874206543,-0.04840964451432228
1772650718804496000,4.590495849609375,0.24571330845355988,0.3761292099952698,0.07269082218408585
1772650718814373400,4.600373291015625,0.5445703268051147,0.5170822143554688,0.14797775447368622
1772650718824236800,4.61023681640625,0.5961869359016418,0.5112791657447815,0.16645587980747223
1772650718834128000,4.6201279296875,0.37918344140052795,0.29626092314720154,0.09926267713308334
1772650718844005000,4.630005126953125,0.029167955741286278,-0.020463382825255394,0.04321744292974472
1772650718853868800,4.639868896484375,-0.335507869720459,-0.2987042963504791,0.034818295389413834
1772650718863760000,4.649759765625,-0.6679614782333374,-0.5056288242340088,0.08903098851442337
1772650718873637000,4.65963720703125,-0.8696937561035156,-0.5853443741798401,0.1682884246110916
1772650718883500800,4.669500732421875,-0.9950701594352722,-0.5682406425476074,0.2939702570438385
1772650718893392000,4.679391845703125,-1.0466867685317993,-0.5705313682556152,0.4682144224643707
1772650718903269000,4.68926904296875,-1.035386085510254,-0.49921491742134094,0.6578825116157532
1772650718913132800,4.6991328125,-1.0100359916687012,-0.42789849638938904,0.7783721089363098
1772650718923023600,4.709023681640625,-0.9709417223930359,-0.3449759781360626,0.8011261820793152
1772650718932901000,4.718901123046875,-0.8342646360397339,-0.19806721806526184,0.7603521347045898
1772650718942764500,4.7287646484375,-0.6284091472625732,0.020310672000050545,0.7537854909896851
1772650718952655600,4.738655517578125,-0.5364766120910645,0.011453386396169662,0.7139277458190918
1772650718962533000,4.748533203125,-0.3567348122596741,0.03680354729294777,0.7124006152153015
1772650718972410400,4.758410400390625,-0.10903623700141907,0.22937314212322235,0.638640820980072
1772650718982287600,4.76828759765625,0.22723518311977386,0.5005893111228943,0.4662291705608368
1772650718992164900,4.778164794921875,0.594507098197937,0.7646280527114868,0.19684553146362305
1772650719002028500,4.788028564453125,0.8867974877357483,0.8741224408149719,-0.018783552572131157
1772650719011919600,4.797919677734375,1.071884274482727,0.9058864712715149,-0.10262233763933182
1772650719021796900,4.807796875,1.1656492948532104,0.9116895198822021,-0.0456608310341835
1772650719031660300,4.817660400390625,1.181836724281311,0.8756495714187622,0.07589777559041977
1772650719041551600,4.827551513671875,1.1984822750091553,0.763559103012085,0.1716480851173401
1772650719051428900,4.837428955078125,1.0017894506454468,0.6267293095588684,0.3436015844345093
1772650719061306000,4.84730615234375,0.6806365847587585,0.31382277607917786,0.4622586667537689
1772650719071183400,4.857183349609375,0.3805578351020813,-0.0036650835536420345,0.44607120752334595
1772650719081060600,4.867060546875,0.23319093883037567,-0.19989976286888123,0.34192174673080444
1772650719090924300,4.87692431640625,0.2301367074251175,-0.24372805655002594,0.21089501678943634
1772650719100815400,4.8868154296875,0.2638860046863556,-0.22601348161697388,0.04153761267662048
1772650719110692600,4.896692626953125,0.32283276319503784,-0.16966283321380615,-0.18523943424224854
1772650719120556300,4.906556396484375,0.44668206572532654,-0.0787992998957634,-0.5053234100341797
1772650719130447000,4.916447021484375,0.4709632396697998,-0.20722992718219757,-0.80937260389328
1772650719140324600,4.92632470703125,0.35169529914855957,-0.49952033162117004,-0.9652913808822632
1772650719150188000,4.93618798828125,0.3249707520008087,-0.5548020005226135,-1.0770764350891113
1772650719160079000,4.9460791015625,0.44011545181274414,-0.256708562374115,-1.1144908666610718
1772650719169956400,4.955956298828125,0.6989619731903076,0.4008685052394867,-1.0926530361175537
1772650719179820000,4.965820068359375,1.0680664777755737,1.3418787717819214,-1.1448805332183838
1772650719189711000,4.975711181640625,1.5266599655151367,2.676121950149536,-1.1673290729522705
1772650719199588400,4.98558837890625,1.9719676971435547,3.778395652770996,-0.4124746024608612
1772650719209452000,4.9954521484375,1.6744850873947144,1.8407882452011108,1.2026054859161377
1772650719219343000,5.005343017578125,0.7272136807441711,-0.36788275837898254,2.1772122383117676
1772650719229220400,5.015220458984375,0.14186927676200867,-0.8926005363464355,1.9172968864440918
1772650719239083800,5.025083740234375,-0.22662433981895447,-1.1839747428894043,1.1902358531951904
1772650719248974800,5.034974853515625,-0.38101598620414734,-1.0523371696472168,0.2939702570438385
1772650719258852400,5.044852294921875,-0.23212195932865143,-0.7360709309577942,-0.5161659121513367
1772650719268715800,5.0547158203125,-0.18050536513328552,-0.8058602213859558,-0.894738495349884
1772650719278606800,5.06460693359375,-0.26067906618118286,-1.1187667846679688,-0.8617527484893799
1772650719288484000,5.074484130859375,-0.305118203163147,-1.434574842453003,-0.45889899134635925
1772650719298347800,5.08434765625,-0.305118203163147,-1.6689873933792114,0.043981000781059265
1772650719308238800,5.09423876953125,-0.3953709006309509,-1.889197826385498,0.41262730956077576
1772650719318116000,5.1041162109375,-0.5212054252624512,-1.8389556407928467,0.522885262966156
1772650719327979500,5.1139794921875,-0.7043069005012512,-1.7149536609649658,0.5230379700660706
1772650719337870600,5.12387060546875,-0.809983491897583,-1.5205515623092651,0.3946073353290558
1772650719347748000,5.133748046875,-0.8414421081542969,-1.1633585691452026,0.1375933438539505
1772650719357611500,5.143611572265625,-0.8322793841362,-0.8872556686401367,-0.09452861547470093
1772650719367502600,5.153502685546875,-0.818535327911377,-0.6351284384727478,-0.17256435751914978
1772650719377379800,5.1633798828125,-0.8078454732894897,-0.45706647634506226,-0.08399149775505066
1772650719387243500,5.173243408203125,-0.7954758405685425,-0.30603447556495667,0.055587101727724075
1772650719397134600,5.183134521484375,-0.7901309132575989,-0.2160872220993042,0.1429382562637329
1772650719407011800,5.19301171875,-0.7908945083618164,-0.1582094430923462,0.11865708231925964
1772650719416875500,5.20287548828125,-0.7692093849182129,-0.03497100621461868,0.018019994720816612
1772650719426766600,5.2127666015625,-0.6904101371765137,0.2596100866794586,-0.11621369421482086
1772650719436643800,5.222643798828125,-0.5971031785011292,0.5749599933624268,-0.24189551174640656
1772650719446507300,5.23250732421875,-0.43385425209999084,0.812274158000946,-0.3617742955684662
1772650719456398600,5.242398681640625,-0.23334364593029022,1.018282413482666,-0.42881476879119873
1772650719466275800,5.25227587890625,-0.1169772520661354,1.204743504524231,-0.5219689607620239
1772650719476139300,5.26213916015625,-0.07498150318861008,1.2998830080032349,-0.6794148683547974
1772650719486030300,5.2720302734375,-0.08032641559839249,1.3602041006088257,-0.8141067028045654
1772650719495907800,5.281907958984375,-0.1889045089483261,1.3684505224227905,-0.9347490072250366
1772650719505771300,5.291771240234375,-0.31412819027900696,1.353790283203125,-1.0295830965042114
1772650719515662300,5.301662353515625,-0.3239017724990845,1.4486242532730103,-1.1404517889022827
1772650719525539800,5.311539794921875,-0.33291175961494446,1.5575077533721924,-1.2041326761245728
1772650719535403300,5.3214033203125,-0.31199023127555847,1.659213900566101,-1.2041326761245728
1772650719545294300,5.33129443359375,-0.31137940287590027,1.6822733879089355,-1.164427638053894
1772650719555171600,5.341171630859375,-0.3396310806274414,1.6433318853378296,-1.0886825323104858
1772650719565035300,5.35103515625,-0.3855973184108734,1.5182608366012573,-0.9837695360183716
1772650719574926300,5.36092626953125,-0.4486673176288605,1.3110309839248657,-0.8322793841362
1772650719584803600,5.370803466796875,-0.5311316847801208,1.1112838983535767,-0.6624638438224792
1772650719594667300,5.380667236328125,-0.5809157490730286,0.9387195110321045,-0.47264307737350464
1772650719604558300,5.390558349609375,-0.6109999418258667,0.751494824886322,-0.23563432693481445
1772650719614435600,5.400435546875,-0.6342121958732605,0.5422796607017517,0.006108472589403391
1772650719624299000,5.410299072265625,-0.6267293095588684,0.38697174191474915,0.19272230565547943
1772650719634190000,5.420190185546875,-0.5691569447517395,0.26373329758644104,0.34100547432899475
1772650719644067600,5.430067626953125,-0.4940227270126343,0.22586077451705933,0.4471401870250702
1772650719653944800,5.43994482421875,-0.42728766798973083,0.1522536724805832,0.5891621708869934
1772650719663822000,5.449822021484375,-0.4181249439716339,0.06933116167783737,0.7760814428329468
1772650719673699300,5.45969921875,-0.5146388411521912,-0.0393996499478817,0.9814788103103638
1772650719683576800,5.469576904296875,-0.5239542126655579,-0.12873606383800507,1.1549594402313232
1772650719693454000,5.4794541015625,-0.3918585181236267,-0.1579040139913559,1.2155860662460327
1772650719703331300,5.489331298828125,-0.1844758689403534,-0.20707722008228302,1.2725476026535034
1772650719713195000,5.499195068359375,0.031153209507465363,-0.28755635023117065,1.2665917873382568
1772650719723086000,5.509086181640625,0.1913478970527649,-0.40422818064689636,1.2333005666732788
1772650719732963300,5.51896337890625,0.5602996349334717,-0.3996468186378479,1.142589807510376
1772650719742826800,5.52882666015625,0.7876875400543213,-0.49295374751091003,0.9374978542327881
1772650719752717800,5.5387177734375,0.7165238261222839,-0.5835118293762207,1.0587509870529175
1772650719762595300,5.54859521484375,0.6426113247871399,-0.44515493512153625,1.4922997951507568
1772650719772458800,5.558458740234375,0.5198310017585754,-0.1716480851173401,1.861404299736023
1772650719782349800,5.568349853515625,0.3706315755844116,-0.145687073469162,1.7363333702087402
1772650719792227000,5.57822705078125,0.2782409191131592,-0.5796940326690674,1.1980241537094116
1772650719802090800,5.5880908203125,0.02489202655851841,-0.862669050693512,0.32008397579193115
1772650719811981800,5.59798193359375,-0.23532891273498535,-0.7627955079078674,-0.4928010404109955
1772650719821859000,5.607859130859375,-0.41140562295913696,-0.4175141155719757,-0.9683456420898438
1772650719831722500,5.617722412109375,-0.5697677731513977,-0.09498675167560577,-1.0286667346954346
1772650719841613600,5.627613525390625,-0.6945333480834961,0.2796153426170349,-0.832584798336029
1772650719851491000,5.637490966796875,-0.6920899152755737,0.6731536984443665,-0.5894675850868225
1772650719861354500,5.6473544921875,-0.5198310017585754,1.1030374765396118,-0.42331716418266296
1772650719871245600,5.65724560546875,-0.2858765125274658,1.346307396888733,-0.3900259733200073
1772650719881122800,5.667122802734375,-0.0198525357991457,1.431673288345337,-0.5190674662590027
1772650719890986500,5.676986572265625,0.2570139765739441,1.3409624099731445,-0.7328640222549438
1772650719900877600,5.686877685546875,0.40285375714302063,1.145185947418213,-0.8864920735359192
1772650719910754800,5.6967548828125,0.4844018816947937,0.9405520558357239,-1.008203387260437
1772650719920618500,5.706618408203125,0.49142661690711975,0.7661551833152771,-1.0992196798324585
1772650719930509300,5.71650927734375,0.45737189054489136,0.5731274485588074,-1.098150610923767
1772650719940386800,5.72638671875,0.4022429287433624,0.34787750244140625,-0.9704836010932922
1772650719950250200,5.736250244140625,0.2635805904865265,0.05467082932591438,-0.765849769115448
1772650719960141300,5.746141357421875,0.10903623700141907,-0.27197974920272827,-0.5289937257766724
1772650719970018800,5.756018798828125,-0.06413896381855011,-0.45416492223739624,-0.3148917555809021
1772650719979882200,5.76588232421875,-0.28938889503479004,-0.6346703171730042,-0.10766182839870453
1772650719989773300,5.775773193359375,-0.499673068523407,-0.8212841153144836,0.11254860460758209
1772650719999650600,5.785650634765625,-0.6586460471153259,-0.8496885299682617,0.3318427801132202
1772650720009514200,5.79551416015625,-0.7699729800224304,-0.6801784038543701,0.49295374751091003
1772650720019405300,5.8054052734375,-0.7595885396003723,-0.41980478167533875,0.5890094637870789
1772650720029282600,5.815282470703125,-0.6597150564193726,-0.10094250738620758,0.6546755433082581
1772650720039146200,5.825146240234375,-0.5260922312736511,0.1847812980413437,0.7081246972084045
1772650720049037300,5.835037353515625,-0.3642176687717438,0.4159869849681854,0.7127060294151306
1772650720058914600,5.84491455078125,-0.19226416945457458,0.5676298141479492,0.6644490957260132
1772650720068791800,5.854791748046875,0.0068720318377017975,0.659562349319458,0.5821374654769897
1772650720078669300,5.86466943359375,0.23441264033317566,0.7078192830085754,0.47798797488212585
1772650720088546600,5.874546630859375,0.44820916652679443,0.7198835015296936,0.3715478479862213
1772650720098410000,5.884409912109375,0.60825115442276,0.6890357136726379,0.28373855352401733
1772650720108301300,5.89430126953125,0.6989619731903076,0.6505523324012756,0.22555534541606903
1772650720118178600,5.904178466796875,0.7415685653686523,0.6436802744865417,0.20722992718219757
1772650720128042000,5.9140419921875,0.7342383861541748,0.6801784038543701,0.24067382514476776
1772650720137933000,5.92393310546875,0.6792621612548828,0.6963658928871155,0.3179459869861603
1772650720147810300,5.933810302734375,0.5719057321548462,0.6519267559051514,0.41827765107154846
1772650720157687800,5.943687744140625,0.45889899134635925,0.5627430081367493,0.5109737515449524
1772650720167565000,5.95356494140625,0.3683409094810486,0.4468347728252411,0.5686988234519958
1772650720177442300,5.9634423828125,0.29290124773979187,0.2673983871936798,0.5844281315803528
1772650720187319600,5.973319580078125,0.2420482337474823,0.0393996499478817,0.5790832042694092
1772650720197197000,5.983197021484375,0.21532365679740906,-0.2020377367734909,0.529451847076416
1772650720207074300,5.99307421875,0.2673983871936798,-0.32603973150253296,0.3939964771270752
1772650720216937700,6.002937744140625,0.3358132839202881,-0.37444937229156494,0.22189027070999146
1772650720226829000,6.0128291015625,0.34665581583976746,-0.4227063059806824,0.07070557028055191
1772650720236706300,6.022706298828125,0.3477247953414917,-0.4411844313144684,-0.04214845970273018
1772650720246583600,6.03258349609375,0.24052110314369202,-0.5289937257766724,-0.042759306728839874
1772650720256460800,6.042460693359375,0.1522536724805832,-0.5573981404304504,-0.05100574716925621
1772650720266338000,6.052338134765625,0.22555534541606903,-0.4477510452270508,-0.11743538826704025
1772650720276201700,6.06220166015625,0.3052709102630615,-0.24449162185192108,-0.18661384284496307
1772650720286092800,6.0720927734375,0.5595360994338989,0.5815265774726868,-0.37857258319854736
1772650720295970000,6.081969970703125,1.148240089416504,2.447512149810791,-0.5242596864700317
1772650720305833700,6.091833740234375,1.96708083152771,3.6954731941223145,0.9523108601570129
1772650720315724800,6.101724853515625,1.8765227794647217,1.3742536306381226,2.4722516536712646
1772650720325602000,6.11160205078125,1.152974247932434,-0.05360184609889984,2.921224355697632
1772650720335465500,6.121465576171875,0.9016105532646179,-0.45294323563575745,2.4840104579925537
1772650720345356500,6.1313564453125,0.835180938243866,-0.6862868666648865,1.8055118322372437
1772650720355234000,6.141234130859375,0.6868977546691895,-1.103342890739441,0.9837695360183716
1772650720365097500,6.151097412109375,0.5277720093727112,-1.0298885107040405,-0.021990500390529633
1772650720374988500,6.160988525390625,0.7067502737045288,-0.18630841374397278,-0.6896465420722961
1772650720384865800,6.17086572265625,0.7398887276649475,0.23471805453300476,-0.9416210651397705
1772650720394729500,6.1807294921875,0.6099309921264648,0.0787992998957634,-0.8454126119613647
1772650720404620500,6.19062060546875,0.36360684037208557,-0.3252761662006378,-0.45477578043937683
1772650720414497800,6.200497802734375,0.1360662281513214,-0.5798467397689819,0.020310672000050545
1772650720424361200,6.210361328125,-0.02504473738372326,-0.7253811359405518,0.28373855352401733
1772650720434252500,6.22025244140625,-0.12308572232723236,-0.8617527484893799,0.42133188247680664
1772650720444129800,6.2301298828125,-0.1572931706905365,-0.8718317747116089,0.402395635843277
1772650720453993200,6.2399931640625,-0.13347013294696808,-0.8177717924118042,0.19974705576896667
1772650720463884300,6.24988427734375,-0.16111096739768982,-0.8979454636573792,-0.04749337583780289
1772650720473761500,6.259761474609375,-0.17348061501979828,-1.0266815423965454,-0.21853061020374298
1772650720483625200,6.269625244140625,-0.22021043300628662,-1.1957335472106934,-0.3199312388896942
1772650720493516300,6.279516357421875,-0.2026485800743103,-1.194664478302002,-0.3855973184108734
1772650720503393500,6.2893935546875,-0.19287502765655518,-1.0482138395309448,-0.43477052450180054
1772650720513257200,6.29925732421875,-0.20142687857151031,-0.860683798789978,-0.4327852725982666
1772650720523148300,6.309148193359375,-0.23532891273498535,-0.7041541934013367,-0.3483356535434723
1772650720533025500,6.319025634765625,-0.324054479598999,-0.6646018028259277,-0.1969982385635376
1772650720542889200,6.32888916015625,-0.44423866271972656,-0.7230904698371887,-0.0462716780602932
1772650720552780300,6.3387802734375,-0.556939959526062,-0.823727548122406,0.06917845457792282
1772650720562657500,6.348657470703125,-0.6482616662979126,-0.962695300579071,0.13499724864959717
1772650720572521000,6.35852099609375,-0.6308525204658508,-0.9833113551139832,0.1560714691877365
1772650720582412300,6.368412353515625,-0.5283828973770142,-0.8991671800613403,0.16279079020023346
1772650720592289500,6.37828955078125,-0.3849864900112152,-0.645818293094635,0.1188097894191742
1772650720602153000,6.388153076171875,-0.2495311051607132,-0.4315635859966278,0.08383878320455551
1772650720612044000,6.3980439453125,-0.18997350335121155,-0.27885177731513977,0.09269607067108154
1772650720621921500,6.407921630859375,-0.22280654311180115,-0.2298312783241272,0.15316994488239288
1772650720631785000,6.417784912109375,-0.2904578745365143,-0.21822518110275269,0.2611372172832489
1772650720641676000,6.427676025390625,-0.4002576768398285,-0.2692309319972992,0.41858309507369995
1772650720651553500,6.437553466796875,-0.5525113344192505,-0.4130854606628418,0.5599942207336426
1772650720661417000,6.4474169921875,-0.6844543814659119,-0.5340332388877869,0.6171084642410278
1772650720671308000,6.45730810546875,-0.7939487099647522,-0.5581616759300232,0.5506787896156311
1772650720681185300,6.467185302734375,-0.8617527484893799,-0.5291464328765869,0.36543938517570496
1772650720691049000,6.477049072265625,-0.9081771373748779,-0.5143333673477173,0.11453386396169662
1772650720700940000,6.48693994140625,-0.9335273504257202,-0.5638120174407959,-0.12491826713085175
1772650720710817300,6.4968173828125,-0.9225320816040039,-0.6119162440299988,-0.3220692276954651
1772650720720681000,6.506680908203125,-0.8360971808433533,-0.654370129108429,-0.46485477685928345
1772650720730572000,6.516572021484375,-0.5772506594657898,-0.5769452452659607,-0.6317687630653381
1772650720740449300,6.52644921875,-0.35597124695777893,-0.33199548721313477,-0.7339329719543457
1772650720750312700,6.536312744140625,-0.2507528066635132,-0.10140064358711243,-0.7765395641326904
1772650720760203800,6.546203857421875,-0.21929416060447693,0.06963659077882767,-0.8376243114471436
1772650720770081300,6.556081298828125,-0.22570806741714478,0.10766182839870453,-0.8788564801216125
1772650720779958500,6.56595849609375,-0.23212195932865143,0.07925742864608765,-0.8903098702430725
1772650720789835800,6.575835693359375,-0.24067382514476776,0.08383878320455551,-0.874427855014801
1772650720799713000,6.585713134765625,-0.2761029601097107,0.0528382882475853,-0.8441908955574036
1772650720809590500,6.595590576171875,-0.34421244263648987,-0.047951508313417435,-0.8023478984832764
1772650720819467800,6.6054677734375,-0.43477052450180054,-0.21822518110275269,-0.6786513328552246
1772650720829345000,6.615344970703125,-0.5305208563804626,-0.36192700266838074,-0.48104220628738403
1772650720839208700,6.625208740234375,-0.5129590034484863,-0.3778090178966522,-0.31596073508262634
1772650720849099800,6.635099853515625,-0.31351736187934875,-0.17439688742160797,-0.29412296414375305
1772650720858977000,6.64497705078125,-0.03298575058579445,0.168899267911911,-0.42453885078430176
1772650720868840700,6.6548408203125,0.2924431264400482,0.6784985661506653,-0.6502469182014465
1772650720878731800,6.664731689453125,0.6389462351799011,1.3134742975234985,-0.833195686340332
1772650720888609000,6.674609130859375,0.9181034564971924,1.7144955396652222,-0.8425110578536987
1772650720898472400,6.684472412109375,1.1488510370254517,1.650203824043274,-0.5476245880126953
1772650720908363500,6.694363525390625,1.0366077423095703,1.1149489879608154,0.07727217674255371
1772650720918241000,6.704240966796875,0.7128587365150452,0.6326850652694702,0.5948125123977661
1772650720928104400,6.7141044921875,0.37918344140052795,0.3280249834060669,0.888171911239624
1772650720937995500,6.72399560546875,-0.10048437118530273,-0.09834641218185425,1.235133171081543
1772650720947872800,6.733872802734375,-0.4840964674949646,-0.5887040495872498,1.260941505432129
1772650720957736400,6.743736328125,-0.534338653087616,-0.7350019812583923,1.0662338733673096
1772650720967627500,6.75362744140625,-0.6526902914047241,-0.7554653286933899,0.9028322696685791
1772650720977504800,6.7635048828125,-0.7721109390258789,-0.7879929542541504,0.7601994276046753
1772650720987368400,6.773368408203125,-0.6852179169654846,-0.6213843822479248,0.6299362182617188
1772650720997259500,6.783259521484375,-0.46042612195014954,-0.31473904848098755,0.5230379700660706
1772650721007136800,6.79313671875,-0.26999449729919434,-0.12400199472904205,0.4659237563610077
1772650721017014000,6.803013916015625,-0.1119377613067627,-0.14217470586299896,0.5112791657447815
1772650721026891300,6.812891357421875,0.023364907130599022,-0.2438807636499405,0.6470399498939514
1772650721036768500,6.8227685546875,0.15362808108329773,-0.37735089659690857,0.7905890941619873
1772650721046632200,6.832632080078125,0.29320669174194336,-0.4737120568752289,0.8675557971000671
1772650721056523300,6.842523193359375,0.4246915578842163,-0.5215108394622803,0.8443436026573181
1772650721066400500,6.852400390625,0.5276193022727966,-0.5193728804588318,0.751494824886322
1772650721076264200,6.86226416015625,0.603058934211731,-0.4546230733394623,0.6633801460266113
1772650721086155300,6.8721552734375,0.6436802744865417,-0.3733803927898407,0.5856497883796692
1772650721096032500,6.882032470703125,0.6539120078086853,-0.3179459869861603,0.5099047422409058
1772650721105896200,6.891896240234375,0.6442911624908447,-0.25625041127204895,0.44332239031791687
1772650721115787000,6.901787109375,0.5981721878051758,-0.3124483823776245,0.4124746024608612
1772650721125664500,6.91166455078125,0.554649293422699,-0.43446511030197144,0.453095942735672
1772650721135528000,6.92152783203125,0.49982577562332153,-0.533727765083313,0.5657972693443298
1772650721145419000,6.9314189453125,0.4556920528411865,-0.5796940326690674,0.6907155513763428
1772650721155296500,6.941296630859375,0.42667680978775024,-0.5705313682556152,0.7403468489646912
1772650721165160000,6.951159912109375,0.3836120665073395,-0.5042544007301331,0.705070436000824
1772650721175051000,6.961051025390625,0.3787252902984619,-0.34100547432899475,0.6201626658439636
1772650721184928300,6.97092822265625,0.3790307343006134,-0.14278554916381836,0.5430431962013245
1772650721194792000,6.9807919921875,0.35138988494873047,0.0035123717971146107,0.4724903404712677
1772650721204683000,6.99068310546875,0.3327590525150299,0.06245913356542587,0.4384356141090393
1772650721214560300,7.000560302734375,0.3101576864719391,0.051922015845775604,0.43049460649490356
1772650721224424000,7.010423828125,0.29229041934013367,0.052990999072790146,0.41705596446990967
1772650721234315000,7.02031494140625,0.2948864996433258,0.04978405311703682,0.3509317636489868
1772650721244192300,7.030192138671875,0.30969956517219543,-0.0022906772792339325,0.2473931461572647
1772650721254055700,7.0400556640625,0.3584146201610565,-0.07696675509214401,0.13927318155765533
1772650721263946800,7.04994677734375,0.4355340898036957,-0.22723518311977386,0.0590994730591774
1772650721273824300,7.05982421875,0.4805840849876404,-0.4811949133872986,0.030847785994410515
1772650721283687700,7.069687744140625,0.38223767280578613,-0.8124268651008606,0.061084724962711334
1772650721293578800,7.079578857421875,0.25945737957954407,-1.1257915496826172,0.0984991192817688
1772650721303456000,7.0894560546875,0.21471281349658966,-1.2352858781814575,0.23410721123218536
1772650721313319700,7.099319580078125,0.22005772590637207,-1.113879919052124,0.349251925945282
1772650721323210800,7.109210693359375,0.2951919436454773,-0.8602256774902344,0.4422534108161926
1772650721333088000,7.119087890625,0.41262730956077576,-0.5280774831771851,0.4372139275074005
1772650721342951700,7.12895166015625,0.5286883115768433,-0.265718549489975,0.26755109429359436
1772650721352842800,7.1388427734375,0.5819846987724304,-0.11392301321029663,0.19256959855556488
1772650721362720000,7.148719970703125,0.5847335457801819,-0.02351761981844902,0.18585027754306793
1772650721372583400,7.15858349609375,0.5716003179550171,0.004275931045413017,0.18646112084388733
1772650721382474500,7.168474609375,0.6719319820404053,0.1948602795600891,0.020157959312200546
1772650721392352000,7.17835205078125,0.9199360013008118,0.7014053463935852,-0.6137487888336182
1772650721402215400,7.18821533203125,1.0825740098953247,0.7649334669113159,-1.1343433856964111
1772650721412106500,7.1981064453125,0.9914051294326782,0.5822901725769043,-1.0222529172897339
1772650721421984000,7.20798388671875,0.7408050298690796,0.15897299349308014,-0.6548282504081726
1772650721431847400,7.217847412109375,0.40758782625198364,-0.32344362139701843,-0.30404922366142273
1772650721441738500,7.227738525390625,0.2692309319972992,-0.4355340898036957,-0.13514995574951172
1772650721451615700,7.23761572265625,0.2829749882221222,-0.38132140040397644,-0.046729814261198044
1772650721461479400,7.2474794921875,0.33886751532554626,-0.3599417507648468,0.09666658192873001
1772650721471370500,7.25737060546875,0.39643988013267517,-0.349251925945282,0.2707580327987671
1772650721481247700,7.267247802734375,0.4031592011451721,-0.37444937229156494,0.3701734244823456
1772650721491111200,7.277111083984375,0.3927747905254364,-0.35887277126312256,0.39949411153793335
1772650721501002500,7.28700244140625,0.41018393635749817,-0.25563958287239075,0.41415444016456604
1772650721510879700,7.296879638671875,0.43538138270378113,-0.17867282032966614,0.453095942735672
1772650721520743200,7.3067431640625,0.4405735731124878,-0.14660334587097168,0.5202891230583191
1772650721530634200,7.31663427734375,0.41797223687171936,-0.15332266688346863,0.5780141949653625
1772650721540511700,7.32651171875,0.3755183517932892,-0.16065283119678497,0.5958815217018127
1772650721550375200,7.336375244140625,0.324054479598999,-0.1850867122411728,0.5549547076225281
1772650721560266200,7.346266357421875,0.2626643180847168,-0.2513636350631714,0.44393324851989746
1772650721570143500,7.3561435546875,0.18615570664405823,-0.3080197274684906,0.2689255177974701
1772650721580021000,7.36602099609375,0.11529742181301117,-0.3710896968841553,0.12400199472904205
1772650721589898200,7.375898193359375,0.08154810965061188,-0.35474956035614014,0.05726693198084831
1772650721599775500,7.385775390625,0.029320668429136276,-0.3032856583595276,0.004886778071522713
1772650721609652700,7.39565283203125,-0.05024218559265137,-0.26968905329704285,-0.040010496973991394
1772650721619530200,7.4055302734375,-0.1104106456041336,-0.279920756816864,-0.016645587980747223
1772650721629407500,7.415407470703125,-0.13652436435222626,-0.30068957805633545,0.03634541109204292
1772650721639284700,7.42528466796875,-0.14171656966209412,-0.3220692276954651,0.10873081535100937
1772650721649162200,7.435162353515625,-0.11285403370857239,-0.41736137866973877,0.23181653022766113
1772650721659039500,7.44503955078125,-0.05421269312500954,-0.6233696341514587,0.4217900335788727
1772650721668916700,7.454916748046875,-0.05528167635202408,-0.8796200752258301,0.6224533319473267
1772650721678794000,7.4647939453125,-0.08857285231351852,-1.0795198678970337,0.7695148587226868
1772650721688671500,7.47467138671875,-0.19379130005836487,-1.0321791172027588,0.7927270531654358
1772650721698548700,7.484548828125,-0.31199023127555847,-0.8046385645866394,0.7359182238578796
1772650721708426000,7.494426025390625,-0.36452311277389526,-0.6032116413116455,0.6736118197441101
1772650721718303500,7.504303466796875,-0.3855973184108734,-0.5410579442977905,0.6517740488052368
1772650721728180700,7.5141806640625,-0.39048412442207336,-0.5818319916725159,0.6716265678405762
1772650721738058000,7.52405810546875,-0.3975088596343994,-0.6484143733978271,0.6971294283866882
1772650721747935200,7.533935302734375,-0.3915531039237976,-0.6361974477767944,0.6884248852729797
1772650721757812700,7.543812744140625,-0.40453359484672546,-0.7664605975151062,0.6603258848190308
1772650721767690000,7.55368994140625,-0.5250232219696045,-0.789061963558197,0.7379034757614136
1772650721777567200,7.563567138671875,-0.587329626083374,-0.7362236380577087,0.8130376935005188
1772650721787444700,7.57344482421875,-0.6062659025192261,-0.6714738607406616,0.747218906879425
1772650721797322000,7.583322021484375,-0.6293253898620605,-0.5373928546905518,0.6323796510696411
1772650721807199200,7.59319921875,-0.6044333577156067,-0.42133188247680664,0.5410579442977905
1772650721817063000,7.60306298828125,-0.6164975762367249,-0.2501419484615326,0.47019967436790466
1772650721826954000,7.6129541015625,-0.670404851436615,-0.08948912471532822,0.43385425209999084
1772650721836831200,7.622831298828125,-0.6988092660903931,-0.007024743594229221,0.4187358021736145
1772650721846708500,7.63270849609375,-0.6875085830688477,-0.02092151902616024,0.37948885560035706
1772650721856586000,7.6425859375,-0.6548282504081726,-0.03130592033267021,0.32313820719718933
1772650721866463200,7.652463134765625,-0.6033644080162048,-0.019394399598240852,0.2855710983276367
1772650721876340500,7.662340576171875,-0.5792359113693237,-0.07528692483901978,0.2761029601097107
1772650721886217700,7.6722177734375,-0.5642701387405396,-0.17271706461906433,0.2576248347759247
1772650721896095200,7.68209521484375,-0.5528167486190796,-0.25976279377937317,0.20722992718219757
1772650721905972500,7.691972412109375,-0.5457920432090759,-0.3374931216239929,0.15118469297885895
1772650721915849700,7.701849609375,-0.5349494814872742,-0.32726141810417175,0.08246438205242157
1772650721925727000,7.71172705078125,-0.49417543411254883,-0.16050012409687042,-0.013591351918876171
1772650721935604500,7.7216044921875,-0.3509317636489868,0.1178935244679451,-0.12140589207410812
1772650721945481700,7.731481689453125,-0.4321744441986084,0.27289602160453796,-0.17057909071445465
1772650721955359000,7.74135888671875,-0.49738237261772156,0.2408265322446823,-0.12186402827501297
1772650721965236500,7.751236572265625,-0.5212054252624512,0.17622943222522736,0.012216945178806782
1772650721975113700,7.76111376953125,-0.5045598149299622,0.01847812905907631,0.19211146235466003
1772650721984991000,7.770990966796875,-0.4637857675552368,-0.14965757727622986,0.3358132839202881
1772650721994868200,7.7808681640625,-0.40819868445396423,-0.2304421216249466,0.3906368315219879
1772650722004745700,7.790745849609375,-0.37047886848449707,-0.22372281551361084,0.3820849657058716
1772650722014623000,7.800623046875,-0.37857258319854736,-0.21349111199378967,0.36788275837898254
1772650722024486700,7.810486572265625,-0.4109475016593933,-0.18569757044315338,0.3339807391166687
1772650722034377500,7.82037744140625,-0.24036839604377747,-0.1385096162557602,0.20661908388137817
1772650722044255000,7.8302548828125,-0.4352286756038666,-0.07360709458589554,0.12873606383800507
1772650722054132200,7.84013232421875,-0.47355934977531433,-0.0853659063577652,0.06322269141674042
1772650722064009500,7.850009521484375,-0.35352784395217896,-0.15500248968601227,0.021685076877474785
1772650722073887000,7.859886962890625,-0.31229567527770996,-0.30282753705978394,0.04214845970273018
1772650722083764200,7.86976416015625,-0.296108216047287,-0.6366555690765381,0.10033166408538818
1772650722093641500,7.879641357421875,-0.2651077210903168,-0.8301414251327515,0.2098260372877121
1772650722103518700,7.889518798828125,-0.21685077250003815,-0.8713735938072205,0.23884128034114838
1772650722113396200,7.899396240234375,-0.24372805655002594,-0.8318212628364563,0.2761029601097107
1772650722123273500,7.9092734375,-0.22509720921516418,-0.5534276366233826,0.2892361879348755
1772650722133150700,7.919150634765625,-0.13026317954063416,-0.3232909142971039,0.15546062588691711
1772650722143033900,7.929033935546875,-0.07757759839296341,-0.0791047215461731,0.0656660795211792
1772650722152911000,7.9389111328125,-0.045202698558568954,-0.0030542362947016954,0.07330167293548584
1772650722162788400,7.948788330078125,-0.07375980913639069,-0.07024743407964706,0.14843589067459106
1772650722172665900,7.958665771484375,-0.17622943222522736,-0.1291942000389099,0.15744587779045105
1772650722182543000,7.968543212890625,-0.22540263831615448,-0.055587101727724075,0.2767138183116913
1772650722192420400,7.97842041015625,-0.1850867122411728,0.41736137866973877,0.5413633584976196
1772650722202297600,7.988297607421875,0.032069481909275055,0.35536038875579834,0.5972558856010437
1772650722212175000,7.998175048828125,0.05482354015111923,0.41736137866973877,0.6079457402229309
1772650722222052400,8.00805224609375,0.020005248486995697,0.23227466642856598,0.605960488319397
1772650722231915800,8.017915771484375,-0.16584503650665283,-0.25716668367385864,0.6456655263900757
1772650722241806800,8.027806884765624,-0.6882721781730652,-1.0094250440597534,0.6644490957260132
1772650722251684400,8.037684326171876,-1.1622896194458008,-1.732515573501587,0.6175665855407715
1772650722261561600,8.0475615234375,-1.476875901222229,-1.9507406949996948,0.478751540184021
1772650722271438800,8.05743896484375,-1.5371971130371094,-1.6138584613800049,0.32069480419158936
1772650722281316400,8.06731640625,-1.22963547706604,-0.9943066239356995,0.20096874237060547
1772650722291193600,8.077193603515624,-0.8411366939544678,-0.3775036036968231,0.12110047042369843
1772650722301070800,8.08707080078125,-0.6210789680480957,-0.030389651656150818,0.0778830274939537
1772650722310948000,8.096947998046875,-0.5137225389480591,-0.10323318839073181,0.12094775587320328
1772650722320825600,8.10682568359375,-0.43706122040748596,-0.2855710983276367,0.23716144263744354
1772650722330702800,8.116702880859375,-0.3718532621860504,-0.3626905679702759,0.3361186981201172
1772650722340580000,8.126580078125,-0.3211529552936554,-0.31534990668296814,0.39231663942337036
1772650722350457600,8.13645751953125,-0.30817243456840515,-0.3026748299598694,0.4265241026878357
1772650722360334800,8.1463349609375,-0.2973299026489258,-0.346808522939682,0.42545512318611145
1772650722370212000,8.156212158203125,-0.3092414140701294,-0.3570402264595032,0.38880428671836853
1772650722380089300,8.16608935546875,-0.30313295125961304,-0.34482327103614807,0.335507869720459
1772650722389966800,8.175966796875,-0.28816720843315125,-0.319320410490036,0.26464956998825073
1772650722399844000,8.185843994140624,-0.26067906618118286,-0.18630841374397278,0.20814619958400726
1772650722409721300,8.195721435546876,-0.182643324136734,-0.1053711548447609,0.15546062588691711
1772650722419598600,8.2055986328125,-0.16019469499588013,-0.23502348363399506,0.054365407675504684
1772650722429476000,8.21547607421875,-0.1438545286655426,-0.30099499225616455,-0.034818295389413834
1772650722439353300,8.225353271484375,-0.091321662068367,-0.30160582065582275,-0.091932512819767
1772650722449230600,8.235230712890624,-0.05100574716925621,-0.3226800560951233,-0.12125317752361298
1772650722459108000,8.245108154296876,-0.04199574887752533,-0.38788801431655884,-0.1498102843761444
1772650722468985300,8.2549853515625,-0.05024218559265137,-0.46424391865730286,-0.18676654994487762
1772650722478862600,8.264862548828125,-0.05864133685827255,-0.49356457591056824,-0.21853061020374298
1772650722488739800,8.27473974609375,-0.046729814261198044,-0.5005893111228943,-0.2551814317703247
1772650722498617300,8.284617431640624,-0.03787253051996231,-0.5357130169868469,-0.3255815804004669
1772650722508494600,8.29449462890625,-0.037261683493852615,-0.5285356044769287,-0.3936910629272461
1772650722518371800,8.304371826171876,-0.021990500390529633,-0.4362976551055908,-0.4205683469772339
1772650722528249300,8.314249267578125,0.01847812905907631,-0.3167243003845215,-0.41201648116111755
1772650722538126600,8.324126708984375,0.11926792562007904,-0.14431266486644745,-0.4027010500431061
1772650722548003800,8.33400390625,0.18768282234668732,0.0656660795211792,-0.37261682748794556
1772650722557881000,8.343881103515624,0.17684027552604675,0.12888877093791962,-0.2644968628883362
1772650722567758600,8.353758544921876,0.0784938707947731,0.016187451779842377,-0.13927318155765533
1772650722577635800,8.3636357421875,-0.05344913527369499,-0.2432699203491211,-0.03649812191724777
1772650722587513000,8.37351318359375,-0.1510319858789444,-0.3855973184108734,0.01588202826678753
1772650722597390600,8.383390625,-0.1960819661617279,-0.26373329758644104,-0.027029991149902344
1772650722607267800,8.393267822265624,-0.1898207813501358,-0.0916270911693573,-0.09177979826927185
1772650722617145000,8.40314501953125,-0.17989452183246613,-0.056808795779943466,-0.10552386194467545
1772650722627022300,8.413022216796875,-0.1832541823387146,-0.13316470384597778,-0.08842013776302338
1772650722636899800,8.42289990234375,-0.19226416945457458,-0.19913621246814728,-0.07269082218408585
1772650722646777000,8.432777099609375,-0.16783028841018677,-0.19119518995285034,-0.06184828653931618
1772650722656654300,8.442654296875,-0.12491826713085175,-0.14202198386192322,-0.06154286116361618
1772650722666531800,8.45253173828125,-0.08292251825332642,-0.09681928902864456,-0.08261708915233612
1772650722676409000,8.4624091796875,-0.03833066672086716,-0.049173206090927124,-0.09773556143045425
1772650722686286300,8.472286376953125,-0.003970507066696882,-0.009315420873463154,-0.09727742522954941
1772650722696163800,8.482163818359375,0.011147962883114815,0.015423892997205257,-0.08399149775505066
1772650722706041000,8.492041015625,0.010231691412627697,0.01252236869186163,-0.06872031837701797
1772650722715918300,8.50191845703125,0.0038177953101694584,-0.014965757727622986,-0.06291726976633072
1772650722725795600,8.511795654296876,0.001985253533348441,-0.021837789565324783,-0.07024743407964706
1772650722735673000,8.521673095703125,0.02107422985136509,0.009315420873463154,-0.08032641559839249
1772650722745550300,8.53155029296875,0.04214845970273018,0.03390202298760414,-0.08780929446220398
1772650722755427600,8.541427490234375,0.042759306728839874,0.04321744292974472,-0.07314895838499069
1772650722765305000,8.55130517578125,0.01954711228609085,0.05925218388438225,-0.05421269312500954
1772650722775182300,8.561182373046876,-0.004581354558467865,0.04413371533155441,-0.03573456406593323
1772650722785059600,8.5710595703125,-0.02489202655851841,0.011300674639642239,-0.017714571207761765
1772650722794936800,8.580936767578125,-0.03771981969475746,-0.019241688773036003,-0.0022906772792339325
1772650722804814300,8.590814453125,-0.05894676223397255,-0.07467607408761978,0.02886253222823143
1772650722814691600,8.600691650390624,-0.08612946420907974,-0.12888877093791962,0.0653606578707695
1772650722824568800,8.61056884765625,-0.09926267713308334,-0.13347013294696808,0.09483403712511063
1772650722834446300,8.6204462890625,-0.09147437661886215,-0.11621369421482086,0.10140064358711243
1772650722844323600,8.630323486328125,-0.07711946964263916,-0.10399674624204636,0.08857285231351852
1772650722854200800,8.640200927734375,-0.059710320085287094,-0.09834641218185425,0.0590994730591774
1772650722864078000,8.650078125,-0.04810422286391258,-0.06933116167783737,0.014049487188458443
1772650722873955600,8.65995556640625,-0.037261683493852615,-0.037414394319057465,-0.03405473381280899
1772650722883832800,8.669832763671875,-0.023212196305394173,-0.01695101149380207,-0.06902574002742767
1772650722893710000,8.6797099609375,-0.012675080448389053,0.009773556143045425,-0.09559759497642517
1772650722903587300,8.68958740234375,-0.010842538438737392,0.04871506989002228,-0.12155860662460327
1772650722913464800,8.69946484375,-0.00992626789957285,0.10216420143842697,-0.16050012409687042
1772650722923342000,8.709342041015624,-0.0012216945178806782,0.15179555118083954,-0.21593450009822845
1772650722933219300,8.71921923828125,0.0015271181473508477,0.16111096739768982,-0.26067906618118286
1772650722943096600,8.7290966796875,-0.006413896102458239,0.1382041871547699,-0.28572380542755127
1772650722952974000,8.73897412109375,-0.014965757727622986,0.1188097894191742,-0.3089359998703003
1772650722962851300,8.748851318359375,-0.02733541466295719,0.11056335270404816,-0.3358132839202881
1772650722972728600,8.758728515625,-0.0459662564098835,0.11942064017057419,-0.3567348122596741
1772650722982606000,8.768606201171876,-0.06291726976633072,0.14492350816726685,-0.3715478479862213
1772650722992483300,8.7784833984375,-0.0778830274939537,0.16431790590286255,-0.3930802047252655
1772650723002360600,8.788360595703125,-0.08689302206039429,0.18157434463500977,-0.4318690001964569
1772650723012237800,8.79823779296875,-0.09284878522157669,0.23120568692684174,-0.4853181540966034
1772650723022115300,8.808115234375,-0.09590301662683487,0.3058817684650421,-0.5441122055053711
1772650723031992600,8.81799267578125,-0.09605573117733002,0.335507869720459,-0.5847335457801819
1772650723041869800,8.827869873046875,-0.10628741979598999,0.2996205687522888,-0.6151232123374939
1772650723051747300,8.837747314453125,-0.11835165321826935,0.2351761907339096,-0.6766660213470459
1772650723061624600,8.84762451171875,-0.10888352245092392,0.2432699203491211,-0.7111788988113403
1772650723071501800,8.857501708984374,-0.05803048983216286,0.324054479598999,-0.7299624681472778
1772650723081379000,8.867379150390626,0.011147962883114815,0.41293275356292725,-0.747218906879425
1772650723091256600,8.877256591796876,0.07666133344173431,0.429883748292923,-0.709346354007721
1772650723101133800,8.8871337890625,0.11835165321826935,0.3903313875198364,-0.5859552621841431
1772650723111011000,8.897010986328125,0.10918894410133362,0.3828485310077667,-0.38727715611457825
1772650723120888600,8.906888671875,0.09452861547470093,0.39262208342552185,-0.16706672310829163
1772650723130765800,8.916765869140624,0.09651386737823486,0.4112529158592224,0.007024743594229221
1772650723140643000,8.92664306640625,0.11025793105363846,0.4086568057537079,0.10934165865182877
1772650723150520300,8.936520263671875,0.12629267573356628,0.36696648597717285,0.15500248968601227
1772650723160397800,8.946397705078125,0.1429382562637329,0.3002314269542694,0.15652960538864136
1772650723170275000,8.956275146484375,0.15149012207984924,0.2079934924840927,0.12827792763710022
1772650723180152300,8.96615234375,0.15500248968601227,0.1310267299413681,0.08750387281179428
1772650723190029800,8.97602978515625,0.1582094430923462,0.09513945877552032,0.05650337040424347
1772650723199907000,8.985906982421875,0.17088451981544495,0.08826743066310883,0.038636088371276855
1772650723209784300,8.995784423828125,0.1823379099369049,0.09055810421705246,0.031916771084070206
1772650723219661600,9.00566162109375,0.18523943424224854,0.10338589549064636,0.022601349279284477
1772650723229539000,9.0155390625,0.18065807223320007,0.12216944992542267,0.0010689827613532543
1772650723239416300,9.025416259765626,0.17836740612983704,0.1310267299413681,-0.026571854948997498
1772650723249293600,9.03529345703125,0.17271706461906433,0.1301104724407196,-0.040010496973991394
1772650723259171000,9.045171142578125,0.16370706260204315,0.12781979143619537,-0.030847785994410515
1772650723269048300,9.05504833984375,0.14996300637722015,0.12812520563602448,-0.005650337319821119
1772650723278925600,9.064925537109374,0.14064757525920868,0.12675081193447113,0.038483377546072006
1772650723288802800,9.074802734375,0.14095300436019897,0.13774605095386505,0.09422318637371063
1772650723298680300,9.084680419921876,0.15210096538066864,0.17027367651462555,0.14675605297088623
1772650723308557600,9.0945576171875,0.1656923145055771,0.20157960057258606,0.2047865390777588
1772650723318434800,9.104434814453125,0.17974179983139038,0.25472331047058105,0.40331190824508667
1772650723328312000,9.11431201171875,0.17424418032169342,0.21837788820266724,0.6444438695907593
1772650723338189600,9.124189453125,0.1585148572921753,0.1385096162557602,0.6369609832763672
1772650723348066800,9.13406689453125,0.08124268800020218,0.06032116711139679,0.5007420182228088
1772650723357944000,9.143944091796875,0.020157959312200546,-0.012980503961443901,0.2754921019077301
1772650723367821300,9.1538212890625,-0.007635590620338917,-0.08994726091623306,0.0841442123055458
1772650723377698800,9.16369873046875,0.019088976085186005,-0.014965757727622986,-0.06001574173569679
1772650723387576000,9.173576171875,0.08292251825332642,0.1328592747449875,-0.05467082932591438
1772650723397453300,9.183453369140626,0.07238540053367615,0.021837789565324783,0.08399149775505066
