time,seconds_elapsed,z,y,x
1772650714365774000,0.151774169921875,12.465409278869629,-11.282158851623535,-5.7792649269104
1772650714375651300,0.1616513671875,12.758530616760254,-11.717652320861816,-5.80917501449585
1772650714405283000,0.191282958984375,11.743973731994629,-10.123434066772461,-5.804987907409668
1772650714415160300,0.201160400390625,11.099705696105957,-9.562317848205566,-5.48375129699707
1772650714425037600,0.21103759765625,10.48953628540039,-9.223732948303223,-5.2731828689575195
1772650714434914800,0.220914794921875,9.55513858795166,-9.153144836425781,-5.313262462615967
1772650714444792000,0.2307919921875,8.356334686279297,-8.635697364807129,-5.283352375030518
1772650714454669300,0.24066943359375,6.964310169219971,-7.931010723114014,-4.941776752471924
1772650714464546600,0.250546630859375,5.484947681427002,-7.012764930725098,-4.581058979034424
1772650714474423800,0.260423828125,3.713660717010498,-5.936593055725098,-4.070789337158203
1772650714484300800,0.27030078125,2.073979139328003,-4.841278553009033,-3.401397466659546
1772650714494178300,0.28017822265625,0.6861419081687927,-3.9385859966278076,-2.7433712482452393
1772650714504055600,0.2900556640625,-0.357128769159317,-3.1034910678863525,-2.0237298011779785
1772650714513932800,0.299932861328125,-0.8614161610603333,-1.9806588888168335,-2.1619153022766113
1772650714523810000,0.30981005859375,-1.215553879737854,-0.9960124492645264,-1.5864413976669312
1772650714533687300,0.319687255859375,-0.9888339638710022,0.03409772366285324,-0.6472585201263428
1772650714543564300,0.329564208984375,-0.47676992416381836,1.207179069519043,0.33020952343940735
1772650714553441800,0.33944189453125,0.44745782017707825,2.2989044189453125,1.4069796800613403
1772650714563319000,0.349319091796875,1.3232308626174927,2.812164783477783,2.1367905139923096
1772650714573196300,0.3591962890625,1.8167506456375122,3.1166515350341797,3.661616802215576
1772650714583073500,0.369073486328125,2.1996021270751953,2.785245656967163,4.738387107849121
1772650714592950800,0.37895068359375,2.0368902683258057,1.7563318014144897,5.042873859405518
1772650714602828000,0.388828125,1.526620864868164,0.7776673436164856,4.401597023010254
1772650714612705300,0.398705322265625,0.8291130661964417,0.3290131092071533,3.119642496109009
1772650714622582500,0.40858251953125,0.13639089465141296,0.34277185797691345,1.800000786781311
1772650714632446000,0.418446044921875,-0.21176479756832123,0.3888336718082428,0.99481600522995
1772650714642337000,0.4283369140625,0.020338991656899452,0.0849452018737793,0.31106695532798767
1772650714652214300,0.43821435546875,0.519242525100708,-0.14656038582324982,-0.17946170270442963
1772650714662077700,0.44807763671875,0.882951557636261,-0.38703906536102295,-0.542572557926178
1772650714671968800,0.45796875,1.0839486122131348,-0.6664010882377625,-1.1647064685821533
1772650714681846000,0.467845947265625,1.2867404222488403,-0.8500502705574036,-1.714457392692566
1772650714691709400,0.47770947265625,1.3058829307556152,-1.0043872594833374,-2.444268226623535
1772650714701600500,0.4876005859375,1.054038405418396,-1.1754741668701172,-3.2919256687164307
1772650714711477800,0.497477783203125,1.2418749332427979,-1.225723385810852,-3.9044883251190186
1772650714721341200,0.507341064453125,1.430907964706421,-1.789831280708313,-5.148158073425293
1772650714731232300,0.517232177734375,2.1607189178466797,-2.6141586303710938,-6.279364585876465
1772650714741109500,0.527109619140625,2.8516464233398438,-3.4498519897460938,-7.984251022338867
1772650714750973000,0.536972900390625,4.381258487701416,-5.000999450683594,-9.694520950317383
1772650714760864000,0.546864013671875,7.7802629470825195,-10.587641716003418,-13.586446762084961
1772650714770741200,0.5567412109375,12.491132736206055,-17.965312957763672,-17.219947814941406
1772650714780604700,0.566604736328125,22.47279167175293,-22.816761016845703,-13.259228706359863
1772650714790495700,0.576495849609375,26.825336456298828,-13.564312934875488,-4.336392879486084
1772650714800373000,0.586373046875,25.17787742614746,-0.09272187948226929,-1.7796618938446045
1772650714810236400,0.596236328125,18.13939094543457,2.8450660705566406,-7.471588611602783
1772650714820127500,0.60612744140625,14.194822311401367,-1.2658032178878784,-12.361321449279785
1772650714830004700,0.616004638671875,14.726028442382812,-9.19561767578125,-13.143177032470703
1772650714839868200,0.6258681640625,15.072389602661133,-14.254044532775879,-11.203195571899414
1772650714849759200,0.63575927734375,13.003196716308594,-14.81934928894043,-10.067203521728516
1772650714859636500,0.645636474609375,11.21216869354248,-13.5302152633667,-9.737591743469238
1772650714869500200,0.655500244140625,11.409576416015625,-12.19083309173584,-9.716654777526855
1772650714879391000,0.665390869140625,13.336995124816895,-10.764710426330566,-9.233304023742676
1772650714889268200,0.675268310546875,14.751152992248535,-9.133403778076172,-9.32602596282959
1772650714899132000,0.6851318359375,15.135799407958984,-8.181658744812012,-11.026724815368652
1772650714909023000,0.69502294921875,15.501303672790527,-8.769096374511719,-12.737592697143555
1772650714918900000,0.70489990234375,15.937993049621582,-9.384650230407715,-12.911670684814453
1772650714928763600,0.714763671875,15.699309349060059,-9.490532875061035,-13.188640594482422
1772650714938654700,0.72465478515625,15.229119300842285,-8.619544982910156,-13.476975440979004
1772650714948532000,0.734531982421875,14.617753982543945,-7.47637414932251,-13.688739776611328
1772650714958395400,0.7443955078125,14.200803756713867,-6.559325218200684,-13.436895370483398
1772650714968286500,0.754286376953125,13.415958404541016,-5.8343000411987305,-12.605389595031738
1772650714978163700,0.764163818359375,12.102298736572266,-5.13739013671875,-11.015358924865723
1772650714988027100,0.774027099609375,10.282557487487793,-4.565505504608154,-9.113663673400879
1772650714997918200,0.783918212890625,8.293522834777832,-3.991826295852661,-7.412964344024658
1772650715007795500,0.79379541015625,5.912664890289307,-3.2679975032806396,-5.292923450469971
1772650715017659000,0.803658935546875,3.613760471343994,-3.064009428024292,-4.223331928253174
1772650715027550000,0.813550048828125,2.042274236679077,-3.6945180892944336,-2.9246275424957275
1772650715037427200,0.82342724609375,0.44805604219436646,-4.118646144866943,-1.4632110595703125
1772650715047291000,0.833290771484375,-0.5796613097190857,-4.412364959716797,-1.0516455173492432
1772650715057181700,0.843181640625,-1.5379867553710938,-4.310669898986816,-1.3160524368286133
1772650715067059200,0.85305908203125,-2.4777679443359375,-3.720241069793701,-1.825723648071289
1772650715076922600,0.862922607421875,-3.0239295959472656,-2.913261651992798,-2.072782516479492
1772650715086813700,0.872813720703125,-2.8863422870635986,-1.9202401638031006,-1.7850457429885864
1772650715096691000,0.88269091796875,-2.6841487884521484,-1.036690354347229,-1.4733805656433105
1772650715106554400,0.892554443359375,-2.4819552898406982,0.023330021649599075,-0.6963114142417908
1772650715116445400,0.902445556640625,-2.348555326461792,0.9320043921470642,-0.03409772366285324
1772650715126322700,0.91232275390625,-2.5010979175567627,1.2574282884597778,0.6825526356697083
1772650715136186000,0.92218603515625,-2.548356056213379,0.6143572330474854,1.0259226560592651
1772650715146077200,0.9320771484375,-2.6213371753692627,0.09990034252405167,0.380458801984787
1772650715155954700,0.94195458984375,-2.60339093208313,-0.5521438121795654,-0.7262216806411743
1772650715165818000,0.951818115234375,-2.4293131828308105,-0.9978070259094238,-1.7581263780593872
1772650715175709200,0.961709228515625,-2.0231316089630127,-1.1886346340179443,-2.2133610248565674
1772650715185586400,0.97158642578125,-1.23589289188385,-0.9786644577980042,-2.270190477371216
1772650715195449900,0.981449951171875,-0.40737804770469666,-0.7465606927871704,-2.018944025039673
1772650715205341000,0.9913408203125,0.6323033571243286,-0.7387840151786804,-1.5960127115249634
1772650715215218200,1.00121826171875,1.7994025945663452,-0.40259242057800293,-1.0390832424163818
1772650715225081600,1.01108154296875,2.644068956375122,0.04247260093688965,-0.43908295035362244
1772650715234972700,1.02097265625,3.0855448246002197,0.48454657196998596,0.21236300468444824
1772650715244850000,1.030849853515625,3.356531858444214,1.0755738019943237,1.0701899528503418
1772650715254713600,1.040713623046875,3.6568312644958496,1.4781662225723267,1.6277176141738892
1772650715264604700,1.050604736328125,3.861417531967163,1.6683956384658813,1.7653049230575562
1772650715274482000,1.06048193359375,4.127020835876465,1.7371892929077148,1.8610178232192993
1772650715284345300,1.070345458984375,4.364508628845215,0.9667003750801086,2.3306093215942383
1772650715294236400,1.080236328125,4.875376224517822,-1.176072359085083,2.5387847423553467
1772650715304113700,1.09011376953125,5.623133182525635,-4.0905303955078125,0.9684949517250061
1772650715313977000,1.09997705078125,6.254240036010742,-6.088537216186523,-0.7046862840652466
1772650715323868200,1.1098681640625,6.754938125610352,-7.772486209869385,-2.633899450302124
1772650715333745400,1.119745361328125,6.865606307983398,-9.209376335144043,-4.585246562957764
1772650715343609000,1.129609130859375,10.227521896362305,-13.36032485961914,-6.745367050170898
1772650715353500200,1.139500244140625,17.389240264892578,-19.444076538085938,-9.943374633789062
1772650715363377200,1.149377197265625,22.736600875854492,-21.757936477661133,-13.130614280700684
1772650715373240800,1.15924072265625,18.518054962158203,-19.36690902709961,-13.153346061706543
1772650715383132000,1.1691318359375,12.147762298583984,-16.950157165527344,-14.417354583740234
1772650715393009200,1.179009033203125,12.393625259399414,-13.576277732849121,-13.094721794128418
1772650715402872600,1.18887255859375,16.57687759399414,-12.40439224243164,-13.965110778808594
1772650715412763600,1.198763671875,18.340986251831055,-13.323236465454102,-16.984254837036133
1772650715422641000,1.208640869140625,17.881563186645508,-12.444472312927246,-18.273387908935547
1772650715432504300,1.21850439453125,17.2486629486084,-12.005987167358398,-17.045869827270508
1772650715442395400,1.2283955078125,17.445470809936523,-12.270394325256348,-14.272588729858398
1772650715452272600,1.238272705078125,17.453248977661133,-13.210175514221191,-13.233505249023438
1772650715462136300,1.24813623046875,17.529220581054688,-14.770894050598145,-11.81456184387207
1772650715472027400,1.25802734375,16.82931900024414,-16.487146377563477,-10.359725952148438
1772650715481904600,1.267904541015625,14.774483680725098,-16.617555618286133,-9.667003631591797
1772650715491768000,1.27776806640625,12.273386001586914,-16.100107192993164,-8.678768157958984
1772650715501659100,1.2876591796875,10.428519248962402,-13.730016708374023,-9.092127799987793
1772650715511536400,1.297536376953125,8.523832321166992,-12.939786911010742,-9.040083885192871
1772650715521399800,1.30739990234375,7.646264553070068,-11.837891578674316,-8.435895919799805
1772650715531291000,1.317290771484375,6.561119556427002,-9.984650611877441,-7.2711896896362305
1772650715541168000,1.327168212890625,5.017749309539795,-7.074379920959473,-5.865406513214111
1772650715551031800,1.33703173828125,3.730410575866699,-4.725226402282715,-4.109673023223877
1772650715560922600,1.346922607421875,3.384049415588379,-2.819941520690918,-2.5334010124206543
1772650715570800000,1.356800048828125,2.3294129371643066,-1.8065811395645142,-1.8843477964401245
1772650715580663600,1.36666357421875,1.5343974828720093,-0.882951557636261,-1.033101201057434
1772650715590554600,1.3765546875,0.5665007829666138,0.09032905846834183,-0.12263216078281403
1772650715600431900,1.386431884765625,-0.267397940158844,0.7411768436431885,0.9678967595100403
1772650715610295300,1.39629541015625,-0.7525427341461182,1.7880367040634155,2.1439690589904785
1772650715620186400,1.406186279296875,-1.2149556875228882,3.6394832134246826,3.1316065788269043
1772650715630063600,1.416063720703125,-1.2969099283218384,4.195216178894043,3.910470485687256
1772650715639927300,1.42592724609375,-1.2149556875228882,3.992424488067627,4.17427921295166
1772650715649818400,1.435818359375,-1.332203984260559,3.5228331089019775,3.9601213932037354
1772650715659695600,1.445695556640625,-1.2376874685287476,1.8735800981521606,3.5712878704071045
1772650715669559000,1.45555908203125,-0.7471588850021362,0.17288143932819366,2.8582265377044678
1772650715679450000,1.4654501953125,-0.32123643159866333,-0.8805587291717529,2.0165512561798096
1772650715689327400,1.475327392578125,-0.7926225066184998,-0.714257538318634,0.615553617477417
1772650715699190800,1.485190673828125,-0.6299105882644653,-1.0223335027694702,-0.005982056725770235
1772650715709081900,1.495081787109375,-0.32123643159866333,-1.231107234954834,-0.25064817070961
1772650715718959000,1.504958984375,-0.0568295381963253,-0.48574298620224,0.026919255033135414
1772650715728822800,1.51482275390625,-0.8380861282348633,0.5928218364715576,-0.6317051649093628
1772650715738713900,1.5247138671875,0.4019941985607147,-0.5497509837150574,-0.4013960063457489
1772650715748591000,1.534591064453125,0.1381855010986328,0.22552353143692017,-0.2841476798057556
1772650715758468400,1.54446826171875,0.015553346835076809,0.4743770956993103,-0.1621137410402298
1772650715768345600,1.554345703125,0.12622138857841492,0.20877377688884735,-0.5240281820297241
1772650715778222800,1.564222900390625,-0.08793623000383377,-0.25782662630081177,-1.1718848943710327
1772650715788086300,1.574086181640625,-0.5796613097190857,-0.5802595019340515,-1.6863417625427246
1772650715797977300,1.583977294921875,-0.9571290612220764,-0.7339983582496643,-2.197807550430298
1772650715807854800,1.593854736328125,-0.916451096534729,-0.9332008361816406,-2.8654050827026367
1772650715817718300,1.60371826171875,0.009571290574967861,-1.5499508380889893,-4.645066738128662
1772650715827609300,1.613609375,1.3298112154006958,-1.9280169010162354,-5.825924873352051
1772650715837486600,1.623486572265625,2.885145902633667,-2.4388844966888428,-6.786045074462891
1772650715847350000,1.63335009765625,4.60139799118042,-3.5204403400421143,-7.520641803741455
1772650715857241000,1.643240966796875,6.778268337249756,-6.111268997192383,-8.94377326965332
1772650715867118300,1.653118408203125,10.070194244384766,-10.206584930419922,-10.503294944763184
1772650715876982000,1.66298193359375,12.069995880126953,-13.834104537963867,-11.94915771484375
1772650715886873000,1.672873046875,15.760326385498047,-13.70788288116455,-11.430513381958008
1772650715896750300,1.682750244140625,19.231115341186523,-14.883955001831055,-11.548359870910645
1772650715906613800,1.69261376953125,19.8945255279541,-11.700902938842773,-11.172687530517578
1772650715916504800,1.7025048828125,20.282760620117188,-9.193822860717773,-11.117053985595703
1772650715926382000,1.712382080078125,23.689542770385742,-8.661419868469238,-10.663016319274902
1772650715936245800,1.722245849609375,24.844676971435547,-10.702497482299805,-12.045469284057617
1772650715946136800,1.73213671875,24.423540115356445,-11.428719520568848,-11.700304985046387
1772650715956014000,1.74201416015625,23.118255615234375,-10.114460945129395,-8.899505615234375
1772650715965891300,1.751891357421875,20.89592170715332,-10.37348461151123,-10.179665565490723
1772650715975768600,1.7617685546875,18.857236862182617,-12.658031463623047,-12.608380317687988
1772650715985645800,1.771645751953125,17.46640968322754,-12.834502220153809,-13.106685638427734
1772650715995509200,1.78150927734375,17.25823402404785,-13.240684509277344,-13.106087684631348
1772650716005400300,1.791400390625,16.979469299316406,-13.87777328491211,-12.967902183532715
1772650716015277600,1.801277587890625,16.091732025146484,-13.446466445922852,-12.6945219039917
1772650716025141200,1.811141357421875,14.509478569030762,-11.912069320678711,-12.263813972473145
1772650716035032300,1.8210322265625,12.946367263793945,-9.583852767944336,-11.385648727416992
1772650716044909600,1.83090966796875,11.598011016845703,-7.744370460510254,-10.548758506774902
1772650716054773000,1.84077294921875,10.088738441467285,-6.3978095054626465,-9.589237213134766
1772650716064673800,1.850673828125,8.452646255493164,-5.290530681610107,-8.608179092407227
1772650716074541600,1.86054150390625,6.771687984466553,-4.292125701904297,-7.227520942687988
1772650716084405000,1.870405029296875,5.051248550415039,-3.4121651649475098,-5.335994720458984
1772650716094296000,1.880296142578125,3.3649067878723145,-2.7146573066711426,-3.775874137878418
1772650716104173300,1.89017333984375,1.6827524900436401,-2.2959132194519043,-2.9730820655822754
1772650716114036700,1.90003662109375,0.04486542567610741,-1.8963119983673096,-2.9377880096435547
1772650716123927800,1.909927734375,-1.49611234664917,-1.2711870670318604,-3.315255880355835
1772650716133805300,1.919805419921875,-2.672184705734253,-0.6460621356964111,-3.555136203765869
1772650716143668700,1.929668701171875,-3.283550977706909,-0.049651071429252625,-3.3278181552886963
1772650716153559800,1.939559814453125,-3.644867181777954,0.39900317788124084,-2.6470601558685303
1772650716163437000,1.94943701171875,-3.648456335067749,0.50907301902771,-1.8765711784362793
1772650716173300700,1.95930078125,-3.4713873863220215,0.5473581552505493,-1.412961721420288
1772650716183191600,1.969191650390625,-3.442673683166504,0.6807580590248108,-1.171286702156067
1772650716193069000,1.979069091796875,-3.3409786224365234,0.8297112584114075,-1.0564311742782593
1772650716202946300,1.9889462890625,-3.3894333839416504,1.0325030088424683,-1.1054840087890625
1772650716212823600,1.998823486328125,-3.2057840824127197,1.170688509941101,-1.1629117727279663
1772650716222700800,2.00870068359375,-2.528017044067383,0.7160521745681763,-1.1174482107162476
1772650716232578000,2.018578125,-1.5798611640930176,0.13220344483852386,-0.898504912853241
1772650716242455300,2.028455322265625,-0.5958128571510315,-0.20578274130821228,-0.4911268353462219
1772650716252332800,2.038332763671875,0.43549370765686035,-0.39601215720176697,-0.04007977992296219
1772650716262196200,2.0481962890625,1.319043517112732,-0.9068797826766968,0.13040883839130402
1772650716272087300,2.05808740234375,2.256431818008423,-1.475175142288208,0.6454638838768005
1772650716281964500,2.067964599609375,2.6739792823791504,-1.7240287065505981,1.191625714302063
1772650716291828200,2.077828125,2.6697919368743896,-1.114457130432129,1.8813568353652954
1772650716301719000,2.087718994140625,2.557927370071411,-0.16929219663143158,2.7110681533813477
1772650716311596500,2.097596435546875,2.4837498664855957,0.5024927258491516,2.9282166957855225
1772650716321473800,2.107473876953125,2.368894338607788,0.28953152894973755,2.3976082801818848
1772650716331351000,2.11735107421875,2.3300111293792725,-0.45164528489112854,1.7114664316177368
1772650716341228300,2.127228271484375,2.248655080795288,-1.0713863372802734,1.296311616897583
1772650716351105500,2.13710546875,2.1858434677124023,-0.9984052777290344,0.9553344249725342
1772650716360982800,2.146982666015625,2.258824586868286,-0.9260223507881165,0.7567301392555237
1772650716370860300,2.1568603515625,2.4011974334716797,-1.3866406679153442,0.3601198196411133
1772650716380723700,2.1667236328125,2.812762975692749,-2.7966115474700928,-1.0875378847122192
1772650716390614800,2.17661474609375,3.1896326541900635,-4.580460548400879,-2.984447956085205
1772650716400492000,2.186491943359375,3.9355950355529785,-6.673582553863525,-4.893322467803955
1772650716410355700,2.196355712890625,5.558526992797852,-8.767302513122559,-6.793821811676025
1772650716420246800,2.206246826171875,8.376075744628906,-10.391430854797363,-8.372486114501953
1772650716430124000,2.2161240234375,13.907085418701172,-13.087543487548828,-8.382058143615723
1772650716439987500,2.225987548828125,23.569900512695312,-18.538393020629883,-5.362315654754639
1772650716449878500,2.23587841796875,27.017959594726562,-21.05025863647461,-4.949553489685059
1772650716459755800,2.245755859375,19.878374099731445,-17.712270736694336,-8.380861282348633
1772650716469619500,2.255619384765625,14.147563934326172,-14.565710067749023,-8.35573673248291
1772650716479510500,2.265510498046875,12.969099044799805,-15.285350799560547,-14.756537437438965
1772650716489387800,2.2753876953125,15.376277923583984,-16.929819107055664,-18.089141845703125
1772650716499251200,2.285251220703125,15.472589492797852,-17.336597442626953,-18.307485580444336
1772650716509142300,2.295142333984375,16.246068954467773,-17.831912994384766,-18.455242156982422
1772650716519019500,2.30501953125,17.948562622070312,-17.4891414642334,-16.22513198852539
1772650716528883200,2.31488330078125,20.547168731689453,-17.43290901184082,-13.283156394958496
1772650716538774300,2.324774169921875,22.78505516052246,-17.586050033569336,-10.907083511352539
1772650716548651500,2.334651611328125,22.971694946289062,-17.38684844970703,-10.030712127685547
1772650716558515000,2.344514892578125,21.317657470703125,-16.737794876098633,-10.614561080932617
1772650716568406000,2.354406005859375,18.59462547302246,-15.66939926147461,-10.870593070983887
1772650716578283300,2.364283203125,15.436697006225586,-13.35853099822998,-9.660423278808594
1772650716588147000,2.37414697265625,12.226127624511719,-11.273783683776855,-7.905886173248291
1772650716598038000,2.3840380859375,9.429515838623047,-9.754341125488281,-6.512066841125488
1772650716607915300,2.393915283203125,7.326822757720947,-8.682356834411621,-5.84566593170166
1772650716617779000,2.403779052734375,5.680561065673828,-7.764111042022705,-5.165505886077881
1772650716627669800,2.413669677734375,4.110869407653809,-6.530611038208008,-4.275974273681641
1772650716637547300,2.42354736328125,3.0586254596710205,-5.62373161315918,-4.259822368621826
1772650716647410700,2.43341064453125,0.8991031050682068,-3.284747362136841,-2.772084951400757
1772650716657301800,2.4433017578125,0.5527420043945312,-3.0514471530914307,-3.4785659313201904
1772650716667179000,2.453178955078125,-1.4267204999923706,-0.6317051649093628,-1.5302101373672485
1772650716677042700,2.463042724609375,-1.810170292854309,0.8189435601234436,-1.576870083808899
1772650716686933800,2.472933837890625,-2.4783661365509033,2.3234307765960693,-0.3810569941997528
1772650716696811000,2.48281103515625,-2.7535407543182373,3.5377883911132812,0.7770691514015198
1772650716706674400,2.49267431640625,-2.2510478496551514,3.2709884643554688,0.8237292170524597
1772650716716565500,2.5025654296875,-2.5710878372192383,2.8456642627716064,1.1670992374420166
1772650716726442800,2.51244287109375,-3.214757204055786,2.3401806354522705,0.6574280261993408
1772650716736306400,2.522306396484375,-3.7740795612335205,1.6199408769607544,0.13100704550743103
1772650716746197500,2.532197509765625,-3.8356947898864746,0.7459624409675598,-0.3936193287372589
1772650716756074800,2.54207470703125,-3.603590965270996,-0.02392822690308094,-0.6819544434547424
1772650716765952000,2.551951904296875,-2.901895761489868,-0.5216353535652161,-0.8632107973098755
1772650716775829200,2.561829345703125,-2.1415762901306152,-0.6909275650978088,-0.6640082597732544
1772650716785706800,2.571706787109375,-1.475175142288208,-0.6269195079803467,-0.4695914387702942
1772650716795570200,2.581570068359375,-0.898504912853241,-0.21714866161346436,-0.26620152592658997
1772650716805461200,2.591461181640625,-0.3774677813053131,0.33738797903060913,-0.11186445504426956
1772650716815338500,2.60133837890625,-0.13100704550743103,0.841675341129303,-0.07477571070194244
1772650716825215700,2.6112158203125,-0.10887342691421509,1.2951152324676514,0.16809579730033875
1772650716835093000,2.621093017578125,-0.09272187948226929,1.3561322689056396,0.06520441919565201
1772650716844970500,2.630970458984375,-0.1495514214038849,1.1365907192230225,-0.42771705985069275
1772650716854847700,2.64084765625,-0.27756741642951965,0.6879364848136902,-1.1611171960830688
1772650716864725000,2.65072509765625,-0.36191442608833313,0.054436713457107544,-1.5146567821502686
1772650716874602200,2.660602294921875,-0.24885354936122894,-0.7812566161155701,-1.721037745475769
1772650716884466000,2.6704658203125,-0.0975075215101242,-1.7012969255447388,-1.8957136869430542
1772650716894357000,2.68035693359375,-0.016749758273363113,-2.1756739616394043,-1.9058831930160522
1772650716904234200,2.690234130859375,0.4163511395454407,-2.92283296585083,-1.8634105920791626
1772650716914097700,2.70009765625,0.6400800347328186,-3.273381471633911,-1.7324036359786987
1772650716923988700,2.70998876953125,1.4225330352783203,-3.466003656387329,-1.6947166919708252
1772650716933866200,2.7198662109375,2.7182464599609375,-3.8297126293182373,-1.8323038816452026
1772650716943729700,2.729729736328125,4.022335052490234,-3.348755359649658,-1.9369899034500122
1772650716953620700,2.739620849609375,5.623133182525635,-3.6287155151367188,-3.6699917316436768
1772650716963498000,2.749498046875,7.2436723709106445,-4.725226402282715,-5.79780912399292
1772650716973361700,2.759361572265625,9.301499366760254,-7.0683979988098145,-8.202595710754395
1772650716983252700,2.769252685546875,11.242676734924316,-10.660623550415039,-10.284351348876953
1772650716993130000,2.7791298828125,14.526825904846191,-11.291729927062988,-10.439885139465332
1772650717002993400,2.788993408203125,16.838891983032227,-11.966506004333496,-10.866405487060547
1772650717012884500,2.798884521484375,18.80638885498047,-11.760723114013672,-13.575080871582031
1772650717022761700,2.80876171875,21.747169494628906,-12.974482536315918,-17.543577194213867
1772650717032625400,2.81862548828125,23.870201110839844,-12.463615417480469,-18.0903377532959
1772650717042516500,2.8285166015625,25.594228744506836,-11.070992469787598,-16.297515869140625
1772650717052393700,2.838393798828125,26.702106475830078,-10.590633392333984,-15.351153373718262
1772650717062257200,2.848257080078125,26.375486373901367,-9.528220176696777,-13.585848808288574
1772650717072148200,2.858148193359375,24.386451721191406,-7.761718273162842,-11.901900291442871
1772650717082025700,2.868025634765625,21.324237823486328,-5.886343479156494,-11.618948936462402
1772650717091889200,2.87788916015625,18.40020751953125,-5.818746566772461,-11.644671440124512
1772650717101780200,2.8877802734375,16.78923988342285,-7.286144733428955,-11.549556732177734
1772650717111657500,2.897657470703125,16.335800170898438,-9.418149948120117,-11.099705696105957
1772650717121521200,2.907521240234375,16.282560348510742,-11.391630172729492,-10.36929702758789
1772650717131412200,2.917412109375,16.478172302246094,-12.753146171569824,-9.846465110778809
1772650717141289500,2.92728955078125,16.6600284576416,-13.478171348571777,-9.90149974822998
1772650717151153000,2.93715283203125,16.435102462768555,-13.189836502075195,-9.594022750854492
1772650717161044000,2.9470439453125,15.356537818908691,-11.146366119384766,-8.259425163269043
1772650717170921500,2.95692138671875,15.022738456726074,-10.390233993530273,-7.334001541137695
1772650717180785000,2.966784912109375,12.21655559539795,-7.448258876800537,-3.827319860458374
1772650717190676000,2.976676025390625,9.8207426071167,-5.07936429977417,-2.562713146209717
1772650717200553200,2.98655322265625,6.580262184143066,-3.669393539428711,-2.8013970851898193
1772650717210417000,2.9964169921875,3.236292600631714,-2.8516464233398438,-3.824328899383545
1772650717220308000,3.006307861328125,0.43968117237091064,-2.018345832824707,-4.369892120361328
1772650717230185200,3.016185302734375,-1.8317056894302368,-1.3902299404144287,-4.1659040451049805
1772650717240048600,3.026048583984375,-3.4953157901763916,-1.0432707071304321,-3.912863254547119
1772650717249939700,3.035939697265625,-5.020142078399658,-0.5796613097190857,-3.418745279312134
1772650717259817200,3.045817138671875,-6.382256031036377,-0.09032905846834183,-2.6488547325134277
1772650717269680600,3.0556806640625,-7.362117290496826,0.4660021960735321,-1.6809579133987427
1772650717279571700,3.06557177734375,-7.767102241516113,0.9565308690071106,-0.8147560954093933
1772650717289449000,3.075448974609375,-7.805387496948242,1.4679967164993286,0.05742774158716202
1772650717299312600,3.085312744140625,-7.433901786804199,1.7611174583435059,0.15493527054786682
1772650717309203700,3.09520361328125,-6.904489517211914,1.8418751955032349,-0.07417750358581543
1772650717319081000,3.1050810546875,-6.178267955780029,1.7377874851226807,-0.3188436031341553
1772650717328944600,3.114944580078125,-4.682754039764404,1.069591760635376,-0.41994038224220276
1772650717338835500,3.12483544921875,-2.8115665912628174,0.24646073579788208,-0.3852444589138031
1772650717348713000,3.134712890625,-0.4007977843284607,-0.3756731450557709,-0.04486542567610741
1772650717358576400,3.144576416015625,2.434697151184082,-0.7046862840652466,0.8177471160888672
1772650717368467500,3.154467529296875,4.990231513977051,-1.5469598770141602,1.576870083808899
1772650717378344700,3.1643447265625,6.512066841125488,-2.1343977451324463,2.9832515716552734
1772650717388208400,3.17420849609375,5.85703182220459,-0.43968117237091064,4.11924409866333
1772650717398099500,3.184099365234375,4.564309120178223,1.4829518795013428,4.373481750488281
1772650717407976700,3.193976806640625,3.460021495819092,1.5852450132369995,3.972085475921631
1772650717417854000,3.20385400390625,2.5740790367126465,0.5066801905632019,3.0520453453063965
1772650717427731200,3.213731201171875,1.4781662225723267,-0.4905286431312561,2.1918256282806396
1772650717437608700,3.223608642578125,-0.01196411345154047,-0.6065805554389954,1.8813568353652954
1772650717447472000,3.23347216796875,-0.47976094484329224,-1.2993026971817017,0.6777670383453369
1772650717457363200,3.24336328125,-0.7591229677200317,-1.9938194751739502,0.2470589429140091
1772650717467240400,3.253240478515625,-0.08374879509210587,-2.7517459392547607,-0.6915257573127747
1772650717477104000,3.263104248046875,1.052243709564209,-3.5575289726257324,-1.9214365482330322
1772650717486995200,3.2729951171875,2.076970100402832,-3.978665828704834,-2.678765058517456
1772650717496872400,3.28287255859375,3.208176851272583,-4.22512674331665,-4.024129390716553
1772650717506735900,3.29273583984375,4.404588222503662,-4.756333351135254,-5.441278457641602
1772650717516627000,3.302626953125,5.450850009918213,-5.494519233703613,-5.96171760559082
1772650717526504400,3.31250439453125,7.189833641052246,-6.872784614562988,-6.354738712310791
1772650717536367900,3.322367919921875,11.718849182128906,-8.686544418334961,-7.789834022521973
1772650717546259000,3.332259033203125,21.071794509887695,-12.918848991394043,-8.501100540161133
1772650717556136200,3.34213623046875,23.66621208190918,-16.93161392211914,-9.57069206237793
1772650717565999900,3.351999755859375,19.06421661376953,-17.078771591186523,-15.106487274169922
1772650717575891000,3.361890869140625,18.511474609375,-21.617956161499023,-18.64906120300293
1772650717585768200,3.371768310546875,22.731815338134766,-20.676380157470703,-13.553545951843262
1772650717595631600,3.381631591796875,23.807388305664062,-16.378273010253906,-9.69631576538086
1772650717605522700,3.391522705078125,24.41277313232422,-14.404792785644531,-8.305487632751465
1772650717615400200,3.401400146484375,24.08734893798828,-14.785250663757324,-11.102697372436523
1772650717625263600,3.411263671875,22.68156623840332,-15.418750762939453,-14.803196907043457
1772650717635154700,3.42115478515625,20.0745849609375,-14.861821174621582,-15.616158485412598
1772650717645032000,3.431031982421875,17.61895179748535,-14.54776382446289,-14.743376731872559
1772650717654895600,3.4408955078125,15.011372566223145,-14.20020580291748,-13.771890640258789
1772650717664786700,3.45078662109375,12.698111534118652,-13.635499954223633,-14.228919982910156
1772650717674664000,3.460663818359375,12.256037712097168,-13.381860733032227,-13.932209968566895
1772650717684527400,3.47052734375,12.655040740966797,-12.543774604797363,-11.733205795288086
1772650717694418400,3.48041845703125,12.976277351379395,-11.012368202209473,-8.516654014587402
1772650717704296000,3.4902958984375,13.04207992553711,-9.378069877624512,-5.178666591644287
1772650717714159400,3.500159423828125,11.892927169799805,-7.6839518547058105,-2.6057839393615723
1772650717724050400,3.510050537109375,10.088738441467285,-6.249454498291016,-0.7818548083305359
1772650717733927700,3.519927734375,7.674978733062744,-4.9399824142456055,-0.08554340898990631
1772650717743791400,3.529791259765625,5.483152866363525,-4.037888050079346,0.03469592705368996
1772650717753682400,3.539682373046875,3.1746773719787598,-3.2584261894226074,-0.0975075215101242
1772650717763559700,3.5495595703125,0.9421738982200623,-2.2337000370025635,-0.2829512655735016
1772650717773423400,3.55942333984375,-0.8961120843887329,-1.3256237506866455,-0.16689938306808472
1772650717783314400,3.569314453125,-3.2165517807006836,-0.39062830805778503,-0.024526432156562805
1772650717793191700,3.579191650390625,-4.762315273284912,0.10408778488636017,-0.3290131092071533
1772650717803055000,3.58905517578125,-5.849853038787842,0.3361915946006775,-0.35832518339157104
1772650717812946200,3.5989462890625,-6.591030120849609,0.99481600522995,-0.5216353535652161
1772650717822823400,3.608823486328125,-6.808178424835205,1.6091731786727905,-0.5198407173156738
1772650717832687000,3.61868701171875,-6.62931489944458,1.9980069398880005,-0.8608179688453674
1772650717842578200,3.628578125,-6.092724800109863,2.169692039489746,-1.057029366493225
1772650717852455400,3.638455322265625,-5.2013983726501465,1.9716858863830566,-1.2083754539489746
1772650717862332700,3.648332763671875,-4.117449760437012,1.4757733345031738,-1.3483555316925049
1772650717872210200,3.658210205078125,-3.1716864109039307,1.038485050201416,-1.311864972114563
1772650717882087400,3.66808740234375,-2.2295124530792236,0.5497509837150574,-1.3914263248443604
1772650717891950800,3.677950927734375,-1.2221341133117676,0.22971096634864807,-1.272383451461792
1772650717901842000,3.687842041015625,-0.29371899366378784,0.005383851006627083,-0.9499505758285522
1772650717911719400,3.697719482421875,0.4372883439064026,-0.0568295381963253,-0.735194742679596
1772650717921582800,3.707582763671875,1.2179467678070068,-0.03290131315588951,-0.7836494445800781
1772650717931474000,3.717473876953125,1.810170292854309,0.12382857501506805,-0.875174880027771
1772650717941351200,3.72735107421875,2.0985054969787598,0.3858426511287689,-0.5335994362831116
1772650717951214800,3.73721484375,2.111665964126587,0.7130611538887024,-0.21296121180057526
1772650717961106000,3.74710595703125,1.892722725868225,0.672383189201355,-0.1381855010986328
1772650717970983200,3.756983154296875,1.3232308626174927,0.27696922421455383,-0.06939185410737991
1772650717980860400,3.7668603515625,0.8045865893363953,-0.21236300468444824,-0.17766708135604858
1772650717990738000,3.776738037109375,0.5491527915000916,-1.0348957777023315,-0.7585247755050659
1772650718000615200,3.786615234375,0.615553617477417,-1.8837496042251587,-1.5343974828720093
1772650718010478600,3.796478515625,1.0037890672683716,-2.5645077228546143,-2.820539712905884
1772650718020369700,3.80636962890625,1.7252250909805298,-3.071187973022461,-3.744767427444458
1772650718030247000,3.816246826171875,2.7218358516693115,-3.4791641235351562,-4.406383037567139
1772650718040110600,3.826110595703125,4.161118507385254,-4.160520553588867,-5.391627788543701
1772650718050001700,3.836001708984375,6.21774959564209,-4.5206403732299805,-6.226722717285156
1772650718059879000,3.84587890625,8.910871505737305,-5.507679462432861,-7.71386194229126
1772650718069742600,3.85574267578125,13.12822151184082,-7.797610759735107,-10.98006534576416
1772650718079633700,3.865633544921875,23.267807006835938,-11.20199966430664,-10.72582721710205
1772650718089511000,3.875510986328125,25.999813079833984,-14.777474403381348,-8.486145973205566
1772650718099374300,3.885374267578125,22.152751922607422,-7.326822757720947,-14.004592895507812
1772650718109265400,3.895265380859375,20.591434478759766,-6.780661106109619,-19.02952003479004
1772650718119143000,3.905142822265625,23.847469329833984,-12.388240814208984,-16.961523056030273
1772650718129006300,3.91500634765625,25.631916046142578,-14.319249153137207,-14.415559768676758
1772650718138897400,3.9248974609375,25.831716537475586,-14.059627532958984,-12.791431427001953
1772650718148774700,3.934774658203125,22.32443618774414,-10.318449020385742,-11.57288646697998
1772650718158638300,3.944638427734375,17.71586036682129,-6.576074600219727,-12.75195026397705
1772650718168529400,3.954529296875,14.391632080078125,-5.537590026855469,-12.878171920776367
1772650718178406700,3.96440673828125,13.503894805908203,-6.8895344734191895,-11.23908805847168
1772650718188270300,3.974270263671875,14.701501846313477,-9.017950057983398,-10.456634521484375
1772650718198161400,3.984161376953125,16.592430114746094,-11.287542343139648,-12.099308013916016
1772650718208038700,3.99403857421875,17.602800369262695,-13.13121223449707,-13.75214958190918
1772650718217902000,4.003902099609375,17.732011795043945,-12.765708923339844,-14.258830070495605
1772650718227793200,4.013793212890625,17.113468170166016,-11.382657051086426,-13.84666633605957
1772650718237670700,4.023670654296875,16.397415161132812,-9.384052276611328,-12.546765327453613
1772650718247534000,4.0335341796875,15.052050590515137,-6.845865726470947,-11.00877857208252
1772650718257425200,4.043425048828125,13.780265808105469,-5.465207099914551,-9.714859962463379
1772650718267302400,4.053302490234375,12.55573844909668,-4.624728202819824,-8.627920150756836
1772650718277166000,4.063166015625,10.572687149047852,-3.410968780517578,-7.141379356384277
1772650718287057200,4.07305712890625,7.9280195236206055,-2.5531418323516846,-5.433502197265625
1772650718296934400,4.082934326171875,4.9639105796813965,-1.898106575012207,-4.052245140075684
1772650718306798000,4.092798095703125,2.1750757694244385,-2.0201404094696045,-3.528217077255249
1772650718316689200,4.102689208984375,-0.07537391036748886,-2.3850460052490234,-3.380460262298584
1772650718326566400,4.11256640625,-1.551147222518921,-2.3294129371643066,-3.1728827953338623
1772650718336429800,4.122429931640625,-2.2893331050872803,-2.0470597743988037,-2.263011932373047
1772650718346321200,4.132321044921875,-2.5226333141326904,-1.415354609489441,-0.4097708761692047
1772650718356198400,4.142198486328125,-2.338984251022339,-0.6041877269744873,1.2873386144638062
1772650718366061800,4.152061767578125,-2.527418851852417,0.05563312768936157,1.7982062101364136
1772650718375953000,4.161952880859375,-3.0759735107421875,0.7483552694320679,1.0977073907852173
1772650718385830100,4.171830078125,-3.7746777534484863,1.2562319040298462,0.06340979784727097
1772650718395693800,4.18169384765625,-4.338785648345947,1.573280930519104,-0.7980063557624817
1772650718405585000,4.1915849609375,-4.572085857391357,1.7042878866195679,-1.2538390159606934
1772650718415462100,4.201462158203125,-4.249054908752441,1.456630825996399,-1.552343726158142
1772650718425339400,4.21133935546875,-3.284149169921875,0.7770691514015198,-1.6133606433868408
1772650718435217000,4.221216796875,-1.6923238039016724,0.1417747437953949,-1.332203984260559
1772650718445094100,4.23109423828125,-0.14715859293937683,-0.14656038582324982,-0.6771687865257263
1772650718454957600,4.24095751953125,0.8267202377319336,-0.1986042857170105,0.02751746028661728
1772650718464849000,4.250848876953125,1.1491531133651733,-0.15613168478012085,0.3355933725833893
1772650718474726100,4.26072607421875,1.3357932567596436,-0.5575276613235474,0.7130611538887024
1772650718484589600,4.270589599609375,1.628315806388855,-1.2634103298187256,1.1102696657180786
1772650718494480600,4.280480712890625,1.825723648071289,-2.2295124530792236,1.007378339767456
1772650718504358100,4.290358154296875,1.5667005777359009,-2.659024238586426,0.9170492887496948
1772650718514235400,4.3002353515625,1.1150553226470947,-2.066202402114868,0.9678967595100403
1772650718524112600,4.310112548828125,0.5688936114311218,-1.095314621925354,0.9505487680435181
1772650718533990000,4.319989990234375,0.20757736265659332,-0.38644084334373474,0.592223584651947
1772650718543867400,4.329867431640625,-0.19621145725250244,0.11186445504426956,0.44027936458587646
1772650718553744600,4.33974462890625,-0.48873403668403625,0.36311084032058716,0.3936193287372589
1772650718563622000,4.349621826171875,-0.7184450030326843,0.28115665912628174,0.20458634197711945
1772650718573499100,4.3594990234375,-1.073180913925171,0.31046873331069946,-0.3966103494167328
1772650718583376600,4.369376708984375,-1.32921302318573,0.27816563844680786,-1.2077772617340088
1772650718593254000,4.37925390625,-1.573280930519104,0.08255238085985184,-1.8843477964401245
1772650718603117300,4.389117431640625,-0.9373882412910461,-0.9840483069419861,-2.905484914779663
1772650718613008400,4.39900830078125,0.33499518036842346,-1.970489501953125,-4.060619831085205
1772650718622886000,4.408885986328125,1.3830515146255493,-3.1441688537597656,-5.803791522979736
1772650718632749300,4.418749267578125,4.922634601593018,-5.5692949295043945,-7.653443336486816
1772650718642640400,4.428640380859375,9.403194427490234,-9.878767967224121,-8.819944381713867
1772650718652517600,4.438517578125,17.402400970458984,-15.340386390686035,-7.607381343841553
1772650718662381300,4.44838134765625,28.435705184936523,-21.528823852539062,-4.201796531677246
1772650718672272400,4.4582724609375,37.34897232055664,-24.03231430053711,-3.52103853225708
1772650718682149600,4.468149658203125,30.653852462768555,-18.954145431518555,-8.267800331115723
1772650718692013300,4.478013427734375,16.03550148010254,-16.682161331176758,-14.541781425476074
1772650718701904400,4.487904296875,9.34157943725586,-19.37827491760254,-14.998810768127441
1772650718711781600,4.49778173828125,9.870991706848145,-20.3754825592041,-13.420145988464355
1772650718721645000,4.50764501953125,11.985050201416016,-17.94198226928711,-11.706884384155273
1772650718731536100,4.5175361328125,14.989239692687988,-13.513465881347656,-10.757532119750977
1772650718741413400,4.527413330078125,19.45663833618164,-11.590234756469727,-9.866804122924805
1772650718751277000,4.537277099609375,23.05903434753418,-12.714262962341309,-9.611370086669922
1772650718761168100,4.547168212890625,24.095125198364258,-15.29731559753418,-7.685148239135742
1772650718771045400,4.55704541015625,22.247867584228516,-18.504894256591797,-6.33499813079834
1772650718780909000,4.566908935546875,19.443479537963867,-21.02752685546875,-6.927819728851318
1772650718790800100,4.576800048828125,17.02912139892578,-21.4516544342041,-7.667799949645996
1772650718800677400,4.586677490234375,15.04726505279541,-19.6414852142334,-8.47178840637207
1772650718810540800,4.596540771484375,13.359128952026367,-16.326828002929688,-8.361719131469727
1772650718820432000,4.606431884765625,11.762517929077148,-12.67597770690918,-7.344171047210693
1772650718830309400,4.616309326171875,9.77408218383789,-8.863015174865723,-5.702694416046143
1772650718840172800,4.6261728515625,7.668398380279541,-6.650252342224121,-4.154538154602051
1772650718850064000,4.63606396484375,5.6099724769592285,-5.224130153656006,-3.1411778926849365
1772650718859941000,4.645941162109375,3.6424741744995117,-3.90987229347229,-2.32761812210083
1772650718869804800,4.6558046875,1.7748762369155884,-3.373281717300415,-2.107478618621826
1772650718879696000,4.66569580078125,0.17108681797981262,-2.733799934387207,-1.428515076637268
1772650718889573000,4.675572998046875,-1.9202401638031006,-1.090528964996338,-0.9373882412910461
1772650718899436800,4.685436767578125,-3.479762315750122,-0.0891326442360878,-1.0630114078521729
1772650718909328000,4.695327880859375,-4.979464054107666,0.8787640929222107,-1.3106685876846313
1772650718919205000,4.705205078125,-6.10468864440918,1.5864413976669312,-1.222732424736023
1772650718929068500,4.715068603515625,-6.6006011962890625,1.6420745849609375,-1.9962122440338135
1772650718938959600,4.724959716796875,-5.708078384399414,0.5814558863639832,-2.191227436065674
1772650718948837000,4.734837158203125,-6.511468410491943,2.187039852142334,-1.594218134880066
1772650718958714400,4.74471435546875,-5.395216941833496,1.6839489936828613,-2.2606191635131836
1772650718968591600,4.754591552734375,-4.122833251953125,0.6149554252624512,-2.5525436401367188
1772650718978469000,4.76446923828125,-2.7248268127441406,-0.3367897868156433,-2.8456642627716064
1772650718988332500,4.77433251953125,-1.3992030620574951,-0.7172485589981079,-2.5178475379943848
1772650718998223600,4.7842236328125,-0.04546362906694412,-0.39062830805778503,-1.797009825706482
1772650719008100900,4.794100830078125,1.2376874685287476,0.5204389095306396,-0.8368897438049316
1772650719017964500,4.803964599609375,2.2474586963653564,1.6773686408996582,0.06041877344250679
1772650719027855600,4.813855712890625,2.5058834552764893,2.8600213527679443,0.6861419081687927
1772650719037732900,4.82373291015625,2.097309112548828,4.353740692138672,1.394417405128479
1772650719047596300,4.83359619140625,2.017747640609741,3.896113395690918,2.771486759185791
1772650719057487400,4.8434873046875,1.6564314365386963,2.717050075531006,2.3300111293792725
1772650719067364600,4.853364501953125,0.6795616149902344,1.5343974828720093,1.975873351097107
1772650719077228300,4.863228271484375,-0.4666004180908203,0.5718846321105957,1.2897313833236694
1772650719087119400,4.873119384765625,-1.3710874319076538,-0.06161518394947052,0.2560320198535919
1772650719096996600,4.88299658203125,-2.1930220127105713,-0.43190449476242065,-0.7405785918235779
1772650719106860300,4.8928603515625,-2.6195425987243652,-0.8356932997703552,-1.4470595121383667
1772650719116751400,4.90275146484375,-2.469393014907837,-1.5517455339431763,-1.7832510471343994
1772650719126628600,4.912628662109375,-2.2301106452941895,-2.4388844966888428,-2.3617160320281982
1772650719136492000,4.922491943359375,-1.4745769500732422,-1.8185452222824097,-3.152543783187866
1772650719146383000,4.932383056640625,-0.06340979784727097,-1.4398809671401978,-4.054637908935547
1772650719156260600,4.942260498046875,2.583052158355713,-2.8426733016967773,-5.940182209014893
1772650719166124000,4.9521240234375,6.354738712310791,-5.787639617919922,-7.3776702880859375
1772650719176015000,4.96201513671875,11.055438995361328,-10.186843872070312,-8.50588607788086
1772650719185892400,4.971892333984375,18.909879684448242,-17.321044921875,-9.534799575805664
1772650719195756000,4.981756103515625,29.62493896484375,-22.412372589111328,-9.346364974975586
1772650719205647000,4.991647216796875,34.32982635498047,-15.184852600097656,-5.6656060218811035
1772650719215524400,5.0015244140625,26.13381004333496,0.7280163168907166,-4.158127784729004
1772650719225387800,5.0113876953125,13.700105667114258,0.4043870270252228,-11.635698318481445
1772650719235278800,5.02127880859375,8.798408508300781,-5.787639617919922,-18.8123722076416
1772650719245156400,5.03115625,10.718050956726074,-13.39861011505127,-18.198612213134766
1772650719255019800,5.041019775390625,11.837891578674316,-15.650256156921387,-16.816757202148438
1772650719264910800,5.050910888671875,12.18245792388916,-14.405988693237305,-13.47338581085205
1772650719274788000,5.0607880859375,14.834303855895996,-15.133406639099121,-11.998808860778809
1772650719284651800,5.07065185546875,19.0588321685791,-16.85683822631836,-10.969895362854004
1772650719294542800,5.08054296875,21.491735458374023,-17.809181213378906,-10.969297409057617
1772650719304420000,5.090420166015625,19.939390182495117,-16.269399642944336,-12.839886665344238
1772650719314283500,5.100283447265625,18.243478775024414,-14.1194486618042,-14.642279624938965
1772650719324174800,5.1101748046875,17.144575119018555,-12.979268074035645,-14.959927558898926
1772650719334052000,5.120052001953125,16.7736873626709,-13.040285110473633,-15.427125930786133
1772650719343929300,5.129929443359375,16.761123657226562,-13.755739212036133,-14.645271301269531
1772650719353806600,5.139806640625,15.74118423461914,-13.24726390838623,-13.4099760055542
1772650719363684000,5.14968408203125,14.283954620361328,-11.398210525512695,-12.065210342407227
1772650719373547500,5.159547607421875,12.106486320495605,-9.351150512695312,-10.61276626586914
1772650719383438600,5.1694384765625,9.498309135437012,-7.735995769500732,-9.275776863098145
1772650719393315800,5.17931591796875,6.343971252441406,-5.759523868560791,-8.154739379882812
1772650719403179500,5.189179443359375,3.1274192333221436,-4.104887008666992,-6.686742782592773
1772650719413070600,5.199070556640625,0.7758727669715881,-3.2410783767700195,-5.173880577087402
1772650719422947800,5.20894775390625,-0.6819544434547424,-3.2069804668426514,-4.049253940582275
1772650719432811500,5.2188115234375,-2.311466693878174,-2.806781053543091,-3.4438700675964355
1772650719442702600,5.22870263671875,-4.171886444091797,-2.0679969787597656,-3.022733211517334
1772650719452579800,5.238579833984375,-5.378467082977295,-1.0971091985702515,-2.022533416748047
1772650719462443300,5.248443359375,-6.103492259979248,0.006580262444913387,-1.2855439186096191
1772650719472334600,5.25833447265625,-6.610172748565674,0.8590233325958252,-1.2729816436767578
1772650719482211800,5.2682119140625,-6.226722717285156,1.5565310716629028,0.21954147517681122
1772650719492075300,5.2780751953125,-5.781059741973877,2.1708884239196777,1.2269197702407837
1772650719501966300,5.28796630859375,-5.333601474761963,2.6273193359375,1.3704891204833984
1772650719511843800,5.29784375,-4.436891555786133,2.3054845333099365,1.2873386144638062
1772650719521707300,5.307707275390625,-2.922234535217285,0.9858429431915283,0.8632107973098755
1772650719531598300,5.317598388671875,-1.374078392982483,0.37507495284080505,0.7591229677200317
1772650719541475600,5.3274755859375,-0.20997019112110138,0.16510476171970367,1.064207911491394
1772650719551339300,5.33733935546875,0.9445667266845703,-0.012562318705022335,1.2550355195999146
1772650719561230300,5.347230224609375,1.6450655460357666,-0.13639089465141296,1.2580264806747437
1772650719571107600,5.357107666015625,2.0452651977539062,0.129810631275177,1.220937728881836
1772650719580971300,5.36697119140625,2.3473589420318604,0.43549370765686035,1.1186445951461792
1772650719590862300,5.3768623046875,2.795415163040161,0.43190449476242065,0.5623133182525635
1772650719600739600,5.386739501953125,3.181257724761963,0.4247260093688965,0.17228323221206665
1772650719610616800,5.396616943359375,2.9928228855133057,0.19740787148475647,-0.31824541091918945
1772650719620494000,5.406494140625,2.0069799423217773,-0.018544375896453857,-0.8889335989952087
1772650719630371600,5.41637158203125,1.1030912399291992,-0.22432711720466614,-1.6049858331680298
1772650719640248800,5.426248779296875,0.5724828243255615,-0.06699903309345245,-1.3668999671936035
1772650719650126000,5.4361259765625,0.3768695592880249,-0.037088751792907715,-1.4398809671401978
1772650719660003600,5.446003662109375,0.3852444589138031,0.2602194547653198,-1.4644074440002441
1772650719669880800,5.455880859375,0.6951149702072144,-0.24287149310112,-1.6301103830337524
1772650719679758000,5.465758056640625,0.7202396392822266,-0.5557330846786499,-2.8965117931365967
1772650719689635300,5.47563525390625,1.0845468044281006,-1.825723648071289,-2.65423846244812
1772650719699499000,5.4854990234375,1.6007983684539795,-3.549154281616211,-3.76570463180542
1772650719709390000,5.49539013671875,3.2303106784820557,-6.220142364501953,-4.335196495056152
1772650719719267300,5.505267333984375,6.108277797698975,-9.730413436889648,-4.648656368255615
1772650719729130800,5.515130859375,9.454042434692383,-13.071990013122559,-5.951548099517822
1772650719739022000,5.52502197265625,14.288142204284668,-15.276976585388184,-5.937789440155029
1772650719748899300,5.5348994140625,19.9962215423584,-17.279767990112305,-7.061219692230225
1772650719758762800,5.5447626953125,24.45345115661621,-19.622940063476562,-8.183453559875488
1772650719768653800,5.55465380859375,23.56571388244629,-18.226728439331055,-8.508278846740723
1772650719778531000,5.564531005859375,16.444673538208008,-14.733805656433105,-6.346961975097656
1772650719788394800,5.574394775390625,10.76530933380127,-15.387045860290527,-4.591826438903809
1772650719798285800,5.584285888671875,9.358927726745605,-16.953147888183594,-9.750752449035645
1772650719808163000,5.5941630859375,11.09073257446289,-17.946767807006836,-15.193825721740723
1772650719818026800,5.60402685546875,14.229517936706543,-15.390036582946777,-14.190634727478027
1772650719827917600,5.61391748046875,18.656837463378906,-14.767305374145508,-11.880364418029785
1772650719837795000,5.623795166015625,21.802204132080078,-15.779468536376953,-10.381260871887207
1772650719847658500,5.633658447265625,21.98345947265625,-17.18405532836914,-9.345169067382812
1772650719857549600,5.643549560546875,19.812570571899414,-18.03948974609375,-8.956335067749023
1772650719867426800,5.6534267578125,16.623537063598633,-18.298513412475586,-9.54496955871582
1772650719877290500,5.66329052734375,13.560126304626465,-17.523836135864258,-9.720243453979492
1772650719887181600,5.673181640625,11.850454330444336,-16.887943267822266,-9.369695663452148
1772650719897058800,5.683058837890625,11.36351490020752,-16.183258056640625,-9.063413619995117
1772650719906922500,5.692922607421875,10.825727462768555,-14.963516235351562,-9.042476654052734
1772650719916813600,5.7028134765625,9.937392234802246,-13.009178161621094,-8.087141990661621
1772650719926690800,5.71269091796875,9.0514497756958,-10.849058151245117,-7.097710132598877
1772650719936554200,5.72255419921875,7.851449489593506,-8.511270523071289,-6.0640106201171875
1772650719946445300,5.7324453125,6.260820388793945,-6.233303070068359,-4.4584269523620605
1772650719956322800,5.74232275390625,4.4374895095825195,-4.607978343963623,-3.910470485687256
1772650719966186200,5.752186279296875,2.7361927032470703,-3.4002010822296143,-2.8630123138427734
1772650719976077300,5.762077392578125,0.867398202419281,-1.200000524520874,-0.9918249845504761
1772650719985954600,5.77195458984375,-0.641276478767395,0.7704889178276062,0.15194423496723175
1772650719995818200,5.781818359375,-1.4141582250595093,1.6582261323928833,0.2554338276386261
1772650720005709300,5.791709228515625,-2.297708034515381,2.139183521270752,0.2584248483181
1772650720015586600,5.801586669921875,-3.2368907928466797,2.1852452754974365,-0.05024927482008934
1772650720025450200,5.8114501953125,-3.8769710063934326,1.994417667388916,-0.3655036687850952
1772650720035341300,5.82134130859375,-4.426722049713135,2.0129621028900146,-0.6999006271362305
1772650720045218600,5.831218505859375,-4.835894584655762,2.1158533096313477,-0.9876375198364258
1772650720055082200,5.841082275390625,-4.932804107666016,1.8508483171463013,-1.1820544004440308
1772650720064973300,5.850973388671875,-4.4751763343811035,0.859621524810791,-1.2741780281066895
1772650720074850600,5.8608505859375,-3.617947816848755,-0.2709871530532837,-1.3202399015426636
1772650720084714000,5.8707138671875,-2.641077995300293,-0.9068797826766968,-1.389033555984497
1772650720094605300,5.880605224609375,-1.835893154144287,-0.9583254456520081,-1.327418327331543
1772650720104482600,5.890482666015625,-1.01814603805542,-0.5629115104675293,-1.212562918663025
1772650720114346000,5.900345947265625,-0.09810572862625122,-0.05383851006627083,-1.195214867591858
1772650720124237000,5.910237060546875,0.8584251403808594,0.4827519655227661,-0.8703892230987549
1772650720134114600,5.920114501953125,1.674377679824829,0.8386843204498291,-0.3768695592880249
1772650720143978000,5.92997802734375,2.1858434677124023,0.98703932762146,0.2584248483181
1772650720153869000,5.939869140625,2.163111686706543,0.8105686902999878,0.49591249227523804
1772650720163746300,5.949746337890625,1.7491533756256104,0.34636107087135315,0.5551348328590393
1772650720173623800,5.959623779296875,1.164108157157898,-0.2267199456691742,0.4414757788181305
1772650720183501000,5.9695009765625,0.4540380835533142,-0.8303094506263733,-0.04785645380616188
1772650720193378300,5.97937841796875,-0.2967100143432617,-1.4117653369903564,-0.4061816334724426
1772650720203242000,5.989241943359375,-0.6598208546638489,-2.4975085258483887,-0.6035895347595215
1772650720213133000,5.999133056640625,-0.9254241585731506,-3.0245277881622314,-0.7758727669715881
1772650720223010300,6.00901025390625,-0.867398202419281,-2.504088878631592,-0.4426721930503845
1772650720232887600,6.018887451171875,-0.5659025311470032,-2.2953150272369385,-0.9678967595100403
1772650720242764800,6.028764892578125,-0.1824527233839035,-1.7611174583435059,-1.6325032711029053
1772650720252642300,6.038642333984375,0.4707878530025482,-1.1718848943710327,-2.146361827850342
1772650720262505700,6.048505615234375,1.750349760055542,-3.6610186100006104,-3.250051259994507
1772650720272396800,6.058396728515625,3.1824541091918945,-5.9647088050842285,-5.340780258178711
1772650720282274000,6.068274169921875,6.706483840942383,-9.54078197479248,-7.823931694030762
1772650720292137700,6.0781376953125,15.964314460754395,-16.94955825805664,-10.723434448242188
1772650720302028800,6.08802880859375,31.859834671020508,-24.385255813598633,-11.829517364501953
1772650720311906000,6.097906005859375,22.33221435546875,-6.242276191711426,-8.014161109924316
1772650720321769700,6.107769775390625,12.297911643981934,3.67238450050354,-7.970492362976074
1772650720331660500,6.11766064453125,9.069396018981934,-0.07597211748361588,-16.752750396728516
1772650720341538000,6.1275380859375,11.636895179748535,-5.9676995277404785,-21.551555633544922
1772650720351401500,6.1374013671875,9.789037704467773,-7.025925636291504,-20.945573806762695
1772650720361292500,6.14729248046875,10.02173900604248,-7.8693952560424805,-17.921045303344727
1772650720371169800,6.157169677734375,15.193825721740723,-11.458629608154297,-16.340585708618164
1772650720381033500,6.167033447265625,17.962919235229492,-11.867203712463379,-11.114063262939453
1772650720390924500,6.176924560546875,17.651254653930664,-9.746564865112305,-7.9627156257629395
1772650720400801800,6.1868017578125,16.031312942504883,-9.031110763549805,-7.83111047744751
1772650720410665500,6.19666552734375,15.611372947692871,-9.639486312866211,-7.908876895904541
1772650720420556500,6.206556640625,14.032110214233398,-9.467801094055176,-8.798408508300781
1772650720430433800,6.216433837890625,12.129218101501465,-8.93420124053955,-10.185647964477539
1772650720440297200,6.226297119140625,11.478968620300293,-9.248857498168945,-12.674781799316406
1772650720450188300,6.236188232421875,11.959327697753906,-10.524231910705566,-14.58903980255127
1772650720460065800,6.246065673828125,12.502498626708984,-10.884950637817383,-14.870794296264648
1772650720469929200,6.25592919921875,13.075579643249512,-10.342975616455078,-14.800206184387207
1772650720479820300,6.2658203125,12.89193058013916,-8.21994400024414,-13.651053428649902
1772650720489697500,6.275697509765625,13.00678539276123,-7.720442295074463,-13.642080307006836
1772650720499561200,6.285561279296875,12.760923385620117,-6.966104984283447,-13.23410415649414
1772650720509452300,6.295452392578125,12.620943069458008,-6.725626468658447,-12.185449600219727
1772650720519329500,6.30532958984375,12.196216583251953,-6.723831653594971,-10.566106796264648
1772650720529193200,6.315193115234375,11.225927352905273,-6.5874409675598145,-8.819944381713867
1772650720539084300,6.325084228515625,9.854242324829102,-6.375077724456787,-7.4847493171691895
1772650720548961500,6.33496142578125,8.240880966186523,-6.323033809661865,-6.382854461669922
1772650720558825200,6.3448251953125,6.235695838928223,-6.135197162628174,-5.126622676849365
1772650720568716300,6.35471630859375,4.796412944793701,-6.733402729034424,-4.764708042144775
1772650720578593500,6.364593505859375,3.4498519897460938,-6.87517786026001,-4.613361835479736
1772650720588457000,6.37445703125,2.5501506328582764,-6.361319065093994,-4.398007869720459
1772650720598348300,6.384348388671875,1.062413215637207,-5.085346221923828,-3.7884364128112793
1772650720608225500,6.3942255859375,0.016749758273363113,-3.0215368270874023,-2.6261229515075684
1772650720618089000,6.4040888671875,-0.8823533654212952,-1.0504491329193115,-1.3513466119766235
1772650720627980000,6.41397998046875,-1.4333007335662842,0.2392822653055191,-0.4660021960735321
1772650720637857500,6.423857421875,-1.6235301494598389,1.00259268283844,0.6059823632240295
1772650720647721000,6.433720947265625,-2.313859462738037,1.9956140518188477,1.5086746215820312
1772650720657612000,6.443612060546875,-3.3930225372314453,2.4053850173950195,1.357926845550537
1772650720667489300,6.4534892578125,-4.490729808807373,2.521436929702759,0.6915257573127747
1772650720677353000,6.46335302734375,-5.298905849456787,2.348555326461792,-0.10648060590028763
1772650720687244000,6.473244140625,-5.590231895446777,2.1918256282806396,-0.4540380835533142
1772650720697121300,6.483121337890625,-5.1152567863464355,1.7407784461975098,-0.4085744619369507
1772650720706998500,6.49299853515625,-4.030111312866211,1.0689935684204102,-0.23449662327766418
1772650720716876000,6.5028759765625,-2.7038896083831787,0.3595215976238251,-0.11485548317432404
1772650720726753300,6.512753173828125,-1.6211373805999756,0.6089733839035034,-0.35054850578308105
1772650720736616700,6.52261669921875,-0.1698904037475586,-0.24885354936122894,-0.3732803463935852
1772650720746507800,6.5325078125,0.924227774143219,-0.7010970115661621,-1.1922239065170288
1772650720756385300,6.54238525390625,1.3698909282684326,-0.9290133714675903,-1.301695466041565
1772650720766248700,6.552248779296875,1.3268201351165771,-0.6861419081687927,-0.786640465259552
1772650720776139800,6.562139892578125,0.8901300430297852,0.04366901144385338,0.13938191533088684
1772650720786017300,6.572017333984375,0.3068794906139374,0.3768695592880249,0.7525427341461182
1772650720795894500,6.58189453125,-0.3122633695602417,0.5928218364715576,0.7100701332092285
1772650720805771800,6.591771728515625,-0.5736792087554932,0.8111668825149536,0.6777670383453369
1772650720815649000,6.60164892578125,-0.26560330390930176,0.8063812255859375,0.7722834944725037
1772650720825526500,6.611526611328125,0.2626122832298279,0.25363919138908386,0.9260223507881165
1772650720835403800,6.62140380859375,0.40319061279296875,-1.373480200767517,-0.2021935135126114
1772650720845281000,6.631281005859375,0.4534398913383484,-3.4989049434661865,-2.775076150894165
1772650720855144700,6.641144775390625,1.1467602252960205,-5.760122299194336,-5.103890895843506
1772650720865035800,6.651035888671875,3.328416347503662,-8.429315567016602,-6.989434719085693
1772650720874913000,6.6609130859375,6.358327865600586,-10.807183265686035,-7.686344623565674
1772650720884776400,6.6707763671875,11.173285484313965,-12.89492130279541,-6.046064376831055
1772650720894667500,6.68066748046875,19.220945358276367,-16.268203735351562,-3.9589250087738037
1772650720904545000,6.690544921875,26.193632125854492,-18.479768753051758,-3.211766242980957
1772650720914408400,6.700408447265625,23.479572296142578,-15.460625648498535,-7.595417499542236
1772650720924299500,6.710299560546875,20.262422561645508,-12.167503356933594,-9.170493125915527
1772650720934176800,6.7201767578125,19.62174415588379,-13.895120620727539,-5.176273345947266
1772650720944040400,6.73004052734375,15.714264869689941,-13.838890075683594,-3.7393836975097656
1772650720953931500,6.739931640625,13.314263343811035,-13.942977905273438,-8.028517723083496
1772650720963808800,6.749808837890625,12.857832908630371,-13.415958404541016,-9.65683364868164
1772650720973672400,6.75967236328125,13.776078224182129,-12.798609733581543,-10.295717239379883
1772650720983563500,6.7695634765625,15.30449390411377,-13.439288139343262,-10.86161994934082
1772650720993440800,6.779440673828125,15.772290229797363,-14.173885345458984,-11.282756805419922
1772650721003304200,6.78930419921875,15.044872283935547,-13.665410041809082,-10.920842170715332
1772650721013195300,6.7991953125,14.535201072692871,-13.190434455871582,-9.932008743286133
1772650721023072800,6.80907275390625,14.47478199005127,-13.305290222167969,-8.162516593933105
1772650721032936200,6.818936279296875,13.83530044555664,-13.598411560058594,-7.118647575378418
1772650721042827300,6.8288271484375,12.612567901611328,-13.104891777038574,-7.140182971954346
1772650721052704500,6.83870458984375,10.989636421203613,-11.846864700317383,-7.392625331878662
1772650721062568200,6.848568115234375,9.579665184020996,-10.441082000732422,-7.2921271324157715
1772650721072459300,6.858459228515625,8.638090133666992,-9.394221305847168,-6.655636310577393
1772650721082336500,6.86833642578125,7.491329669952393,-8.46341323852539,-5.886941909790039
1772650721092200200,6.8782001953125,6.119045734405518,-7.22034215927124,-4.838287353515625
1772650721102091300,6.88809130859375,4.920839786529541,-5.754140377044678,-3.686143398284912
1772650721111968500,6.897968505859375,3.6915271282196045,-4.642673969268799,-3.1998021602630615
1772650721121832000,6.90783203125,2.963510751724243,-3.985246181488037,-2.743969440460205
1772650721131723000,6.917722900390625,2.764308452606201,-3.66520619392395,-2.365305185317993
1772650721141600500,6.9276005859375,2.5184457302093506,-3.5778679847717285,-2.372483730316162
1772650721151464000,6.9374638671875,1.9824535846710205,-3.4468610286712646,-2.441277265548706
1772650721161355000,6.94735498046875,1.4141582250595093,-2.953939437866211,-2.2887349128723145
1772650721171232300,6.957232177734375,0.8638089895248413,-2.6273193359375,-2.3515465259552
1772650721181096000,6.967095947265625,0.44805604219436646,-1.9076778888702393,-1.9764715433120728
1772650721190987000,6.976987060546875,0.09451649338006973,-1.0049854516983032,-1.217348575592041
1772650721200864300,6.9868642578125,-0.019740786403417587,-0.0849452018737793,-0.21595224738121033
1772650721210728000,6.99672802734375,-0.30209386348724365,0.8793623447418213,0.7094719409942627
1772650721220619000,7.006618896484375,-0.5431707501411438,1.4500504732131958,0.8189435601234436
1772650721230496300,7.016496337890625,-0.9834501147270203,1.8305093050003052,0.9092726111412048
1772650721240360000,7.02635986328125,-1.2699905633926392,1.8574285507202148,1.1204391717910767
1772650721250250800,7.036250732421875,-0.9128618240356445,1.587039589881897,1.3573286533355713
1772650721260128300,7.046128173828125,-0.20338992774486542,1.074975609779358,1.7150555849075317
1772650721270005500,7.056005615234375,0.8733802437782288,0.6592226624488831,1.7102699279785156
1772650721279882800,7.0658828125,1.8400806188583374,0.6149554252624512,0.9092726111412048
1772650721289760300,7.07576025390625,2.6009981632232666,0.30568310618400574,-0.3798605799674988
1772650721299623700,7.085623779296875,3.57906436920166,0.2566302418708801,-1.090528964996338
1772650721309514800,7.0955146484375,4.745565414428711,-0.5665007829666138,-2.6327030658721924
1772650721319392000,7.10539208984375,6.001199245452881,-2.2510478496551514,-4.2454657554626465
1772650721329255700,7.115255615234375,7.354938507080078,-3.7112679481506348,-5.274977684020996
1772650721339146800,7.125146728515625,8.567501068115234,-4.893322467803955,-6.172286033630371
1772650721349024000,7.13502392578125,9.948758125305176,-5.667998790740967,-7.704290866851807
1772650721358887700,7.1448876953125,10.251450538635254,-5.210371494293213,-8.35573673248291
1772650721368778800,7.15477880859375,10.28614616394043,-4.569094657897949,-8.712865829467773
1772650721378656000,7.164656005859375,12.04786205291748,-5.449653625488281,-8.872586250305176
1772650721388519400,7.17451953125,15.155540466308594,-6.984649181365967,-9.53061294555664
1772650721398410500,7.184410400390625,16.316059112548828,-6.467799663543701,-9.540184020996094
1772650721408288000,7.1942880859375,17.975481033325195,-3.0454649925231934,-6.009573936462402
1772650721418151400,7.2041513671875,17.11167335510254,-0.6382854580879211,-5.316253662109375
1772650721428042500,7.21404248046875,15.472589492797852,-0.10348957777023315,-6.930810928344727
1772650721437919700,7.223919677734375,14.632708549499512,-1.7724833488464355,-7.544569969177246
1772650721447783400,7.233783447265625,14.659627914428711,-4.071387767791748,-7.211369037628174
1772650721457674500,7.243674560546875,14.934802055358887,-5.8959150314331055,-6.0023956298828125
1772650721467551700,7.2535517578125,14.662618637084961,-6.20219612121582,-4.954339504241943
1772650721477415400,7.26341552734375,13.449458122253418,-5.570491313934326,-5.042275428771973
1772650721487306500,7.273306396484375,12.380464553833008,-4.924428939819336,-5.426323413848877
1772650721497183700,7.283183837890625,11.755937576293945,-4.696512699127197,-5.545366287231445
1772650721507047200,7.293047119140625,11.193624496459961,-4.396213531494141,-5.370092391967773
1772650721516938500,7.3029384765625,10.882556915283203,-4.024129390716553,-4.955535888671875
1772650721526815700,7.312815673828125,10.449456214904785,-3.7537405490875244,-4.96630334854126
1772650721536679200,7.32267919921875,10.063015937805176,-3.569493293762207,-5.233701229095459
1772650721546570200,7.3325703125,9.671191215515137,-3.4713873863220215,-5.3312087059021
1772650721556447500,7.342447509765625,9.245268821716309,-3.147160053253174,-5.132604598999023
1772650721566311200,7.352311279296875,8.940781593322754,-2.823530673980713,-4.865206718444824
1772650721576202200,7.3622021484375,8.679964065551758,-2.6368906497955322,-4.692325115203857
1772650721586079500,7.37207958984375,8.912068367004395,-2.7248268127441406,-4.496711730957031
1772650721595957000,7.38195703125,8.851051330566406,-2.3030917644500732,-4.277170658111572
1772650721605834200,7.391834228515625,8.51306438446045,-2.066800594329834,-4.149752616882324
1772650721615711500,7.40171142578125,8.511868476867676,-2.2576282024383545,-4.128815650939941
1772650721625588700,7.411588623046875,8.483752250671387,-2.279761791229248,-3.9637107849121094
1772650721635466200,7.42146630859375,8.526823043823242,-2.3126630783081055,-3.920639991760254
1772650721645343500,7.431343505859375,8.505288124084473,-2.293520450592041,-3.8733816146850586
1772650721655220700,7.441220703125,8.712865829467773,-2.172683000564575,-3.8464624881744385
1772650721665098200,7.45109814453125,8.559724807739258,-1.7461622953414917,-3.0137600898742676
1772650721674975500,7.4609755859375,8.190631866455078,-1.23589289188385,-2.434098720550537
1772650721684839000,7.4708388671875,7.625925540924072,-1.200000524520874,-1.4171491861343384
1772650721694730000,7.48072998046875,7.232306480407715,-1.150349497795105,-0.9852447509765625
1772650721704607500,7.490607421875,6.999006271362305,-0.9320043921470642,-1.5487544536590576
1772650721714484700,7.500484619140625,6.8512492179870605,-0.7525427341461182,-2.1930220127105713
1772650721724362000,7.510362060546875,6.938587665557861,-0.7022934556007385,-2.7278177738189697
1772650721734239500,7.520239501953125,7.082156658172607,-0.8865407705307007,-2.848057270050049
1772650721744116700,7.53011669921875,7.207779884338379,-1.1539387702941895,-2.9174489974975586
1772650721753994000,7.539993896484375,7.037291526794434,-1.3609179258346558,-2.5645077228546143
1772650721763871200,7.549871337890625,8.50708293914795,-0.9463613629341125,-2.3736801147460938
1772650721773748700,7.559748779296875,7.88076114654541,-0.39900317788124084,-2.558525562286377
1772650721783626000,7.5696259765625,7.7252278327941895,-0.23030917346477509,-2.3569302558898926
1772650721793503200,7.579503173828125,7.93579626083374,-0.22133609652519226,-2.1954147815704346
1772650721803380700,7.589380615234375,8.358129501342773,-0.4181457459926605,-2.785843849182129
1772650721813258000,7.599258056640625,9.123832702636719,-0.5868397355079651,-2.751147747039795
1772650721823135200,7.60913525390625,9.789037704467773,-0.7022934556007385,-2.3575284481048584
1772650721832999000,7.6189990234375,10.17308521270752,-0.7920243144035339,-2.407777786254883
1772650721842890000,7.628889892578125,10.223933219909668,-0.906281590461731,-2.609373092651367
1772650721852767200,7.638767333984375,10.514062881469727,-1.2819547653198242,-2.894717216491699
1772650721862644500,7.64864453125,10.841879844665527,-1.5284154415130615,-3.136990547180176
1772650721872521700,7.658521728515625,10.971092224121094,-1.5332010984420776,-2.915654420852661
1772650721882399200,7.668399169921875,10.915458679199219,-1.3776676654815674,-2.850450038909912
1772650721892276500,7.6782763671875,10.705488204956055,-1.350150227546692,-2.899502754211426
1772650721902153700,7.68815380859375,10.580463409423828,-1.2664014101028442,-3.040679454803467
1772650721912031200,7.69803125,10.578070640563965,-1.3812568187713623,-3.342175006866455
1772650721921908500,7.707908447265625,10.62831974029541,-1.7060825824737549,-3.9224345684051514
1772650721931785700,7.71778564453125,10.661819458007812,-2.3294129371643066,-5.567500114440918
1772650721941663000,7.7276630859375,10.577472686767578,-2.045863389968872,-2.699103832244873
1772650721951526700,7.737526611328125,10.388439178466797,-1.726421594619751,-1.9417755603790283
1772650721961417700,7.747417724609375,10.695319175720215,-1.6701902151107788,-2.358126640319824
1772650721971295000,7.757294921875,10.721639633178711,-2.118844509124756,-3.4205398559570312
1772650721981172200,7.767172119140625,10.39621639251709,-2.600399971008301,-3.7842490673065186
1772650721991049700,7.7770498046875,9.887741088867188,-2.6703901290893555,-3.6532418727874756
1772650722000927000,7.786927001953125,9.4390869140625,-2.5878376960754395,-3.325425386428833
1772650722010804200,7.79680419921875,9.343374252319336,-2.3772692680358887,-2.9868409633636475
1772650722020681700,7.806681640625,9.32423210144043,-2.4119651317596436,-2.885744094848633
1772650722030559000,7.81655908203125,8.658429145812988,-3.1076784133911133,-5.800800323486328
1772650722040422400,7.82642236328125,9.5802640914917,-2.431107759475708,-1.2239288091659546
1772650722050313500,7.8363134765625,9.046066284179688,-3.276970624923706,-1.3728820085525513
1772650722060191000,7.84619091796875,8.68774127960205,-3.1238300800323486,-2.4670002460479736
1772650722070068200,7.856068115234375,8.767900466918945,-3.2937204837799072,-2.252842426300049
1772650722079945500,7.865945556640625,8.517251968383789,-3.383451223373413,-2.084746837615967
1772650722089823000,7.875822998046875,8.499305725097656,-3.001796007156372,-1.8478572368621826
1772650722099700200,7.8857001953125,7.985447406768799,-3.308077335357666,-1.7473586797714233
1772650722109577500,7.895577392578125,8.527421951293945,-3.1214370727539062,-1.5702898502349854
1772650722119454700,7.905454833984375,8.692526817321777,-3.0927233695983887,-2.4406790733337402
1772650722129332200,7.915332275390625,8.668598175048828,-3.5150563716888428,-2.179263114929199
1772650722139215000,7.925215087890625,8.924630165100098,-3.463610887527466,-1.6660027503967285
1772650722149092400,7.93509228515625,8.988637924194336,-3.2297122478485107,-1.4015958309173584
1772650722158969900,7.944969970703125,9.1657075881958,-3.2518460750579834,-1.280758261680603
1772650722168847000,7.95484716796875,9.159725189208984,-3.5545380115509033,-1.506281852722168
1772650722178724400,7.964724365234375,10.571490287780762,-3.596412420272827,-1.4656038284301758
1772650722188601900,7.974601806640625,9.995418548583984,-3.84765887260437,-2.3162522315979004
1772650722198479000,7.98447900390625,8.775676727294922,-4.1659040451049805,-2.6901309490203857
1772650722208356400,7.9943564453125,9.034700393676758,-3.2919256687164307,-1.153340458869934
1772650722218233600,8.004233642578125,7.844869136810303,-3.0831520557403564,-0.8482556343078613
1772650722228111000,8.014111083984375,7.464410305023193,-2.6602206230163574,-0.3535395562648773
1772650722237988400,8.02398828125,7.110870838165283,-1.8496519327163696,0.251844584941864
1772650722247865600,8.033865478515626,7.15513801574707,-1.9692929983139038,-0.8069794178009033
1772650722257742800,8.043742919921876,7.919644832611084,-2.5250260829925537,-0.5754738450050354
1772650722267620400,8.053620361328125,8.554939270019531,-3.207578659057617,-0.8691928386688232
1772650722277497600,8.06349755859375,8.776873588562012,-3.668795347213745,-0.7794619798660278
1772650722287374800,8.073374755859374,8.592626571655273,-3.2105698585510254,0.03170489892363548
1772650722297252400,8.08325244140625,8.014161109924316,-2.352742910385132,0.4468596279621124
1772650722307129600,8.093129638671876,7.427321434020996,-2.11824631690979,0.27038896083831787
1772650722317006800,8.1030068359375,7.825128078460693,-1.8269200325012207,0.35892340540885925
1772650722326884000,8.112884033203125,8.207381248474121,-1.789831280708313,0.597607433795929
1772650722336761600,8.12276171875,8.563314437866211,-1.7994025945663452,0.44386860728263855
1772650722346638800,8.132638916015624,8.36411190032959,-1.8011972904205322,0.06819544732570648
1772650722356516000,8.14251611328125,8.355138778686523,-1.92741858959198,0.12203395366668701
1772650722366393300,8.152393310546875,8.553742408752441,-1.9818553924560547,0.08374879509210587
1772650722376270800,8.162270751953125,8.726624488830566,-2.294118642807007,-0.18305093050003052
1772650722386148000,8.172148193359375,8.808578491210938,-2.6291139125823975,-0.349352091550827
1772650722396025300,8.182025390625,9.043074607849121,-2.672184705734253,-0.4378865361213684
1772650722405902800,8.19190283203125,8.349754333496094,-2.4951157569885254,-0.39900317788124084
1772650722415780000,8.201780029296875,8.34855842590332,-2.169692039489746,-0.004187439568340778
1772650722425657300,8.2116572265625,8.515457153320312,-1.9674984216690063,0.1501496136188507
1772650722435534600,8.22153466796875,8.773283958435059,-1.950150489807129,0.07537391036748886
1772650722445412000,8.231412109375,8.816354751586914,-1.9884356260299683,0.05922235921025276
1772650722455289300,8.241289306640626,8.790034294128418,-1.9627127647399902,0.01375873014330864
1772650722465166600,8.25116650390625,8.8109712600708,-1.9130617380142212,-0.06580262631177902
1772650722475044000,8.261044189453125,8.947361946105957,-1.911865234375,-0.006580262444913387
1772650722484921300,8.27092138671875,8.94257640838623,-1.9639091491699219,0.06580262631177902
1772650722494798600,8.280798583984375,8.895318031311035,-1.9148563146591187,0.20338992774486542
1772650722504675800,8.29067578125,9.192028045654297,-1.9387845993041992,0.3164508044719696
1772650722514553300,8.30055322265625,9.552745819091797,-2.1092731952667236,0.32662028074264526
1772650722524430600,8.3104306640625,9.692726135253906,-2.2851455211639404,0.3565305769443512
1772650722534307800,8.320307861328125,10.039685249328613,-2.3700907230377197,0.5682953596115112
1772650722544185300,8.330185302734375,10.156933784484863,-1.8604196310043335,0.9080761671066284
1772650722554062600,8.3400625,9.916455268859863,-1.4685949087142944,0.6454638838768005
1772650722563939800,8.34993994140625,9.026923179626465,-1.3668999671936035,0.2997010350227356
1772650722573817000,8.359817138671875,8.587242126464844,-1.2939188480377197,0.15493527054786682
1772650722583694600,8.369694580078125,9.053244590759277,-1.4039887189865112,0.4378865361213684
1772650722593571800,8.37957177734375,9.705886840820312,-1.552941918373108,0.31824541091918945
1772650722603449000,8.389448974609374,9.7938232421875,-1.984248161315918,0.1339980661869049
1772650722613326600,8.39932666015625,9.698708534240723,-2.1003000736236572,0.26919254660606384
1772650722623203800,8.409203857421875,9.646066665649414,-2.049452543258667,0.5880361795425415
1772650722633081000,8.4190810546875,9.739386558532715,-1.9818553924560547,0.6729813814163208
1772650722642958300,8.428958251953125,9.89970588684082,-2.1278176307678223,0.5377869009971619
1772650722652835800,8.4388359375,9.971489906311035,-2.218146562576294,0.5126622319221497
1772650722662713000,8.448713134765624,10.05823040008545,-2.2893331050872803,0.5509474277496338
1772650722672590300,8.45859033203125,10.105487823486328,-2.3204398155212402,0.4983053207397461
1772650722682467800,8.4684677734375,10.062417030334473,-2.2366909980773926,0.5288137793540955
1772650722692345000,8.478344970703125,9.968499183654785,-2.008176326751709,0.576670229434967
1772650722702222300,8.488222412109375,9.821938514709473,-1.810170292854309,0.5970092415809631
1772650722712099600,8.498099609375,9.632905960083008,-1.6941183805465698,0.582054078578949
1772650722721977000,8.50797705078125,9.573084831237793,-1.6205391883850098,0.5934200286865234
1772650722731854300,8.517854248046875,9.594620704650879,-1.6947166919708252,0.5341976284980774
1772650722741731600,8.527731689453125,9.494720458984375,-1.7258232831954956,0.5802595019340515
1772650722751609000,8.537609130859375,9.546165466308594,-1.5433706045150757,0.6879364848136902
1772650722761486300,8.547486328125,9.534799575805664,-1.571486234664917,0.7716853022575378
1772650722771363600,8.557363525390626,9.43489933013916,-1.6480566263198853,0.7322037220001221
1772650722781240800,8.56724072265625,9.33021354675293,-1.7012969255447388,0.7046862840652466
1772650722791118300,8.577118408203125,9.349356651306152,-1.7156537771224976,0.7094719409942627
1772650722800995600,8.58699560546875,9.411569595336914,-1.7670994997024536,0.7597211599349976
1772650722810872800,8.596872802734374,9.500103950500488,-1.8460626602172852,0.7316055297851562
1772650722820750300,8.606750244140626,9.614959716796875,-2.0033907890319824,0.6664010882377625
1772650722830627600,8.616627685546876,9.591629981994629,-2.104487419128418,0.5838487148284912
1772650722840504800,8.6265048828125,9.517452239990234,-2.1098713874816895,0.5724828243255615
1772650722850382000,8.636382080078125,9.465408325195312,-2.155933141708374,0.5180460810661316
1772650722860259600,8.646259521484374,9.546764373779297,-2.196611166000366,0.4899304509162903
1772650722870136800,8.65613671875,9.68494987487793,-2.26959228515625,0.48035913705825806
1772650722880014000,8.66601416015625,9.81236743927002,-2.3958137035369873,0.46719861030578613
1772650722889891600,8.6758916015625,9.960722923278809,-2.5196423530578613,0.4582255482673645
1772650722899768800,8.685768798828125,10.085747718811035,-2.633301258087158,0.50907301902771
1772650722909646000,8.69564599609375,10.117452621459961,-2.836092948913574,0.4366901218891144
1772650722919523300,8.7055234375,10.009775161743164,-2.9114668369293213,0.34995031356811523
1772650722929400800,8.71540087890625,9.806983947753906,-2.8498518466949463,0.40737804770469666
1772650722939278000,8.725278076171875,9.522237777709961,-2.7314071655273438,0.4498506486415863
1772650722949155300,8.7351552734375,9.237491607666016,-2.6081767082214355,0.4091726839542389
1772650722959032600,8.745032470703125,8.97368335723877,-2.478964328765869,0.32542386651039124
1772650722968910000,8.75491015625,8.770293235778809,-2.38983154296875,0.2560320198535919
1772650722978787300,8.764787353515626,8.552546501159668,-2.263011932373047,0.13639089465141296
1772650722988664600,8.77466455078125,8.389236450195312,-2.111665964126587,0.0568295381963253
1772650722998541800,8.784541748046875,8.295317649841309,-1.9645073413848877,0.0323031060397625
1772650723008419300,8.79441943359375,8.368897438049316,-1.832902193069458,0.01615155301988125
1772650723018296600,8.804296630859374,8.483154296875,-1.7916259765625,0.015553346835076809
1772650723028173800,8.814173828125,8.550153732299805,-1.7694923877716064,-0.16151553392410278
1772650723038051300,8.82405126953125,8.6243314743042,-1.8245272636413574,-0.22073788940906525
1772650723047928600,8.833928466796875,8.536395072937012,-1.9800606966018677,-0.2189432680606842
1772650723057805800,8.843805908203125,8.916853904724121,-2.2707886695861816,-0.33918261528015137
1772650723067683000,8.85368310546875,9.166903495788574,-2.6554348468780518,-0.519242525100708
1772650723077560600,8.863560546875,9.256634712219238,-2.970689296722412,-0.5994020700454712
1772650723087437800,8.873437744140626,9.31466007232666,-3.2446675300598145,-0.592223584651947
1772650723097315000,8.883315185546875,9.322437286376953,-3.297309637069702,-0.5970092415809631
1772650723107192600,8.893192626953125,9.644869804382324,-3.391227960586548,-0.5754738450050354
1772650723117069800,8.90306982421875,9.591629981994629,-3.3469607830047607,-0.9050851464271545
1772650723126947000,8.912947021484374,9.45763111114502,-3.2578279972076416,-1.031306505203247
1772650723136824300,8.92282421875,9.329615592956543,-2.967698335647583,-1.0839486122131348
1772650723146701800,8.932701904296875,9.316454887390137,-2.6428725719451904,-1.0157532691955566
1772650723156579000,8.9425791015625,9.449256896972656,-2.4472594261169434,-1.0372886657714844
1772650723166456300,8.952456298828125,9.647262573242188,-2.3365912437438965,-1.0319048166275024
1772650723176333800,8.962333740234374,9.967302322387695,-2.297109842300415,-1.0648061037063599
1772650723186211000,8.972211181640626,10.316056251525879,-2.3395824432373047,-1.1413763761520386
1772650723196088300,8.98208837890625,10.567302703857422,-2.506481647491455,-1.2532408237457275
1772650723205965600,8.991965576171875,10.749157905578613,-2.6973092555999756,-1.2849457263946533
1772650723215843000,9.001843017578125,10.847861289978027,-2.760719060897827,-1.196411371231079
1772650723225720300,9.01172021484375,10.847861289978027,-2.7601208686828613,-1.1365907192230225
1772650723235597600,9.02159765625,10.814361572265625,-2.764906644821167,-1.1222338676452637
1772650723245475000,9.03147509765625,10.744970321655273,-2.7385854721069336,-1.1198409795761108
1772650723255352300,9.041352294921875,10.668399810791016,-2.6913273334503174,-1.1222338676452637
1772650723265229600,9.0512294921875,10.551151275634766,-2.6368906497955322,-1.1228320598602295
1772650723275106800,9.06110693359375,10.42492961883545,-2.630310297012329,-1.1150553226470947
1772650723284984300,9.070984375,10.274182319641113,-2.627917528152466,-1.0857433080673218
1772650723294861600,9.080861572265626,10.135398864746094,-2.647658348083496,-1.0564311742782593
1772650723304738800,9.09073876953125,9.951749801635742,-2.647658348083496,-0.9966106414794922
1772650723314616000,9.100615966796875,9.829116821289062,-2.4670002460479736,-1.0049854516983032
1772650723324493600,9.11049365234375,8.665607452392578,-1.688136339187622,-0.96370929479599
1772650723334370800,9.120370849609374,8.647661209106445,-1.495514154434204,-0.9750752449035645
1772650723344248000,9.130248046875,8.421539306640625,-1.2065808773040771,-1.1198409795761108
1772650723354125600,9.14012548828125,8.861818313598633,-1.3938192129135132,-1.43389892578125
1772650723364002800,9.1500029296875,9.355338096618652,-1.8077775239944458,-1.5176477432250977
1772650723373866200,9.1598662109375,10.429716110229492,-2.169692039489746,-1.3657035827636719
1772650723383757300,9.16975732421875,10.822736740112305,-1.8999011516571045,-1.231107234954834
1772650723393634800,9.179634765625,9.933204650878906,-1.604387640953064,-1.1593226194381714
1772650723403512000,9.189511962890625,9.41635513305664,-1.475175142288208,-1.1467602252960205
