time,seconds_elapsed,z,y,x
1772650620210432300,0.003432373046875,-1.4292776584625244,0.4632143974304199,-0.1308421492576599
1772650620230187300,0.023187255859375,-0.9547748565673828,0.36163997650146484,0.3459687829017639
1772650620249942300,0.0429423828125,0.30629491806030273,0.18070411682128906,0.595710813999176
1772650620269697300,0.062697265625,1.2472801208496094,0.10635757446289062,0.6723008751869202
1772650620289452300,0.082452392578125,1.4224638938903809,0.03734874725341797,0.4685019850730896
1772650620309207300,0.102207275390625,1.0565037727355957,0.037163734436035156,0.2757568359375
1772650620328962300,0.12196240234375,0.43393659591674805,0.0983419418334961,0.21591520309448242
1772650620348717300,0.14171728515625,0.059134483337402344,0.10285282135009766,0.20357388257980347
1772650620531451100,0.324451171875,-0.34131813049316406,0.5699067115783691,-0.19113874435424805
1772650620551206100,0.3442060546875,-0.5406222343444824,0.6638860702514648,-0.2114354372024536
1772650620570961200,0.363961181640625,0.20596885681152344,0.653536319732666,-0.5995174646377563
1772650620590716200,0.383716064453125,0.20926666259765625,1.0138826370239258,-0.782203197479248
1772650620610471200,0.40347119140625,-0.7477245330810547,1.9078526496887207,-0.3745769262313843
1772650620630226200,0.42322607421875,-1.6115186214447021,2.849752426147461,-0.018978476524353027
1772650620649981200,0.442981201171875,-0.9220142364501953,3.2453784942626953,-0.06533205509185791
1772650620669736200,0.462736083984375,0.16663885116577148,3.9686460494995117,0.3125256299972534
1772650620689491200,0.4824912109375,-0.6945886611938477,3.446960926055908,-0.1466437578201294
1772650620709232400,0.502232421875,-0.815422534942627,2.3679728507995605,0.22050201892852783
1772650620729001200,0.522001220703125,-0.8616275787353516,-0.4441366195678711,0.8841995000839233
1772650620748756200,0.541756103515625,1.2567448616027832,-2.207510471343994,2.9186482429504395
1772650620768497400,0.561497314453125,6.139377117156982,-4.2791643142700195,4.028050422668457
1772650620788266200,0.581266357421875,7.399770736694336,-6.871192455291748,2.5992226600646973
1772650620808021200,0.601021240234375,5.864103317260742,-9.372352600097656,1.1154835224151611
1772650620827762400,0.620762451171875,5.42119026184082,-10.683548927307129,1.0348163843154907
1772650620847531300,0.64053125,6.955596446990967,-9.31267261505127,0.9148032665252686
1772650620867286000,0.6602861328125,5.698216915130615,-6.162439346313477,-0.06798875331878662
1772650620887027500,0.68002734375,3.015963077545166,-2.33127498626709,-0.7906991243362427
1772650620906796000,0.699796142578125,0.4785938262939453,1.2272024154663086,-0.47082698345184326
1772650620926551000,0.719551025390625,-3.05607271194458,3.25288724899292,-1.170691967010498
1772650620946292500,0.73929248046875,-5.80967903137207,4.959403038024902,-0.8851024508476257
1772650620966061000,0.75906103515625,-7.587162971496582,5.805267333984375,-0.8637593388557434
1772650620985816000,0.778816162109375,-6.668949127197266,7.505919933319092,0.13239431381225586
1772650621005557200,0.79855712890625,-4.881687164306641,8.93239974975586,1.3387033939361572
1772650621025326000,0.818326171875,-4.524895668029785,9.507352828979492,1.6803233623504639
1772650621045081000,0.8380810546875,-4.877873420715332,9.518383979797363,0.8881266117095947
1772650621064822300,0.857822265625,-4.188210487365723,8.646478652954102,-1.0589858293533325
1772650621084591000,0.877591064453125,-3.126502275466919,7.721671104431152,-3.0982446670532227
1772650621104346000,0.89734619140625,-3.2541775703430176,6.68250846862793,-3.115804672241211
1772650621124087300,0.91708740234375,-3.1185531616210938,5.45768928527832,-1.7167041301727295
1772650621143855900,0.93685595703125,-2.0707244873046875,3.5919899940490723,-0.2290182113647461
1772650621163611000,0.95661083984375,-0.19229412078857422,-0.11452770233154297,2.2131733894348145
1772650621183352000,0.97635205078125,6.791848182678223,-5.181186676025391,4.043877601623535
1772650621203121000,0.996120849609375,12.371177673339844,-9.551502227783203,-0.7582513093948364
1772650621222876000,1.0158759765625,10.320351600646973,-9.618438720703125,-2.5976827144622803
1772650621242617000,1.0356171875,5.903598308563232,-4.601877212524414,9.512771606445312
1772650621262386000,1.055385986328125,4.974009990692139,-5.103447914123535,9.333663940429688
1772650621282141000,1.075140869140625,5.741541385650635,-10.575904846191406,2.439939260482788
1772650621301882000,1.094882080078125,9.206596374511719,-11.892887115478516,-0.8207398653030396
1772650621321651000,1.11465087890625,11.396316528320312,-10.011289596557617,-2.0917086601257324
1772650621341405700,1.13440576171875,8.270061492919922,-6.8702239990234375,-2.392019510269165
1772650621361147000,1.15414697265625,3.06003475189209,-2.4807543754577637,-0.9121406078338623
1772650621380915700,1.173915771484375,-2.669187545776367,0.7746906280517578,-0.8659030199050903
1772650621400670700,1.193670654296875,-5.93015718460083,2.6091461181640625,-3.019075393676758
1772650621420412000,1.213411865234375,-6.82681941986084,4.518031597137451,-2.840571403503418
1772650621440180700,1.2331806640625,-7.258724212646484,5.917799472808838,-2.8533153533935547
1772650621459935700,1.252935791015625,-5.5717644691467285,7.3859710693359375,-0.8331485986709595
1772650621479677000,1.272677001953125,-4.030678749084473,8.462034225463867,1.3433003425598145
1772650621499445500,1.292445556640625,-4.94863224029541,9.09941291809082,2.080517292022705
1772650621519200500,1.312200439453125,-6.089305877685547,9.24063491821289,0.718870997428894
1772650621538941700,1.331941650390625,-5.7810773849487305,8.60751724243164,-1.1747567653656006
1772650621558710500,1.35171044921875,-4.030316352844238,7.92240571975708,-2.857671022415161
1772650621578465500,1.371465576171875,-1.8694589138031006,7.487752914428711,-2.9339303970336914
1772650621598220300,1.39122021484375,-1.863135576248169,7.097034454345703,-2.172588348388672
1772650621617975300,1.410975341796875,-3.315359115600586,6.0041608810424805,-1.3875592947006226
1772650621637730300,1.430730224609375,-2.919328212738037,3.590573310852051,0.7137750387191772
1772650621657471500,1.450471435546875,-0.09864139556884766,0.3398590087890625,1.4950168132781982
1772650621677240300,1.470240234375,3.964308261871338,-3.9901561737060547,-1.1861134767532349
1772650621696995300,1.489995361328125,9.6658935546875,-7.409175872802734,-2.74434232711792
1772650621716736500,1.509736572265625,13.531906127929688,-7.968982219696045,-0.6518532037734985
1772650621736505000,1.529505126953125,6.403632640838623,-6.1533050537109375,3.904752731323242
1772650621756260000,1.549260009765625,2.531226634979248,-4.186547756195068,6.0425124168396
1772650621776001300,1.569001220703125,5.023658752441406,-7.0463433265686035,1.9371583461761475
1772650621795770000,1.58877001953125,8.130637168884277,-9.588309288024902,-1.080256700515747
1772650621815525000,1.608525146484375,10.084747314453125,-9.432743072509766,-0.3297416567802429
1772650621835266300,1.628266357421875,10.929978370666504,-8.746522903442383,-2.059950113296509
1772650621855035000,1.648034912109375,7.9634904861450195,-6.276724815368652,-2.7235233783721924
1772650621874790000,1.667789794921875,3.1247215270996094,-3.181579113006592,-2.058903217315674
1772650621894531000,1.687531005859375,-0.4532742500305176,-0.3541388511657715,-0.8136599063873291
1772650621914300000,1.7072998046875,-4.352882385253906,2.2521281242370605,0.8905382752418518
1772650621934055000,1.727054931640625,-7.478074550628662,3.8605144023895264,0.8480608463287354
1772650621953796000,1.746796142578125,-8.822366714477539,4.333653450012207,0.21104007959365845
1772650621973564700,1.766564697265625,-9.595406532287598,5.466835021972656,-0.5095729827880859
1772650621993319700,1.786319580078125,-9.798542976379395,6.656211853027344,-0.04293268918991089
1772650622013060900,1.806060791015625,-8.909433364868164,7.565474987030029,0.2874399423599243
1772650622032829700,1.82582958984375,-7.259186744689941,8.24085521697998,0.3438553214073181
1772650622052584700,1.845584716796875,-5.5859270095825195,8.320652961730957,-0.25617164373397827
1772650622072326000,1.865325927734375,-4.392967224121094,7.832399368286133,-1.1709661483764648
1772650622092094500,1.885094482421875,-3.422220230102539,7.487854480743408,-2.2752139568328857
1772650622111849500,1.904849365234375,-3.3569650650024414,6.519705772399902,-2.6306333541870117
1772650622131590700,1.924590576171875,-3.3035881519317627,4.65715217590332,-1.710911750793457
1772650622151359500,1.944359375,-2.284043550491333,2.096729278564453,-0.7907342910766602
1772650622171114200,1.9641142578125,0.40453338623046875,-1.4287934303283691,-0.05545884370803833
1772650622190855400,1.98385546875,7.306347370147705,-6.171830177307129,-0.13753312826156616
1772650622210624300,2.003624267578125,15.624176025390625,-7.349839210510254,1.3421937227249146
1772650622230379300,2.023379150390625,13.282003402709961,-4.827447414398193,9.316585540771484
1772650622250120400,2.043120361328125,5.037529468536377,-2.87388277053833,9.903739929199219
1772650622269889000,2.062888916015625,3.285025119781494,-4.941318511962891,0.9183683395385742
1772650622289644000,2.08264404296875,4.724979877471924,-6.511319637298584,-4.264580726623535
1772650622309385200,2.10238525390625,8.904985427856445,-8.09286880493164,-5.06012487411499
1772650622329154000,2.122154052734375,14.400236129760742,-8.531105041503906,-3.7439486980438232
1772650622348908800,2.14190869140625,13.191676139831543,-8.113739013671875,-4.457740783691406
1772650622368650000,2.16164990234375,5.427852153778076,-6.2398858070373535,-3.2050790786743164
1772650622388418800,2.181418701171875,-0.6480193138122559,-3.24721622467041,-0.4228112995624542
1772650622408173800,2.201173828125,-4.381082534790039,-0.5608053207397461,1.5249018669128418
1772650622427915000,2.2209150390625,-6.052595615386963,0.5881786346435547,2.0774946212768555
1772650622447683600,2.24068359375,-6.3678789138793945,1.8834996223449707,0.9734863042831421
1772650622467438600,2.2604384765625,-7.176210403442383,3.623307466506958,1.098700761795044
1772650622487179800,2.2801796875,-7.60837459564209,5.641568660736084,1.4708315134048462
1772650622506948600,2.299948486328125,-7.544100761413574,6.870561122894287,0.7139675617218018
1772650622526703400,2.319703369140625,-7.6147780418396,7.927221298217773,0.4055672287940979
1772650622546444500,2.339444580078125,-7.370427131652832,8.590005874633789,0.27486586570739746
1772650622566213400,2.35921337890625,-6.980369567871094,8.576744079589844,-0.17388564348220825
1772650622585968400,2.378968505859375,-6.292299270629883,8.183369636535645,-0.4023355543613434
1772650622605709600,2.39870947265625,-4.753945350646973,7.263725280761719,-1.0882844924926758
1772650622625478100,2.41847802734375,-4.208155632019043,6.324143409729004,-1.4657373428344727
1772650622645233200,2.438233154296875,-5.99901008605957,5.158130645751953,-0.577263593673706
1772650622664974300,2.457974365234375,-6.5933918952941895,3.1161911487579346,0.7943577170372009
1772650622684743000,2.477742919921875,-4.5269622802734375,0.5077977180480957,0.8905634880065918
1772650622704498000,2.497497802734375,1.6100072860717773,-3.192099094390869,-0.3531641960144043
1772650622724239000,2.517239013671875,13.247678756713867,-7.379931449890137,-3.476818084716797
1772650622744008000,2.537008056640625,18.622652053833008,-6.721745491027832,-1.6182831525802612
1772650622763762700,2.5567626953125,10.957422256469727,-4.382540225982666,4.4105377197265625
1772650622783504000,2.57650390625,2.4026169776916504,-3.0410165786743164,7.194838047027588
1772650622803272700,2.596272705078125,4.441150188446045,-5.501163959503174,1.6002476215362549
1772650622823027700,2.61602783203125,12.831846237182617,-11.96666145324707,-6.535301685333252
1772650622842769000,2.635768798828125,14.089218139648438,-13.581666946411133,-9.69548225402832
1772650622862537500,2.655537353515625,10.375274658203125,-8.673791885375977,-6.147033214569092
1772650622882292500,2.67529248046875,4.3502984046936035,-5.450728416442871,-3.673011302947998
1772650622902033700,2.69503369140625,0.5966248512268066,-2.6524100303649902,-0.7728719711303711
1772650622921802200,2.71480224609375,-2.0940914154052734,0.09858322143554688,1.400610089302063
1772650622941557200,2.73455712890625,-5.124664783477783,2.548100471496582,2.1517202854156494
1772650622961298400,2.75429833984375,-4.917668342590332,3.803297758102417,3.3066375255584717
1772650622981067300,2.7740673828125,-3.239762544631958,5.526169776916504,2.382439136505127
1772650623000822000,2.793822021484375,-4.693629741668701,6.815618515014648,0.36432957649230957
1772650623020563200,2.813563232421875,-7.352575302124023,8.102071762084961,0.27258482575416565
1772650623040332000,2.83333203125,-8.093498229980469,9.414182662963867,0.568953812122345
1772650623060087000,2.853087158203125,-7.078258991241455,9.134248733520508,1.2225300073623657
1772650623079828200,2.872828125,-5.3947649002075195,8.84091854095459,-0.738675594329834
1772650623099596800,2.8925966796875,-3.8362042903900146,7.55459451675415,-3.1957733631134033
1772650623119351800,2.912351806640625,-2.402186393737793,6.771083354949951,-4.3270416259765625
1772650623139106600,2.9321064453125,-2.810551643371582,6.967044353485107,-2.7444777488708496
1772650623158861600,2.951861572265625,-4.681071758270264,7.295167922973633,0.0889560878276825
1772650623178616600,2.971616455078125,-5.874276161193848,6.567267417907715,2.0507686138153076
1772650623198357800,2.991357666015625,-4.9830641746521,5.0192999839782715,3.9988033771514893
1772650623218126300,3.011126220703125,-2.952423334121704,2.292013168334961,4.098340034484863
1772650623237881300,3.03088134765625,1.1603398323059082,-3.403608798980713,-1.1229265928268433
1772650623257622500,3.05062255859375,7.804360866546631,-10.992618560791016,-7.179535865783691
1772650623277391400,3.070391357421875,18.723426818847656,-12.944252014160156,-6.073463439941406
1772650623297146000,3.09014599609375,16.548452377319336,-9.829811096191406,8.73912525177002
1772650623316887300,3.10988720703125,7.945396423339844,-4.619452476501465,11.530742645263672
1772650623336656100,3.12965625,3.9560108184814453,-9.068899154663086,0.2909477651119232
1772650623356411000,3.149410888671875,7.693496227264404,-13.083757400512695,-5.94458532333374
1772650623376152000,3.169152099609375,15.313409805297852,-12.392251968383789,-2.2588765621185303
1772650623395921000,3.1889208984375,17.318485260009766,-9.300861358642578,-1.0856939554214478
1772650623415676000,3.208676025390625,8.001508712768555,-6.786184787750244,-3.87497615814209
1772650623435416800,3.228416748046875,-0.8229780197143555,-2.7475943565368652,-3.531907320022583
1772650623455185700,3.248185546875,-6.325357913970947,0.8781661987304688,-1.2327659130096436
1772650623474940700,3.267940673828125,-8.291102409362793,3.383195161819458,1.3558709621429443
1772650623494681900,3.287681884765625,-9.302366256713867,4.481633186340332,1.194951057434082
1772650623514450400,3.307450439453125,-9.954229354858398,5.598876953125,-0.5489696860313416
1772650623534205400,3.327205322265625,-9.766096115112305,6.843419075012207,-0.4760541021823883
1772650623553946600,3.346946533203125,-9.480440139770508,8.349992752075195,1.7690626382827759
1772650623573715200,3.366715087890625,-8.142182350158691,9.285244941711426,3.5191774368286133
1772650623593470200,3.38647021484375,-5.553407669067383,8.485716819763184,1.0037693977355957
1772650623613211400,3.40621142578125,-2.1615519523620605,6.989007472991943,-3.5874223709106445
1772650623632980000,3.42597998046875,-2.33605694770813,6.178345680236816,-5.1530351638793945
1772650623652735000,3.44573486328125,-4.530279636383057,6.172286033630371,-3.828369617462158
1772650623672476200,3.46547607421875,-5.469961166381836,6.314065933227539,-0.8513222932815552
1772650623692244700,3.48524462890625,-4.999724388122559,6.122053146362305,1.5193829536437988
1772650623711999700,3.504999755859375,-5.587582588195801,5.007853984832764,1.8891348838806152
1772650623731741000,3.524740966796875,-5.436656475067139,2.842426300048828,2.8612146377563477
1772650623751509500,3.544509521484375,-1.9211797714233398,0.4886894226074219,4.012061595916748
1772650623771264500,3.564264404296875,2.1427884101867676,-1.0302143096923828,3.0548739433288574
1772650623791005700,3.584005615234375,8.705185890197754,-4.102910041809082,0.33040571212768555
1772650623810774300,3.603774169921875,11.276968002319336,-7.028076171875,-1.0635080337524414
1772650623830529300,3.623529296875,12.772815704345703,-8.853324890136719,2.70584774017334
1772650623850270500,3.6432705078125,19.219371795654297,-10.4214506149292,3.807037591934204
1772650623870039000,3.6630390625,20.970630645751953,-12.134963989257812,0.490551620721817
1772650623889794000,3.6827939453125,13.338739395141602,-10.867023468017578,-2.5787458419799805
1772650623909535200,3.70253515625,5.440927982330322,-5.510605335235596,0.10170942544937134
1772650623929304000,3.722303955078125,1.2705693244934082,-1.6639370918273926,2.095210552215576
1772650623949058800,3.742058837890625,0.6011466979980469,-0.48262929916381836,1.319925308227539
1772650623968800000,3.761800048828125,-2.010049819946289,0.62255859375,0.004483520984649658
1772650623988568800,3.78156884765625,-6.170238494873047,1.8013482093811035,-1.3944286108016968
1772650624008323600,3.801323486328125,-8.388749122619629,2.535081386566162,-2.669041395187378
1772650624028064800,3.821064697265625,-8.780752182006836,3.124650478363037,-2.795098304748535
1772650624047833600,3.84083349609375,-8.64474868774414,4.255144119262695,-1.8534905910491943
1772650624067588400,3.86058837890625,-8.211418151855469,5.876511096954346,0.045739442110061646
1772650624087329500,3.88032958984375,-9.216178894042969,6.93996524810791,0.933130145072937
1772650624107098400,3.900098388671875,-10.742374420166016,7.186825752258301,0.9778639674186707
1772650624126853000,3.91985302734375,-10.373377799987793,6.674025535583496,0.31329232454299927
1772650624146594300,3.93959423828125,-6.807544708251953,6.367489814758301,-0.2534993588924408
1772650624166363100,3.959363037109375,-2.217287063598633,5.86908483505249,0.26256775856018066
1772650624186118000,3.979117919921875,0.9280910491943359,4.657482147216797,-0.305451899766922
1772650624205859000,3.998859130859375,1.4338569641113281,3.059119701385498,1.8016095161437988
1772650624225628000,4.0186279296875,4.611701965332031,1.9026451110839844,4.081825256347656
1772650624245382700,4.038382568359375,7.058417320251465,-3.787594795227051,-1.7636409997940063
1772650624265123800,4.058123779296875,8.634013175964355,-7.654526710510254,-7.303093433380127
1772650624284892700,4.077892578125,11.36135482788086,-7.19605016708374,-5.373221397399902
1772650624304647400,4.0976474609375,8.965876579284668,-5.93555212020874,-2.203205108642578
1772650624324402400,4.11740234375,7.439813613891602,-5.804346084594727,-2.4233860969543457
1772650624344157400,4.137157470703125,5.4698567390441895,-6.126598358154297,-3.4725189208984375
1772650624363912200,4.156912109375,3.569704055786133,-6.704444885253906,-4.619673252105713
1772650624383653400,4.1766533203125,3.12912654876709,-7.13043737411499,-4.858496189117432
1772650624403422200,4.196422119140625,4.407151222229004,-6.365418434143066,-3.6070685386657715
1772650624423177000,4.216177001953125,5.462862014770508,-4.298513412475586,-1.5235698223114014
1772650624442918100,4.235918212890625,2.2810044288635254,-1.451655387878418,0.17465102672576904
1772650624462687000,4.25568701171875,-2.6792407035827637,0.453826904296875,0.42818018794059753
1772650624482441700,4.275441650390625,-6.665965557098389,2.4519476890563965,0.6799706220626831
1772650624502183000,4.295182861328125,-8.861660957336426,4.497530460357666,0.5956211090087891
1772650624521951500,4.314951416015625,-9.64027214050293,6.1639580726623535,2.5065388679504395
1772650624541706500,4.33470654296875,-10.42300796508789,7.276015281677246,2.294046640396118
1772650624561447700,4.35444775390625,-10.556655883789062,7.439895153045654,1.083888292312622
1772650624581216500,4.374216552734375,-9.535995483398438,7.345761299133301,-0.26981642842292786
1772650624600971300,4.39397119140625,-6.702060699462891,7.223523139953613,-0.9525854587554932
1772650624620712400,4.41371240234375,-3.8710954189300537,7.005062580108643,-1.816219687461853
1772650624640481000,4.43348095703125,-3.9114410877227783,5.904996395111084,-3.282120704650879
1772650624660236000,4.453236083984375,-6.207208633422852,4.355673313140869,-3.3454604148864746
1772650624679977200,4.472977294921875,-6.122613906860352,2.5506882667541504,-1.187638282775879
1772650624699745800,4.492745849609375,-0.3693666458129883,-0.30251216888427734,0.763992190361023
1772650624719500800,4.512500732421875,8.208169937133789,-5.412642955780029,3.080700397491455
1772650624739242000,4.532241943359375,9.622528076171875,-9.37100601196289,6.632043838500977
1772650624759010600,4.552010498046875,10.311029434204102,-9.678794860839844,7.848950386047363
1772650624778765600,4.571765625,13.784536361694336,-9.044256210327148,1.2816345691680908
1772650624798506800,4.5915068359375,11.366833686828613,-8.243000030517578,-6.317722797393799
1772650624818275300,4.611275390625,9.818735122680664,-4.789923191070557,-4.501296043395996
1772650624838030300,4.6310302734375,8.65988540649414,0.19292020797729492,3.98355770111084
1772650624857771500,4.650771484375,6.924509525299072,0.6553144454956055,7.2227911949157715
1772650624877540000,4.6705400390625,7.103166580200195,-3.377150535583496,1.2087593078613281
1772650624897295000,4.690295166015625,6.616402626037598,-6.417457580566406,-4.1292805671691895
1772650624917036300,4.710036376953125,4.871214866638184,-4.661663055419922,-4.411526203155518
1772650624936804900,4.729804931640625,-1.5889711380004883,-0.6800704002380371,-2.2842488288879395
1772650624956560000,4.749559814453125,-10.1590576171875,2.315473794937134,-0.3805564045906067
1772650624976301000,4.769301025390625,-14.016538619995117,4.390326976776123,2.2905678749084473
1772650624996069600,4.789069580078125,-14.535215377807617,5.284942626953125,1.419630765914917
1772650625015824600,4.80882470703125,-11.844472885131836,5.106570720672607,-1.820702075958252
1772650625035565600,4.828565673828125,-8.309009552001953,5.9137797355651855,-3.1594786643981934
1772650625055334400,4.84833447265625,-8.765252113342285,7.81430196762085,-0.34890544414520264
1772650625075089200,4.868089111328125,-9.912344932556152,9.139870643615723,0.866415798664093
1772650625094830300,4.887830322265625,-8.814615249633789,8.97285270690918,-0.6191616058349609
1772650625114599200,4.90759912109375,-6.293360710144043,7.730355739593506,-2.744807243347168
1772650625134354000,4.92735400390625,-4.841644287109375,5.96799373626709,-4.156676292419434
1772650625154095000,4.94709521484375,-3.9097225666046143,3.6350197792053223,-4.481378078460693
1772650625173863700,4.96686376953125,-2.3388309478759766,0.41167593002319336,-2.8496880531311035
1772650625193618700,4.98661865234375,-0.8411941528320312,-2.4629368782043457,0.31568416953086853
1772650625213359900,5.00635986328125,4.314813613891602,-6.371562957763672,0.6579747200012207
1772650625233128400,5.02612841796875,12.999702453613281,-12.171154022216797,5.091590881347656
1772650625252883500,5.045883544921875,23.043991088867188,-5.129891395568848,11.625948905944824
1772650625272624600,5.065624755859375,13.55218505859375,-9.64988899230957,4.82558536529541
1772650625292393200,5.085393310546875,5.435365200042725,-9.156275749206543,-7.996310710906982
1772650625312148200,5.105148193359375,10.765552520751953,-8.856222152709961,-11.73348617553711
1772650625331889400,5.124889404296875,13.28028392791748,-5.918740272521973,-5.262369632720947
1772650625351658000,5.144657958984375,8.146730422973633,-2.507369041442871,2.909182548522949
1772650625371412700,5.164412841796875,5.265069007873535,-2.2672624588012695,3.427032470703125
1772650625391154000,5.18415380859375,5.2255635261535645,-2.6773247718811035,-0.26378047466278076
1772650625410922800,5.2039228515625,3.411273956298828,-0.5856075286865234,-2.600898504257202
1772650625430677500,5.223677490234375,-2.3855504989624023,1.5468997955322266,-2.8729171752929688
1772650625450418700,5.243418701171875,-7.48577356338501,1.7904167175292969,-2.5577549934387207
1772650625470187300,5.263187255859375,-7.8671674728393555,3.444064140319824,0.20708847045898438
1772650625489942300,5.2829423828125,-4.854530334472656,4.704923629760742,0.6345502138137817
1772650625509683500,5.302683349609375,-5.1127119064331055,4.425050258636475,-2.666417360305786
1772650625529452000,5.3224521484375,-6.646854877471924,6.047804832458496,-2.4455366134643555
1772650625549207000,5.34220703125,-8.066784858703613,7.182671070098877,-1.3838856220245361
1772650625568948200,5.3619482421875,-8.731974601745605,7.912481784820557,-0.27055370807647705
1772650625588716800,5.381716796875,-8.79231071472168,7.875354290008545,-0.5677341222763062
1772650625608471800,5.401471923828125,-7.495970726013184,7.059288501739502,-1.3486433029174805
1772650625628212700,5.421212646484375,-5.164856910705566,5.963059425354004,-1.8675256967544556
1772650625647981600,5.440981689453125,-5.810235977172852,4.613941669464111,-1.7184815406799316
1772650625667736600,5.460736572265625,-6.859799385070801,3.2573232650756836,-0.17644178867340088
1772650625687477500,5.4804775390625,-4.689578533172607,0.9110946655273438,1.245082139968872
1772650625707246300,5.500246337890625,3.0436267852783203,-2.0561509132385254,1.8323273658752441
1772650625727001000,5.5200009765625,9.31930923461914,-8.125703811645508,3.144326686859131
1772650625746742300,5.5397421875,16.091995239257812,-10.911883354187012,1.3630701303482056
1772650625766510800,5.5595107421875,20.714431762695312,-8.606611251831055,-2.8744449615478516
1772650625786265900,5.579265869140625,11.065038681030273,-6.104527950286865,-7.482751846313477
1772650625806007000,5.599007080078125,4.026906490325928,-2.34035062789917,-2.9605109691619873
1772650625825775600,5.618775634765625,9.195402145385742,1.1975502967834473,4.843176364898682
1772650625845530600,5.638530517578125,13.608118057250977,-1.0615921020507812,3.3063554763793945
1772650625865271800,5.658271728515625,10.970317840576172,-4.6132426261901855,-2.1750783920288086
1772650625885040400,5.678040283203125,5.094470977783203,-6.389886379241943,-6.500421524047852
1772650625904795100,5.697795166015625,-0.09757089614868164,-5.8550848960876465,-7.676698684692383
1772650625924536300,5.717536376953125,-5.457189559936523,-1.7661771774291992,-2.9403886795043945
1772650625944305200,5.73730517578125,-9.390913009643555,1.9809534549713135,0.7444643974304199
1772650625964060000,5.757059814453125,-11.471220016479492,5.094681739807129,4.809728622436523
1772650625983801000,5.776801025390625,-12.296568870544434,6.415578365325928,2.2517526149749756
1772650626003569700,5.796569580078125,-10.922786712646484,6.156652927398682,-0.7918366193771362
1772650626023324700,5.81632470703125,-8.969794273376465,6.865632057189941,-1.484695553779602
1772650626043065900,5.83606591796875,-9.400732040405273,7.97174072265625,-1.4439923763275146
1772650626062834400,5.85583447265625,-10.477018356323242,8.800199508666992,-1.3299978971481323
1772650626082589400,5.87558935546875,-10.605339050292969,8.177384376525879,-1.9164378643035889
1772650626102344200,5.89534423828125,-10.217338562011719,8.411234855651855,-1.321197509765625
1772650626122099200,5.91509912109375,-9.722797393798828,6.502796173095703,-1.4732990264892578
1772650626141854000,5.93485400390625,-7.737004280090332,2.800199508666992,-4.548045635223389
1772650626161595100,5.95459521484375,0.8607563972473145,-0.0451664924621582,-3.2050371170043945
1772650626181363700,5.97436376953125,8.958635330200195,-2.7397103309631348,-2.649233102798462
1772650626201118700,5.99411865234375,10.481175422668457,-8.896245002746582,-3.9095022678375244
1772650626220860000,6.01385986328125,17.314651489257812,-11.814979553222656,3.5679428577423096
1772650626240628500,6.03362841796875,20.71761703491211,-6.476720809936523,3.7500569820404053
1772650626260383500,6.053383544921875,3.89664363861084,-11.063531875610352,-4.666224002838135
1772650626280124400,6.07312451171875,4.400082588195801,-7.850988388061523,-3.569307327270508
1772650626299893200,6.092893310546875,10.432327270507812,-8.007709503173828,-4.684516429901123
1772650626319648000,6.11264794921875,9.484548568725586,-8.852745056152344,-3.1529197692871094
1772650626339389200,6.13238916015625,3.8909401893615723,-6.971773147583008,0.4727928638458252
1772650626359157800,6.15215771484375,6.034239292144775,-6.251772403717041,1.5230929851531982
1772650626378912800,6.171912841796875,8.242258071899414,-4.183722019195557,0.8483610153198242
1772650626398654000,6.191654052734375,4.292825698852539,0.49462175369262695,2.586458921432495
1772650626418422500,6.211422607421875,-3.1629083156585693,2.916170597076416,0.5290607213973999
1772650626438177300,6.23117724609375,-7.505896091461182,3.753897190093994,-2.0381879806518555
1772650626457918500,6.25091845703125,-5.531465530395508,5.205862998962402,-3.5732932090759277
1772650626477687300,6.270687255859375,-1.4790453910827637,6.887153148651123,-2.3204236030578613
1772650626497442000,6.290442138671875,-2.9081103801727295,8.281899452209473,-1.1384570598602295
1772650626517183200,6.310183349609375,-6.328444957733154,9.170785903930664,-0.7613060474395752
1772650626536951800,6.329951904296875,-7.621525764465332,9.767364501953125,-0.052225708961486816
1772650626556706800,6.349706787109375,-6.979659557342529,9.580870628356934,-1.136015772819519
1772650626576447700,6.36944775390625,-5.86423921585083,8.128711700439453,-2.8364923000335693
1772650626596216600,6.389216552734375,-5.844119548797607,6.7751851081848145,-2.4798951148986816
1772650626615971300,6.408971435546875,-7.102176666259766,6.0794525146484375,-1.4081093072891235
1772650626635712500,6.42871240234375,-9.564569473266602,5.030264854431152,-2.1133153438568115
1772650626655481000,6.448481201171875,-11.133613586425781,2.0517778396606445,-1.8637135028839111
1772650626675236000,6.468236083984375,-5.486060619354248,-0.5972881317138672,2.889465808868408
1772650626694977300,6.487977294921875,8.239326477050781,-2.0266032218933105,7.378962993621826
1772650626714745900,6.507745849609375,17.097064971923828,-3.0784826278686523,5.295598983764648
1772650626734500600,6.52750048828125,9.472683906555176,-12.343462944030762,-0.9184805154800415
1772650626754241800,6.54724169921875,11.025141716003418,-11.777944564819336,1.2902653217315674
1772650626774010600,6.5670107421875,14.56483268737793,-10.10870361328125,-3.232841730117798
1772650626793765400,6.586765380859375,10.431877136230469,-9.852100372314453,-9.71722412109375
1772650626813506600,6.606506591796875,7.71682071685791,-4.046172618865967,-2.434506893157959
1772650626833275100,6.626275146484375,6.073938369750977,-1.0126004219055176,3.3295891284942627
1772650626853030100,6.646030029296875,4.743746280670166,-2.000789165496826,1.3860857486724854
1772650626872771000,6.66577099609375,4.221651077270508,-0.1853632926940918,0.5760852098464966
1772650626892540000,6.685539794921875,1.1435556411743164,-4.268899917602539,-6.489526748657227
1772650626912294700,6.705294677734375,-1.8166403770446777,-0.40920066833496094,-3.558300018310547
1772650626932035800,6.725035888671875,-6.644014358520508,2.783504009246826,-1.0584810972213745
1772650626951804400,6.744804443359375,-9.25033950805664,4.599016189575195,-1.5238677263259888
1772650626971559400,6.764559326171875,-7.8484063148498535,6.206459045410156,-3.0920419692993164
1772650626991300400,6.78430029296875,-7.521207809448242,7.622509479522705,-2.8391003608703613
1772650627011069200,6.804069091796875,-8.889318466186523,9.398170471191406,0.3747802972793579
1772650627030824000,6.823823974609375,-9.953828811645508,10.644731521606445,2.2221901416778564
1772650627050579000,6.843578857421875,-9.556071281433105,10.137603759765625,1.3601815700531006
1772650627070333700,6.863333740234375,-8.33259105682373,8.807042121887207,-0.22824060916900635
1772650627090088700,6.883088623046875,-6.891057014465332,7.235606670379639,-1.4909350872039795
1772650627109830000,6.902829833984375,-5.409602642059326,5.0035200119018555,-3.5023250579833984
1772650627129598500,6.922598388671875,-4.569085121154785,1.4045462608337402,-5.505404949188232
1772650627149353200,6.942353271484375,-1.5771260261535645,-0.22582674026489258,0.843910276889801
1772650627169094400,6.962094482421875,5.382951259613037,-2.307271957397461,5.532099723815918
1772650627188863000,6.981863037109375,15.703285217285156,-8.01351261138916,6.228216171264648
1772650627208618000,7.001617919921875,20.386016845703125,-12.444610595703125,2.482994556427002
1772650627228359200,7.021359130859375,6.325504779815674,-8.46174430847168,-8.148911476135254
1772650627248127700,7.041127685546875,-3.716181755065918,-12.843475341796875,-7.186803817749023
1772650627267882500,7.060882568359375,10.041234970092773,-12.55228042602539,-10.363094329833984
1772650627287623700,7.080623779296875,13.603344917297363,-10.352651596069336,-5.224649906158447
1772650627307392300,7.100392333984375,2.5397353172302246,-9.1270170211792,-2.6376190185546875
1772650627327147300,7.120147216796875,0.06058788299560547,-6.841564655303955,0.2550501227378845
1772650627346888400,7.139888427734375,4.079742431640625,-5.656061172485352,0.5490365028381348
1772650627366657000,7.159656982421875,6.072307586669922,-2.2594738006591797,2.532768487930298
1772650627386411800,7.179411865234375,1.4365463256835938,1.892554759979248,4.28389310836792
1772650627406153000,7.199153076171875,-5.29982852935791,3.5761570930480957,1.4928916692733765
1772650627425921500,7.218921630859375,-9.208873748779297,4.504614353179932,-1.5624008178710938
1772650627445676500,7.238676513671875,-7.741375923156738,6.45391845703125,-0.3584240674972534
1772650627465417500,7.25841748046875,-2.9531750679016113,8.728423118591309,2.480595111846924
1772650627485186300,7.278186279296875,-3.3146591186523438,8.970915794372559,1.9842257499694824
1772650627504941000,7.297941162109375,-5.444106101989746,8.829669952392578,0.10504250228404999
1772650627524682200,7.31768212890625,-4.835237979888916,8.29183578491211,-2.365415334701538
1772650627544450800,7.337450927734375,-2.9257431030273438,7.555960178375244,-4.268770694732666
1772650627564205600,7.35720556640625,-5.13796854019165,7.989076614379883,-2.237274169921875
1772650627583946800,7.37694677734375,-8.231284141540527,8.031045913696289,0.3343898355960846
1772650627603715300,7.39671533203125,-8.990955352783203,6.285810470581055,0.35743385553359985
1772650627623470300,7.41647021484375,-9.100266456604004,3.819239377975464,0.8378049731254578
1772650627643211500,7.43621142578125,-6.322827339172363,1.5839300155639648,1.5005111694335938
1772650627662980000,7.45597998046875,2.3829851150512695,-1.6619315147399902,-0.22154182195663452
1772650627682734800,7.47573486328125,12.538152694702148,-5.078775405883789,-3.129427671432495
1772650627702476000,7.49547607421875,10.480749130249023,-7.305674076080322,1.6843159198760986
1772650627722244600,7.51524462890625,11.421329498291016,-7.569878578186035,7.482691287994385
1772650627741999600,7.53499951171875,13.894996643066406,-7.238609313964844,0.5504189729690552
1772650627761740500,7.554740478515625,3.537161350250244,-7.411998271942139,-9.391846656799316
1772650627781509400,7.57450927734375,1.4624581336975098,-4.0049519538879395,-4.370760917663574
1772650627801264000,7.59426416015625,12.41474723815918,-2.1737709045410156,3.3833577632904053
1772650627821005300,7.61400537109375,15.229316711425781,-3.2007317543029785,2.6659722328186035
1772650627840774000,7.63377392578125,8.034455299377441,-5.5381855964660645,-3.7882628440856934
1772650627860528600,7.653528564453125,3.1107993125915527,-5.928578853607178,-7.1508588790893555
1772650627880269800,7.673269775390625,0.4775581359863281,-3.024869918823242,-4.644134044647217
1772650627900038400,7.693038330078125,-2.232581615447998,0.6874480247497559,-0.656786322593689
1772650627919793400,7.71279345703125,-5.394440650939941,2.2317070960998535,0.5354940295219421
1772650627939534300,7.732534423828125,-8.234103202819824,3.2291927337646484,0.8818221092224121
1772650627959303200,7.75230322265625,-10.545135498046875,3.935267686843872,0.12446446716785431
1772650627979058000,7.772057861328125,-9.580761909484863,4.498884677886963,-1.5062365531921387
1772650627998799000,7.791799072265625,-8.627573013305664,5.420567512512207,-2.208296537399292
1772650628018567700,7.811567626953125,-10.84213924407959,7.873166084289551,1.6049014329910278
1772650628038322400,7.831322509765625,-12.811100006103516,9.768960952758789,5.866447448730469
1772650628058077400,7.851077392578125,-11.528571128845215,9.696962356567383,5.712324619293213
1772650628077832200,7.870832275390625,-8.279728889465332,7.393186569213867,1.3169746398925781
1772650628097587200,7.890587158203125,-4.624213218688965,5.178852558135986,-3.1292247772216797
1772650628117328100,7.910328125,-2.832941770553589,2.4161901473999023,-4.236546993255615
1772650628137096700,7.9300966796875,1.9040217399597168,-0.10694217681884766,-0.8228796720504761
1772650628156851700,7.949851806640625,7.7471394538879395,-2.7558083534240723,-0.4927084445953369
1772650628176592600,7.969592529296875,9.272741317749023,-2.92437744140625,-2.9084436893463135
1772650628196361500,7.989361572265625,8.646240234375,-4.078855037689209,1.6455525159835815
1772650628216116200,8.0091162109375,11.553937911987305,-3.785126209259033,3.105465888977051
1772650628235857400,8.028857421875,2.4300127029418945,-3.239950656890869,-2.7613637447357178
1772650628255626000,8.0486259765625,-3.4293627738952637,-5.324342727661133,-7.159267425537109
1772650628275380700,8.068380615234375,11.470059394836426,-5.304131507873535,-4.957266807556152
1772650628295122000,8.088121826171875,17.69611358642578,-6.300961494445801,-4.291638374328613
1772650628314890500,8.107890380859375,4.957119464874268,-7.148031234741211,-5.832516670227051
1772650628334645500,8.1276455078125,-1.3934431076049805,-7.711341857910156,-5.84293270111084
1772650628354386400,8.147386474609375,3.6170878410339355,-6.673266410827637,-1.4377042055130005
1772650628374155000,8.167155029296875,7.8428568840026855,-4.537655830383301,1.7985824346542358
1772650628393910000,8.186909912109375,5.2297773361206055,-2.5086355209350586,1.0275336503982544
1772650628413651200,8.206651123046875,1.183305263519287,-0.1266317367553711,-0.2839590609073639
1772650628433419800,8.226419677734375,-2.391237497329712,1.2680025100708008,-1.4106093645095825
1772650628453174500,8.246174560546875,-5.412145137786865,2.7164435386657715,-0.36905422806739807
1772650628472915700,8.265915771484375,-5.624972343444824,4.574977874755859,1.2480729818344116
1772650628492684300,8.285684326171875,-5.299105644226074,5.644102096557617,0.37163031101226807
1772650628512439000,8.30543896484375,-4.818366050720215,7.106819152832031,0.6841288208961487
1772650628532180200,8.32518017578125,-4.694056510925293,9.018003463745117,2.586212396621704
1772650628551948800,8.34494873046875,-5.437893390655518,9.803925514221191,3.022732973098755
1772650628571703800,8.364703857421874,-5.173036575317383,9.319876670837402,0.7196054458618164
1772650628591444700,8.38444482421875,-4.574516773223877,7.587696075439453,-2.604264497756958
1772650628611213300,8.40421337890625,-4.017698287963867,5.562685012817383,-4.503640174865723
1772650628630968300,8.42396826171875,-4.16803503036499,4.173050880432129,-3.3787474632263184
1772650628650709200,8.443709228515624,-3.1498491764068604,2.7962732315063477,-0.2231394201517105
1772650628670478000,8.46347802734375,0.6691851615905762,1.1088008880615234,2.903043746948242
1772650628690232800,8.48323291015625,1.6867008209228516,-1.0322327613830566,2.2610249519348145
1772650628709974000,8.50297412109375,-2.4299776554107666,-4.382973670959473,0.27952995896339417
1772650628729742600,8.52274267578125,1.364992618560791,-7.3953776359558105,2.274784564971924
1772650628749497300,8.542497314453126,16.033493041992188,-9.045551300048828,3.341309070587158
1772650628769238500,8.562238525390624,15.191143989562988,-8.130537033081055,-2.111994981765747
1772650628789007000,8.582007080078125,0.822575569152832,-5.840644359588623,-4.920348167419434
1772650628808761900,8.601761962890626,0.3625321388244629,-3.936495304107666,-2.2496109008789062
1772650628828503000,8.6215029296875,11.070197105407715,-4.989351749420166,-0.358276903629303
1772650628848271600,8.641271728515624,13.316058158874512,-6.155796051025391,0.09238097071647644
1772650628868026400,8.6610263671875,4.275936126708984,-5.2595720291137695,-0.5460141897201538
1772650628887767600,8.680767578125,-3.2650978565216064,-4.618090629577637,-3.09416127204895
1772650628907536100,8.7005361328125,-4.871496200561523,-2.0882158279418945,-2.149970531463623
1772650628927291000,8.720290771484375,-3.377898931503296,1.074171543121338,0.5869017243385315
1772650628947032000,8.740031982421876,-1.955007553100586,3.6420178413391113,1.8385274410247803
1772650628966800600,8.759800537109374,-2.599243402481079,5.337800979614258,1.1377148628234863
1772650628986555400,8.779555419921875,-4.138786315917969,6.66480827331543,0.004227042198181152
1772650629006296600,8.799296630859375,-5.107450485229492,7.2465081214904785,-2.1597840785980225
1772650629026065200,8.819065185546876,-5.41182804107666,7.6837968826293945,-2.843621015548706
1772650629045820200,8.838820068359375,-5.90717077255249,8.877772331237793,-0.6894538998603821
1772650629065561000,8.85856103515625,-6.751588344573975,9.975409507751465,1.9220497608184814
1772650629085329700,8.87832958984375,-7.076694488525391,9.555482864379883,1.66117525100708
1772650629105084700,8.898084716796875,-6.208920001983643,7.310422420501709,-0.06364673376083374
1772650629124825600,8.91782568359375,-3.394216537475586,4.523262023925781,-1.8687375783920288
1772650629144594400,8.937594482421876,-0.1339101791381836,1.3862261772155762,-3.967184543609619
1772650629164349200,8.95734912109375,1.0146565437316895,-1.2113866806030273,-5.813997268676758
1772650629184090400,8.97709033203125,0.27502918243408203,-2.973310947418213,-4.8992533683776855
1772650629203859000,8.99685888671875,4.583346366882324,-3.4571456909179688,6.0691094398498535
1772650629223613700,9.01661376953125,13.307726860046387,-2.233304977416992,9.602992057800293
1772650629243355000,9.03635498046875,4.8494462966918945,-5.389805793762207,-3.613025188446045
1772650629263123500,9.05612353515625,1.1183133125305176,-7.170017719268799,-10.7440767288208
1772650629282878200,9.075878173828125,9.18696117401123,-4.86429500579834,-3.0835471153259277
1772650629302619400,9.095619384765625,12.021491050720215,-2.5183558464050293,3.5110435485839844
1772650629322388000,9.115387939453125,1.2551021575927734,-4.135257720947266,-0.21307438611984253
1772650629342142700,9.135142822265625,-3.311359405517578,-5.6800031661987305,-3.4906868934631348
1772650629361884000,9.1548837890625,2.621234893798828,-6.470947265625,-1.9601285457611084
1772650629381652500,9.174652587890625,9.561239242553711,-6.362560272216797,0.15306484699249268
1772650629401407200,9.1944072265625,7.861523151397705,-4.655993938446045,1.0410165786743164
1772650629421148400,9.2141484375,1.7776741981506348,-2.689056873321533,0.1760863959789276
1772650629440917000,9.2339169921875,-2.003296136856079,-1.119194507598877,-0.23282329738140106
1772650629460671700,9.253671630859374,-2.678049325942993,-0.27242469787597656,-0.5109878778457642
1772650629480413000,9.273412841796874,-1.8927500247955322,0.5131921768188477,-0.8987993001937866
1772650629500181500,9.293181396484375,-2.3765742778778076,2.292515277862549,-0.33475518226623535
1772650629519936300,9.312936279296874,-2.9914486408233643,4.265468120574951,0.19847220182418823
1772650629539677400,9.332677490234374,-3.022402286529541,5.937692165374756,-0.009419143199920654
1772650629559446000,9.352446044921875,-3.0006003379821777,7.891353130340576,0.2528541088104248
1772650629579200800,9.37220068359375,-4.500924587249756,9.161596298217773,0.8054841756820679
1772650629598955800,9.391955810546875,-4.517168045043945,9.23653507232666,0.014954805374145508
1772650629618710500,9.41171044921875,-4.058842658996582,8.078031539916992,-1.339061975479126
1772650629638465300,9.43146533203125,-4.340705394744873,5.804734230041504,-2.932279348373413
1772650629658206500,9.45120654296875,-5.185757637023926,4.792947769165039,-2.715113639831543
1772650629677975000,9.47097509765625,-5.152306079864502,4.033617973327637,-1.146646499633789
1772650629697729800,9.490729736328126,-2.7630770206451416,1.8946318626403809,-0.1737363338470459
1772650629717471000,9.510470947265626,1.207106590270996,-1.510045051574707,1.2430503368377686
1772650629737239600,9.530239501953124,6.459362030029297,-4.608761310577393,4.115250587463379
1772650629756994300,9.549994384765625,11.498783111572266,-6.875831604003906,5.887990474700928
1772650629776735500,9.569735595703126,9.573332786560059,-7.092550277709961,3.4679393768310547
1772650629796504000,9.589504150390624,1.369321346282959,-5.957365989685059,-1.4859747886657715
1772650629816258800,9.6092587890625,-3.4990341663360596,-3.9334144592285156,-2.906507968902588
1772650629836000000,9.629,1.0293002128601074,-2.9253830909729004,-0.9115983247756958
1772650629855768600,9.6487685546875,9.781169891357422,-3.0245251655578613,1.716271996498108
1772650629875523300,9.6685234375,11.206411361694336,-3.5436291694641113,2.099172592163086
1772650629895264500,9.688264404296875,4.650927543640137,-3.766125202178955,0.7682499885559082
1772650629915033000,9.708033203125,-0.08482122421264648,-3.741546154022217,-1.2904064655303955
1772650629934787800,9.727787841796875,-2.1696667671203613,-2.7948269844055176,-2.888338565826416
1772650629954529000,9.747529052734375,-4.084444522857666,-0.9859275817871094,-2.605372428894043
1772650629974297600,9.767297607421876,-1.0373544692993164,0.7421159744262695,-0.672896146774292
1772650629994052400,9.78705224609375,2.1506338119506836,2.7906017303466797,1.5976969003677368
1772650630013793500,9.80679345703125,0.32004404067993164,4.782986640930176,2.6476974487304688
