time,seconds_elapsed,z,y,x
1772650620209181200,0.00218115234375,0.02641914412379265,-0.12018419802188873,0.11422843486070633
1772650620219058700,0.01205859375,0.08429691940546036,0.05894676223397255,-0.041384901851415634
1772650620228936200,0.021936279296875,0.11926792562007904,0.222042977809906,-0.19379130005836487
1772650620238813700,0.031813720703125,0.10628741979598999,0.35352784395217896,-0.3208475112915039
1772650620248691200,0.041691162109375,0.08994726091623306,0.43202173709869385,-0.367730051279068
1772650620258568700,0.051568603515625,0.06810946762561798,0.43110546469688416,-0.3426853120326996
1772650620268446200,0.0614462890625,0.03955236077308655,0.40972578525543213,-0.27503398060798645
1772650620278323700,0.07132373046875,0.004734066314995289,0.37139514088630676,-0.18523943424224854
1772650620288201200,0.081201171875,-0.026571854948997498,0.29778802394866943,-0.08124268800020218
1772650620298078700,0.09107861328125,-0.051463883370161057,0.19913621246814728,0.02748812735080719
1772650620307956200,0.100956298828125,-0.06413896381855011,0.09620844572782516,0.1298050433397293
1772650620317833700,0.110833740234375,-0.07773031294345856,0.005650337319821119,0.2038702666759491
1772650620327711200,0.120711181640625,-0.08964183181524277,-0.0587940476834774,0.24220094084739685
1772650620337588700,0.130588623046875,-0.08857285231351852,-0.08979454636573792,0.2632751762866974
1772650620347466200,0.14046630859375,-0.08154810965061188,-0.09941539168357849,0.2761029601097107
1772650620357343700,0.15034375,-0.07055285573005676,-0.09559759497642517,0.2858765125274658
1772650620367221200,0.16022119140625,-0.04703523963689804,-0.07116370648145676,0.2838912606239319
1772650620377098800,0.1700986328125,-0.020157959312200546,-0.027793550863862038,0.2713688910007477
1772650620416608800,0.20960888671875,0.003970507066696882,0.15026842057704926,0.2367033064365387
1772650620446241300,0.2392412109375,0.014202198944985867,0.01954711228609085,0.2790044844150543
1772650620456118800,0.249118896484375,-0.018019994720816612,-0.03588727489113808,0.14889401197433472
1772650620465996300,0.258996337890625,-0.05070032179355621,-0.08246438205242157,-0.0018325417768210173
1772650620475873800,0.268873779296875,-0.07513421028852463,-0.13469181954860687,-0.12843063473701477
1772650620485751300,0.278751220703125,-0.091321662068367,-0.1682884246110916,-0.2208212912082672
1772650620495628800,0.28862890625,-0.09071081876754761,-0.1644706279039383,-0.2673983871936798
1772650620505506300,0.29850634765625,-0.06459710001945496,-0.13744063675403595,-0.26816195249557495
1772650620515383800,0.3083837890625,-0.033596597611904144,-0.10903623700141907,-0.24815669655799866
1772650620525261300,0.31826123046875,-0.015271181240677834,-0.09407047927379608,-0.23166382312774658
1772650620535138800,0.328138916015625,-0.007024743594229221,-0.0787992998957634,-0.23303823173046112
1772650620545016300,0.338016357421875,-0.013438640162348747,-0.08108997344970703,-0.2692309319972992
1772650620554893800,0.347893798828125,-0.04016320779919624,-0.12262758612632751,-0.30572906136512756
1772650620564771300,0.357771240234375,-0.05925218388438225,-0.19272230565547943,-0.26724568009376526
1772650620574648800,0.36764892578125,-0.05482354015111923,-0.2826695740222931,-0.15958385169506073
1772650620584526300,0.3775263671875,-0.03512371703982353,-0.36070531606674194,-0.019394399598240852
1772650620594403800,0.38740380859375,-0.005650337319821119,-0.4422534108161926,0.12461283802986145
1772650620604281300,0.39728125,0.021532366052269936,-0.548082709312439,0.24846212565898895
1772650620614158800,0.407158935546875,0.024586603045463562,-0.7026270627975464,0.3387148082256317
1772650620624036400,0.417036376953125,-0.0390942245721817,-0.8822161555290222,0.38819342851638794
1772650620633913900,0.426913818359375,-0.09009996801614761,-1.109298586845398,0.42637139558792114
1772650620643791400,0.436791259765625,-0.05497625470161438,-1.3325632810592651,0.49493899941444397
1772650620653668900,0.4466689453125,-0.06016845628619194,-1.4922997951507568,0.6166502833366394
1772650620663557600,0.4565576171875,-0.08353336155414581,-1.563768982887268,0.7966975569725037
1772650620673424000,0.466423828125,-0.14721418917179108,-1.4936742782592773,0.9871291518211365
1772650620683301400,0.47630126953125,-0.21776704490184784,-1.378682255744934,1.1483927965164185
1772650620693179000,0.486178955078125,-0.251974493265152,-1.2442958354949951,1.2183349132537842
1772650620703056400,0.496056396484375,-0.2919849753379822,-1.0645540952682495,1.1995513439178467
1772650620712920000,0.505920166015625,-0.30603447556495667,-0.6514685750007629,1.110825777053833
1772650620722811400,0.515811279296875,-0.26464956998825073,-0.11590826511383057,0.9521581530570984
1772650620732689000,0.52568896484375,-0.13240113854408264,0.41262730956077576,0.6432221531867981
1772650620742552600,0.535552490234375,0.004886778071522713,0.8141067028045654,0.2673983871936798
1772650620752444000,0.54544384765625,0.08231166750192642,1.1097567081451416,-0.08139539510011673
1772650620762321400,0.5553212890625,0.11010521650314331,1.294690728187561,-0.25350162386894226
1772650620772185000,0.56518505859375,0.10598199814558029,1.3357702493667603,-0.1960819661617279
1772650620782076400,0.575076416015625,0.11147962510585785,1.2348277568817139,-0.02076880633831024
1772650620791954000,0.584953857421875,0.16737215220928192,1.191610336303711,0.09284878522157669
1772650620801817600,0.594817626953125,0.28129515051841736,1.2731584310531616,0.03405473381280899
1772650620811709000,0.604708984375,0.40575528144836426,1.3481398820877075,-0.2376195788383484
1772650620821586400,0.61458642578125,0.4957025647163391,1.2899566888809204,-0.6169557571411133
1772650620831450000,0.6244501953125,0.5238015055656433,1.0260707139968872,-0.9307785034179688
1772650620841341400,0.634341552734375,0.4747810363769531,0.5996993184089661,-1.0338590145111084
1772650620851219000,0.644218994140625,0.3921639323234558,0.10002623498439789,-0.9304730892181396
1772650620861082600,0.65408251953125,0.2973299026489258,-0.3706315755844116,-0.7273663878440857
1772650620870974000,0.663973876953125,0.2373141646385193,-0.7666133046150208,-0.5184566378593445
1772650620880851500,0.6738515625,0.26464956998825073,-1.0640959739685059,-0.33718767762184143
1772650620890715100,0.683715087890625,0.3390202224254608,-1.1587772369384766,-0.16996824741363525
1772650620900606500,0.6936064453125,0.3843756318092346,-1.0152281522750854,0.004581354558467865
1772650620910484000,0.70348388671875,0.40453359484672546,-0.698503851890564,0.16111096739768982
1772650620920347600,0.71334765625,0.4159869849681854,-0.3170297145843506,0.2533488869667053
1772650620930239000,0.723239013671875,0.4280512034893036,0.07589777559041977,0.26724568009376526
1772650620940116200,0.7331162109375,0.4172086715698242,0.2999260127544403,0.20035789906978607
1772650620949980200,0.742980224609375,0.3243598937988281,0.4518742561340332,0.15179555118083954
1772650620959871200,0.752871337890625,0.26694026589393616,0.45324867963790894,0.024281177669763565
1772650620969748700,0.762748779296875,0.22066856920719147,0.3142809271812439,-0.1319430023431778
1772650620979612700,0.77261279296875,0.1785201132297516,0.11315945535898209,-0.2919849753379822
1772650620989503700,0.782503662109375,0.12323843687772751,-0.03787253051996231,-0.37322768568992615
1772650620999381200,0.79238134765625,0.04504998400807381,-0.12843063473701477,-0.34818294644355774
1772650621009245000,0.802244873046875,-0.04413371533155441,-0.15439164638519287,-0.24662958085536957
1772650621019136300,0.81213623046875,-0.13621893525123596,-0.056961506605148315,-0.1238492801785469
1772650621029013800,0.822013671875,-0.2229592502117157,0.09025268256664276,-0.038788799196481705
1772650621038877400,0.83187744140625,-0.2655658423900604,0.1882936656475067,0.011911521665751934
1772650621048768800,0.841768798828125,-0.3136700689792633,0.28312769532203674,0.007024743594229221
1772650621058646300,0.851646240234375,-0.3709369897842407,0.36910444498062134,-0.018019994720816612
1772650621068510000,0.861510009765625,-0.3658975064754486,0.3593308925628662,-0.012980503961443901
1772650621078401300,0.8714013671875,-0.3095468580722809,0.258999228477478,0.04337015375494957
1772650621088278800,0.88127880859375,-0.2170034945011139,0.0844496339559555,0.14843589067459106
1772650621098142500,0.891142578125,-0.10766182839870453,-0.13209572434425354,0.26724568009376526
1772650621108033800,0.90103369140625,-0.008246437646448612,-0.3590254783630371,0.3381039500236511
1772650621117911300,0.910911376953125,0.04550812020897865,-0.59023118019104,0.3564293682575226
1772650621127775000,0.92077490234375,0.06306997686624527,-0.7934905886650085,0.37353309988975525
1772650621137666300,0.930666259765625,0.024586603045463562,-0.9003888368606567,0.39140036702156067
1772650621147543800,0.940543701171875,-0.03374931216239929,-0.9245173335075378,0.3793361485004425
1772650621157407500,0.950407470703125,-0.09941539168357849,-0.7896727919578552,0.30007871985435486
1772650621167298800,0.960298828125,-0.19119518995285034,-0.39262208342552185,0.10995250940322876
1772650621177176300,0.97017626953125,-0.28129515051841736,0.3127537965774536,-0.08154810965061188
1772650621187040000,0.9800400390625,-0.3426853120326996,1.330883502960205,-0.12858334183692932
1772650621196931000,0.98993115234375,-0.32603973150253296,2.3787920475006104,0.05757235363125801
1772650621206808600,0.99980859375,-0.1560714691877365,2.5089023113250732,0.5914528369903564
1772650621216672500,1.009672607421875,0.15057384967803955,1.8314727544784546,1.145796775817871
1772650621226563600,1.0195634765625,0.53143709897995,1.0622633695602417,1.4211361408233643
1772650621236441000,1.029441162109375,0.5538857579231262,0.32878854870796204,1.404185175895691
1772650621246304800,1.0393046875,0.0781884491443634,-0.677582323551178,1.333632230758667
1772650621256196000,1.049196044921875,-0.5610632300376892,-1.0312628746032715,1.0366077423095703
1772650621266073600,1.059073486328125,-1.0301939249038696,-0.388651579618454,0.4059080183506012
1772650621275937300,1.068937255859375,-1.199093222618103,0.33718767762184143,-0.2686200737953186
1772650621285828600,1.07882861328125,-1.068982720375061,0.5673243999481201,-0.7391251921653748
1772650621295706000,1.0887060546875,-0.786771297454834,0.6612421870231628,-1.087613582611084
1772650621305569800,1.09856982421875,-0.6126797795295715,0.5622848868370056,-1.2491827011108398
1772650621315461000,1.108461181640625,-0.50685054063797,0.31886225938796997,-1.1659547090530396
1772650621325338600,1.118338623046875,-0.4152234196662903,-0.0719272643327713,-0.9069554805755615
1772650621335202300,1.128202392578125,-0.29351210594177246,-0.39201122522354126,-0.6294780969619751
1772650621345093400,1.13809326171875,-0.14064757525920868,-0.5748072862625122,-0.4017847776412964
1772650621354971000,1.147970947265625,-0.03420744836330414,-0.6919372081756592,-0.2160872220993042
1772650621364834600,1.15783447265625,0.002748812548816204,-0.8092198967933655,-0.04016320779919624
1772650621374726000,1.167725830078125,0.009315420873463154,-0.8791618943214417,0.06872031837701797
1772650621384603400,1.177603271484375,0.011300674639642239,-0.8319739699363708,0.06734590977430344
1772650621394467000,1.187467041015625,0.03771981969475746,-0.6493306159973145,-0.04840964451432228
1772650621404358400,1.1973583984375,0.15484978258609772,-0.4039227366447449,-0.18065807223320007
1772650621414236000,1.20723583984375,0.22738789021968842,-0.13117945194244385,-0.29442837834358215
1772650621424099600,1.217099609375,0.20677179098129272,0.1760767251253128,-0.4211791753768921
1772650621433991000,1.226990966796875,0.22586077451705933,0.3958290219306946,-0.5541911721229553
1772650621443868400,1.236868408203125,0.2942756712436676,0.4366030693054199,-0.645818293094635
1772650621453732000,1.246732177734375,0.3177932798862457,0.33291175961494446,-0.6508577466011047
1772650621463623400,1.25662353515625,0.2898470163345337,0.17286977171897888,-0.545181155204773
1772650621473501000,1.2665009765625,0.2208212912082672,0.055587101727724075,-0.3506263196468353
1772650621483364600,1.276364501953125,0.10048437118530273,0.003970507066696882,-0.13438639044761658
1772650621493255700,1.286255615234375,-0.042606595903635025,0.04718795046210289,0.01954711228609085
1772650621503133200,1.29613330078125,-0.1785201132297516,0.18707197904586792,0.0650552362203598
1772650621512997000,1.3059970703125,-0.27808821201324463,0.3793361485004425,0.005955760832875967
1772650621522888200,1.31588818359375,-0.333064466714859,0.5720584392547607,-0.12079504877328873
1772650621532765700,1.325765625,-0.3640649616718292,0.6977402567863464,-0.2564031481742859
1772650621542629400,1.33562939453125,-0.36314868927001953,0.7794411182403564,-0.3990359604358673
1772650621552520700,1.345520751953125,-0.335507869720459,0.7769976854324341,-0.5082249045372009
1772650621562398200,1.355398193359375,-0.25533416867256165,0.6862868666648865,-0.5219689607620239
1772650621572262000,1.365261962890625,-0.1566823273897171,0.5088357925415039,-0.41323816776275635
1772650621582153200,1.3751533203125,-0.08170082420110703,0.28190600872039795,-0.19318044185638428
1772650621592030700,1.38503076171875,-0.03802524134516716,0.07238540053367615,0.08017370104789734
1772650621601908200,1.394908203125,-0.003359660040587187,-0.12812520563602448,0.3246653079986572
1772650621611785700,1.40478564453125,0.03802524134516716,-0.30847787857055664,0.46164780855178833
1772650621621663200,1.414663330078125,0.08887827396392822,-0.41354358196258545,0.48608171939849854
1772650621631527000,1.42452685546875,0.09956810623407364,-0.4077405333518982,0.45111069083213806
1772650621641418000,1.43441796875,0.03374931216239929,-0.2586938142776489,0.3706315755844116
1772650621651295500,1.44429541015625,-0.12155860662460327,0.04367557913064957,0.26434415578842163
1772650621661159200,1.4541591796875,-0.279920756816864,0.5108210444450378,0.1510319858789444
1772650621671050500,1.464050537109375,-0.31825143098831177,1.0398147106170654,0.020157959312200546
1772650621680928000,1.473927978515625,-0.16111096739768982,1.5275763273239136,-0.09437590092420578
1772650621690791700,1.483791748046875,0.12323843687772751,1.8055118322372437,-0.045355409383773804
1772650621700683000,1.49368310546875,0.35765108466148376,1.8365123271942139,0.2724378705024719
1772650621710560500,1.503560546875,0.4421007037162781,1.8556013107299805,0.8073873519897461
1772650621720424200,1.513424072265625,0.44607120752334595,1.7726787328720093,1.3689087629318237
1772650621730315500,1.5233154296875,0.48959407210350037,1.330578088760376,1.7085397243499756
1772650621740193000,1.533193115234375,0.3694098889827728,0.17714570462703705,1.8461331129074097
1772650621750056700,1.543056640625,0.06841489672660828,-0.848314106464386,1.6804407835006714
1772650621759947800,1.55294775390625,-0.2916795611381531,-0.964069664478302,1.1952754259109497
1772650621769825300,1.5628251953125,-0.5216635465621948,-0.38849884271621704,0.5604523420333862
1772650621779689000,1.57268896484375,-0.5195255875587463,0.18554484844207764,0.08078455179929733
1772650621789580300,1.582580322265625,-0.37826716899871826,0.44668206572532654,-0.2011214643716812
1772650621799457800,1.592457763671875,-0.1563768982887268,0.6051968932151794,-0.4027010500431061
1772650621809321500,1.602321533203125,-0.07666133344173431,0.7146912813186646,-0.5824428796768188
1772650621819212800,1.612212890625,-0.072232685983181,0.5804576277732849,-0.6449019908905029
1772650621829090300,1.62209033203125,-0.07406523078680038,0.21318569779396057,-0.5111264586448669
1772650621838954000,1.6319541015625,-0.0198525357991457,-0.2286095917224884,-0.20768806338310242
1772650621848845300,1.64184521484375,0.08658760040998459,-0.6178719997406006,0.13652436435222626
1772650621858722800,1.651722900390625,0.19883078336715698,-0.8750386834144592,0.3939964771270752
1772650621868586500,1.66158642578125,0.3133646547794342,-0.9756757616996765,0.5280774831771851
1772650621878477600,1.6714775390625,0.44576579332351685,-1.0037747621536255,0.5612159371376038
1772650621888355000,1.68135498046875,0.5716003179550171,-1.0813523530960083,0.611152708530426
1772650621898218800,1.69121875,0.6694886088371277,-1.193290114402771,0.7256865501403809
1772650621908110000,1.701110107421875,0.6945333480834961,-1.355164647102356,0.8729007244110107
1772650621917987600,1.710987548828125,0.6418477296829224,-1.4028106927871704,0.9457442760467529
1772650621927851300,1.720851318359375,0.5644228458404541,-1.3151541948318481,0.9097042679786682
1772650621937742600,1.73074267578125,0.511431872844696,-1.1774080991744995,0.7992936372756958
1772650621947620000,1.7406201171875,0.45477578043937683,-0.9530744552612305,0.6540647149085999
1772650621957483800,1.75048388671875,0.3790307343006134,-0.6794148683547974,0.4865398406982422
1772650621967375000,1.760375,0.34848836064338684,-0.40697699785232544,0.314586341381073
1772650621977252400,1.77025244140625,0.3277195692062378,-0.25090551376342773,0.1501157134771347
1772650621987116300,1.7801162109375,0.2832804024219513,-0.15591876208782196,0.001374406274408102
1772650621997007400,1.79000732421875,0.22005772590637207,-0.0647498071193695,-0.1623326539993286
1772650622006884900,1.799884765625,0.14553436636924744,0.021379653364419937,-0.3313846290111542
1772650622016748500,1.80974853515625,0.07834116369485855,0.08826743066310883,-0.4695888161659241
1772650622026640000,1.819639892578125,0.018783552572131157,0.15622419118881226,-0.5722111463546753
1772650622036517400,1.829517333984375,-0.04871506989002228,0.24097923934459686,-0.659562349319458
1772650622046381000,1.839381103515625,-0.09712471067905426,0.3333698809146881,-0.7177455425262451
1772650622056272400,1.8492724609375,-0.111632339656353,0.4083513915538788,-0.7450809478759766
1772650622066150000,1.85914990234375,-0.11835165321826935,0.4052971601486206,-0.7401941418647766
1772650622076013600,1.869013671875,-0.10857810080051422,0.28969430923461914,-0.6757497787475586
1772650622085904600,1.878904541015625,-0.07360709458589554,0.09025268256664276,-0.5367820262908936
1772650622095782100,1.8887822265625,-0.03130592033267021,-0.13545538485050201,-0.3590254783630371
1772650622105645800,1.898645751953125,0.043981000781059265,-0.3092414140701294,-0.19256959855556488
1772650622115537200,1.908537109375,0.125987246632576,-0.41323816776275635,-0.08124268800020218
1772650622125414700,1.91841455078125,0.17393875122070312,-0.4559974670410156,-0.02764083817601204
1772650622135278300,1.9282783203125,0.19348587095737457,-0.4540122151374817,-0.014049487188458443
1772650622145169700,1.938169677734375,0.1882936656475067,-0.34100547432899475,-0.0528382882475853
1772650622155047200,1.948047119140625,0.1707318127155304,-0.09300149232149124,-0.16706672310829163
1772650622164910800,1.957910888671875,0.1913478970527649,0.24937839806079865,-0.3423798978328705
1772650622174802000,1.967802001953125,0.25625041127204895,0.6580352187156677,-0.552664041519165
1772650622184679400,1.977679443359375,0.3668137788772583,1.1691616773605347,-0.7162184119224548
1772650622194543000,1.987543212890625,0.5505260825157166,1.6575340032577515,-0.6166502833366394
1772650622204434400,1.997434326171875,0.7247702479362488,2.07153582572937,-0.11942064017057419
1772650622214312000,2.00731201171875,0.7206470370292664,2.169271230697632,0.7017107605934143
1772650622224175600,2.017175537109375,0.5520532131195068,2.0837526321411133,1.4964231252670288
1772650622234067000,2.02706689453125,0.14080029726028442,1.787797212600708,1.9272230863571167
1772650622243944400,2.0369443359375,-0.4874561131000519,1.1077715158462524,2.0747427940368652
1772650622253808000,2.04680810546875,-1.0573766231536865,0.3429907262325287,2.030608892440796
1772650622263699200,2.05669921875,-1.4110571146011353,0.24281178414821625,1.677844762802124
1772650622273576700,2.06657666015625,-1.4472498893737793,0.765238881111145,1.086391806602478
1772650622283440600,2.076440673828125,-1.305838704109192,1.1764918565750122,0.4946335554122925
1772650622293331700,2.086331787109375,-1.0492829084396362,1.4849697351455688,0.05131116881966591
1772650622303209200,2.096209228515625,-0.6708629727363586,1.7140374183654785,-0.43080002069473267
1772650622313073000,2.106072998046875,-0.35597124695777893,1.6856330633163452,-0.7585195899009705
1772650622322964200,2.115964111328125,-0.144465371966362,1.2794195413589478,-0.9011524319648743
1772650622332841700,2.125841796875,-0.005344913341104984,0.5761816501617432,-0.5505260825157166
1772650622342705400,2.135705322265625,0.1366770714521408,-0.15927842259407043,0.10827267915010452
1772650622352596700,2.1455966796875,0.3104631304740906,-0.6360446810722351,0.6519267559051514
1772650622362474000,2.155473876953125,0.5010474920272827,-0.7779139876365662,0.8590039610862732
1772650622372338000,2.165337890625,0.673306405544281,-0.7058340311050415,0.8112051486968994
1772650622382229000,2.17522900390625,0.7834116220474243,-0.6200099587440491,0.6474980711936951
1772650622392106500,2.1851064453125,0.8101361989974976,-0.6216897964477539,0.4990622103214264
1772650622401970200,2.19497021484375,0.7598940134048462,-0.6752916574478149,0.41675055027008057
1772650622411861500,2.204861572265625,0.6722373962402344,-0.7565343379974365,0.3571929335594177
1772650622421739000,2.214739013671875,0.5586197972297668,-0.8218950033187866,0.2754921019077301
1772650622431602700,2.224602783203125,0.42133188247680664,-0.7684458494186401,0.20310671627521515
1772650622441494000,2.234493896484375,0.31565532088279724,-0.5548020005226135,0.15179555118083954
1772650622451371300,2.244371337890625,0.2770192325115204,-0.3229855000972748,0.12354385852813721
1772650622461235000,2.25423486328125,0.25502872467041016,-0.12003148347139359,0.08994726091623306
1772650622471126300,2.264126220703125,0.2211267054080963,0.09773556143045425,0.01588202826678753
1772650622481003800,2.274003662109375,0.1507265567779541,0.2241809368133545,-0.0656660795211792
1772650622490867500,2.283867431640625,0.06688777357339859,0.22494450211524963,-0.091321662068367
1772650622500758800,2.2937587890625,0.007941014133393764,0.20768806338310242,-0.09483403712511063
1772650622510636300,2.30363623046875,-0.02351761981844902,0.23028941452503204,-0.10292776674032211
1772650622520500000,2.3135,-0.02504473738372326,0.256708562374115,-0.09865183383226395
1772650622530391000,2.32339111328125,-0.0393996499478817,0.28847262263298035,-0.09956810623407364
1772650622540268500,2.3332685546875,-0.08704573661088943,0.37918344140052795,-0.13545538485050201
1772650622550132200,2.34313232421875,-0.12888877093791962,0.4963133931159973,-0.1820324808359146
1772650622560023600,2.3530234375,-0.1423274129629135,0.5340332388877869,-0.20371755957603455
1772650622569901000,2.362901123046875,-0.14095300436019897,0.5117372870445251,-0.2151709496974945
1772650622579778600,2.372778564453125,-0.12736165523529053,0.47111594676971436,-0.2432699203491211
1772650622589656000,2.382656005859375,-0.10430216789245605,0.4039227366447449,-0.2716743052005768
1772650622599533600,2.392533447265625,-0.04932591691613197,0.30099499225616455,-0.23502348363399506
1772650622609397200,2.402397216796875,0.011300674639642239,0.14996300637722015,-0.11300674080848694
1772650622619288300,2.412288330078125,0.07101099193096161,-0.01435491070151329,0.0916270911693573
1772650622629165800,2.422165771484375,0.1495048701763153,-0.11575555801391602,0.30908870697021484
1772650622639029500,2.432029541015625,0.23364907503128052,-0.1185043677687645,0.4352286756038666
1772650622648920800,2.4419208984375,0.29656633734703064,-0.07207997888326645,0.41537612676620483
1772650622658798300,2.45179833984375,0.30343836545944214,0.06688777357339859,0.24036839604377747
1772650622668662000,2.461662109375,0.2736595869064331,0.3608580231666565,-0.02489202655851841
1772650622678553300,2.47155322265625,0.2918322682380676,0.7828007340431213,-0.31351736187934875
1772650622688430800,2.481430908203125,0.35536038875579834,1.1942063570022583,-0.668419599533081
1772650622698294500,2.49129443359375,0.4083513915538788,1.5081819295883179,-1.065775752067566
1772650622708185600,2.501185546875,0.5202891230583191,1.7655012607574463,-1.3014100790023804
1772650622718063000,2.51106298828125,0.7802046537399292,1.9331789016723633,-1.1893196105957031
1772650622727926800,2.5209267578125,1.0408837795257568,2.0095348358154297,-0.6106945276260376
1772650622737818000,2.530818115234375,1.2126845121383667,1.8308619260787964,0.45706647634506226
1772650622747695600,2.540695556640625,1.1697725057601929,1.5495667457580566,1.5697247982025146
1772650622757559300,2.550559326171875,0.8843541145324707,1.256971001625061,2.222262382507324
1772650622767450600,2.56045068359375,0.5519005060195923,0.8874083757400513,2.3038103580474854
1772650622777327900,2.570327880859375,0.1382041871547699,0.2898470163345337,1.9716622829437256
1772650622787191600,2.580191650390625,-0.444085955619812,-0.1716480851173401,1.297286868095398
1772650622797083000,2.590082763671875,-0.9996515512466431,-0.1820324808359146,0.37231141328811646
1772650622806960400,2.59996044921875,-1.4553436040878296,0.21990501880645752,-0.5209000110626221
1772650622816824000,2.609823974609375,-1.6101933717727661,0.7948650121688843,-0.9524635672569275
1772650622826715400,2.61971533203125,-1.4929107427597046,1.1488510370254517,-1.0880717039108276
1772650622836593000,2.629593017578125,-1.1418262720108032,0.6910209655761719,-0.9014578461647034
1772650622846456600,2.63945654296875,-0.7339329719543457,-0.09529217332601547,-0.5998520255088806
1772650622856347600,2.64934765625,-0.48272204399108887,-0.5716003179550171,-0.3474193811416626
1772650622866225200,2.65922509765625,-0.3698680102825165,-0.8774821162223816,-0.2226538211107254
1772650622876088800,2.6690888671875,-0.2564031481742859,-1.064401388168335,-0.23593975603580475
1772650622885980200,2.678980224609375,-0.12323843687772751,-1.1176977157592773,-0.3620797097682953
1772650622895857700,2.688857666015625,-0.008857285603880882,-1.102121114730835,-0.5230379700660706
1772650622905721300,2.698721435546875,0.046424392610788345,-1.0668447017669678,-0.6575770974159241
1772650622915612700,2.70861279296875,0.031153209507465363,-1.029735803604126,-0.7356128096580505
1772650622925490000,2.718489990234375,-0.020463382825255394,-0.9662076234817505,-0.7916580438613892
1772650622935353900,2.728353759765625,-0.08826743066310883,-0.8742751479148865,-0.881605327129364
1772650622945245000,2.738244873046875,-0.17454960942268372,-0.8014315962791443,-1.0413419008255005
1772650622955122400,2.748122314453125,-0.2767138183116913,-0.7757760286331177,-1.1836693286895752
1772650622964986000,2.757986083984375,-0.40636613965034485,-0.6969767212867737,-1.1850436925888062
1772650622974877400,2.76787744140625,-0.5170822143554688,-0.5650337338447571,-0.996749997138977
1772650622984755000,2.7777548828125,-0.5885513424873352,-0.42331716418266296,-0.6988092660903931
1772650622994618600,2.78761865234375,-0.6036698222160339,-0.24907296895980835,-0.40972578525543213
1772650623004509700,2.797509765625,-0.561826765537262,-0.09529217332601547,-0.19715094566345215
1772650623014387200,2.80738720703125,-0.5376983284950256,-0.043981000781059265,-0.10491301864385605
1772650623024251000,2.8172509765625,-0.5584670901298523,-0.05757235363125801,-0.11468657106161118
1772650623034142200,2.82714208984375,-0.5816792845726013,-0.08017370104789734,-0.21211670339107513
1772650623044019700,2.837019775390625,-0.6106945276260376,-0.06368082761764526,-0.37826716899871826
1772650623053883400,2.84688330078125,-0.6687250137329102,-0.043828289955854416,-0.503948986530304
1772650623063774700,2.856774658203125,-0.7569924592971802,0.14553436636924744,-0.5943543910980225
1772650623073652000,2.86665185546875,-0.7295043468475342,0.36192700266838074,-0.7507312893867493
1772650623083516000,2.876515869140625,-0.6606312990188599,0.4682144224643707,-0.7869240045547485
1772650623093407000,2.886406982421875,-0.5138752460479736,0.411863774061203,-0.7513421177864075
1772650623103284500,2.896284423828125,-0.2980934679508209,0.2507528066635132,-0.6195518374443054
1772650623113148200,2.906148193359375,-0.06933116167783737,0.002748812548816204,-0.4277457892894745
1772650623123039500,2.91603955078125,0.1823379099369049,-0.2582356929779053,-0.1501157134771347
1772650623132917000,2.9259169921875,0.39323291182518005,-0.5080721974372864,0.1588202863931656
1772650623142794500,2.93579443359375,0.5175403356552124,-0.6907155513763428,0.3987305462360382
1772650623152671700,2.945671630859375,0.5645755529403687,-0.8145648241043091,0.5367820262908936
1772650623162549200,2.95554931640625,0.5329642295837402,-0.9040539264678955,0.5844281315803528
1772650623172413000,2.965412841796875,0.46760356426239014,-0.9984298348426819,0.5494571328163147
1772650623182304300,2.97530419921875,0.3787252902984619,-1.0469921827316284,0.4456130862236023
1772650623192181800,2.985181640625,0.2686200737953186,-1.0240854024887085,0.3083251416683197
1772650623202045400,2.99504541015625,0.1253764033317566,-0.9633061289787292,0.1898207813501358
1772650623211936800,3.004936767578125,-0.10124793648719788,-0.9028322696685791,0.0978882759809494
1772650623221814000,3.01481396484375,-0.37383851408958435,-0.8197570443153381,0.011911521665751934
1772650623231678000,3.024677978515625,-0.5871769189834595,-0.6777350306510925,-0.07375980913639069
1772650623241569000,3.034569091796875,-0.5375455617904663,-0.3498627543449402,-0.23334364593029022
1772650623251446500,3.044446533203125,-0.20219044387340546,0.2635805904865265,-0.5351021885871887
1772650623261310200,3.054310302734375,0.2654131352901459,0.7562289237976074,-0.7040014863014221
1772650623271201500,3.064201416015625,0.6881194114685059,1.2589561939239502,-0.5717530250549316
1772650623281079000,3.0740791015625,0.8212841153144836,1.8551430702209473,-0.14782503247261047
1772650623290942700,3.083942626953125,1.1920684576034546,1.8595718145370483,0.7149966955184937
1772650623300833800,3.093833740234375,0.9248227477073669,0.14049486815929413,1.6628789901733398
1772650623310711300,3.103711181640625,-0.059557609260082245,-1.748550295829773,2.258760452270508
1772650623320575000,3.113574951171875,-0.9148964881896973,-1.7737476825714111,2.0590133666992188
1772650623330466300,3.12346630859375,-1.290109395980835,-0.7737907767295837,1.2134480476379395
1772650623340343800,3.13334375,-1.2221527099609375,0.16248537600040436,0.1107160672545433
1772650623350207500,3.14320751953125,-0.9736905097961426,0.6969767212867737,-0.7160657048225403
1772650623360098800,3.153098876953125,-0.5482354164123535,0.9084826111793518,-1.2420052289962769
1772650623369976000,3.16297607421875,-0.11270131915807724,0.7049177289009094,-1.4874130487442017
1772650623379839700,3.17283984375,0.015576604753732681,0.2032594233751297,-1.2273448705673218
1772650623389731000,3.18273095703125,-0.12522368133068085,-0.13179029524326324,-0.49860408902168274
1772650623399608600,3.192608642578125,-0.20539739727973938,-0.3833066523075104,0.38391751050949097
1772650623409472300,3.20247216796875,-0.09468132257461548,-0.6282563805580139,1.0178242921829224
1772650623419363600,3.212363525390625,0.12705622613430023,-0.7099572420120239,1.2902621030807495
1772650623429240800,3.22224072265625,0.3689517378807068,-0.7481352090835571,1.3478344678878784
1772650623439104500,3.2321044921875,0.5573981404304504,-0.9393303990364075,1.3142378330230713
1772650623448995800,3.241995849609375,0.6583406329154968,-1.2200146913528442,1.2267340421676636
1772650623458873300,3.251873291015625,0.6865923404693604,-1.4533582925796509,1.1205992698669434
1772650623468737000,3.261737060546875,0.6765133142471313,-1.562394618988037,1.0188932418823242
1772650623478628400,3.27162841796875,0.5399889945983887,-1.4558017253875732,0.8768712282180786
1772650623488505600,3.281505615234375,0.30633988976478577,-0.9533798694610596,0.6505523324012756
1772650623498369500,3.29136962890625,0.1459924876689911,-0.3446705639362335,0.33230090141296387
1772650623508260600,3.301260498046875,0.09697200357913971,0.13453911244869232,0.029320668429136276
1772650623518138000,3.31113818359375,0.10766182839870453,0.3906368315219879,-0.18615570664405823
1772650623528001800,3.321001708984375,0.150421142578125,0.42637139558792114,-0.2832804024219513
1772650623537893000,3.33089306640625,0.20555010437965393,0.2927485406398773,-0.28816720843315125
1772650623547770600,3.3407705078125,0.20219044387340546,0.12552911043167114,-0.2939702570438385
1772650623557634300,3.35063427734375,0.11606097966432571,0.06123743951320648,-0.3799470067024231
1772650623567525400,3.360525390625,-0.047798797488212585,0.16095824539661407,-0.5783196687698364
1772650623577403000,3.37040283203125,-0.2916795611381531,0.4399627447128296,-0.8498412370681763
1772650623587266600,3.3802666015625,-0.5193728804588318,0.7673768401145935,-1.108229637145996
1772650623597158000,3.390157958984375,-0.6310052275657654,0.9990406632423401,-1.2461284399032593
1772650623607035400,3.400035400390625,-0.5625903010368347,1.0595145225524902,-1.1667182445526123
1772650623616899000,3.409899169921875,-0.35474956035614014,0.9927794933319092,-0.8661814332008362
1772650623626790100,3.4197900390625,-0.13866232335567474,0.7646280527114868,-0.49738237261772156
1772650623636667600,3.429667724609375,0.0978882759809494,0.44011545181274414,-0.14156384766101837
1772650623646531300,3.43953125,0.2999260127544403,0.0647498071193695,0.11712995916604996
1772650623656422700,3.449422607421875,0.46042612195014954,-0.279920756816864,0.26968905329704285
1772650623666300200,3.459300048828125,0.5601469278335571,-0.5070032477378845,0.32038938999176025
1772650623676163800,3.469163818359375,0.5716003179550171,-0.6166502833366394,0.3271087110042572
1772650623686055200,3.47905517578125,0.49264830350875854,-0.6213843822479248,0.36101073026657104
1772650623695932700,3.4889326171875,0.33596599102020264,-0.5691569447517395,0.4437805414199829
1772650623705796400,3.49879638671875,0.1623326539993286,-0.511431872844696,0.5392253994941711
1772650623715687400,3.5086875,0.01695101149380207,-0.517998456954956,0.5787777900695801
1772650623725565000,3.51856494140625,-0.10338589549064636,-0.5741963982582092,0.5050179958343506
1772650623735428600,3.5284287109375,-0.252432644367218,-0.5396835803985596,0.32542887330055237
1772650623745320000,3.53831982421875,-0.4343124032020569,-0.36284327507019043,0.11743538826704025
1772650623755197200,3.548197265625,-0.5674771070480347,-0.13026317954063416,-0.0393996499478817
1772650623765061000,3.55806103515625,-0.6653653979301453,0.05635065957903862,-0.20096874237060547
1772650623774952200,3.5679521484375,-0.7053758502006531,0.2101314514875412,-0.41201648116111755
1772650623784829700,3.57782958984375,-0.6664343476295471,0.45508119463920593,-0.5483881235122681
1772650623794693400,3.587693359375,-0.5083776116371155,0.7777612805366516,-0.4706578254699707
1772650623804584700,3.597584716796875,-0.24403348565101624,1.0024003982543945,-0.2570139765739441
1772650623814462000,3.6074619140625,0.03924693539738655,1.0676082372665405,-0.1104106456041336
1772650623824326000,3.617325927734375,0.17256435751914978,1.1447277069091797,-0.20432840287685394
1772650623834217000,3.627217041015625,0.10964708030223846,1.413042426109314,-0.4515688419342041
1772650623844094500,3.637094482421875,-0.11239589750766754,1.7757329940795898,-0.5801522135734558
1772650623853958100,3.646958251953125,-0.4106420576572418,2.0377864837646484,-0.3898732662200928
1772650623863849500,3.656849365234375,-0.6499415040016174,2.086196184158325,0.07986827939748764
1772650623873727000,3.66672705078125,-0.6844543814659119,1.8316254615783691,0.6410841941833496
1772650623883590700,3.676590576171875,-0.48577627539634705,1.2424633502960205,1.1063971519470215
1772650623893481700,3.686481689453125,-0.18310146033763885,0.40193748474121094,1.3791403770446777
1772650623903359200,3.696359130859375,0.05360184609889984,-0.4894413650035858,1.4559544324874878
1772650623913223000,3.706222900390625,0.08796200156211853,-1.1289983987808228,1.3496670722961426
1772650623923114200,3.7161142578125,-0.03145863488316536,-1.4576343297958374,1.1283875703811646
1772650623932991700,3.72599169921875,-0.17363333702087402,-1.520246148109436,0.8707627654075623
1772650623942855400,3.73585546875,-0.2588465213775635,-1.3139324188232422,0.7047650218009949
1772650623952746500,3.74574658203125,-0.288930743932724,-1.0195040702819824,0.6879667043685913
1772650623962624000,3.7556240234375,-0.27595025300979614,-0.6824691295623779,0.7493568658828735
1772650623972487700,3.76548779296875,-0.22784602642059326,-0.38910970091819763,0.7875348329544067
1772650623982379000,3.77537890625,-0.17378604412078857,-0.2148655205965042,0.7496622800827026
1772650623992256500,3.785256591796875,-0.10888352245092392,-0.16767756640911102,0.6310052275657654
1772650624002120200,3.7951201171875,-0.023975754156708717,-0.19027891755104065,0.47707170248031616
1772650624012011300,3.80501123046875,0.07559234648942947,-0.21318569779396057,0.3176405727863312
1772650624021888800,3.814888671875,0.18737739324569702,-0.1829487532377243,0.16217994689941406
1772650624031752400,3.82475244140625,0.30374380946159363,-0.09926267713308334,0.018630841746926308
1772650624041643800,3.834643798828125,0.42362257838249207,-0.038483377546072006,-0.08658760040998459
1772650624051521300,3.844521240234375,0.5398362874984741,-0.0393996499478817,-0.12965233623981476
1772650624061385000,3.854385009765625,0.5952706336975098,-0.009468132629990578,-0.1041494607925415
1772650624071276000,3.864276123046875,0.5729747414588928,0.08429691940546036,-0.03161134570837021
1772650624081153500,3.874153564453125,0.5074613690376282,0.21181128919124603,0.030847785994410515
1772650624091017200,3.884017333984375,0.41705596446990967,0.35566580295562744,0.03634541109204292
1772650624100908500,3.893908447265625,0.30695074796676636,0.4869979918003082,-0.04459185153245926
1772650624110786000,3.9037861328125,0.182643324136734,0.5421269536018372,-0.22692975401878357
1772650624120663600,3.91366357421875,0.091932512819767,0.540905237197876,-0.4940227270126343
1772650624130541000,3.923541015625,0.033291175961494446,0.5213581323623657,-0.795628547668457
1772650624140418300,3.933418212890625,-0.010537114925682545,0.4718795120716095,-1.0479084253311157
1772650624150282000,3.943281982421875,-0.012369656935334206,0.3898732662200928,-1.145491361618042
1772650624160173300,3.95317333984375,0.041232191026210785,0.3480302393436432,-1.0582928657531738
1772650624170050800,3.96305078125,0.020157959312200546,0.3617742955684662,-0.8768712282180786
1772650624179914500,3.97291455078125,-0.021990500390529633,0.4065188467502594,-0.5483881235122681
1772650624189805600,3.9828056640625,0.005955760832875967,0.36849361658096313,-0.11835165321826935
1772650624199683000,3.99268310546875,0.11636640131473541,0.36696648597717285,0.21150586009025574
1772650624209546800,4.002546630859375,0.1698155403137207,0.5719057321548462,0.2777827978134155
1772650624219438000,4.01243798828125,-0.01175880990922451,1.043174386024475,0.16187451779842377
1772650624229315600,4.022315673828125,-0.40361732244491577,1.7004460096359253,0.10185877978801727
1772650624239179300,4.03217919921875,-0.6140542030334473,2.444610834121704,0.1250709742307663
1772650624249070300,4.0420703125,-0.5940489768981934,2.6752054691314697,0.25380703806877136
1772650624258947800,4.05194775390625,-0.4049917459487915,2.383678674697876,0.4384356141090393
1772650624268811500,4.0618115234375,-0.150421142578125,2.20729660987854,0.520594596862793
1772650624278702800,4.071702880859375,0.0035123717971146107,2.1274282932281494,0.5803049206733704
1772650624288580400,4.081580322265625,0.012980503961443901,1.5342955589294434,0.8312104344367981
1772650624298457900,4.091457763671875,-0.08643488585948944,0.3833066523075104,1.1865707635879517
1772650624308335000,4.101335205078125,-0.2211267054080963,-0.5529694557189941,1.355470061302185
1772650624318212600,4.111212646484375,-0.2982461750507355,-0.7429429888725281,1.192984700202942
1772650624328090000,4.121090087890625,-0.2626643180847168,-0.5769452452659607,0.9179506897926331
1772650624337967600,4.130967529296875,-0.1963873952627182,-0.45706647634506226,0.684148907661438
1772650624347845000,4.14084521484375,-0.18493400514125824,-0.38956785202026367,0.47111594676971436
1772650624357708800,4.150708740234375,-0.19241689145565033,-0.28496024012565613,0.14675605297088623
1772650624367599900,4.160599853515625,-0.16706672310829163,-0.29534465074539185,-0.23716144263744354
1772650624377477400,4.170477294921875,-0.10552386194467545,-0.4034646153450012,-0.5818319916725159
1772650624387341000,4.180341064453125,-0.02229592576622963,-0.4947862923145294,-0.8666395545005798
1772650624397232400,4.190232421875,0.05665608495473862,-0.5703786015510559,-1.067455530166626
1772650624407110000,4.20010986328125,0.144465371966362,-0.6433748602867126,-1.0836430788040161
1772650624416973600,4.2099736328125,0.2354816198348999,-0.6940752267837524,-0.870151937007904
1772650624426864600,4.21986474609375,0.27854636311531067,-0.7211052179336548,-0.5059342384338379
1772650624436742100,4.2297421875,0.24998924136161804,-0.7545490860939026,-0.11743538826704025
1772650624446605800,4.239605712890625,0.19898349046707153,-0.7950177192687988,0.21089501678943634
1772650624456497200,4.2494970703125,0.16813570261001587,-0.8518264889717102,0.4509579837322235
1772650624466374700,4.259374755859375,0.16798299551010132,-0.9555178284645081,0.5943543910980225
1772650624476238300,4.26923828125,0.16752485930919647,-1.090667724609375,0.6723901033401489
1772650624486129400,4.27912939453125,0.15423893928527832,-1.2346750497817993,0.7186617851257324
1772650624496007000,4.2890068359375,0.13621893525123596,-1.3314943313598633,0.7203416228294373
1772650624505870600,4.29887060546875,0.14339639246463776,-1.2977449893951416,0.6668924689292908
1772650624515762000,4.308761962890625,0.05024218559265137,-1.1048699617385864,0.5665608048439026
1772650624525639400,4.318639404296875,-0.13866232335567474,-0.8148702383041382,0.46164780855178833
1772650624535503000,4.328503173828125,-0.30404922366142273,-0.5506787896156311,0.3384093940258026
1772650624545394200,4.338394287109375,-0.44637662172317505,-0.3542914092540741,0.217308908700943
1772650624555271700,4.348271728515625,-0.5774033665657043,-0.18081079423427582,0.09330692142248154
1772650624565135400,4.35813525390625,-0.6705575585365295,-0.03771981969475746,-0.07895200699567795
1772650624575026700,4.368026611328125,-0.7088882327079773,0.06520794332027435,-0.2886253297328949
1772650624584904200,4.377904296875,-0.7004891037940979,0.09361234307289124,-0.47829338908195496
1772650624594768000,4.387767822265625,-0.6604785919189453,0.06948387622833252,-0.6088619828224182
1772650624604659000,4.397658935546875,-0.6019899845123291,0.04046862944960594,-0.6467345356941223
1772650624614536400,4.407536376953125,-0.5396835803985596,-0.053143709897994995,-0.5372401475906372
1772650624624400100,4.417400146484375,-0.503948986530304,-0.20005246996879578,-0.2629697322845459
1772650624634291500,4.42729150390625,-0.45645561814308167,-0.41705596446990967,0.09559759497642517
1772650624644169000,4.4371689453125,-0.37383851408958435,-0.6565080881118774,0.4089622497558594
1772650624654032600,4.44703271484375,-0.27442312240600586,-0.8628217577934265,0.5700731873512268
1772650624663923700,4.456923828125,-0.1513374149799347,-0.9694145917892456,0.5004366040229797
1772650624673801200,4.46680126953125,-0.04031591862440109,-0.9167290329933167,0.21685077250003815
1772650624683665000,4.476664794921875,0.009315420873463154,-0.7824953198432922,-0.16615045070648193
1772650624693556200,4.48655615234375,0.009315420873463154,-0.4987567961215973,-0.5306735634803772
1772650624703433500,4.49643359375,-0.009009997360408306,-0.09620844572782516,-0.6884248852729797
1772650624713297400,4.50629736328125,0.004734066314995289,0.3762819170951843,-0.4691306948661804
1772650624723188500,4.5161884765625,0.07956285774707794,1.276976227760315,-0.1423274129629135
1772650624733066000,4.52606591796875,0.23838314414024353,2.2085182666778564,-0.024433890357613564
1772650624742929700,4.5359296875,0.2629697322845459,2.551967144012451,0.05650337040424347
1772650624752821000,4.545821044921875,0.17363333702087402,2.152320384979248,0.10964708030223846
1772650624762698200,4.5556982421875,-0.22509720921516418,1.3611204624176025,0.14461809396743774
1772650624772562000,4.56556201171875,-0.8622109293937683,0.7091936469078064,0.22815145552158356
1772650624782453200,4.575453369140625,-1.2617050409317017,0.09804098308086395,0.465007483959198
1772650624792330800,4.585330810546875,-1.3070604801177979,-0.49325916171073914,0.7281299233436584
1772650624802194400,4.5951943359375,-1.0262234210968018,-0.8304468393325806,0.8276980519294739
1772650624812085500,4.60508544921875,-0.5557183027267456,-0.7038487792015076,0.6908682584762573
1772650624821963000,4.614962890625,-0.12247487902641296,-0.256708562374115,0.5118899941444397
1772650624831826700,4.62482666015625,0.07238540053367615,0.16935740411281586,0.39888325333595276
1772650624841718000,4.634718017578125,-0.025502873584628105,0.39506545662879944,0.27411770820617676
1772650624851595500,4.644595458984375,-0.3304683566093445,0.4246915578842163,0.06704048812389374
1772650624861459200,4.654459228515625,-0.7140804529190063,0.3796415627002716,-0.16706672310829163
1772650624871350300,4.664350341796875,-1.031415581703186,0.27885177731513977,-0.3561239540576935
1772650624881227800,4.674227783203125,-1.1360231637954712,0.06902574002742767,-0.4187358021736145
1772650624891091500,4.684091552734375,-0.9770501852035522,-0.1385096162557602,-0.33627140522003174
1772650624900982800,4.693982666015625,-0.638640820980072,-0.25502872467041016,-0.17241163551807404
1772650624910860300,4.7038603515625,-0.25121092796325684,-0.28969430923461914,0.06337540596723557
1772650624920724000,4.713723876953125,0.06872031837701797,-0.3026748299598694,0.4769189953804016
1772650624930615000,4.723614990234375,0.26190075278282166,-0.3465031087398529,1.0085088014602661
1772650624940492500,4.733492431640625,0.35261157155036926,-0.3567348122596741,1.3922736644744873
1772650624950356200,4.743356201171875,0.39888325333595276,-0.37444937229156494,1.4929107427597046
1772650624960247600,4.75324755859375,0.42453885078430176,-0.4563029110431671,1.4055595397949219
1772650624970125000,4.763125,0.35505497455596924,-0.5662553906440735,1.222305417060852
1772650624979988700,4.77298876953125,0.11453386396169662,-0.6493306159973145,0.9074136018753052
1772650624989879800,4.7828798828125,-0.17485502362251282,-0.5676298141479492,0.44072631001472473
1772650624999757300,4.79275732421875,-0.41232189536094666,-0.312142938375473,-0.17241163551807404
1772650625009621000,4.80262109375,-0.4749337434768677,0.07146912813186646,-0.7291989326477051
1772650625019512300,4.81251220703125,-0.4243861436843872,0.26251161098480225,-1.0143119096755981
1772650625029389600,4.8223896484375,-0.28602921962738037,0.402395635843277,-1.018282413482666
1772650625039253500,4.83225341796875,-0.07543963938951492,0.4784461259841919,-0.7866185307502747
1772650625049144600,4.84214453125,0.08353336155414581,0.5045598149299622,-0.44729289412498474
1772650625059022000,4.85202197265625,0.0781884491443634,0.5286883115768433,-0.2677038013935089
1772650625068885800,4.8618857421875,-0.007330167107284069,0.7035433053970337,-0.34879377484321594
1772650625078777000,4.871777099609375,-0.11483928561210632,0.9274188280105591,-0.5743491649627686
1772650625088654300,4.881654296875,-0.2101314514875412,0.992168664932251,-0.7873821258544922
1772650625098518000,4.89151806640625,-0.26907822489738464,0.8823688626289368,-0.8933641314506531
1772650625108409300,4.901409423828125,-0.30038413405418396,0.684759795665741,-0.8664868474006653
1772650625118286800,4.911286865234375,-0.2777827978134155,0.42453885078430176,-0.7485933303833008
1772650625128150500,4.921150634765625,-0.18401773273944855,0.1122431829571724,-0.578472375869751
1772650625138041600,4.93104150390625,-0.02993151545524597,-0.11270131915807724,-0.4584408700466156
1772650625147919000,4.940919189453125,0.09773556143045425,-0.23914669454097748,-0.388651579618454
1772650625157782800,4.95078271484375,0.21715620160102844,-0.2779355049133301,-0.37383851408958435
1772650625167674000,4.960674072265625,0.39109495282173157,-0.07177454978227615,-0.4874561131000519
1772650625177551600,4.970551513671875,0.5824428796768188,0.46516019105911255,-0.8040276765823364
1772650625187415300,4.980415283203125,0.6620057225227356,1.0332481861114502,-1.2326897382736206
1772650625197306400,4.990306396484375,0.576487123966217,1.0645540952682495,-1.4787085056304932
1772650625207184000,5.000183837890625,0.4268295168876648,0.6068767309188843,-1.4612993001937866
1772650625217047600,5.010047607421875,0.36727190017700195,0.28755635023117065,-1.4017417430877686
1772650625226939000,5.01993896484375,0.5888567566871643,0.6549809575080872,-1.5113887786865234
1772650625236816100,5.029816162109375,1.0873081684112549,1.799250602722168,-1.8108566999435425
1772650625246680000,5.03968017578125,0.8144121170043945,3.0714926719665527,-1.4664915800094604
1772650625256571100,5.049571044921875,-0.3318427801132202,3.806647300720215,-0.34131091833114624
1772650625266448600,5.05944873046875,-1.0301939249038696,4.4532294273376465,0.37475478649139404
1772650625276312300,5.069312255859375,-1.4764177799224854,3.813061237335205,0.6001574397087097
1772650625286203400,5.079203369140625,-1.7166335582733154,1.0367605686187744,1.0332481861114502
1772650625296081000,5.089080810546875,-1.6143165826797485,-1.3102673292160034,1.066081166267395
1772650625305944600,5.098944580078125,-1.1277767419815063,-1.7274760007858276,0.40422818064689636
1772650625315836000,5.1088359375,-0.5167768001556396,-1.6972391605377197,0.014965757727622986
1772650625325713400,5.11871337890625,0.03023693896830082,-2.0055642127990723,0.2348707765340805
1772650625335577000,5.1285771484375,0.35948359966278076,-1.8388029336929321,0.46897798776626587
1772650625345468200,5.13846826171875,0.3402419090270996,-1.5990453958511353,0.4946335554122925
1772650625355345700,5.148345703125,0.10063708573579788,-1.7378604412078857,0.439351886510849
1772650625365209300,5.158209228515625,-0.20661908388137817,-1.8937791585922241,0.2921377122402191
1772650625375100700,5.1681005859375,-0.4724903404712677,-1.9117991924285889,0.0922379344701767
1772650625384978000,5.17797802734375,-0.6007682681083679,-1.9321098327636719,0.055739812552928925
1772650625394841600,5.187841552734375,-0.6013791561126709,-2.0750482082366943,0.31031039357185364
1772650625404733000,5.19773291015625,-0.5143333673477173,-2.2353954315185547,0.791047215461731
1772650625414610400,5.2076103515625,-0.41171106696128845,-2.2234840393066406,1.288735032081604
1772650625424474000,5.21747412109375,-0.3712424337863922,-1.8844637870788574,1.5610201358795166
1772650625434365200,5.227365234375,-0.3504736125469208,-1.1865707635879517,1.469545841217041
1772650625444242700,5.23724267578125,-0.2980934679508209,-0.14156384766101837,1.012479305267334
1772650625454106400,5.2471064453125,-0.17271706461906433,0.6531484127044678,0.4181249439716339
1772650625463997700,5.256997802734375,-0.09804098308086395,0.9283351302146912,-0.05741964280605316
1772650625473875200,5.266875244140625,-0.22677704691886902,0.8038749694824219,-0.2718270421028137
1772650625483739000,5.27673876953125,-0.525175929069519,0.5899257659912109,-0.23349636793136597
1772650625493630000,5.2866298828125,-0.7970029711723328,0.4343124032020569,-0.02993151545524597
1772650625503507500,5.296507568359375,-0.8582404255867004,0.2602209448814392,0.2348707765340805
1772650625513371100,5.30637109375,-0.7264500856399536,0.052990999072790146,0.4682144224643707
1772650625523262500,5.316262451171875,-0.5572454333305359,-0.1119377613067627,0.642916738986969
1772650625533139700,5.3261396484375,-0.4359922409057617,-0.1829487532377243,0.7424848675727844
1772650625543003600,5.336003662109375,-0.36543938517570496,-0.16248537600040436,0.7527165412902832
1772650625552894700,5.345894775390625,-0.32374903559684753,-0.09009996801614761,0.7026270627975464
1772650625562772200,5.355772216796875,-0.3232909142971039,0.04886778071522713,0.5865660905838013
1772650625572636000,5.365635986328125,-0.40697699785232544,0.19058434665203094,0.4553866386413574
1772650625582527000,5.37552685546875,-0.53143709897995,0.2692309319972992,0.34222719073295593
1772650625592404500,5.385404541015625,-0.6135960817337036,0.2722851634025574,0.241742804646492
1772650625602282000,5.395281982421875,-0.6134433746337891,0.2363978922367096,0.15057384967803955
1772650625612159500,5.405159423828125,-0.5971031785011292,0.21318569779396057,0.09727742522954941
1772650625622037000,5.415037109375,-0.5963396430015564,0.18615570664405823,0.15332266688346863
1772650625631900700,5.424900634765625,-0.5636593103408813,0.08826743066310883,0.36223241686820984
1772650625641791700,5.434791748046875,-0.44988900423049927,-0.11621369421482086,0.6299362182617188
1772650625651669200,5.444669189453125,-0.346808522939682,-0.28037887811660767,0.779593825340271
1772650625661533000,5.454532958984375,-0.3379512429237366,-0.24724042415618896,0.7322531342506409
1772650625671424300,5.46442431640625,-0.34283801913261414,0.01817270554602146,0.47142136096954346
1772650625681301500,5.474301513671875,-0.33474430441856384,0.4172086715698242,0.05787777900695801
1772650625691165200,5.484165283203125,-0.36482852697372437,0.7531746625900269,-0.3461976945400238
1772650625701056500,5.494056396484375,-0.4674508571624756,1.0017894506454468,-0.554649293422699
1772650625710934000,5.50393408203125,-0.5851916670799255,1.4564125537872314,-0.5766398310661316
1772650625720797700,5.513797607421875,-0.6404733657836914,2.247459888458252,-0.6090146899223328
1772650625730688800,5.523688720703125,-0.49493899941444397,3.051334857940674,-0.8956547975540161
1772650625740566300,5.533566162109375,-0.21746163070201874,3.2327563762664795,-1.1894723176956177
1772650625750430000,5.543429931640625,-0.09040539711713791,2.7350685596466064,-1.1262496709823608
1772650625760321300,5.5533212890625,-0.14935214817523956,1.625922679901123,-0.44255882501602173
1772650625770198500,5.563198486328125,-0.27442312240600586,0.4799732267856598,0.6056550741195679
1772650625780062500,5.5730625,-0.2170034945011139,-0.3286358118057251,1.4064757823944092
1772650625789953500,5.58295361328125,0.04321744292974472,-0.649483323097229,1.5463597774505615
1772650625799831000,5.5928310546875,0.393385648727417,-0.5037962794303894,1.0011786222457886
1772650625809694700,5.60269482421875,0.5486935377120972,-0.09452861547470093,0.1238492801785469
1772650625819586000,5.6125859375,0.34726667404174805,0.32512345910072327,-0.6403206586837769
1772650625829463300,5.62246337890625,-0.08383878320455551,0.5745018720626831,-1.0071344375610352
1772650625839327000,5.632326904296875,-0.5248705148696899,0.7177455425262451,-0.9521581530570984
1772650625849218300,5.64221826171875,-0.8139539957046509,0.7237012982368469,-0.7133168578147888
1772650625859095800,5.652095703125,-0.8544226288795471,0.5329642295837402,-0.39827242493629456
1772650625868959500,5.66195947265625,-0.7750124335289001,0.22967857122421265,-0.04352286830544472
1772650625878850600,5.6718505859375,-0.6339067220687866,-0.19562382996082306,0.30252209305763245
1772650625888728000,5.68172802734375,-0.35200074315071106,-0.7837170362472534,0.5935907959938049
1772650625898591700,5.691591796875,0.0784938707947731,-1.3168339729309082,0.8338065147399902
1772650625908483000,5.701483154296875,0.5656445622444153,-1.6596720218658447,0.9969027042388916
1772650625918360300,5.7113603515625,0.952616274356842,-1.8351378440856934,1.077534556388855
1772650625928224000,5.72122412109375,1.1613733768463135,-1.7957382202148438,1.0567657947540283
1772650625938115300,5.731115234375,1.2290246486663818,-1.643179178237915,0.9413156509399414
1772650625947992800,5.740992919921875,1.2806413173675537,-1.4252593517303467,0.8223531246185303
1772650625957856500,5.7508564453125,1.0998305082321167,-1.193290114402771,0.6587987542152405
1772650625967747600,5.76074755859375,0.6641436815261841,-0.9593356251716614,0.4534013867378235
1772650625977625000,5.770625,0.21471281349658966,-0.7605048418045044,0.1769929975271225
1772650625987488800,5.78048876953125,-0.07803573459386826,-0.624285876750946,-0.1366770714521408
1772650625997380000,5.790380126953125,-0.18126893043518066,-0.5299099683761597,-0.38666632771492004
1772650626007257300,5.80025732421875,-0.17256435751914978,-0.48043137788772583,-0.5108210444450378
1772650626017121000,5.81012109375,-0.12354385852813721,-0.39918869733810425,-0.4734066128730774
1772650626027012400,5.820012451171875,-0.07773031294345856,-0.26907822489738464,-0.31290650367736816
1772650626036889900,5.829889892578125,-0.062306419014930725,-0.07543963938951492,-0.1378987729549408
1772650626046753500,5.83975341796875,-0.08353336155414581,0.12094775587320328,-0.04993676394224167
1772650626056644600,5.84964453125,-0.13835690915584564,0.34940463304519653,-0.10811996459960938
1772650626066522000,5.859522216796875,-0.22219568490982056,0.4888305068016052,-0.17684027552604675
1772650626076399600,5.869399658203125,-0.258999228477478,0.4957025647163391,-0.2670929729938507
1772650626086277000,5.879277099609375,-0.22280654311180115,0.6398624777793884,-0.4187358021736145
1772650626096154400,5.889154296875,-0.2026485800743103,0.9426900148391724,-0.6166502833366394
1772650626106031900,5.899031982421875,-0.2593046724796295,1.2475028038024902,-0.8886300325393677
1772650626115909400,5.908909423828125,-0.45202696323394775,1.5283398628234863,-1.1737430095672607
1772650626125787000,5.918786865234375,-0.7275190949440002,1.7230473756790161,-1.4559544324874878
1772650626135650600,5.928650634765625,-0.7553126215934753,1.738776683807373,-1.8980551958084106
1772650626145541600,5.938541748046875,-0.5551074743270874,1.6644060611724854,-2.3190815448760986
1772650626155419100,5.948419189453125,-0.19394400715827942,1.5188716650009155,-2.566016674041748
1772650626165282800,5.95828271484375,0.08200624585151672,1.7346534729003906,-2.5957953929901123
1772650626175174100,5.968174072265625,0.0050394898280501366,2.144073963165283,-2.4078071117401123
1772650626185051400,5.978051513671875,-0.11682453751564026,2.242420196533203,-1.7752748727798462
1772650626194915300,5.987915283203125,0.08383878320455551,2.2088236808776855,-1.2106993198394775
1772650626204806400,5.997806396484375,0.5312843918800354,2.8303608894348145,-1.3942588567733765
1772650626214684000,6.007683837890625,1.1850436925888062,3.9874582290649414,-2.262425422668457
1772650626224547600,6.017547607421875,1.380056619644165,4.418410778045654,-2.2717409133911133
1772650626234438700,6.027438720703125,0.43767204880714417,3.685241460800171,-0.3584146201610565
1772650626244316200,6.037316162109375,-0.5195255875587463,3.080349922180176,1.331952452659607
1772650626254179800,6.047179931640625,-0.6801784038543701,2.6324462890625,1.2953015565872192
1772650626264071200,6.0570712890625,-0.4282039403915405,0.9946120381355286,0.848924994468689
1772650626273948400,6.066948486328125,-0.6070294380187988,-0.8376243114471436,0.46851983666419983
1772650626283812400,6.076812255859375,-0.6258130073547363,-1.0104941129684448,-0.35169529914855957
1772650626293703400,6.086703369140625,-0.4647020399570465,-0.8026533126831055,-0.9918632507324219
1772650626303581000,6.096580810546875,-0.3527642786502838,-1.332257866859436,-0.8272398710250854
1772650626313444600,6.106444580078125,-0.20051060616970062,-1.4854278564453125,-0.41766682267189026
1772650626323335700,6.116335693359375,-0.1507265567779541,-1.4469444751739502,-0.32665055990219116
1772650626333213200,6.126213134765625,-0.23380178213119507,-1.7855064868927002,-0.5140279531478882
1772650626343076900,6.136076904296875,-0.4178195297718048,-2.1510987281799316,-0.9074136018753052
1772650626352968200,6.14596826171875,-0.6233696341514587,-2.4004769325256348,-1.2490298748016357
1772650626362845700,6.155845703125,-0.7180509567260742,-2.562809705734253,-1.2303991317749023
1772650626372709000,6.165709228515625,-0.6244385838508606,-2.5762484073638916,-0.8176190853118896
1772650626382600400,6.175600341796875,-0.4352286756038666,-2.2847213745117188,-0.2664821147918701
1772650626392478000,6.18547802734375,-0.3310792148113251,-1.5907989740371704,0.23120568692684174
1772650626402341600,6.195341552734375,-0.3865135908126831,-0.8168554902076721,0.582748293876648
1772650626412232700,6.205232666015625,-0.4888305068016052,-0.28282228112220764,0.7424848675727844
1772650626422110200,6.215110107421875,-0.5346440672874451,0.0781884491443634,0.6572716236114502
1772650626431974000,6.224973876953125,-0.5957288146018982,0.44729289412498474,0.3211529552936554
1772650626441865200,6.234865234375,-0.5899257659912109,0.6223006248474121,-0.13423368334770203
1772650626451742500,6.244742431640625,-0.5376983284950256,0.5282301902770996,-0.48333290219306946
1772650626461606100,6.254606201171875,-0.448361873626709,0.26907822489738464,-0.5457920432090759
1772650626471497500,6.26449755859375,-0.35658207535743713,-0.003970507066696882,-0.2802261710166931
1772650626481375000,6.274375,-0.29442837834358215,-0.17286977171897888,0.21242213249206543
1772650626491238700,6.28423876953125,-0.30007871985435486,-0.24036839604377747,0.7389724850654602
1772650626501129700,6.294129638671875,-0.3184041380882263,-0.2092151790857315,1.1073133945465088
1772650626511007200,6.30400732421875,-0.30282753705978394,-0.08658760040998459,1.2212363481521606
1772650626520871000,6.313870849609375,-0.2945810854434967,0.09910997003316879,1.1209046840667725
1772650626530762200,6.32376220703125,-0.3252761662006378,0.35138988494873047,0.9025267958641052
1772650626540639500,6.333639404296875,-0.3799470067024231,0.5274665951728821,0.6520794630050659
1772650626550503200,6.343503173828125,-0.4352286756038666,0.49829864501953125,0.5143333673477173
1772650626560394500,6.35339453125,-0.45202696323394775,0.333064466714859,0.4957025647163391
1772650626570272000,6.36327197265625,-0.4089622497558594,0.10781454294919968,0.5606050491333008
1772650626580135700,6.3731357421875,-0.3032856583595276,-0.13560809195041656,0.6887302994728088
1772650626590026800,6.38302685546875,-0.1507265567779541,-0.3823903799057007,0.8315158486366272
1772650626599904300,6.392904296875,-0.05115845799446106,-0.557550847530365,0.980715274810791
1772650626609781800,6.40278173828125,-0.050394900143146515,-0.6844543814659119,1.129762053489685
1772650626619659000,6.412658935546875,-0.10048437118530273,-0.8617527484893799,1.2699514627456665
1772650626629536500,6.42253662109375,-0.13927318155765533,-0.9828532338142395,1.358371615409851
1772650626639400200,6.432400146484375,-0.18462859094142914,-1.015380859375,1.3070604801177979
1772650626649291500,6.44229150390625,-0.16767756640911102,-0.8869501948356628,0.9605573415756226
1772650626659169000,6.4521689453125,-0.10979979485273361,-0.42331716418266296,0.305576354265213
1772650626669032700,6.46203271484375,0.019088976085186005,0.14736689627170563,-0.48928865790367126
1772650626678923800,6.471923828125,0.042606595903635025,1.0334008932113647,-1.2833900451660156
1772650626688801300,6.48180126953125,0.01710372418165207,1.9950271844863892,-1.828113079071045
1772650626698665000,6.4916650390625,-0.11911521852016449,2.81738018989563,-1.855754017829895
1772650626708556000,6.50155615234375,-0.362995982170105,3.266505718231201,-1.1176977157592773
1772650626718433500,6.51143359375,-0.6549809575080872,3.3973796367645264,-0.02351761981844902
1772650626728297200,6.521297119140625,-0.8990144729614258,3.4350996017456055,0.5254813432693481
1772650626738188500,6.5311884765625,-0.47417017817497253,3.077906608581543,0.4563029110431671
1772650626748065800,6.541065673828125,-0.17241163551807404,2.878006935119629,-0.23838314414024353
1772650626757929500,6.550929443359375,-0.3987305462360382,2.206838369369507,-0.7218687534332275
1772650626767820800,6.56082080078125,-0.9681929349899292,1.0656230449676514,-0.569004237651825
1772650626777698300,6.5706982421875,-1.2908729314804077,-0.04184303805232048,-0.02901524491608143
1772650626787562000,6.58056201171875,-1.0246962308883667,-0.566408097743988,0.34192174673080444
1772650626797453000,6.590453125,-0.3897205591201782,-0.3892624080181122,0.3658975064754486
1772650626807330600,6.60033056640625,0.17057909071445465,0.014049487188458443,0.19974705576896667
1772650626817194200,6.6101943359375,0.36039987206459045,0.2644968628883362,0.00992626789957285
1772650626827085600,6.62008544921875,0.17622943222522736,0.222042977809906,-0.15332266688346863
1772650626836962800,6.629962890625,-0.14553436636924744,-0.0656660795211792,-0.29473379254341125
1772650626846826500,6.639826416015625,-0.3967452943325043,-0.4524851143360138,-0.4443913698196411
1772650626856717800,6.6497177734375,-0.5474718809127808,-0.7965448498725891,-0.5577035546302795
1772650626866595300,6.65959521484375,-0.6070294380187988,-1.045770525932312,-0.5390726923942566
1772650626876459000,6.669458984375,-0.9054283499717712,-1.2247487306594849,-0.4524851143360138
1772650626886350000,6.67935009765625,-0.9558232426643372,-0.9370396733283997,-0.5115845799446106
1772650626896227600,6.6892275390625,-0.18019993603229523,-0.7383615970611572,-0.30160582065582275
1772650626906091300,6.69909130859375,0.3173351585865021,-0.7721109390258789,-0.04932591691613197
1772650626915982300,6.708982421875,0.5529694557189941,-0.883590579032898,0.24464432895183563
1772650626925859800,6.71885986328125,0.6223006248474121,-0.9536852836608887,0.4202629029750824
1772650626935723500,6.7287236328125,0.5835118293762207,-0.9839222431182861,0.4136963188648224
1772650626945614800,6.73861474609375,0.5289937257766724,-0.9364288449287415,0.23273280262947083
1772650626955492000,6.7484921875,0.5415160655975342,-0.8240329623222351,-0.023059483617544174
1772650626965355800,6.758355712890625,0.5958815217018127,-0.6403206586837769,-0.19944162666797638
1772650626975247000,6.7682470703125,0.7379034757614136,-0.49295374751091003,-0.18691925704479218
1772650626985124600,6.77812451171875,0.9607100486755371,-0.40987852215766907,-0.020310672000050545
1772650626994988300,6.78798828125,1.1563338041305542,-0.3345915973186493,0.15927842259407043
1772650627004879400,6.79787939453125,1.2357439994812012,-0.1948602795600891,0.2608317732810974
1772650627014756900,6.8077568359375,1.1859599351882935,-0.04413371533155441,0.26251161098480225
1772650627024620500,6.81762060546875,1.035386085510254,0.05635065957903862,0.17989452183246613
1772650627034511600,6.82751171875,0.8258655071258545,0.13148486614227295,0.040010496973991394
1772650627044389000,6.83738916015625,0.6267293095588684,0.17332790791988373,-0.13347013294696808
1772650627054266600,6.8472666015625,0.49799323081970215,0.19256959855556488,-0.30817243456840515
1772650627064144100,6.85714404296875,0.4446968138217926,0.2098260372877121,-0.45049986243247986
1772650627074021400,6.867021484375,0.439351886510849,0.1910424828529358,-0.5367820262908936
1772650627083885000,6.876885009765625,0.46546560525894165,0.24220094084739685,-0.6174138784408569
1772650627093776400,6.8867763671875,0.5097520351409912,0.38605546951293945,-0.6991146802902222
1772650627103654000,6.89665380859375,0.5677825212478638,0.5592306852340698,-0.7725690603256226
1772650627113517600,6.906517578125,0.6410841941833496,0.6591041684150696,-0.7879929542541504
1772650627123408600,6.91640869140625,0.89107346534729,0.59023118019104,-0.744928240776062
1772650627133286100,6.9262861328125,1.2500989437103271,0.3643703758716583,-0.7124006152153015
1772650627143149800,6.93614990234375,1.535975456237793,0.2861819267272949,-0.7882983684539795
1772650627153041000,6.946041015625,1.5539953708648682,0.7995990514755249,-1.1228899955749512
1772650627162918400,6.95591845703125,1.2192511558532715,1.6060701608657837,-1.4628264904022217
1772650627172782000,6.965781982421875,0.8538117408752441,2.4004769325256348,-1.6543270349502563
1772650627182673400,6.97567333984375,0.7446228265762329,3.1745731830596924,-1.653410792350769
1772650627192550700,6.985550537109375,0.6882721781730652,4.055567741394043,-1.488329291343689
1772650627202414300,6.995414306640625,0.43385425209999084,4.67130184173584,-1.1798515319824219
1772650627212305700,7.0053056640625,0.30817243456840515,3.9421026706695557,0.5412106513977051
1772650627222183200,7.01518310546875,-0.1304158866405487,2.6309192180633545,2.3044211864471436
1772650627232046800,7.025046875,-0.4474456310272217,2.0521414279937744,2.365658760070801
1772650627241938000,7.03493798828125,-0.777303159236908,1.3415732383728027,1.2471973896026611
1772650627251815400,7.0448154296875,-0.9914051294326782,-0.6256603002548218,0.03558185324072838
1772650627261679000,7.05467919921875,-0.5795413255691528,-0.9234483242034912,-1.09219491481781
1772650627271570200,7.064570068359375,-0.04581354558467865,-1.4626737833023071,-1.1856545209884644
1772650627281447700,7.07444775390625,0.17806197702884674,-2.1452956199645996,-0.2570139765739441
1772650627291311400,7.084311279296875,0.23991025984287262,-2.2033259868621826,0.6004628539085388
1772650627301202700,7.09420263671875,0.29473379254341125,-2.033052444458008,0.7870767116546631
1772650627311080000,7.104079833984375,0.29503923654556274,-1.9119518995285034,0.4031592011451721
1772650627320943600,7.113943603515625,0.1325538605451584,-1.9249324798583984,-0.1716480851173401
1772650627330835000,7.1238349609375,-0.1188097894191742,-2.0460329055786133,-0.6539120078086853
1772650627340712400,7.13371240234375,-0.28373855352401733,-2.15170955657959,-0.8620582222938538
1772650627350576000,7.143576171875,-0.2858765125274658,-2.175074338912964,-0.7191199064254761
1772650627360467200,7.15346728515625,-0.21746163070201874,-1.9658591747283936,-0.33474430441856384
1772650627370344700,7.1633447265625,-0.16905197501182556,-1.4698512554168701,0.12491826713085175
1772650627380208400,7.17320849609375,-0.19119518995285034,-0.8643488883972168,0.5331169366836548
1772650627390099500,7.183099365234375,-0.3110739588737488,-0.386208176612854,0.8452599048614502
1772650627399977000,7.19297705078125,-0.5010474920272827,-0.09239064902067184,1.0155335664749146
1772650627409840600,7.202840576171875,-0.6273401379585266,0.15316994488239288,0.964680552482605
1772650627419731700,7.212731689453125,-0.6568135023117065,0.3374931216239929,0.7516475319862366
1772650627429609200,7.222609130859375,-0.6189410090446472,0.39979952573776245,0.40789327025413513
1772650627439473000,7.232472900390625,-0.5425850749015808,0.34635040163993835,0.009468132629990578
1772650627449364200,7.2423642578125,-0.48806697130203247,0.3396310806274414,-0.2591519355773926
1772650627459241700,7.25224169921875,-0.5129590034484863,0.4214846193790436,-0.2208212912082672
1772650627469105200,7.262105224609375,-0.6229115128517151,0.5143333673477173,0.0841442123055458
1772650627478996500,7.27199658203125,-0.7536327838897705,0.6027535200119019,0.4468347728252411
1772650627488874000,7.2818740234375,-0.8594620823860168,0.7516475319862366,0.6656708121299744
1772650627498737700,7.291737548828125,-0.9223793745040894,0.9031376838684082,0.6925480961799622
1772650627508628700,7.301628662109375,-0.9733850955963135,0.9823951125144958,0.6044333577156067
1772650627518506200,7.31150634765625,-0.9810206890106201,0.9150491952896118,0.5066977739334106
1772650627528370000,7.321369873046875,-0.9104678630828857,0.7711946368217468,0.5172349214553833
1772650627538261000,7.331260986328125,-0.721716046333313,0.6210789680480957,0.6962131857872009
1772650627548138500,7.341138427734375,-0.45859357714653015,0.4874561131000519,0.9730796813964844
1772650627558016000,7.35101611328125,-0.22051586210727692,0.35291701555252075,1.2352858781814575
1772650627567893500,7.3608935546875,-0.08628217875957489,0.14064757525920868,1.4000619649887085
1772650627577770800,7.370770751953125,-0.09345962852239609,-0.14996300637722015,1.430451512336731
1772650627587634400,7.380634521484375,-0.16217994689941406,-0.45828816294670105,1.3739482164382935
1772650627597525800,7.39052587890625,-0.2170034945011139,-0.6459710001945496,1.3052278757095337
1772650627607403000,7.400403076171875,-0.24693500995635986,-0.6723901033401489,1.1992459297180176
1772650627617267000,7.410266845703125,-0.2518217861652374,-0.5007420182228088,0.9910996556282043
1772650627627158000,7.420157958984375,-0.2599155008792877,-0.19318044185638428,0.6288672685623169
1772650627637035500,7.430035400390625,-0.30343836545944214,0.1241547018289566,0.14767232537269592
1772650627646899200,7.439899169921875,-0.3530697226524353,0.3571929335594177,-0.35200074315071106
1772650627656790300,7.449790283203125,-0.3721587061882019,0.3897205591201782,-0.674680769443512
1772650627666667800,7.459667724609375,-0.29916244745254517,0.3258870244026184,-0.6432221531867981
1772650627676531500,7.469531494140625,-0.06276455521583557,0.5044071078300476,-0.2170034945011139
1772650627686422500,7.479422607421875,0.21975229680538177,1.0787562131881714,0.5054761171340942
1772650627696300000,7.489300048828125,0.5334223508834839,1.7274760007858276,1.0434798002243042
1772650627706163700,7.499163818359375,0.7130114436149597,2.120556354522705,0.8970292210578918
1772650627716055000,7.509054931640625,0.616802990436554,2.2056167125701904,0.30985227227211
1772650627725932300,7.518932373046875,0.12675081193447113,1.8696507215499878,-0.06841489672660828
1772650627735796000,7.5287958984375,-0.5638120174407959,1.1456440687179565,0.25655585527420044
1772650627745687300,7.538687255859375,-1.0671501159667969,0.4133908748626709,1.0123265981674194
1772650627755564800,7.548564697265625,-1.043174386024475,0.008093725889921188,1.4634373188018799
1772650627765428200,7.55842822265625,-0.6919372081756592,0.10185877978801727,1.2006202936172485
1772650627775319600,7.568319580078125,-0.29030516743659973,0.4581354558467865,0.3739912211894989
1772650627785197000,7.578197021484375,-0.14186927676200867,0.8266290426254272,-0.5909947156906128
1772650627795060700,7.588060791015625,-0.27350685000419617,1.035691499710083,-1.146865725517273
1772650627804951800,7.597951904296875,-0.5430431962013245,0.9570449590682983,-1.0737167596817017
1772650627814829300,7.607829345703125,-0.8684720993041992,0.6229115128517151,-0.5066977739334106
1772650627824693000,7.61769287109375,-1.1349542140960693,0.2548760175704956,0.13087402284145355
1772650627834584000,7.627583984375,-1.2409361600875854,0.09315420687198639,0.465007483959198
1772650627844461600,7.637461669921875,-1.129762053489685,0.06123743951320648,0.4987567961215973
1772650627854325200,7.6473251953125,-0.8287670016288757,0.07406523078680038,0.3946073353290558
1772650627864216600,7.657216552734375,-0.42133188247680664,-0.08796200156211853,0.314586341381073
1772650627874093800,7.66709375,-0.004581354558467865,-0.3170297145843506,0.30847787857055664
1772650627883957500,7.67695751953125,0.3110739588737488,-0.6116108298301697,0.333064466714859
1772650627893848800,7.686848876953125,0.4599680006504059,-0.8586985468864441,0.39170581102371216
1772650627903726000,7.69672607421875,0.45767730474472046,-1.0440906286239624,0.4688252806663513
1772650627913589800,7.70658984375,0.4246915578842163,-1.1819894313812256,0.5149442553520203
1772650627923481000,7.716481201171875,0.3843756318092346,-1.1276240348815918,0.50685054063797
1772650627933358600,7.726358642578125,0.3452814221382141,-0.9217684864997864,0.46516019105911255
1772650627943222000,7.736221923828125,0.30130040645599365,-0.7038487792015076,0.3512371778488159
1772650627953113300,7.74611328125,0.23212195932865143,-0.5196782946586609,0.12843063473701477
1772650627962990800,7.755990966796875,0.18691925704479218,-0.44988900423049927,-0.13560809195041656
1772650627972854500,7.7658544921875,0.20020519196987152,-0.48638713359832764,-0.3333698809146881
1772650627982745600,7.77574560546875,0.25686126947402954,-0.5231906771659851,-0.39598172903060913
1772650627992623000,7.785623046875,0.4205683469772339,-0.5502206683158875,-0.27029991149902344
1772650628002486800,7.79548681640625,0.6664343476295471,-0.5485408306121826,-0.0590994730591774
1772650628012377900,7.8053779296875,0.8461761474609375,-0.40102121233940125,0.07116370648145676
1772650628022255400,7.81525537109375,0.8675557971000671,-0.32161107659339905,0.09956810623407364
1772650628032119000,7.825119140625,0.7041541934013367,-0.2733541429042816,-0.04031591862440109
1772650628042010000,7.835010009765625,0.4014793634414673,-0.18661384284496307,-0.34635040163993835
1772650628051887600,7.8448876953125,0.013591351918876171,0.1391204595565796,-0.7768449783325195
1772650628061765000,7.85476513671875,-0.3214583694934845,0.4749337434768677,-1.2111574411392212
1772650628071642400,7.864642333984375,-0.5711421966552734,0.6439857482910156,-1.4968812465667725
1772650628081519900,7.874519775390625,-0.668419599533081,0.5602996349334717,-1.5662124156951904
1772650628091383600,7.884383544921875,-0.6009209752082825,0.4205683469772339,-1.474127173423767
1772650628101275000,7.89427490234375,-0.43171629309654236,0.3483356535434723,-1.3292036056518555
1772650628111152000,7.904152099609375,-0.21929416060447693,0.30878329277038574,-1.2343696355819702
1772650628121015800,7.914015869140625,0.0662769302725792,0.4727957844734192,-1.3938007354736328
1772650628130907100,7.9239072265625,0.2539597451686859,0.9935430884361267,-1.8058172464370728
1772650628140784600,7.93378466796875,0.2692309319972992,1.5662124156951904,-2.1879022121429443
1772650628150648000,7.94364794921875,0.18997350335121155,1.8071916103363037,-2.160872220993042
1772650628160539400,7.953539306640625,0.023364907130599022,1.2516260147094727,-1.4857332706451416
1772650628170417000,7.9634169921875,-0.05482354015111923,0.3846810758113861,-0.8400676846504211
1772650628180280600,7.973280517578125,-0.0656660795211792,0.5760289430618286,-0.11987877637147903
1772650628190171600,7.983171630859375,0.20463383197784424,0.7829535007476807,-0.02092151902616024
1772650628200049200,7.993049072265625,0.3761292099952698,1.278961420059204,-0.22677704691886902
1772650628209912800,8.002912841796874,0.3264978528022766,1.6309621334075928,-0.182643324136734
1772650628219804000,8.012803955078125,0.04367557913064957,1.7068599462509155,0.43049460649490356
1772650628229681400,8.022681396484375,-0.48638713359832764,1.3510414361953735,1.3860124349594116
1772650628239545000,8.032545166015625,-0.9842276573181152,1.0619579553604126,1.6311148405075073
1772650628249436200,8.042436279296876,-0.9791881442070007,1.2500989437103271,0.6085565686225891
1772650628259313700,8.052313720703125,-0.7250757217407227,1.317597508430481,-0.8124268651008606
1772650628269177300,8.06217724609375,-0.5187620520591736,1.096470832824707,-1.6802880764007568
1772650628279068400,8.072068359375,-0.30343836545944214,0.779593825340271,-1.5788874626159668
1772650628288946000,8.08194580078125,-0.12736165523529053,0.46302223205566406,-0.6711684465408325
1772650628298809600,8.0918095703125,-0.029320668429136276,-0.042606595903635025,0.5774033665657043
1772650628308701000,8.101700927734376,-0.0016798300202935934,-0.5804576277732849,1.3799039125442505
1772650628318578200,8.111578125,0.04031591862440109,-0.9148964881896973,1.3215680122375488
1772650628328441900,8.12144189453125,0.16156910359859467,-1.0566130876541138,0.6464291214942932
1772650628338333200,8.131333251953125,0.3023693859577179,-1.2398672103881836,-0.1375933438539505
1772650628348210700,8.141210693359374,0.41949936747550964,-1.385554313659668,-0.7244648337364197
1772650628358074000,8.15107421875,0.3823903799057007,-1.4125843048095703,-0.9462023973464966
1772650628367965400,8.16096533203125,0.24189551174640656,-1.255443811416626,-0.8444963097572327
1772650628377842700,8.1708427734375,0.10140064358711243,-1.008203387260437,-0.5738909840583801
1772650628387706600,8.18070654296875,-0.005650337319821119,-0.7901309132575989,-0.2892361879348755
1772650628397597700,8.19059765625,-0.0522274412214756,-0.6479562520980835,-0.0716218426823616
1772650628407475200,8.20047509765625,-0.07024743407964706,-0.5903838872909546,0.08689302206039429
1772650628417339000,8.2103388671875,-0.09712471067905426,-0.5937435626983643,0.2279987335205078
1772650628427230000,8.22022998046875,-0.07757759839296341,-0.5966450572013855,0.3530697226524353
1772650628437107500,8.230107421875,-0.009468132629990578,-0.5538857579231262,0.3889569938182831
1772650628446971100,8.23997119140625,0.08948912471532822,-0.5092939138412476,0.2996205687522888
1772650628456862200,8.2498623046875,0.1366770714521408,-0.40789327025413513,0.10277505218982697
1772650628466739700,8.25973974609375,0.07467607408761978,-0.2376195788383484,-0.09422318637371063
1772650628476603400,8.269603271484375,-0.0462716780602932,-0.12110047042369843,-0.17622943222522736
1772650628486494500,8.279494384765625,-0.14064757525920868,-0.11239589750766754,-0.14858859777450562
1772650628496372000,8.2893720703125,-0.1507265567779541,-0.10750912129878998,-0.09651386737823486
1772650628506235600,8.299235595703125,-0.10934165865182877,-0.06169557198882103,-0.05635065957903862
1772650628516126700,8.309126708984374,-0.07330167293548584,-0.010078979656100273,0.007635590620338917
1772650628526004200,8.319004150390626,-0.06658235192298889,0.0261137206107378,0.10750912129878998
1772650628535868000,8.328867919921874,-0.11865708231925964,0.07055285573005676,0.19989976286888123
1772650628545759200,8.33875927734375,-0.2441861927509308,0.07559234648942947,0.24052110314369202
1772650628555636500,8.348636474609375,-0.365286648273468,0.037414394319057465,0.23777230083942413
1772650628565500200,8.358500244140625,-0.44607120752334595,-0.009315420873463154,0.22158484160900116
1772650628575391500,8.3683916015625,-0.5089884996414185,-0.018783552572131157,0.2113531529903412
1772650628585268700,8.378268798828126,-0.5189147591590881,-0.052990999072790146,0.22570806741714478
1772650628595132400,8.38813232421875,-0.4527905285358429,-0.15897299349308014,0.26968905329704285
1772650628605023700,8.398023681640625,-0.30374380946159363,-0.3390202224254608,0.35383328795433044
1772650628614901000,8.40790087890625,-0.1391204595565796,-0.5053234100341797,0.4691306948661804
1772650628624764700,8.4177646484375,-0.002748812548816204,-0.6016845703125,0.5351021885871887
1772650628634656000,8.427656005859374,0.09987352788448334,-0.6016845703125,0.4724903404712677
1772650628644533500,8.437533447265626,0.1450762301683426,-0.575570821762085,0.29442837834358215
1772650628654397000,8.44739697265625,0.16095824539661407,-0.5955760478973389,0.08170082420110703
1772650628664288300,8.457288330078125,0.16401249170303345,-0.6734591126441956,-0.023364907130599022
1772650628674165800,8.467165771484375,0.09147437661886215,-0.812274158000946,0.11483928561210632
1772650628684029400,8.477029541015625,-0.022601349279284477,-0.8276980519294739,0.4456130862236023
1772650628693920500,8.48692041015625,-0.10873081535100937,-0.5803049206733704,0.7110261917114258
1772650628703798000,8.496798095703125,-0.1372879147529602,-0.16248537600040436,0.6598677635192871
1772650628713661700,8.50666162109375,-0.0791047215461731,0.1913478970527649,0.20157960057258606
1772650628723552800,8.516552734375,0.0656660795211792,0.346808522939682,-0.5769452452659607
1772650628733430300,8.52643017578125,0.12797249853610992,0.4262186884880066,-1.30644953250885
1772650628743294000,8.5362939453125,0.04825693368911743,0.49203747510910034,-1.484053373336792
1772650628753185000,8.54618505859375,-0.09300149232149124,0.4955498278141022,-0.8296833038330078
1772650628763062500,8.5560625,-0.22051586210727692,0.3805578351020813,0.43385425209999084
1772650628772926200,8.56592626953125,-0.24494975805282593,0.27060532569885254,1.4736690521240234
1772650628782817300,8.5758173828125,-0.15591876208782196,0.22341738641262054,1.6860911846160889
1772650628792694800,8.58569482421875,-0.062306419014930725,0.23471805453300476,1.108229637145996
1772650628802558500,8.595558349609375,-0.05405998229980469,0.27946263551712036,0.08582404255867004
1772650628812449500,8.605449462890626,-0.14736689627170563,0.30282753705978394,-0.8504521250724792
1772650628822327000,8.6153271484375,-0.23868857324123383,0.2110477238893509,-1.2650647163391113
1772650628832190700,8.625190673828126,-0.24036839604377747,-0.08658760040998459,-1.037218689918518
1772650628842081800,8.635081787109375,-0.1841704547405243,-0.45981526374816895,-0.3649812340736389
1772650628851959300,8.644959228515624,-0.1298050433397293,-0.7317950129508972,0.3765873312950134
1772650628861823000,8.654822998046875,-0.11392301321029663,-0.8686248064041138,0.846328854560852
1772650628871714000,8.664714111328125,-0.12171131372451782,-0.7902836203575134,0.9416210651397705
1772650628881591600,8.674591552734375,-0.04947862774133682,-0.7484406232833862,0.7308787703514099
1772650628891455200,8.684455322265626,0.11545012891292572,-0.7438592314720154,0.35291701555252075
1772650628901346600,8.6943466796875,0.2867927849292755,-0.7802046537399292,-0.05238015204668045
1772650628911223800,8.704223876953124,0.4014793634414673,-0.8762603998184204,-0.38254308700561523
1772650628921087500,8.71408740234375,0.44484952092170715,-1.0048437118530273,-0.6007682681083679
1772650628930978800,8.723978759765625,0.41766682267189026,-1.1123528480529785,-0.675597071647644
1772650628940856000,8.73385595703125,0.34100547432899475,-1.1448805332183838,-0.6226060390472412
1772650628950719700,8.7437197265625,0.26464956998825073,-1.0453124046325684,-0.5238015055656433
1772650628960611000,8.753611083984374,0.2298312783241272,-0.8506048321723938,-0.42728766798973083
1772650628970488300,8.76348828125,0.22937314212322235,-0.6227588057518005,-0.3640649616718292
1772650628980352000,8.77335205078125,0.22372281551361084,-0.45447036623954773,-0.3318427801132202
1772650628990243300,8.783243408203125,0.20096874237060547,-0.40254834294319153,-0.2927485406398773
1772650629000120600,8.79312060546875,0.18936264514923096,-0.47172680497169495,-0.23471805453300476
1772650629009984300,8.802984375,0.24220094084739685,-0.5832064151763916,-0.1785201132297516
1772650629019875600,8.81287548828125,0.36696648597717285,-0.6667397618293762,-0.10949437320232391
1772650629029752800,8.8227529296875,0.5002838969230652,-0.695602297782898,-0.034818295389413834
1772650629039616500,8.832616455078124,0.5996993184089661,-0.6336013078689575,0.021837789565324783
1772650629049507800,8.8425078125,0.6288672685623169,-0.5253286361694336,0.05864133685827255
1772650629059385000,8.852385009765625,0.5520532131195068,-0.41079479455947876,0.061084724962711334
1772650629069248800,8.862248779296875,0.3865135908126831,-0.3148917555809021,0.014202198944985867
1772650629079140000,8.87214013671875,0.18218518793582916,-0.27564483880996704,-0.05925218388438225
1772650629089017600,8.882017578125,-0.010231691412627697,-0.2874036431312561,-0.15026842057704926
1772650629098881000,8.891881103515624,-0.11300674080848694,-0.26663482189178467,-0.3035911023616791
1772650629108772400,8.9017724609375,-0.1522536724805832,-0.2673983871936798,-0.4618005156517029
1772650629118649900,8.91164990234375,-0.16034740209579468,-0.34008920192718506,-0.5587725043296814
1772650629128513500,8.921513427734375,-0.12125317752361298,-0.3561239540576935,-0.5766398310661316
1772650629138404600,8.931404541015626,-0.029320668429136276,-0.2924431264400482,-0.5341859459877014
1772650629148282000,8.9412822265625,0.11010521650314331,-0.13087402284145355,-0.4628695249557495
1772650629158145800,8.951145751953124,0.25716668367385864,-0.013285927474498749,-0.3286358118057251
1772650629168036900,8.961036865234375,0.416597843170166,-0.15026842057704926,-0.10995250940322876
1772650629177914400,8.970914306640625,0.6441384553909302,-0.5399889945983887,0.11621369421482086
1772650629187778000,8.980778076171875,0.930014967918396,-0.8287670016288757,0.15423893928527832
1772650629197669000,8.990669189453126,1.1891669034957886,-0.5453338623046875,-0.17256435751914978
1772650629207546600,9.000546630859375,1.3273711204528809,0.7010999321937561,-0.9080244302749634
1772650629217410300,9.010410400390626,0.916270911693573,2.0112144947052,-1.25254225730896
1772650629227301400,9.02030126953125,0.0462716780602932,2.4169697761535645,-0.4680617153644562
1772650629237179000,9.030178955078124,-0.7229377031326294,1.905232548713684,0.6555918455123901
1772650629247042600,9.04004248046875,-1.0347752571105957,1.008203387260437,0.9471186995506287
1772650629256933600,9.04993359375,-0.8312104344367981,0.05604523420333862,0.5871769189834595
1772650629266811100,9.05981103515625,-0.3136700689792633,-0.754396378993988,0.20341213047504425
1772650629276674800,9.0696748046875,0.29534465074539185,-0.8281561732292175,-0.12079504877328873
1772650629286566000,9.07956591796875,0.6914790868759155,-0.40606072545051575,-0.24372805655002594
1772650629296443400,9.089443359375,0.7232431769371033,-0.03008422814309597,0.12140589207410812
1772650629306307000,9.09930712890625,0.4840964674949646,-0.0331384651362896,0.8997780084609985
1772650629316198100,9.1091982421875,0.197609081864357,-0.2226538211107254,1.3967022895812988
1772650629326075600,9.11907568359375,0.02351761981844902,-0.3208475112915039,1.2048962116241455
1772650629335939300,9.128939208984375,-0.005955760832875967,-0.24479703605175018,0.5202891230583191
1772650629345830400,9.138830322265624,0.06658235192298889,-0.2047865390777588,-0.2796153426170349
1772650629355708000,9.1487080078125,0.13973131775856018,-0.31290650367736816,-0.8997780084609985
1772650629365571600,9.158571533203125,0.18493400514125824,-0.46210595965385437,-1.142895221710205
1772650629375462700,9.168462646484375,0.21883602440357208,-0.5439594984054565,-0.976439356803894
1772650629385340200,9.178340087890625,0.27564483880996704,-0.43568679690361023,-0.5680879354476929
1772650629395203800,9.188203857421875,0.3038965165615082,-0.24052110314369202,-0.12461283802986145
1772650629405095000,9.198094970703124,0.26999449729919434,-0.09361234307289124,0.20814619958400726
1772650629414972400,9.207972412109376,0.20142687857151031,-0.06245913356542587,0.36513394117355347
1772650629424836000,9.217836181640624,0.1385096162557602,-0.12629267573356628,0.35948359966278076
1772650629434727200,9.22772705078125,0.0659715011715889,-0.23991025984287262,0.23563432693481445
1772650629444604700,9.237604736328125,-0.03542914241552353,-0.36513394117355347,0.07391251623630524
1772650629454468400,9.24746826171875,-0.1319430023431778,-0.44072631001472473,-0.09345962852239609
1772650629464359400,9.257359375,-0.20157960057258606,-0.3892624080181122,-0.2414373755455017
1772650629474237000,9.26723681640625,-0.20661908388137817,-0.21944688260555267,-0.3342861533164978
1772650629484100600,9.2771005859375,-0.17500774562358856,0.016340164467692375,-0.3590254783630371
1772650629493991700,9.28699169921875,-0.16615045070648193,0.19440214335918427,-0.3255815804004669
1772650629503869200,9.296869140625,-0.19806721806526184,0.26159533858299255,-0.2829749882221222
1772650629513732900,9.30673291015625,-0.25655585527420044,0.2790044844150543,-0.23884128034114838
1772650629523624000,9.3166240234375,-0.31412819027900696,0.28282228112220764,-0.1719534993171692
1772650629533501400,9.32650146484375,-0.3658975064754486,0.2724378705024719,-0.11117420345544815
1772650629543365000,9.336365234375,-0.3820849657058716,0.305118203163147,-0.03833066672086716
1772650629553256200,9.346256103515625,-0.3836120665073395,0.35887277126312256,0.058183200657367706
1772650629563133700,9.3561337890625,-0.3978142738342285,0.4214846193790436,0.17684027552604675
1772650629572997400,9.365997314453125,-0.4158342778682709,0.41949936747550964,0.2835858464241028
1772650629582888400,9.375888427734376,-0.4665345847606659,0.3309265077114105,0.3086305856704712
1772650629592766000,9.385765869140625,-0.545181155204773,0.19592925906181335,0.30160582065582275
1772650629602643500,9.3956435546875,-0.5796940326690674,0.03771981969475746,0.34848836064338684
1772650629612520700,9.405520751953125,-0.5682406425476074,-0.07467607408761978,0.42514967918395996
1772650629622398200,9.415398193359374,-0.5519005060195923,-0.16065283119678497,0.5089884996414185
1772650629632262000,9.425261962890625,-0.5027272701263428,-0.25716668367385864,0.5798467397689819
1772650629642153000,9.435153076171876,-0.3790307343006134,-0.30664533376693726,0.6332958936691284
1772650629652030500,9.445030517578125,-0.2238755226135254,-0.29503923654556274,0.6594096422195435
1772650629661894100,9.45489404296875,-0.1692046970129013,-0.2651077210903168,0.5917583107948303
1772650629671785200,9.46478515625,-0.20249587297439575,-0.21394924819469452,0.4100312292575836
1772650629681662700,9.474662841796874,-0.28221142292022705,-0.15484978258609772,0.1707318127155304
1772650629691526400,9.4845263671875,-0.39766156673431396,-0.10521844029426575,-0.07345438003540039
1772650629701417500,9.49441748046875,-0.453095942735672,-0.009773556143045425,-0.29412296414375305
1772650629711295000,9.504294921875,-0.45355409383773804,0.039857782423496246,-0.49493899941444397
1772650629721158700,9.51415869140625,-0.41705596446990967,0.05635065957903862,-0.6244385838508606
1772650629731049700,9.5240498046875,-0.3984251320362091,0.02993151545524597,-0.6801784038543701
1772650629740927200,9.53392724609375,-0.372464120388031,-0.04810422286391258,-0.603058934211731
1772650629750791000,9.543791015625,-0.33947837352752686,-0.07528692483901978,-0.36070531606674194
1772650629760682000,9.553681884765625,-0.3452814221382141,0.07727217674255371,0.0719272643327713
1772650629770559500,9.5635595703125,-0.38513919711112976,0.30068957805633545,0.647803544998169
1772650629780423200,9.573423095703125,-0.4230117201805115,0.4955498278141022,1.1349542140960693
1772650629790314200,9.583314208984374,-0.4181249439716339,0.6594096422195435,1.3314943313598633
1772650629800191700,9.593191650390626,-0.3512371778488159,0.7400414347648621,1.1862653493881226
1772650629810055400,9.603055419921875,-0.28664007782936096,0.5482354164123535,0.7493568658828735
1772650629819946500,9.612946533203125,-0.27152159810066223,0.2698417901992798,0.13209572434425354
1772650629829824000,9.622823974609375,-0.3245126008987427,-0.0010689827613532543,-0.5065450668334961
1772650629839687700,9.632687744140625,-0.3686463236808777,-0.13362284004688263,-0.9539906978607178
1772650629849578800,9.642578857421874,-0.36696648597717285,-0.08460234850645065,-1.057223916053772
1772650629859456300,9.652456298828126,-0.35795649886131287,-0.009009997360408306,-0.7798992395401001
1772650629869320000,9.66231982421875,-0.3483356535434723,0.09987352788448334,-0.25441789627075195
1772650629879211000,9.6722109375,-0.3029802441596985,0.11392301321029663,0.3268032968044281
1772650629889088500,9.682088623046875,-0.27029991149902344,0.07238540053367615,0.6549809575080872
1772650629898952200,9.6919521484375,-0.26877278089523315,0.03634541109204292,0.7226322889328003
1772650629908843300,9.70184326171875,-0.27121618390083313,0.03802524134516716,0.5926745533943176
1772650629918720800,9.711720703125,-0.21288026869297028,0.0719272643327713,0.38575005531311035
1772650629928584400,9.72158447265625,-0.08674030750989914,0.10231691598892212,0.1910424828529358
1772650629938475500,9.7314755859375,0.0653606578707695,0.06581879407167435,0.030389651656150818
1772650629948353000,9.74135302734375,0.24052110314369202,-0.04871506989002228,-0.1041494607925415
1772650629958216700,9.751216796875,0.38132140040397644,-0.19348587095737457,-0.3574983477592468
1772650629968107800,9.761107666015626,0.38819342851638794,-0.32909396290779114,-0.6981984376907349
1772650629977985300,9.7709853515625,0.4396573007106781,-0.3828485310077667,-0.7403468489646912
1772650629987849000,9.780848876953126,0.532353401184082,-0.499673068523407,-0.4688252806663513
1772650629997740000,9.790739990234375,0.5276193022727966,-0.4249969720840454,-0.15515519678592682
1772650630007617500,9.800617431640624,0.4130854606628418,-0.24586601555347443,0.14874130487442017
1772650630017481200,9.810481201171875,0.28725093603134155,-0.14660334587097168,0.386208176612854
1772650630027372300,9.820372314453126,0.17027367651462555,-0.1501157134771347,0.4772244095802307
