time,seconds_elapsed,z,y,x
1772650620210301200,0.00330126953125,3.875176191329956,-7.747361660003662,0.7034898400306702
1772650620220178700,0.0131787109375,4.021138668060303,-7.8179497718811035,0.7585247755050659
1772650620230056200,0.02305615234375,4.28734016418457,-7.850851058959961,1.1988041400909424
1772650620239933700,0.03293359375,4.946562767028809,-7.93579626083374,1.2993026971817017
1772650620249811200,0.042811279296875,5.551946640014648,-8.0955171585083,1.3417752981185913
1772650620259688700,0.052688720703125,6.103492259979248,-8.136195182800293,1.3710874319076538
1772650620269566200,0.062566162109375,6.488736629486084,-8.175676345825195,1.3722838163375854
1772650620279443700,0.072443603515625,6.646064758300781,-8.213961601257324,1.2915260791778564
1772650620289321200,0.0823212890625,6.626922130584717,-8.25105094909668,1.124626636505127
1772650620299198700,0.09219873046875,6.5527448654174805,-8.283353805541992,1.0037890672683716
1772650620309076200,0.102076171875,6.302096843719482,-8.242077827453613,0.9308080077171326
1772650620318953700,0.11195361328125,5.945566177368164,-8.167302131652832,0.9122636318206787
1772650620328831200,0.121831298828125,5.694319725036621,-8.146963119506836,0.9056833982467651
1772650620338708700,0.131708740234375,5.520241737365723,-8.13798999786377,0.8967102766036987
1772650620348586200,0.141586181640625,5.362315654754639,-8.105088233947754,0.9158528447151184
1772650620358463700,0.151463623046875,5.274379253387451,-8.12662410736084,0.916451096534729
1772650620368341200,0.16134130859375,5.200201988220215,-8.163114547729492,0.8979067206382751
1772650620378218800,0.17121875,5.1906304359436035,-8.104490280151367,0.9954141974449158
1772650620393035000,0.186034912109375,5.200201988220215,-8.090133666992188,1.0336993932724
1772650620412790000,0.2057900390625,5.613562107086182,-7.997411251068115,1.350150227546692
1772650620422667500,0.21566748046875,5.68474817276001,-8.077570915222168,1.1718848943710327
1772650620442422500,0.235422607421875,4.737788677215576,-7.766504287719727,0.8913264274597168
1772650620452300000,0.245300048828125,4.113860130310059,-7.621738433837891,1.0325030088424683
1772650620462177500,0.255177490234375,3.8632121086120605,-7.713263988494873,1.067797064781189
1772650620472055000,0.265054931640625,3.9421753883361816,-7.750950813293457,1.0630114078521729
1772650620481932500,0.2749326171875,4.278964996337891,-7.743174076080322,1.0067801475524902
1772650620491810000,0.28481005859375,4.738387107849121,-7.837690353393555,0.9391828775405884
1772650620501687600,0.2946875,5.123033046722412,-7.966304779052734,0.8081758618354797
1772650620511565000,0.30456494140625,5.2181477546691895,-7.932805061340332,0.7627122402191162
1772650620521442600,0.314442626953125,5.055436134338379,-7.801798343658447,0.8141579031944275
1772650620531320000,0.324320068359375,4.770689964294434,-7.743174076080322,0.8315058946609497
1772650620541197600,0.334197509765625,4.436293125152588,-7.707880020141602,0.8560323119163513
1772650620551075000,0.344074951171875,4.455435752868652,-7.6630144119262695,0.8458628058433533
1772650620560952600,0.35395263671875,4.880161762237549,-7.724629878997803,0.7160521745681763
1772650620570830000,0.363830078125,5.248058319091797,-7.723433494567871,0.45284169912338257
1772650620580707600,0.37370751953125,5.395216941833496,-7.599604606628418,0.33858439326286316
1772650620590585000,0.383585205078125,5.251049518585205,-7.354938507080078,0.31764721870422363
1772650620600462600,0.393462646484375,4.869992256164551,-6.999604225158691,0.4253242313861847
1772650620610340000,0.403340087890625,4.313661098480225,-6.4079790115356445,0.6951149702072144
1772650620620217600,0.413217529296875,3.658625841140747,-5.860620975494385,1.540379524230957
1772650620630095000,0.42309521484375,3.4648072719573975,-5.36351203918457,1.2693923711776733
1772650620639972600,0.43297265625,3.6358940601348877,-5.208576679229736,0.8739784955978394
1772650620649850000,0.44285009765625,4.199403762817383,-4.996811866760254,1.415354609489441
1772650620659727600,0.4527275390625,4.934000492095947,-4.653441905975342,1.80717933177948
1772650620669605000,0.462605224609375,5.521438121795654,-4.060619831085205,1.9441684484481812
1772650620679482600,0.472482666015625,5.285147190093994,-4.141377925872803,1.8245272636413574
1772650620689360100,0.482360107421875,4.718048095703125,-4.549354076385498,1.5493526458740234
1772650620699237600,0.492237548828125,4.323232173919678,-4.859224796295166,1.7635103464126587
1772650620709115100,0.502115234375,4.78803825378418,-4.951946258544922,2.155933141708374
1772650620718992600,0.51199267578125,5.0464630126953125,-7.284948348999023,2.495713949203491
1772650620728856300,0.521856201171875,4.551746845245361,-8.295916557312012,2.7391836643218994
1772650620738747600,0.53174755859375,5.106283664703369,-9.153742790222168,3.6466617584228516
1772650620748625200,0.541625244140625,6.826124668121338,-9.952347755432129,4.784449100494385
1772650620758488800,0.55148876953125,9.57787036895752,-10.86700439453125,5.648856163024902
1772650620768380200,0.561380126953125,12.06760311126709,-12.093923568725586,5.821139335632324
1772650620778257700,0.571257568359375,13.129417419433594,-13.222738265991211,5.080560684204102
1772650620788121300,0.581121337890625,13.243675231933594,-14.650654792785645,4.127020835876465
1772650620798012700,0.5910126953125,12.705887794494629,-16.13899040222168,3.050848960876465
1772650620807890200,0.60089013671875,11.6123685836792,-17.12064552307129,2.3503501415252686
1772650620817753900,0.61075390625,10.85743236541748,-18.320646286010742,2.160120725631714
1772650620827645200,0.620645263671875,11.011770248413086,-18.713666915893555,2.101496458053589
1772650620837522700,0.630522705078125,11.934203147888184,-18.24048614501953,2.1577277183532715
1772650620847386400,0.640386474609375,12.635299682617188,-17.450258255004883,1.906481385231018
1772650620857277700,0.650277587890625,12.358330726623535,-15.937395095825195,1.5487544536590576
1772650620867155200,0.6601552734375,11.196615219116211,-14.282159805297852,0.9595218896865845
1772650620877019000,0.670018798828125,9.609575271606445,-12.513265609741211,0.23988047242164612
1772650620886910200,0.67991015625,8.394619941711426,-10.452447891235352,0.21415762603282928
1772650620896787700,0.68978759765625,7.267002582550049,-8.517251968383789,0.6628118753433228
1772650620906651400,0.6996513671875,5.9060845375061035,-6.85244607925415,0.6771687865257263
1772650620916542700,0.709542724609375,4.137788772583008,-5.622535228729248,0.29012975096702576
1772650620926420200,0.719420166015625,2.366501569747925,-4.861019134521484,-0.15912270545959473
1772650620936284000,0.729283935546875,0.48813581466674805,-4.110869407653809,-0.0975075215101242
1772650620946175000,0.739175048828125,-0.09690931439399719,-2.9138598442077637,0.09032905846834183
1772650620956052500,0.749052490234375,-1.5535401105880737,-2.8827531337738037,-0.08135596662759781
1772650620965916400,0.75891650390625,-2.1918256282806396,-2.3359930515289307,-0.022133609279990196
1772650620975807500,0.768807373046875,-2.2187447547912598,-1.4937195777893066,0.259621262550354
1772650620985685000,0.77868505859375,-1.2819547653198242,-0.6460621356964111,0.9696913957595825
1772650620995548700,0.788548583984375,-0.25004997849464417,0.19680966436862946,1.6815561056137085
1772650621005440000,0.79843994140625,0.4911268353462219,0.7651050686836243,2.204387903213501
1772650621015317500,0.8083173828125,0.9176474809646606,1.1353943347930908,2.6111676692962646
1772650621025181200,0.81818115234375,0.7806583642959595,1.316650629043579,2.6739792823791504
1772650621035072500,0.828072509765625,0.631106972694397,1.4350954294204712,2.1062822341918945
1772650621044950000,0.837949951171875,0.3613162338733673,1.3597214221954346,1.8508483171463013
1772650621054827500,0.84782763671875,0.6071787476539612,1.0636097192764282,1.1976077556610107
1772650621064705000,0.857705078125,1.140179991722107,0.44446679949760437,-0.17288143932819366
1772650621074582500,0.86758251953125,1.74496591091156,-0.08614161610603333,-1.3489537239074707
1772650621084446200,0.8774462890625,2.2755744457244873,-0.4624129831790924,-2.221735715866089
1772650621094337500,0.887337646484375,2.4508485794067383,-0.7483552694320679,-2.5292134284973145
1772650621104215000,0.897215087890625,2.131406784057617,-1.4883357286453247,-2.196611166000366
1772650621114078700,0.90707861328125,1.9058831930160522,-2.0476579666137695,-1.420140266418457
1772650621123970000,0.916969970703125,2.324627161026001,-2.5812573432922363,-0.7208378314971924
1772650621133847600,0.92684765625,2.850450038909912,-3.4480574131011963,0.1986042857170105
1772650621143711200,0.936711181640625,3.4025938510894775,-4.389034748077393,0.8949156403541565
1772650621153602600,0.9466025390625,4.064807415008545,-5.880361557006836,1.85383939743042
1772650621163480000,0.95647998046875,5.125426292419434,-8.139185905456543,3.4953157901763916
1772650621173343700,0.96634375,7.793423175811768,-10.518250465393066,4.8538408279418945
1772650621183234800,0.97623486328125,12.272189140319824,-13.160524368286133,5.447260856628418
1772650621193112300,0.9861123046875,16.804195404052734,-16.13360595703125,4.276572227478027
1772650621202976300,0.995976318359375,18.220746994018555,-17.83011817932129,0.13579268753528595
1772650621212867300,1.005867431640625,17.43829345703125,-17.791234970092773,-3.607778310775757
1772650621222744800,1.015744873046875,16.200605392456055,-17.916259765625,-2.696112871170044
1772650621232608500,1.0256083984375,14.489737510681152,-15.119647979736328,4.2346978187561035
1772650621242499800,1.035499755859375,11.578868865966797,-12.004791259765625,10.963912963867188
1772650621252377300,1.04537744140625,10.890334129333496,-11.139187812805176,12.492328643798828
1772650621262241000,1.055240966796875,11.233704566955566,-12.485150337219238,10.491331100463867
1772650621272132400,1.06513232421875,11.519047737121582,-14.754144668579102,6.9822564125061035
1772650621282009900,1.075009765625,11.32522964477539,-18.876977920532227,3.4241292476654053
1772650621291873500,1.08487353515625,13.018750190734863,-19.953149795532227,0.6747759580612183
1772650621301764900,1.094764892578125,15.132808685302734,-19.642681121826172,0.355932354927063
1772650621311642400,1.104642333984375,17.224733352661133,-19.16411590576172,-0.32602208852767944
1772650621321506000,1.114506103515625,17.23729705810547,-17.89651870727539,-0.9942178130149841
1772650621331397000,1.124397216796875,16.022340774536133,-16.480566024780273,-1.373480200767517
1772650621341274600,1.134274658203125,13.980664253234863,-14.860625267028809,-1.2849457263946533
1772650621351138600,1.144138671875,11.55553913116455,-12.65444278717041,-0.3690928816795349
1772650621361029600,1.154029541015625,8.707481384277344,-10.334002494812012,0.4570291340351105
1772650621370907100,1.1639072265625,5.712265968322754,-8.522037506103516,0.7950153350830078
1772650621380770800,1.173770751953125,2.864208698272705,-7.100701332092285,0.607776939868927
1772650621390662100,1.183662109375,0.6610172390937805,-6.009573936462402,-0.16749759018421173
1772650621400539600,1.19353955078125,-0.38644084334373474,-5.319244861602783,-1.9645073413848877
1772650621410403300,1.2034033203125,-0.9571290612220764,-4.59421968460083,-1.7407784461975098
1772650621420294700,1.213294677734375,-1.2580264806747437,-3.348755359649658,-1.2999008893966675
1772650621430172200,1.223172119140625,-1.7509479522705078,-2.813361167907715,-1.7324036359786987
1772650621440035800,1.233035888671875,-1.9178473949432373,-2.149951219558716,-1.6576279401779175
1772650621449927200,1.24292724609375,-1.363310694694519,-1.3674981594085693,-0.6496513485908508
1772650621459804700,1.2528046875,-0.24586252868175507,-0.7501499056816101,0.42352959513664246
1772650621469668400,1.26266845703125,0.9469595551490784,-0.1417747437953949,1.454237937927246
1772650621479559700,1.2725595703125,1.3657035827636719,0.32123643159866333,2.6297121047973633
1772650621489437200,1.282437255859375,1.064207911491394,0.6652047038078308,3.311666488647461
1772650621499300900,1.29230078125,0.39421752095222473,0.9786644577980042,3.387040376663208
1772650621509192000,1.30219189453125,-0.3930211067199707,1.1018948554992676,2.8456642627716064
1772650621519069400,1.3120693359375,-0.8009973764419556,1.1413763761520386,1.923829436302185
1772650621528947000,1.321947021484375,-0.7728816866874695,0.914058268070221,1.028315544128418
1772650621538824400,1.331824462890625,-0.5814558863639832,0.39421752095222473,-0.02512463741004467
1772650621548702000,1.341701904296875,0.049651071429252625,0.035892341285943985,-0.8105686902999878
1772650621558565600,1.351565673828125,1.1976077556610107,-0.29312077164649963,-1.7808582782745361
1772650621568457000,1.36145703125,2.383849620819092,-0.6323033571243286,-2.063211441040039
1772650621578334500,1.37133447265625,3.3780672550201416,-0.7429714202880859,-1.8083757162094116
1772650621588198100,1.3811982421875,3.8356947898864746,-0.9278169870376587,-1.357926845550537
1772650621598089500,1.39108935546875,3.431307554244995,-1.1096714735031128,-0.9996016621589661
1772650621607967000,1.400967041015625,2.4921247959136963,-1.4333007335662842,-0.7543373107910156
1772650621617830700,1.41083056640625,1.8987047672271729,-2.132603168487549,-0.28534409403800964
1772650621627722000,1.420721923828125,1.9022940397262573,-3.1818559169769287,0.747757077217102
1772650621637599200,1.43059912109375,2.349153518676758,-4.506881237030029,1.933998942375183
1772650621647463200,1.440463134765625,3.455834150314331,-6.080162525177002,2.946761131286621
1772650621657354200,1.450354248046875,5.289932727813721,-7.707880020141602,2.8516464233398438
1772650621667231700,1.460231689453125,7.164111137390137,-9.741779327392578,1.638485312461853
1772650621677095400,1.470095458984375,9.30867862701416,-12.083754539489746,-0.11126625537872314
1772650621686986800,1.47998681640625,11.864212989807129,-14.398810386657715,-1.581655740737915
1772650621696864300,1.4898642578125,15.085550308227539,-15.579070091247559,-2.039283037185669
1772650621706728000,1.49972802734375,18.506689071655273,-15.937993049621582,-1.2239288091659546
1772650621716619300,1.509619384765625,19.63071632385254,-15.880565643310547,-0.16390834748744965
1772650621726496800,1.519496826171875,17.25763511657715,-15.969099998474121,1.8191434144973755
1772650621736360400,1.5293603515625,12.065808296203613,-13.914861679077148,4.474578380584717
1772650621746251800,1.539251708984375,8.762516975402832,-11.96052360534668,6.360720634460449
1772650621756129000,1.54912890625,8.547162055969238,-11.666805267333984,6.964310169219971
1772650621766006500,1.559006591796875,9.6466646194458,-12.54556941986084,5.150550842285156
1772650621775884000,1.568884033203125,11.575279235839844,-14.462220191955566,2.458625316619873
1772650621785761500,1.578761474609375,12.574881553649902,-16.816757202148438,0.30149564146995544
1772650621795625200,1.588625244140625,14.363515853881836,-17.141582489013672,-0.6861419081687927
1772650621805516500,1.5985166015625,15.345171928405762,-17.297714233398438,0.30987054109573364
1772650621815394000,1.60839404296875,16.1850528717041,-17.069799423217773,0.357128769159317
1772650621825257700,1.6182578125,16.873586654663086,-16.986648559570312,-0.46360939741134644
1772650621835149000,1.628149169921875,17.132610321044922,-16.530216217041016,-1.5128620862960815
1772650621845026600,1.638026611328125,16.129419326782227,-15.52642822265625,-2.207977056503296
1772650621854890200,1.64789013671875,14.06860065460205,-13.97528076171875,-2.0829520225524902
1772650621864781300,1.65778125,11.621341705322266,-12.321242332458496,-1.7186448574066162
1772650621874658800,1.667658935546875,9.227322578430176,-10.802397727966309,-1.384247899055481
1772650621884522800,1.677522705078125,7.237092018127441,-9.349356651306152,-0.760917603969574
1772650621894413800,1.687413818359375,5.866602897644043,-7.931010723114014,-0.0975075215101242
1772650621904291300,1.697291259765625,3.926621913909912,-6.39302396774292,0.8703892230987549
1772650621914155000,1.707155029296875,1.9627127647399902,-5.160720348358154,1.8113667964935303
1772650621924046300,1.71704638671875,0.12741780281066895,-4.237090587615967,2.1397817134857178
1772650621933923800,1.726923828125,-1.114457130432129,-3.33858585357666,1.721037745475769
1772650621943787500,1.73678759765625,-1.9513468742370605,-3.2937204837799072,1.5188441276550293
1772650621953678800,1.746678955078125,-2.289931297302246,-2.9449665546417236,1.2281162738800049
1772650621963556400,1.756556396484375,-2.706282377243042,-2.4921247959136963,0.5718846321105957
1772650621973420000,1.766419921875,-3.090928554534912,-1.7892330884933472,0.4019941985607147
1772650621983311000,1.77631103515625,-3.311068296432495,-1.1437692642211914,0.6035895347595215
1772650621993188600,1.786188720703125,-3.339184045791626,-0.6329016089439392,0.9032905697822571
1772650622003052300,1.79605224609375,-3.0969107151031494,-0.14297115802764893,1.1407781839370728
1772650622012943600,1.805943603515625,-2.5010979175567627,0.2267199456691742,1.2083754539489746
1772650622022821000,1.815821044921875,-1.7001005411148071,0.5282155871391296,1.2526426315307617
1772650622032684800,1.825684814453125,-0.9367900490760803,0.8392825126647949,1.2819547653198242
1772650622042576100,1.835576171875,-0.018544375896453857,0.9547362327575684,1.0055837631225586
1772650622052453600,1.84545361328125,0.7148557901382446,0.8482556343078613,0.5970092415809631
1772650622062317300,1.8553173828125,1.150349497795105,0.5084748268127441,0.2626122832298279
1772650622072208400,1.86520849609375,1.7623138427734375,0.21655045449733734,-0.3206382393836975
1772650622082086000,1.8750859375,2.3395824432373047,0.07477571070194244,-0.9499505758285522
1772650622091949600,1.884949462890625,2.688336133956909,-0.1381855010986328,-1.4213366508483887
1772650622101841000,1.8948408203125,2.854039192199707,-0.511465847492218,-1.8352949619293213
1772650622111718400,1.904718505859375,2.6943182945251465,-1.1324033737182617,-1.8137595653533936
1772650622121582000,1.91458203125,2.5980072021484375,-1.8789639472961426,-1.3268201351165771
1772650622131473400,1.924473388671875,2.7278177738189697,-3.0041887760162354,-0.8033902049064636
1772650622141351000,1.934350830078125,3.0628130435943604,-4.217947959899902,-0.31106695532798767
1772650622151214600,1.944214599609375,3.714258909225464,-5.539982795715332,0.12861421704292297
1772650622161106000,1.95410595703125,4.6749773025512695,-7.189235687255859,0.43489551544189453
1772650622170983200,1.963983154296875,6.206982135772705,-9.1052885055542,0.763310432434082
1772650622180846800,1.973846923828125,8.973084449768066,-11.485548973083496,0.9248259663581848
1772650622190738200,1.98373828125,12.945768356323242,-14.078171730041504,0.4049852192401886
1772650622200615700,1.99361572265625,18.278772354125977,-15.78246021270752,0.2189432680606842
1772650622210479400,2.003479248046875,21.87997055053711,-15.145370483398438,1.3196417093276978
1772650622220370700,2.01337060546875,22.798215866088867,-14.19003677368164,4.4135613441467285
1772650622230248200,2.023248291015625,19.666011810302734,-12.507284164428711,9.554540634155273
1772650622240111900,2.03311181640625,15.001801490783691,-10.3681001663208,12.404991149902344
1772650622250003200,2.043003173828125,11.22353458404541,-10.141380310058594,10.13898754119873
1772650622259880400,2.05288037109375,9.863813400268555,-10.704890251159668,5.517251014709473
1772650622269744400,2.062744384765625,10.100702285766602,-12.123833656311035,0.8560323119163513
1772650622279635500,2.072635498046875,10.130014419555664,-12.126227378845215,-1.9674984216690063
1772650622289513000,2.082512939453125,11.833703994750977,-14.073386192321777,-4.546961307525635
1772650622299376600,2.092376708984375,13.057034492492676,-15.146567344665527,-5.705685615539551
1772650622309268000,2.10226806640625,15.592230796813965,-15.155540466308594,-5.179264545440674
1772650622319145500,2.1121455078125,17.9826602935791,-15.732809066772461,-4.11206579208374
1772650622329009200,2.122009033203125,21.260828018188477,-15.856039047241211,-3.793820381164551
1772650622338900500,2.131900390625,22.31007957458496,-15.772290229797363,-4.403990268707275
1772650622348778000,2.141778076171875,20.039291381835938,-15.387045860290527,-4.695316314697266
1772650622358641700,2.1516416015625,15.988243103027344,-14.623735427856445,-4.34955358505249
1772650622368532700,2.16153271484375,12.134003639221191,-13.410574913024902,-3.3966116905212402
1772650622378410200,2.17141015625,8.700303077697754,-11.84865951538086,-2.0751755237579346
1772650622388274000,2.18127392578125,6.066403388977051,-10.308279991149902,-0.5892325639724731
1772650622398165200,2.191165283203125,4.208974838256836,-8.74756145477295,0.7597211599349976
1772650622408042800,2.201042724609375,2.4705893993377686,-7.433901786804199,1.3561322689056396
1772650622417906400,2.210906494140625,1.1114661693572998,-6.805785655975342,1.7647067308425903
1772650622427797800,2.2207978515625,0.8189435601234436,-6.364908218383789,2.059023857116699
1772650622437675300,2.23067529296875,0.8997012972831726,-5.866004943847656,1.5720844268798828
1772650622447539000,2.2405390625,0.5772684812545776,-5.061418056488037,0.7166503667831421
1772650622457430000,2.250429931640625,0.12502498924732208,-4.238286972045898,0.6867401003837585
1772650622467307500,2.2603076171875,-0.2273181527853012,-3.345165967941284,0.9361918568611145
1772650622477171200,2.270171142578125,-0.6065805554389954,-2.224726915359497,1.287936806678772
1772650622487062500,2.2800625,-0.6963114142417908,-1.241276741027832,1.347757339477539
1772650622496940000,2.28993994140625,-0.6711867451667786,-0.6532405614852905,1.0079765319824219
1772650622506803700,2.2998037109375,-0.6239284873008728,-0.07597211748361588,0.4875376224517822
1772650622516695000,2.309695068359375,-0.6622136831283569,0.4097708761692047,0.10348957777023315
1772650622526572300,2.319572265625,-0.7357929348945618,0.9439685344696045,0.1459621787071228
1772650622536436200,2.329436279296875,-0.6951149702072144,1.4584254026412964,0.27397820353507996
1772650622546327300,2.339327392578125,-0.5054838061332703,1.6474584341049194,0.023330021649599075
1772650622556204800,2.349204833984375,-0.3194418251514435,1.6061822175979614,-0.37926238775253296
1772650622566082300,2.359082275390625,-0.12382857501506805,1.5481562614440918,-0.5126622319221497
1772650622575959800,2.368959716796875,0.04127619042992592,1.430907964706421,-0.6245267391204834
1772650622585837300,2.37883740234375,0.44386860728263855,1.1599208116531372,-0.7232306599617004
1772650622595701000,2.388700927734375,1.2861422300338745,0.6478567123413086,-1.200000524520874
1772650622605592000,2.398592041015625,2.039283037185669,0.19680966436862946,-1.5224334001541138
1772650622615469600,2.408469482421875,2.638087034225464,-0.2679961323738098,-1.7581263780593872
1772650622625347000,2.41834716796875,2.7020950317382812,-0.7184450030326843,-1.963310956954956
1772650622635224600,2.428224609375,2.0333011150360107,-1.186241865158081,-1.7060825824737549
1772650622645102000,2.43810205078125,0.8422735929489136,-1.7784653902053833,-1.0761719942092896
1772650622654965800,2.4479658203125,-0.07178468257188797,-2.734398126602173,-0.1333998590707779
1772650622664857000,2.457857177734375,0.18005990982055664,-3.84765887260437,0.355932354927063
1772650622674734600,2.467734619140625,1.2185449600219727,-5.029115200042725,0.1543370634317398
1772650622684598300,2.477598388671875,2.1750757694244385,-6.515655994415283,0.18005990982055664
1772650622694489600,2.487489501953125,3.9493536949157715,-8.067401885986328,0.14895321428775787
1772650622704366800,2.497366943359375,8.002197265625,-10.223334312438965,-1.2191431522369385
1772650622714230800,2.507230712890625,13.769497871398926,-13.233505249023438,-3.483351469039917
1772650622724121900,2.517121826171875,19.852052688598633,-14.732010841369629,-4.920241355895996
1772650622733999400,2.526999267578125,24.54198455810547,-15.255440711975098,-5.444868087768555
1772650622743863000,2.536863037109375,25.642683029174805,-13.853246688842773,-3.597608804702759
1772650622753754400,2.54675439453125,22.8705997467041,-12.141779899597168,-0.04666004329919815
1772650622763631900,2.5566318359375,17.786449432373047,-11.376076698303223,2.461616277694702
1772650622773495600,2.56649560546875,12.474382400512695,-9.81954574584961,4.526622295379639
1772650622783386600,2.57638671875,9.144769668579102,-9.472586631774902,5.684150218963623
1772650622793264000,2.58626416015625,8.26839828491211,-10.238887786865234,3.6598222255706787
1772650622803127800,2.5961279296875,10.870593070983887,-11.939586639404297,0.05802594870328903
1772650622813019100,2.60601904296875,16.724634170532227,-15.170495986938477,-4.908875465393066
1772650622822896600,2.615896728515625,19.767107009887695,-19.094125747680664,-8.158926963806152
1772650622832760300,2.62576025390625,21.226730346679688,-21.01017951965332,-11.416754722595215
1772650622842651600,2.635651611328125,20.79542350769043,-20.87618064880371,-11.668600082397461
1772650622852529000,2.64552880859375,19.997417449951172,-18.27398681640625,-9.576674461364746
1772650622862392600,2.655392578125,17.12363624572754,-15.565909385681152,-7.58225679397583
1772650622872284000,2.665283935546875,13.781461715698242,-13.752748489379883,-6.234499454498291
1772650622882161400,2.675161376953125,10.931012153625488,-12.53839111328125,-5.038087844848633
1772650622892025000,2.685025146484375,8.785846710205078,-11.182258605957031,-3.559323787689209
1772650622901916400,2.69491650390625,7.1988067626953125,-9.79681396484375,-1.9543378353118896
1772650622911794000,2.7047939453125,5.879165172576904,-8.333602905273438,-0.5156532526016235
1772650622921657600,2.71465771484375,4.4997029304504395,-7.1234331130981445,0.38703906536102295
1772650622931548700,2.724548583984375,2.80977201461792,-5.974878311157227,0.877567708492279
1772650622941426200,2.73442626953125,1.1353943347930908,-4.78803825378418,1.212562918663025
1772650622951289900,2.744289794921875,0.5736792087554932,-3.88594388961792,1.7198412418365479
1772650622961181200,2.75418115234375,1.2705888748168945,-3.809971809387207,2.6673989295959473
1772650622971058700,2.76405859375,2.5112674236297607,-3.119642496109009,2.557927370071411
1772650622980922400,2.77392236328125,3.026322364807129,-1.9962122440338135,1.8059829473495483
1772650622990813700,2.783813720703125,2.6087749004364014,-1.4620146751403809,0.6873382925987244
1772650623000691200,2.793691162109375,1.470389485359192,-0.8602197170257568,-0.2919243574142456
1772650623010555000,2.803554931640625,-0.09212367236614227,-0.15134602785110474,-0.4217349886894226
1772650623020446000,2.813446044921875,-1.3148560523986816,0.4265206456184387,-0.13040883839130402
1772650623030323500,2.823323486328125,-2.169692039489746,0.9200403094291687,-0.06999006122350693
1772650623040187100,2.833187255859375,-2.5674986839294434,1.3423734903335571,0.129810631275177
1772650623050078500,2.843078369140625,-1.4518451690673828,2.296511650085449,0.9804590940475464
1772650623059956000,2.8529560546875,-0.7938188910484314,1.317248821258545,1.0857433080673218
1772650623069833500,2.86283349609375,-0.4007977843284607,1.3657035827636719,0.19740787148475647
1772650623079710700,2.872710693359375,0.4325026869773865,0.9888339638710022,-0.9026923179626465
1772650623089588200,2.882588134765625,1.1736794710159302,0.17527425289154053,-2.181057929992676
1772650623099452000,2.892451904296875,1.8813568353652954,-0.4205385744571686,-3.428914785385132
1772650623109343200,2.90234326171875,2.572284460067749,-0.9421738982200623,-4.167100429534912
1772650623119220700,2.912220703125,3.397209882736206,-1.272383451461792,-4.639084815979004
1772650623129084400,2.92208447265625,3.5054850578308105,-1.2508480548858643,-4.134199142456055
1772650623138975700,2.931975830078125,2.964108943939209,-1.0079765319824219,-2.957528829574585
1772650623148853200,2.941853271484375,2.1122641563415527,-0.6640082597732544,-1.4949159622192383
1772650623158717000,2.951717041015625,1.1467602252960205,-0.5413761138916016,-0.019740786403417587
1772650623168608000,2.96160791015625,0.27337998151779175,-0.802193820476532,1.0277173519134521
1772650623178485500,2.971485595703125,-0.04127619042992592,-1.2382856607437134,1.9214365482330322
1772650623188349200,2.98134912109375,0.23270200192928314,-1.8532410860061646,2.93001127243042
1772650623198240500,2.991240478515625,0.9529415965080261,-2.7517459392547607,4.022933006286621
1772650623208118000,3.001117919921875,1.7802600860595703,-3.8769710063934326,4.789234638214111
1772650623217981700,3.010981689453125,2.9563324451446533,-5.378467082977295,4.395017147064209
1772650623227872800,3.020872802734375,4.577469825744629,-7.785048484802246,2.4981069564819336
1772650623237750300,3.030750244140625,7.021738052368164,-11.065010070800781,-0.9613165259361267
1772650623247614000,3.040614013671875,9.903294563293457,-15.350555419921875,-3.871587038040161
1772650623257505300,3.05050537109375,13.302897453308105,-19.13540267944336,-7.1718878746032715
1772650623267382800,3.0603828125,19.134803771972656,-20.762521743774414,-8.792427062988281
1772650623277246500,3.07024658203125,24.576082229614258,-19.667207717895508,-6.03110933303833
1772650623287137500,3.080137451171875,28.08216667175293,-23.135604858398438,-1.6366907358169556
1772650623297015000,3.09001513671875,22.130619049072266,-17.651254653930664,9.250054359436035
1772650623306879000,3.09987890625,16.830516815185547,-11.60519027709961,14.33599853515625
1772650623316770000,3.10977001953125,14.148161888122559,-11.986845016479492,11.867203712463379
1772650623326647600,3.1196474609375,11.854641914367676,-14.198410987854004,6.0508503913879395
1772650623336511200,3.12951123046875,9.893723487854004,-16.598411560058594,0.23030917346477509
1772650623346402600,3.139402587890625,11.175080299377441,-18.48874282836914,-3.99900484085083
1772650623356280000,3.149280029296875,13.903495788574219,-20.779870986938477,-6.266204357147217
1772650623366143700,3.159143798828125,17.16132354736328,-21.987648010253906,-5.067399978637695
1772650623376034800,3.169034912109375,21.43669891357422,-20.149959564208984,-2.0470597743988037
1772650623385912300,3.178912353515625,24.870399475097656,-17.91326904296875,0.052043892443180084
1772650623395776000,3.18877587890625,23.833709716796875,-17.061424255371094,-0.8009973764419556
1772650623405667300,3.198667236328125,19.182661056518555,-16.07318878173828,-2.6877379417419434
1772650623415544800,3.208544921875,14.151153564453125,-14.417952537536621,-3.76570463180542
1772650623425408500,3.218408447265625,9.625727653503418,-12.393625259399414,-3.862015724182129
1772650623435299600,3.228299560546875,5.444868087768555,-10.15035343170166,-3.3379876613616943
1772650623445177000,3.238177001953125,2.237887382507324,-8.081160545349121,-2.179861545562744
1772650623455040800,3.248040771484375,0.1094716340303421,-6.3529438972473145,-0.6981059908866882
1772650623464932000,3.25793212890625,-1.0869396924972534,-4.94775915145874,0.09032905846834183
1772650623474809600,3.2678095703125,-1.6815561056137085,-3.6987056732177734,1.9884356260299683
1772650623484673300,3.27767333984375,-1.8574285507202148,-3.0556344985961914,2.724228620529175
1772650623494564400,3.287564453125,-2.6368906497955322,-2.6554348468780518,1.7312071323394775
1772650623504441900,3.29744189453125,-3.095116138458252,-2.0811574459075928,0.5335994362831116
1772650623514305500,3.307305419921875,-3.2727832794189453,-1.5535401105880737,-0.11006984114646912
1772650623524196900,3.31719677734375,-3.1824541091918945,-0.9457631707191467,-0.4259224236011505
1772650623534074400,3.327074462890625,-3.0861430168151855,-0.3678964674472809,-0.1824527233839035
1772650623543938000,3.33693798828125,-3.0143582820892334,0.4408775866031647,0.8386843204498291
1772650623553829400,3.346829345703125,-2.8809585571289062,1.1527422666549683,2.155933141708374
1772650623563706600,3.35670654296875,-2.5058834552764893,1.6612170934677124,3.3619158267974854
1772650623573570600,3.366570556640625,-1.6420745849609375,2.0578274726867676,4.0695929527282715
1772650623583461600,3.376461669921875,-0.5461617708206177,1.8340985774993896,3.4055848121643066
1772650623593339100,3.386339111328125,0.7250252366065979,1.0360921621322632,1.4931213855743408
1772650623603202800,3.396202880859375,2.7008986473083496,0.23629122972488403,-1.3992030620574951
1772650623613094100,3.40609423828125,4.306482315063477,-0.5856433510780334,-3.476771354675293
1772650623622971600,3.4159716796875,4.362713813781738,-1.3459627628326416,-4.444069862365723
1772650623632835300,3.42583544921875,3.9631125926971436,-1.4135600328445435,-5.111069202423096
1772650623642726400,3.435726318359375,2.740978240966797,-1.4973087310791016,-4.64805793762207
1772650623652604000,3.44560400390625,1.633699655532837,-1.4165509939193726,-3.7633118629455566
1772650623662481400,3.4554814453125,0.9290133714675903,-1.3124631643295288,-2.3030917644500732
1772650623672359000,3.46535888671875,0.7286145091056824,-1.241276741027832,-0.7046862840652466
1772650623682236400,3.475236328125,0.9984052777290344,-1.1886346340179443,0.7334001660346985
1772650623692100000,3.48510009765625,1.3663017749786377,-1.3657035827636719,1.7485551834106445
1772650623701991200,3.4949912109375,1.3609179258346558,-1.721037745475769,2.1026928424835205
1772650623711868700,3.50486865234375,0.7902296781539917,-2.4125633239746094,2.073380708694458
1772650623721732400,3.514732421875,0.3643072545528412,-3.2859437465667725,2.2271196842193604
1772650623731623700,3.524623779296875,0.8656035661697388,-4.532604217529297,3.119642496109009
1772650623741501200,3.534501220703125,2.461616277694702,-5.8683977127075195,4.261018753051758
1772650623751364900,3.54436474609375,4.6061835289001465,-6.922435760498047,4.435695171356201
1772650623761256000,3.554255859375,6.338587284088135,-7.690532207489014,4.293920040130615
1772650623771133400,3.564133544921875,8.398807525634766,-8.38145923614502,3.566502094268799
1772650623780997000,3.5739970703125,11.662019729614258,-9.575477600097656,2.5872395038604736
1772650623790888400,3.583888427734375,15.27039623260498,-11.622537612915039,0.8434699773788452
1772650623800766000,3.593765869140625,17.32343864440918,-13.362717628479004,-0.8787640929222107
1772650623810629600,3.603629638671875,17.672191619873047,-14.559727668762207,-0.9583254456520081
1772650623820520700,3.613520751953125,17.542978286743164,-15.429518699645996,1.0097711086273193
1772650623830398200,3.623398193359375,18.814167022705078,-16.392629623413086,3.0520453453063965
1772650623840262000,3.633261962890625,21.907487869262695,-17.249858856201172,4.092923164367676
1772650623850153200,3.6431533203125,25.6175594329834,-17.978473663330078,3.9792640209198
1772650623860030700,3.65303076171875,28.038497924804688,-18.895523071289062,2.6566312313079834
1772650623869894400,3.662894287109375,27.620351791381836,-19.798213958740234,0.36610186100006104
1772650623879785700,3.67278564453125,24.361328125,-19.767107009887695,-1.8861424922943115
1772650623889663000,3.6826630859375,19.73360824584961,-18.395421981811523,-3.0071799755096436
1772650623899526700,3.692526611328125,15.387045860290527,-15.836896896362305,-2.1643080711364746
1772650623909418000,3.70241796875,12.014960289001465,-12.600604057312012,0.11006984114646912
1772650623919295500,3.71229541015625,9.460622787475586,-10.084550857543945,1.8167506456375122
1772650623929159200,3.7221591796875,7.862216949462891,-8.614161491394043,2.334796667098999
1772650623939050500,3.732050537109375,7.723433494567871,-7.975277900695801,2.094916343688965
1772650623948927700,3.741927734375,7.560721397399902,-7.4739813804626465,1.689931035041809
1772650623958791700,3.751791748046875,6.761518478393555,-6.871588230133057,1.0701899528503418
1772650623968682800,3.761682861328125,5.045266628265381,-6.2566328048706055,0.4426721930503845
1772650623978560300,3.771560302734375,2.86061954498291,-5.543571949005127,-0.1704886108636856
1772650623988424000,3.781423828125,0.8321040868759155,-4.944767951965332,-0.9104689955711365
1772650623998315300,3.791315185546875,-0.589830756187439,-4.543970108032227,-1.6402798891067505
1772650624008192800,3.80119287109375,-1.3208380937576294,-4.177868366241455,-2.242074728012085
1772650624018056400,3.811056396484375,-1.5852450132369995,-3.923032760620117,-2.4131617546081543
1772650624027947500,3.820947509765625,-1.6648063659667969,-3.6269209384918213,-2.325225353240967
1772650624037825000,3.830824951171875,-1.6618152856826782,-3.095116138458252,-2.0679969787597656
1772650624047688700,3.840688720703125,-1.587039589881897,-2.5286152362823486,-1.5026925802230835
1772650624057580000,3.850580078125,-1.2089736461639404,-1.7282161712646484,-0.4707878530025482
1772650624067457300,3.860457275390625,-1.057627558708191,-0.8626125454902649,0.44446679949760437
1772650624077321200,3.8703212890625,-1.4177473783493042,-0.2392822653055191,0.9278169870376587
1772650624087212300,3.88021240234375,-2.1068804264068604,0.19262222945690155,1.211964726448059
1772650624097089800,3.89008984375,-2.9341988563537598,0.4426721930503845,1.2741780281066895
1772650624106953500,3.899953369140625,-3.7537405490875244,0.43908295035362244,1.1629117727279663
1772650624116844800,3.9098447265625,-3.9846479892730713,0.04785645380616188,0.7651050686836243
1772650624126722300,3.919722412109375,-3.479762315750122,-0.24526432156562805,0.3397808074951172
1772650624136599600,3.929599609375,-2.3024935722351074,-0.39541393518447876,0.17288143932819366
1772650624146477000,3.93947705078125,-0.03768695518374443,-0.6747759580612183,-0.2787638306617737
1772650624156354600,3.9493544921875,2.4388844966888428,-1.0546365976333618,-0.3200400173664093
1772650624166218200,3.95921826171875,4.456632137298584,-1.3058829307556152,0.3284149169921875
1772650624176109600,3.969109619140625,6.594619274139404,-1.5355939865112305,0.16510476171970367
1772650624185987000,3.978987060546875,7.680362701416016,-2.5591237545013428,-0.5072783827781677
1772650624195850800,3.988850830078125,7.9591264724731445,-3.586841106414795,-0.3810569941997528
1772650624205741800,3.998741943359375,8.003393173217773,-4.167100429534912,1.5547364950180054
1772650624215619300,4.008619384765625,8.941978454589844,-4.353142738342285,3.9930226802825928
1772650624225483000,4.01848291015625,11.261221885681152,-4.925625324249268,4.133002758026123
1772650624235374300,4.028374267578125,13.673785209655762,-7.772486209869385,1.49611234664917
1772650624245251800,4.038251953125,13.765310287475586,-11.094322204589844,-2.2636101245880127
1772650624255115500,4.048115478515625,13.676177978515625,-13.259228706359863,-6.477969169616699
1772650624265006600,4.058006591796875,15.229718208312988,-14.91865062713623,-8.516056060791016
1772650624274884000,4.067884033203125,17.73261070251465,-15.132210731506348,-7.884350776672363
1772650624284747800,4.077747802734375,18.49472427368164,-14.124832153320312,-6.5491557121276855
1772650624294639000,4.08763916015625,17.092531204223633,-13.323236465454102,-4.7030930519104
1772650624304516400,4.097516357421875,15.79980754852295,-12.702897071838379,-3.119642496109009
1772650624314380300,4.10738037109375,15.305091857910156,-12.391830444335938,-2.6350958347320557
1772650624324271400,4.117271240234375,14.618949890136719,-12.458828926086426,-3.3750762939453125
1772650624334148900,4.12714892578125,13.663017272949219,-12.648460388183594,-4.120440483093262
1772650624344012500,4.137012451171875,12.717253684997559,-12.662817001342773,-4.271188259124756
1772650624353903900,4.14690380859375,11.647064208984375,-12.964313507080078,-4.731208801269531
1772650624363781000,4.156781005859375,10.701899528503418,-13.296915054321289,-5.463412284851074
1772650624373645000,4.16664501953125,10.339386940002441,-13.642678260803223,-5.8061842918396
1772650624383536000,4.1765361328125,10.173684120178223,-13.920844078063965,-5.642873764038086
1772650624393413600,4.18641357421875,10.484152793884277,-13.618151664733887,-5.030311584472656
1772650624403291100,4.196291015625,11.386844635009766,-13.24547004699707,-4.289134502410889
1772650624413168600,4.206168701171875,12.42413330078125,-12.633505821228027,-3.3415768146514893
1772650624423046000,4.2160458984375,12.547962188720703,-11.271390914916992,-2.114656925201416
1772650624432909600,4.22590966796875,11.298310279846191,-9.659825325012207,-0.908674418926239
1772650624442801000,4.23580078125,9.239884376525879,-8.352147102355957,-0.2949153780937195
1772650624452678400,4.245678466796875,6.830312252044678,-7.314260482788086,-0.0933200865983963
1772650624462542000,4.2555419921875,4.252045631408691,-6.4289164543151855,-0.004785645287483931
1772650624472433400,4.265433349609375,2.0991036891937256,-5.4071807861328125,0.2021935135126114
1772650624482310700,4.275310546875,0.3966103494167328,-4.311866283416748,0.4097708761692047
1772650624492174600,4.285174560546875,-0.99481600522995,-3.2374889850616455,0.5497509837150574
1772650624502065700,4.295065673828125,-1.7288143634796143,-2.166102647781372,0.09810572862625122
1772650624511943200,4.304943115234375,-2.066800594329834,-1.2861422300338745,1.6893328428268433
1772650624521806800,4.314806884765625,-2.317448616027832,-0.4456632137298584,2.6937201023101807
1772650624531698200,4.3246982421875,-2.912663459777832,0.36251261830329895,2.640479803085327
1772650624541575400,4.334575439453125,-3.169891834259033,0.737587571144104,2.4945175647735596
1772650624551439000,4.344439208984375,-3.242872953414917,0.8003991842269897,2.1200408935546875
1772650624561330400,4.354330322265625,-3.315854072570801,0.8835497498512268,1.347757339477539
1772650624571208000,4.3642080078125,-3.116053342819214,0.8081758618354797,0.6041877269744873
1772650624581085400,4.37408544921875,-2.400001049041748,0.6981059908866882,0.047258246690034866
1772650624590962700,4.383962646484375,-1.1252248287200928,0.6693921089172363,-0.22612173855304718
1772650624600840200,4.393840087890625,0.4612165689468384,0.486939400434494,-0.50907301902771
1772650624610704000,4.403703857421875,1.9968105554580688,0.40797626972198486,-0.8715856671333313
1772650624620595200,4.41359521484375,3.3296127319335938,0.2877369225025177,-1.256830096244812
1772650624630472700,4.42347265625,3.809971809387207,-0.17706887423992157,-1.9639091491699219
1772650624640336400,4.43333642578125,3.290729284286499,-0.8255237936973572,-2.703291416168213
1772650624650227500,4.4432275390625,2.117648124694824,-1.4219348430633545,-3.004786968231201
1772650624660105000,4.45310498046875,0.8799605369567871,-2.3054845333099365,-2.650649309158325
1772650624669968600,4.46296875,0.3355933725833893,-3.1405797004699707,-1.6013965606689453
1772650624679860000,4.47285986328125,0.7627122402191162,-4.137190341949463,-0.2392822653055191
1772650624689737500,4.482737548828125,3.1100711822509766,-4.823930263519287,0.9122636318206787
1772650624699601200,4.49260107421875,6.530013084411621,-7.204789161682129,1.7910277843475342
1772650624709492200,4.5024921875,11.313863754272461,-9.279964447021484,2.1756739616394043
1772650624719369700,4.51236962890625,15.783058166503906,-12.101700782775879,3.7698919773101807
1772650624729233400,4.5222333984375,16.639089584350586,-15.41755485534668,6.195616245269775
1772650624739124700,4.532124755859375,16.80658721923828,-16.176677703857422,7.3298139572143555
1772650624749002200,4.542002197265625,16.49911117553711,-16.402799606323242,7.261618614196777
1772650624758866000,4.551865966796875,17.084156036376953,-16.461423873901367,8.429914474487305
1772650624768757000,4.561757080078125,19.84786605834961,-15.941582679748535,7.015756130218506
1772650624778634500,4.571634521484375,21.209980010986328,-15.585650444030762,1.2215359210968018
1772650624788498200,4.581498291015625,20.28036880493164,-16.056438446044922,-3.152543783187866
1772650624798389500,4.591389404296875,18.601205825805664,-14.809179306030273,-6.0538411140441895
1772650624808267000,4.60126708984375,17.285152435302734,-13.323236465454102,-6.609574317932129
1772650624818130700,4.611130615234375,17.159528732299805,-11.395817756652832,-4.002593994140625
1772650624828021800,4.621021728515625,17.068601608276367,-8.590232849121094,0.19142581522464752
1772650624837899300,4.630899169921875,16.048063278198242,-6.010172367095947,4.812564373016357
1772650624847763000,4.640762939453125,14.782259941101074,-5.179862976074219,7.923233985900879
1772650624857654300,4.650654296875,14.22712516784668,-5.577669620513916,8.222336769104004
1772650624867531800,4.66053173828125,14.240285873413086,-7.396812915802002,5.722435474395752
1772650624877395500,4.6703955078125,14.408979415893555,-9.893723487854004,1.8963119983673096
1772650624887286500,4.68028662109375,14.575281143188477,-12.047264099121094,-1.4799607992172241
1772650624897164000,4.6901640625,13.938192367553711,-13.100704193115234,-3.410968780517578
1772650624907027700,4.70002783203125,13.143177032470703,-12.735199928283691,-4.041477680206299
1772650624916919000,4.7099189453125,12.384652137756348,-11.21934700012207,-3.589233875274658
1772650624926796300,4.71979638671875,10.203594207763672,-8.961718559265137,-2.3700907230377197
1772650624936660200,4.72966015625,5.971887111663818,-6.895516872406006,-1.3627125024795532
1772650624946551300,4.73955126953125,1.0085747241973877,-5.365904808044434,-0.3397808074951172
1772650624956428800,4.7494287109375,-2.737389087677002,-3.668795347213745,0.5533402562141418
1772650624966292500,4.75929248046875,-4.926821708679199,-2.65842604637146,1.794616937637329
1772650624976183800,4.769183837890625,-6.40020227432251,-1.5056836605072021,3.4923245906829834
1772650624986061000,4.77906103515625,-7.022336483001709,-0.6059823632240295,3.768695592880249
1772650624995924700,4.7889248046875,-6.9098734855651855,-0.5916253924369812,2.672184705734253
1772650625005816000,4.798816162109375,-5.9060845375061035,-0.8979067206382751,0.698704183101654
1772650625015693600,4.808693603515625,-4.288536548614502,-0.9852447509765625,-0.6622136831283569
1772650625025557200,4.81855712890625,-2.258824586868286,-0.7968099117279053,-1.7772690057754517
1772650625035448300,4.8284482421875,-0.6681957244873047,-0.3445664644241333,-2.2498514652252197
1772650625045325800,4.838325927734375,-0.18484555184841156,0.5377869009971619,-1.1647064685821533
1772650625055189500,4.848189453125,-1.358525037765503,1.5493526458740234,0.8350951075553894
1772650625065080800,4.858080810546875,-2.111067771911621,2.5399811267852783,1.7240287065505981
1772650625074958300,4.867958251953125,-2.5160529613494873,2.8594231605529785,1.9010975360870361
1772650625084822000,4.877822021484375,-2.424527645111084,2.906083106994629,1.2047861814498901
1772650625094713000,4.887713134765625,-1.5242279767990112,2.599203586578369,0.19621145725250244
1772650625104590600,4.897590576171875,-0.11844471842050552,1.911865234375,-0.8835497498512268
1772650625114454300,4.907454345703125,1.031306505203247,1.2167502641677856,-1.9866410493850708
1772650625124345600,4.917345703125,1.8424733877182007,0.42293140292167664,-3.0586254596710205
1772650625134222800,4.927222900390625,2.3958137035369873,-0.6616154313087463,-3.4683964252471924
1772650625144086800,4.937086669921875,2.7864420413970947,-1.6719847917556763,-3.4672000408172607
1772650625153977900,4.946977783203125,3.2141590118408203,-2.9587252140045166,-3.751347780227661
1772650625163855400,4.95685546875,3.9457645416259766,-4.730011940002441,-3.7190446853637695
1772650625173719000,4.966718994140625,4.769493579864502,-6.388238430023193,-2.2636101245880127
1772650625183610400,4.9766103515625,5.356333255767822,-7.740781307220459,-0.20099709928035736
1772650625193487600,4.986487548828125,5.8713884353637695,-9.390632629394531,0.9559326171875
1772650625203351300,4.996351318359375,7.715656757354736,-11.330015182495117,0.7280163168907166
1772650625213242600,5.00624267578125,10.927422523498535,-13.286148071289062,0.9457631707191467
1772650625223120100,5.0161201171875,14.933606147766113,-16.633108139038086,1.6558332443237305
1772650625232983800,5.02598388671875,19.128223419189453,-20.254047393798828,4.574478626251221
1772650625242875000,5.035875,25.55833625793457,-18.206388473510742,11.003993034362793
1772650625252752400,5.04575244140625,30.317062377929688,-11.168499946594238,12.005389213562012
1772650625262616000,5.055615966796875,27.709484100341797,-13.539188385009766,7.728816986083984
1772650625272507400,5.06550732421875,19.733009338378906,-17.98505401611328,4.844269275665283
1772650625282385000,5.075385009765625,13.060026168823242,-16.41057586669922,-2.6973092555999756
1772650625292248600,5.08524853515625,11.264810562133789,-16.30230140686035,-9.016156196594238
1772650625302139600,5.0951396484375,14.308481216430664,-17.373088836669922,-11.46820068359375
1772650625312017200,5.10501708984375,17.46401596069336,-16.139589309692383,-12.202796936035156
1772650625321880800,5.114880859375,19.5272274017334,-14.804393768310547,-10.548758506774902
1772650625331772000,5.12477197265625,20.3754825592041,-13.325629234313965,-5.2630133628845215
1772650625341649400,5.1346494140625,17.855241775512695,-10.982458114624023,0.42412781715393066
1772650625351513000,5.14451318359375,14.623137474060059,-9.574281692504883,3.3678979873657227
1772650625361404400,5.154404296875,12.714262962341309,-9.165108680725098,4.511667251586914
1772650625371282000,5.164281982421875,11.852249145507812,-9.369695663452148,4.144967079162598
1772650625381145600,5.1741455078125,11.770893096923828,-9.939187049865723,2.4765713214874268
1772650625391036700,5.18403662109375,11.933006286621094,-9.91825008392334,0.5623133182525635
1772650625400914200,5.1939140625,11.80199909210205,-9.001200675964355,-0.8404789566993713
1772650625410777900,5.20377783203125,10.357333183288574,-7.53559684753418,-1.4673985242843628
1772650625420669200,5.213669189453125,7.6600236892700195,-6.220142364501953,-1.3088740110397339
1772650625430546400,5.22354638671875,4.507479667663574,-5.099104881286621,-1.3154542446136475
1772650625440410400,5.233410400390625,1.7270197868347168,-4.508078098297119,-1.5020943880081177
1772650625450301400,5.243301513671875,-0.649053156375885,-5.050650596618652,-1.170688509941101
1772650625460179000,5.253178955078125,-1.6139588356018066,-4.679164886474609,-0.10827522724866867
1772650625470042600,5.263042724609375,-1.0079765319824219,-3.1716864109039307,1.683350682258606
1772650625479934000,5.272933837890625,0.836291491985321,-2.213959217071533,2.895913600921631
1772650625489811200,5.282811279296875,2.3431715965270996,-1.8921245336532593,2.263011932373047
1772650625499675000,5.2926748046875,2.589632272720337,-2.2325034141540527,0.1824527233839035
1772650625509566200,5.302566162109375,1.9692929983139038,-2.3330020904541016,-1.3561322689056396
1772650625519443700,5.312443603515625,1.2634103298187256,-1.4709876775741577,-1.4997016191482544
1772650625529307400,5.322307373046875,0.5264210104942322,-0.41096729040145874,-0.8691928386688232
1772650625539198500,5.332198486328125,-0.22552353143692017,0.30568310618400574,-0.22851456701755524
1772650625549076000,5.342075927734375,-0.8309076428413391,0.7962117195129395,0.23629122972488403
1772650625558939600,5.351939697265625,-1.2376874685287476,1.184447169303894,0.7884350419044495
1772650625568831000,5.3618310546875,-1.4177473783493042,1.657029628753662,1.4662020206451416
1772650625578708500,5.37170849609375,-1.4877375364303589,1.8693926334381104,1.726421594619751
1772650625588585700,5.381585693359375,-1.4829518795013428,1.6683956384658813,1.1635099649429321
1772650625598463200,5.391463134765625,-1.0929217338562012,1.2197413444519043,0.4899304509162903
1772650625608340700,5.4013408203125,-0.17168502509593964,0.8721838593482971,0.4181457459926605
1772650625618204400,5.411204345703125,1.272383451461792,0.46002015471458435,0.36251261830329895
1772650625628095700,5.421095703125,2.417947292327881,-0.12442677468061447,-0.04546362906694412
1772650625637973000,5.430972900390625,2.5046870708465576,-0.989432156085968,-0.47796630859375
1772650625647836700,5.440836669921875,1.6618152856826782,-1.430309772491455,0.12801600992679596
1772650625657728000,5.45072802734375,0.9696913957595825,-1.6839489936828613,1.0911271572113037
1772650625667605500,5.46060546875,0.6496513485908508,-2.5902304649353027,1.7473586797714233
1772650625677469200,5.47046923828125,0.9529415965080261,-4.015156269073486,2.5178475379943848
1772650625687360300,5.4803603515625,2.682354211807251,-5.002195835113525,3.1818559169769287
1772650625697237800,5.49023779296875,6.043671607971191,-6.1435723304748535,3.500101327896118
1772650625707101400,5.500101318359375,10.73001480102539,-7.936992645263672,3.47019100189209
1772650625716992800,5.50999267578125,14.58066463470459,-10.612168312072754,4.326223373413086
1772650625726870300,5.519870361328125,16.83709716796875,-14.31625747680664,4.782055854797363
1772650625736733700,5.529733642578125,19.389041900634766,-17.17268943786621,3.9086756706237793
1772650625746625000,5.539625,23.815166473388672,-17.308483123779297,2.3395824432373047
1772650625756502500,5.54950244140625,27.5294246673584,-16.23948860168457,0.9068797826766968
1772650625766366200,5.5593662109375,28.875986099243164,-14.831911087036133,-1.9172492027282715
1772650625776257300,5.56925732421875,25.06003189086914,-13.481163024902344,-5.138586521148682
1772650625786134800,5.579134765625,18.5838565826416,-12.130414009094238,-6.802794933319092
1772650625795998500,5.58899853515625,13.231112480163574,-10.563714027404785,-6.0125651359558105
1772650625805889800,5.598889892578125,11.255239486694336,-8.36411190032959,-2.148754835128784
1772650625815767300,5.608767333984375,13.141980171203613,-5.755934715270996,2.833700180053711
1772650625825631000,5.618630859375,16.866409301757812,-4.64805793762207,6.070590972900391
1772650625835522000,5.62852197265625,20.390438079833984,-5.2283172607421875,6.565905570983887
1772650625845399600,5.638399658203125,21.40260124206543,-7.213762283325195,4.335196495056152
1772650625855263200,5.64826318359375,20.470598220825195,-9.484550476074219,0.914058268070221
1772650625865154300,5.658154296875,18.66880226135254,-10.85444164276123,-1.2789636850357056
1772650625875031800,5.66803173828125,15.848262786865234,-11.754142761230469,-3.277568817138672
1772650625884895500,5.6778955078125,12.580862998962402,-12.589238166809082,-5.582455158233643
1772650625894786800,5.687786865234375,10.089935302734375,-12.784253120422363,-7.043871879577637
1772650625904664300,5.697664306640625,7.6151580810546875,-11.995818138122559,-6.687341213226318
1772650625914528000,5.707528076171875,4.864010334014893,-10.013364791870117,-4.5547380447387695
1772650625924419000,5.717419189453125,2.3222343921661377,-7.605587005615234,-1.5702898502349854
1772650625934296600,5.727296630859375,-0.18783657252788544,-5.4179487228393555,0.9451649188995361
1772650625944160300,5.73716015625,-1.5649060010910034,-3.733999729156494,1.7168502807617188
1772650625954051600,5.747051513671875,-2.788236618041992,-2.3186452388763428,4.887938499450684
1772650625963928800,5.7569287109375,-3.631108283996582,-0.5084748268127441,6.719644069671631
1772650625973792500,5.76679248046875,-4.442275047302246,0.5581258535385132,5.827719688415527
1772650625983683800,5.776683837890625,-4.575077056884766,0.7471588850021362,3.8841493129730225
1772650625993561300,5.786561279296875,-4.06839656829834,0.5222335457801819,2.026122570037842
1772650626003425000,5.796425048828125,-3.2476584911346436,0.3284149169921875,0.8691928386688232
1772650626013316000,5.806316162109375,-2.0931215286254883,0.45224347710609436,0.41575294733047485
1772650626023193600,5.816193603515625,-1.211964726448059,1.0342975854873657,0.3278166949748993
1772650626033057300,5.826057373046875,-1.0636097192764282,1.5978072881698608,0.32123643159866333
1772650626042948600,5.835948486328125,-1.7395820617675781,2.1230318546295166,0.38763725757598877
1772650626052826000,5.845826171875,-2.4125633239746094,2.5908286571502686,0.4259224236011505
1772650626062689800,5.855689697265625,-2.7804598808288574,3.1627132892608643,0.5120640397071838
1772650626072580900,5.865580810546875,-3.2267212867736816,2.5770699977874756,0.28594231605529785
1772650626082458400,5.875458251953125,-3.0376882553100586,2.1170499324798584,-0.2961117923259735
1772650626092335900,5.8853359375,-2.674577474594116,2.2785654067993164,-0.25363919138908386
1772650626102213000,5.895213134765625,-2.7984061241149902,2.1672990322113037,0.16031911969184875
1772650626112090600,5.905090576171875,-2.2570300102233887,2.276770830154419,0.97148597240448
1772650626121954300,5.914954345703125,-2.093719720840454,0.4450650215148926,0.12741780281066895
1772650626131845600,5.924845703125,-2.1098713874816895,-1.4632110595703125,-1.8711873292922974
1772650626141723100,5.93472314453125,-0.7417750358581543,-3.7471601963043213,-3.3517463207244873
1772650626151586600,5.944586669921875,3.08135724067688,-5.648856163024902,-4.392624378204346
1772650626161478000,5.954477783203125,7.764111042022705,-6.8279194831848145,-2.022533416748047
1772650626171355400,5.96435546875,12.110673904418945,-8.224729537963867,-0.04666004329919815
1772650626181219000,5.974218994140625,16.01875114440918,-9.613762855529785,-1.7270197868347168
1772650626191110100,5.984110107421875,17.08355712890625,-12.762718200683594,-4.189234256744385
1772650626200987600,5.993987548828125,16.924434661865234,-16.211971282958984,-3.6502509117126465
1772650626210851300,6.003851318359375,17.832509994506836,-19.551753997802734,-1.7252250909805298
1772650626220742700,6.01374267578125,22.877178192138672,-20.48615074157715,3.218944549560547
1772650626230620200,6.0236201171875,31.091739654541016,-14.276178359985352,7.438089370727539
1772650626240483600,6.033483642578125,28.172494888305664,-12.503096580505371,3.029911756515503
1772650626250375000,6.043375,16.55713653564453,-19.986648559570312,-2.848057270050049
1772650626260252400,6.05325244140625,9.647860527038574,-19.345970153808594,-6.320042610168457
1772650626270116000,6.0631162109375,8.123632431030273,-12.754343032836914,-4.603790760040283
1772650626280007200,6.073007080078125,10.768898010253906,-16.394424438476562,-4.342973232269287
1772650626289884700,6.082884765625,13.94955825805664,-15.746567726135254,-4.713860511779785
1772650626299748400,6.092748291015625,16.78864097595215,-15.199807167053223,-5.304289817810059
1772650626309639700,6.1026396484375,18.573089599609375,-16.99143409729004,-5.050052165985107
1772650626319517000,6.112516845703125,15.899109840393066,-16.512269973754883,-3.4743785858154297
1772650626329380600,6.122380615234375,11.774481773376465,-15.253047943115234,-1.6037893295288086
1772650626339272000,6.13227197265625,9.751948356628418,-14.589637756347656,0.5629115104675293
1772650626349149400,6.1421494140625,9.984650611877441,-14.274981498718262,1.953141450881958
1772650626359013000,6.15201318359375,11.985648155212402,-14.090734481811523,2.0171494483947754
1772650626368904200,6.161904296875,13.845470428466797,-13.596017837524414,1.3357932567596436
1772650626378781700,6.17178173828125,14.198410987854004,-12.227323532104492,1.4087743759155273
1772650626388645400,6.181645263671875,13.308879852294922,-9.711270332336426,2.71645188331604
1772650626398536700,6.19153662109375,10.29751205444336,-7.194021224975586,3.744767427444458
1772650626408414000,6.2014140625,6.270989894866943,-5.3347978591918945,2.919243574142456
1772650626418277600,6.211277587890625,2.654836654663086,-4.7958149909973145,1.5379867553710938
1772650626428169000,6.2211689453125,-0.03469592705368996,-4.569094657897949,0.5736792087554932
1772650626438046500,6.23104638671875,-1.7336000204086304,-3.930211305618286,-1.0396814346313477
1772650626447910100,6.24091015625,-1.6929219961166382,-3.277568817138672,-2.1924238204956055
1772650626457801200,6.25080126953125,0.31046873331069946,-2.5770699977874756,-2.609971284866333
1772650626467678700,6.2606787109375,2.9826533794403076,-1.6947166919708252,-2.1786649227142334
1772650626477542400,6.27054248046875,4.657031059265137,-0.8877372145652771,-1.2089736461639404
1772650626487433700,6.280433837890625,4.628915309906006,0.09511470049619675,-0.15134602785110474
1772650626497311000,6.29031103515625,3.2177481651306152,0.6747759580612183,0.11485548317432404
1772650626507174700,6.300174560546875,1.3022937774658203,1.1126625537872314,0.013160524889826775
1772650626517066000,6.31006591796875,-0.2111666053533554,1.7198412418365479,0.47916272282600403
1772650626526943500,6.319943603515625,-0.9002995491027832,2.1924238204956055,1.067797064781189
1772650626536807200,6.32980712890625,-1.3184453248977661,2.407179594039917,1.2843475341796875
1772650626546698200,6.3396982421875,-1.1270195245742798,2.6249263286590576,0.9619147181510925
1772650626556575700,6.34957568359375,-0.5635097622871399,2.352144718170166,0.15972091257572174
1772650626566439400,6.359439453125,0.21655045449733734,1.7569299936294556,-0.7980063557624817
1772650626576330500,6.36933056640625,0.7914260625839233,0.9601200819015503,-1.5780665874481201
1772650626586208000,6.3792080078125,0.851844847202301,0.1585244983434677,-1.85383939743042
1772650626596085500,6.38908544921875,0.8859425783157349,-0.3068794906139374,-1.1222338676452637
1772650626605963000,6.398962890625,0.5706881880760193,-0.4426721930503845,-0.18065811693668365
1772650626615840500,6.408840576171875,-0.2805584669113159,-0.7645068168640137,0.16390834748744965
1772650626625704200,6.4187041015625,-1.231107234954834,-1.342971682548523,-0.10767702013254166
1772650626635595300,6.42859521484375,-2.599801778793335,-1.5571293830871582,-0.47198426723480225
1772650626645472800,6.43847265625,-3.9433717727661133,-2.523829698562622,-0.7836494445800781
1772650626655336400,6.44833642578125,-4.249054908752441,-4.5206403732299805,-0.18783657252788544
1772650626665227500,6.4582275390625,-3.1178479194641113,-6.601797580718994,1.5014961957931519
1772650626675105000,6.46810498046875,1.2352946996688843,-7.338787078857422,4.660022258758545
1772650626684968700,6.47796875,7.393223762512207,-8.255836486816406,7.186244487762451
1772650626694860000,6.487860107421875,14.978471755981445,-9.023334503173828,9.060422897338867
1772650626704737300,6.4977373046875,22.132413864135742,-9.850652694702148,8.508278846740723
1772650626714601000,6.50760107421875,24.82553482055664,-10.615757942199707,5.746363639831543
1772650626724492300,6.5174921875,20.26900291442871,-12.720245361328125,4.169493675231934
1772650626734369800,6.527369873046875,15.87159252166748,-20.456241607666016,-0.98703932762146
1772650626744233500,6.5372333984375,15.51506233215332,-19.801204681396484,-0.9493523836135864
1772650626754124500,6.54712451171875,17.79302978515625,-19.045074462890625,1.9866410493850708
1772650626764002000,6.557001953125,20.74158477783203,-17.45564079284668,2.1379871368408203
1772650626773865700,6.56686572265625,21.79741859436035,-17.068004608154297,-2.7260231971740723
1772650626783756800,6.5767568359375,19.557735443115234,-17.70389747619629,-8.105687141418457
1772650626793634300,6.58663427734375,17.119449615478516,-17.27857208251953,-9.664012908935547
1772650626803498000,6.596498046875,15.567704200744629,-14.180464744567871,-7.018746852874756
1772650626813389300,6.606389404296875,14.526825904846191,-10.948958396911621,-1.7868403196334839
1772650626823266800,6.616266845703125,13.717453956604004,-8.649456024169922,2.6081767082214355
1772650626833130500,6.626130615234375,12.935599327087402,-7.898707389831543,4.131208419799805
1772650626843021600,6.636021484375,11.9192476272583,-8.404191017150879,3.510869026184082
1772650626852899000,6.645899169921875,11.387442588806152,-9.159127235412598,2.0644078254699707
1772650626862762800,6.6557626953125,11.56989574432373,-9.476176261901855,0.49710890650749207
1772650626872654000,6.665654052734375,11.09492015838623,-5.519045352935791,1.947757601737976
1772650626882531300,6.67553125,9.128020286560059,-10.716854095458984,-0.09631111472845078
1772650626892395000,6.68539501953125,7.712665557861328,-12.410374641418457,-6.655037879943848
1772650626902286300,6.695286376953125,6.470790863037109,-8.368897438049316,-5.0638108253479
1772650626912163600,6.70516357421875,4.847260475158691,-7.980661869049072,-2.1619153022766113
1772650626922027300,6.71502734375,2.475374937057495,-5.608776092529297,-0.890728235244751
1772650626931918600,6.724918701171875,-0.11724831163883209,-4.396213531494141,0.2715853750705719
1772650626941796000,6.734796142578125,-2.069791555404663,-3.373879909515381,0.3613162338733673
1772650626951659800,6.74465966796875,-2.905484914779663,-2.6183462142944336,-0.3361915946006775
1772650626961550800,6.75455078125,-2.2396819591522217,-1.7168502807617188,-0.9248259663581848
1772650626971428400,6.764428466796875,-1.262213945388794,-1.0265209674835205,-1.948355793952942
1772650626981292000,6.7742919921875,-0.7310073375701904,-0.39840495586395264,-2.575873613357544
1772650626991183000,6.78418310546875,-0.9571290612220764,0.363709032535553,-1.8945173025131226
1772650627001060600,6.794060546875,-1.526620864868164,1.2592228651046753,-0.259621262550354
1772650627010924300,6.80392431640625,-2.352144718170166,2.1708884239196777,1.3591232299804688
1772650627020815600,6.813815673828125,-3.090928554534912,2.9772696495056152,2.507079839706421
1772650627030693000,6.823693115234375,-3.415156126022339,3.4642090797424316,3.1136605739593506
1772650627040556500,6.833556640625,-3.4103705883026123,3.4546377658843994,2.89890456199646
1772650627050448000,6.84344775390625,-3.0562326908111572,2.9066812992095947,2.0380866527557373
1772650627060325400,6.853325439453125,-2.4287149906158447,2.104487419128418,1.1958130598068237
1772650627070203000,6.863202880859375,-1.8681962490081787,1.5098711252212524,0.372682124376297
1772650627080080100,6.873080078125,-1.2424731254577637,0.6299105882644653,-0.3517449200153351
1772650627089957600,6.88295751953125,-0.5162515044212341,-0.1866401731967926,-0.9798609018325806
1772650627099821300,6.8928212890625,0.19800607860088348,-1.1264212131500244,-1.77607262134552
1772650627109712400,6.90271240234375,0.8841479420661926,-2.4095723628997803,-3.0478577613830566
1772650627119590000,6.91258984375,1.3387842178344727,-4.509274482727051,-5.07218599319458
1772650627129453600,6.92245361328125,1.4883357286453247,-6.270391941070557,-5.748756408691406
1772650627139345000,6.932344970703125,2.2845473289489746,-7.646862983703613,-3.964308977127075
1772650627149222400,6.942222412109375,4.300500392913818,-7.998608112335205,0.7094719409942627
1772650627159085800,6.9520859375,7.23589563369751,-8.091927528381348,4.611567497253418
1772650627168977200,6.96197705078125,10.929217338562012,-9.839884757995605,4.9639105796813965
1772650627178854700,6.971854736328125,15.952948570251465,-14.23550033569336,4.53200626373291
1772650627188718300,6.98171826171875,21.386449813842773,-17.044673919677734,4.511667251586914
1772650627198609400,6.991609375,24.216562271118164,-18.104694366455078,6.120840549468994
1772650627208487000,7.00148681640625,27.477380752563477,-22.387845993041992,1.3363914489746094
1772650627218350600,7.0113505859375,20.782262802124023,-15.687943458557129,-6.298507213592529
1772650627228241700,7.02124169921875,10.740782737731934,-18.212968826293945,-11.355737686157227
1772650627238119200,7.031119140625,5.30847692489624,-16.443477630615234,-9.19980525970459
1772650627247982800,7.04098291015625,-0.8811569213867188,-20.126628875732422,-7.256833076477051
1772650627257874200,7.050874267578125,8.434700012207031,-22.53321075439453,-12.754343032836914
1772650627267751700,7.060751708984375,15.996617317199707,-20.48016929626465,-12.305688858032227
1772650627277615000,7.070614990234375,20.95514488220215,-19.143178939819336,-8.758927345275879
1772650627287506400,7.08050634765625,19.992631912231445,-18.212968826293945,-6.4079790115356445
1772650627297384000,7.090384033203125,13.450654029846191,-17.778074264526367,-5.410770416259766
1772650627307247600,7.10024755859375,7.865208148956299,-17.08355712890625,-3.920041799545288
1772650627317138700,7.110138671875,5.402993679046631,-15.738192558288574,-1.9280169010162354
1772650627327016200,7.12001611328125,5.496313571929932,-14.659029960632324,-0.5617151260375977
1772650627336879900,7.1298798828125,7.444669246673584,-14.334203720092773,-0.3032902777194977
1772650627346771000,7.13977099609375,9.795019149780273,-13.773685455322266,-0.2392822653055191
1772650627356648400,7.1496484375,11.557931900024414,-12.366106986999512,0.6023930907249451
1772650627366512000,7.15951220703125,11.95872974395752,-10.342377662658691,2.1003000736236572
1772650627376403500,7.169403564453125,10.352546691894531,-7.923832416534424,3.4618160724639893
1772650627386280700,7.17928076171875,7.238288402557373,-6.009573936462402,4.121038913726807
1772650627396144400,7.189144287109375,3.6699917316436768,-4.639084815979004,3.34576416015625
1772650627406035700,7.19903564453125,0.4618147611618042,-4.28734016418457,1.1910275220870972
1772650627415913200,7.208913330078125,-1.7832510471343994,-3.930211305618286,-0.7968099117279053
1772650627425777000,7.21877685546875,-3.4331023693084717,-3.3170504570007324,-1.8951154947280884
1772650627435668000,7.22866796875,-3.8111681938171387,-2.4879374504089355,-1.8759729862213135
1772650627445545500,7.23854541015625,-1.9722840785980225,-1.4171491861343384,-0.5946164131164551
1772650627455409200,7.2484091796875,1.072582721710205,-0.016749758273363113,1.2335001230239868
1772650627465300200,7.25830029296875,3.2099716663360596,1.0121639966964722,2.5226333141326904
1772650627475177700,7.268177734375,3.601198196411133,1.2915260791778564,2.6350958347320557
1772650627485041400,7.27804150390625,2.788236618041992,1.2340983152389526,1.9645073413848877
1772650627494932500,7.287932373046875,1.456032633781433,1.155135154724121,0.9553344249725342
1772650627504810000,7.29781005859375,0.6161518096923828,1.2137593030929565,0.11186445504426956
1772650627514673700,7.307673583984375,0.4169493317604065,1.059422254562378,-0.9936196208000183
1772650627524565000,7.31756494140625,1.3094722032546997,0.7256234884262085,-2.376072883605957
1772650627534442500,7.3274423828125,2.791825771331787,0.2715853750705719,-3.7776687145233154
1772650627544306000,7.337305908203125,3.589832067489624,0.005982056725770235,-4.440480709075928
1772650627554197200,7.347197265625,3.0789644718170166,0.2554338276386261,-3.8668015003204346
1772650627564074800,7.35707470703125,1.4362918138504028,0.6741777658462524,-2.306680917739868
1772650627573938400,7.3669384765625,-0.3900300860404968,1.1084750890731812,-0.5168496966362
1772650627583829500,7.37682958984375,-1.6103696823120117,0.9655039310455322,0.4707878530025482
1772650627593707000,7.38670703125,-1.9471594095230103,0.33798620104789734,0.6137589812278748
1772650627603570700,7.39657080078125,-2.097907304763794,-0.6251249313354492,0.4695914387702942
1772650627613461800,7.406461669921875,-2.169093608856201,-1.9100706577301025,0.5826523303985596
1772650627623339300,7.41633935546875,-2.1684954166412354,-3.06999135017395,1.0618150234222412
1772650627633203000,7.426202880859375,-1.542174220085144,-4.073780536651611,1.6366907358169556
1772650627643094300,7.43609423828125,0.4713860750198364,-5.2731828689575195,1.8634105920791626
1772650627652971500,7.445971435546875,4.048057556152344,-6.698108673095703,1.3519448041915894
1772650627662835200,7.455835205078125,9.119645118713379,-8.550751686096191,0.16749759018421173
1772650627672726500,7.4657265625,15.220745086669922,-10.825727462768555,-1.9692929983139038
1772650627682603800,7.475603759765625,20.062023162841797,-11.948559761047363,-3.329014539718628
1772650627692467700,7.4854677734375,20.36591148376465,-13.201202392578125,-1.8903298377990723
1772650627702358800,7.49535888671875,17.151752471923828,-14.252847671508789,1.425524115562439
1772650627712236300,7.505236328125,16.290935516357422,-14.43350601196289,4.9740800857543945
1772650627722100000,7.515099853515625,18.317655563354492,-14.367105484008789,7.426723480224609
1772650627731991000,7.524990966796875,21.541385650634766,-14.00220012664795,6.103492259979248
1772650627741868500,7.53486865234375,21.671794891357422,-13.823336601257324,0.17946170270442963
1772650627751732200,7.544732177734375,16.80898094177246,-14.575879096984863,-6.9720869064331055
1772650627761623300,7.554623291015625,10.442875862121582,-13.99681568145752,-10.308877944946289
1772650627771500800,7.564500732421875,6.954140663146973,-12.613764762878418,-9.54496955871582
1772650627781364500,7.574364501953125,8.177471160888672,-10.419546127319336,-4.920839786529541
1772650627791255600,7.584255615234375,13.693525314331055,-9.187840461730957,0.10229317098855972
1772650627801133000,7.594133056640625,19.875980377197266,-8.846264839172363,3.0544381141662598
1772650627810996700,7.603996826171875,23.496322631835938,-8.902496337890625,3.789632797241211
1772650627820888000,7.61388818359375,22.69053840637207,-9.920642852783203,2.3712873458862305
1772650627830765300,7.623765380859375,19.014564514160156,-11.22353458404541,-0.8261220455169678
1772650627840629000,7.63362890625,14.953347206115723,-12.299108505249023,-4.257429599761963
1772650627850520300,7.643520263671875,12.282957077026367,-12.845868110656738,-6.846463680267334
1772650627860397800,7.653397705078125,10.153345108032227,-12.775877952575684,-7.6869425773620605
1772650627870261500,7.663261474609375,9.114859580993652,-11.316854476928711,-6.893123626708984
1772650627880152600,7.673152587890625,7.646862983703613,-9.751948356628418,-4.97348165512085
1772650627890030000,7.683030029296875,6.545566558837891,-7.548159122467041,-2.528017044067383
1772650627899893800,7.692893798828125,5.153541564941406,-5.723033428192139,-0.6753742098808289
1772650627909784800,7.702784912109375,3.294916868209839,-4.798207759857178,0.003589233849197626
1772650627919662300,7.712662353515625,1.9507486820220947,-4.2454657554626465,0.5084748268127441
1772650627929526000,7.722526123046875,0.8123632669448853,-3.6604204177856445,0.7513462901115417
1772650627939417000,7.7324169921875,-0.8231309652328491,-3.1998021602630615,0.9218349456787109
1772650627949294600,7.742294677734375,-2.3802602291107178,-2.702693223953247,0.851844847202301
1772650627959158300,7.752158203125,-3.2470602989196777,-2.5088746547698975,0.22133609652519226
1772650627969049600,7.762049560546875,-3.232105255126953,-2.3365912437438965,-0.6885347366333008
1772650627978926800,7.7719267578125,-2.241476535797119,-1.978864312171936,-1.3698909282684326
1772650627988790500,7.78179052734375,-1.2239288091659546,-1.7018951177597046,-2.272583246231079
1772650627998681900,7.791681884765625,-1.2023934125900269,-1.1778669357299805,-2.3712873458862305
1772650628008559000,7.80155908203125,-2.0303099155426025,-0.1381855010986328,-0.8009973764419556
1772650628018422800,7.8114228515625,-3.5401811599731445,1.4243277311325073,1.6360924243927002
1772650628028314000,7.821314208984375,-5.057828903198242,2.5220351219177246,4.082155227661133
1772650628038191600,7.831191650390625,-5.6590256690979,3.263810157775879,6.056832313537598
1772650628048055000,7.841054931640625,-5.229514122009277,3.497708559036255,6.692126750946045
1772650628057946400,7.8509462890625,-4.445266246795654,3.0867412090301514,5.813961029052734
1772650628067823900,7.860823974609375,-3.101696252822876,1.9824535846710205,4.009174346923828
1772650628077687600,7.8706875,-1.3824533224105835,0.48035913705825806,1.334596872329712
1772650628087578600,7.88057861328125,0.6538388133049011,-0.9296116232872009,-1.322034478187561
1772650628097456000,7.8904560546875,2.2235305309295654,-1.8652052879333496,-3.2344980239868164
1772650628107319800,7.90031982421875,2.999403238296509,-3.215355396270752,-4.3549370765686035
1772650628117211000,7.9102109375,3.57906436920166,-4.956732273101807,-4.5828537940979
1772650628127088400,7.92008837890625,5.231308460235596,-6.2327046394348145,-2.7008986473083496
1772650628136952000,7.9299521484375,8.009973526000977,-7.568498134613037,-0.9152546525001526
1772650628146843100,7.939843017578125,11.835498809814453,-9.370293617248535,-0.2847459018230438
1772650628156720600,7.949720703125,15.069398880004883,-10.110274314880371,-0.8512466549873352
1772650628166584300,7.959584228515625,13.697712898254395,-11.651849746704102,-2.434098720550537
1772650628176475400,7.969475341796875,15.446866989135742,-10.065408706665039,-3.638286828994751
1772650628186353000,7.979352783203125,14.100305557250977,-12.020942687988281,-2.30069899559021
1772650628196216600,7.989216552734375,14.353944778442383,-11.825927734375,1.1802598237991333
1772650628206108000,7.99910791015625,16.40519142150879,-11.544173240661621,3.156731367111206
1772650628215985200,8.008985107421875,17.957534790039062,-11.761919975280762,2.4909284114837646
1772650628225862700,8.018862548828125,15.41934871673584,-10.62233829498291,0.11306086927652359
1772650628235740200,8.028740234375,8.464012145996094,-10.506884574890137,-3.6747772693634033
1772650628245617700,8.03861767578125,2.2648067474365234,-12.908679962158203,-7.527820110321045
1772650628255481000,8.048481201171874,1.6504493951797485,-13.106685638427734,-8.326424598693848
1772650628265372400,8.058372314453125,8.170292854309082,-12.366705894470215,-7.240681171417236
1772650628275250000,8.06825,17.543577194213867,-13.25862979888916,-5.889334678649902
1772650628285113600,8.078113525390625,24.39004135131836,-13.793426513671875,-5.127819061279297
1772650628295004700,8.088004638671874,24.239294052124023,-14.247464179992676,-5.160720348358154
1772650628304882200,8.097882080078126,18.197416305541992,-14.286945343017578,-5.935994625091553
1772650628314745900,8.107745849609374,10.603195190429688,-14.883955001831055,-6.776473522186279
1772650628324637000,8.117636962890625,5.628517150878906,-15.294323921203613,-7.351947784423828
1772650628334514400,8.127514404296875,4.296911239624023,-15.287145614624023,-6.8033928871154785
1772650628344378000,8.137378173828125,6.03948450088501,-15.500106811523438,-5.0327043533325195
1772650628354269200,8.147269287109374,9.624530792236328,-14.388042449951172,-2.1026928424835205
1772650628364146700,8.157146728515626,12.78903865814209,-13.371092796325684,0.3152543902397156
1772650628374010400,8.16701025390625,13.957334518432617,-12.381660461425781,1.301695466041565
1772650628383901400,8.1769013671875,13.119248390197754,-11.374282836914062,1.2418749332427979
1772650628393779000,8.186779052734375,11.078768730163574,-10.387243270874023,0.49351966381073
1772650628403642600,8.196642578125,8.913862228393555,-9.18006420135498,-0.18963119387626648
1772650628413534000,8.206533935546876,7.039684295654297,-7.894520282745361,-0.7034898400306702
1772650628423411200,8.2164111328125,5.330012321472168,-7.122236728668213,-1.3770694732666016
1772650628433275000,8.22627490234375,3.576073408126831,-6.52044153213501,-1.8574285507202148
1772650628443166200,8.236166259765625,1.7060825824737549,-5.970690727233887,-1.7826528549194336
1772650628453043500,8.24604345703125,0.4217349886894226,-5.106881618499756,-0.7334001660346985
1772650628462907100,8.2559072265625,0.12083754688501358,-3.996612071990967,0.5030909776687622
1772650628472798500,8.265798583984376,0.3116651475429535,-3.2416765689849854,1.073180913925171
1772650628482675700,8.27567578125,0.4821537733078003,-2.568096876144409,0.6370890140533447
1772650628492539400,8.285539306640626,0.6089733839035034,-2.2127628326416016,0.018544375896453857
1772650628502430700,8.2954306640625,0.7525427341461182,-1.6785650253295898,-0.06400800496339798
1772650628512308200,8.30530810546875,1.1120643615722656,-0.7423732280731201,0.38225340843200684
1772650628522171600,8.315171630859375,1.3884353637695312,0.355932354927063,1.2113664150238037
1772650628532063000,8.32506298828125,1.3130614757537842,1.2281162738800049,2.420340061187744
1772650628541940500,8.3349404296875,0.8428717851638794,1.9513468742370605,3.2105698585510254
1772650628551804200,8.34480419921875,0.5054838061332703,2.0506489276885986,2.939582586288452
1772650628561695200,8.3546953125,0.4899304509162903,1.954936146736145,1.9250258207321167
1772650628571572700,8.36457275390625,0.8763712644577026,1.6372889280319214,0.6903293132781982
1772650628581436400,8.3744365234375,1.2394821643829346,0.9320043921470642,-0.9146564602851868
1772650628591327500,8.384327392578125,1.5128620862960815,-0.08015955984592438,-2.6398816108703613
1772650628601205000,8.394205078125,1.8041882514953613,-1.2478569746017456,-4.144967079162598
1772650628611068700,8.404068603515626,2.1816561222076416,-2.0829520225524902,-4.566103935241699
1772650628620959700,8.413959716796874,2.221735715866089,-2.8516464233398438,-4.172484397888184
1772650628630837200,8.423837158203124,2.000998020172119,-3.4271202087402344,-3.387040376663208
1772650628640701000,8.433700927734375,2.100898265838623,-3.9212381839752197,-1.9052850008010864
1772650628650592000,8.443592041015625,2.9479575157165527,-4.707280158996582,-0.10049854964017868
1772650628660469500,8.453469482421875,4.820939540863037,-5.765506267547607,1.8137595653533936
1772650628670333200,8.463333251953125,6.966104984283447,-6.399604320526123,3.280559778213501
1772650628680224300,8.473224365234374,8.587242126464844,-7.297510623931885,3.566502094268799
1772650628690101800,8.483101806640626,8.275577545166016,-8.46461009979248,2.6123640537261963
1772650628699965400,8.49296533203125,6.096313953399658,-10.012765884399414,1.397408366203308
1772650628709856800,8.502856689453125,3.7405800819396973,-11.83609676361084,0.4953143000602722
1772650628719734000,8.512734130859375,3.2416765689849854,-13.59183120727539,0.6484549641609192
1772650628729597700,8.52259765625,7.112665176391602,-14.976078987121582,2.6111676692962646
1772650628739489000,8.532489013671874,14.81097412109375,-16.091732025146484,4.216751575469971
1772650628749366300,8.5423662109375,22.709680557250977,-16.88854217529297,3.8333017826080322
1772650628759230000,8.55222998046875,26.053651809692383,-16.58884048461914,1.3728820085525513
1772650628769121300,8.562121337890625,21.99781608581543,-15.701104164123535,-2.035095691680908
1772650628778998500,8.57199853515625,13.567902565002441,-14.740983963012695,-4.4273200035095215
1772650628788862200,8.5818623046875,6.713063716888428,-13.197014808654785,-4.929812908172607
1772650628798753500,8.59175341796875,4.051646709442139,-11.9132661819458,-3.812962770462036
1772650628808630800,8.601630859375,6.27996301651001,-11.263015747070312,-2.012363910675049
1772650628818494500,8.611494384765624,11.980264663696289,-11.57288646697998,-0.641276478767395
1772650628828385800,8.6213857421875,17.5675048828125,-12.615559577941895,-0.13938191533088684
1772650628838263300,8.63126318359375,20.783458709716797,-13.487743377685547,0.14117653667926788
1772650628848126700,8.641126708984375,20.016559600830078,-13.869996070861816,0.43130627274513245
1772650628858018000,8.65101806640625,15.55334758758545,-13.38724422454834,0.5479564070701599
1772650628867895600,8.6608955078125,10.721639633178711,-12.573086738586426,-0.025722842663526535
1772650628877759200,8.67075927734375,5.909075736999512,-12.5742826461792,-1.534995675086975
1772650628887650300,8.680650390625,2.943171739578247,-12.110673904418945,-2.7726831436157227
1772650628897527800,8.69052783203125,1.6007983684539795,-10.996216773986816,-2.7152554988861084
1772650628907391500,8.7003916015625,1.4033905267715454,-9.534201622009277,-1.6348960399627686
1772650628917282600,8.710282470703126,1.8915263414382935,-8.030312538146973,-0.2111666053533554
1772650628927160000,8.72016015625,2.8833513259887695,-6.431309223175049,1.2658032178878784
1772650628937023700,8.730023681640626,3.7986059188842773,-5.041677474975586,2.310868501663208
1772650628946914800,8.739914794921875,4.274777889251709,-3.9421753883361816,2.6261229515075684
1772650628956792300,8.749792236328124,4.144368648529053,-3.06999135017395,2.349153518676758
1772650628966656000,8.759656005859375,3.5096726417541504,-2.303689956665039,1.9022940397262573
1772650628976547000,8.769547119140626,2.644068956375122,-1.659422516822815,1.5038890838623047
1772650628986424600,8.779424560546875,1.8807586431503296,-1.0217353105545044,0.851844847202301
1772650628996288300,8.789288330078126,1.2490534782409668,-0.4899304509162903,-0.16869398951530457
1772650629006179300,8.799179443359375,0.859621524810791,-0.47198426723480225,-1.3968101739883423
1772650629016056800,8.809056884765624,0.7130611538887024,-0.45583271980285645,-2.213959217071533
1772650629025920500,8.81892041015625,0.5653043389320374,-0.04785645380616188,-2.1409780979156494
1772650629035811600,8.8288115234375,0.4169493317604065,0.4175475537776947,-1.2855439186096191
1772650629045689000,8.838689208984375,0.0933200865983963,1.158724308013916,0.062213387340307236
1772650629055552800,8.848552734375,-0.3439682424068451,1.8681962490081787,1.6295121908187866
1772650629065443800,8.85844384765625,-0.7782655358314514,2.282752752304077,2.8109683990478516
1772650629075321300,8.8683212890625,-1.0462616682052612,2.38983154296875,3.1250264644622803
1772650629085198800,8.87819873046875,-1.1288141012191772,1.9214365482330322,2.534597396850586
1772650629095076000,8.888076171875,-0.9343972206115723,0.7178468108177185,1.5212370157241821
1772650629104953600,8.89795361328125,-0.37148571014404297,-0.4534398913383484,0.8165507316589355
1772650629114817300,8.9078173828125,0.7292127013206482,-1.7533408403396606,0.12502498924732208
1772650629124708400,8.917708251953124,2.4053850173950195,-3.3098719120025635,-0.9469595551490784
1772650629134585900,8.9275859375,4.11625337600708,-4.942973613739014,-2.050050735473633
1772650629144449500,8.937449462890624,5.6590256690979,-6.549753665924072,-3.063411235809326
1772650629154340600,8.947340576171875,6.668796539306641,-7.9489569664001465,-3.8871402740478516
1772650629164218000,8.957218017578125,6.8033928871154785,-9.155537605285645,-4.940580368041992
1772650629174081800,8.967081787109375,6.219544410705566,-10.331609725952148,-5.707480430603027
1772650629183973000,8.97697314453125,5.821139335632324,-11.01595687866211,-4.445864677429199
1772650629193850400,8.986850341796876,6.692724704742432,-11.039287567138672,-0.20039889216423035
1772650629203714000,8.996714111328124,9.909276962280273,-11.548958778381348,6.812366008758545
1772650629213605400,9.00660546875,15.208182334899902,-11.342577934265137,12.473186492919922
1772650629223482600,9.016482666015625,19.81436538696289,-9.983454704284668,10.560124397277832
1772650629233346300,9.02634619140625,17.239089965820312,-10.919646263122559,3.7878382205963135
1772650629243237600,9.036237548828124,10.050453186035156,-13.50449275970459,-3.655036687850952
1772650629253115000,9.046114990234376,5.896512985229492,-15.409777641296387,-8.873783111572266
1772650629262978600,9.055978515625,6.374479293823242,-15.128621101379395,-10.864012718200684
1772650629272870000,9.065869873046875,10.299904823303223,-14.489139556884766,-8.583054542541504
1772650629282747100,9.0757470703125,14.95095443725586,-12.832109451293945,-2.624328136444092
1772650629292610800,9.08561083984375,18.66282081604004,-11.22353458404541,2.8426733016967773
1772650629302502100,9.095502197265626,18.491134643554688,-10.200602531433105,4.193421840667725
1772650629312379400,9.10537939453125,13.200604438781738,-10.811968803405762,2.6057839393615723
1772650629322243000,9.1152431640625,6.85962438583374,-11.959327697753906,0.06580262631177902
1772650629332134400,9.125134521484375,3.1334011554718018,-12.819547653198242,-2.1517457962036133
1772650629342011600,9.13501171875,2.3024935722351074,-13.475778579711914,-3.3690943717956543
1772650629351875300,9.144875244140625,4.250251293182373,-14.00818157196045,-2.93001127243042
1772650629361766700,9.1547666015625,8.400602340698242,-14.402399063110352,-1.5690934658050537
1772650629371644000,9.164643798828125,12.774084091186523,-14.553147315979004,-0.32602208852767944
1772650629381507600,9.174507568359376,15.598212242126465,-14.434103965759277,0.5682953596115112
1772650629391399000,9.18439892578125,15.739389419555664,-13.735998153686523,1.194616675376892
1772650629401276200,9.194276123046874,13.700704574584961,-12.643674850463867,1.469791293144226
1772650629411139800,9.204139892578125,10.526026725769043,-11.4921293258667,1.155135154724121
1772650629421031200,9.21403125,7.41834831237793,-10.65105152130127,0.4624129831790924
1772650629430908400,9.223908447265625,5.102096080780029,-9.768698692321777,0.11665010452270508
1772650629440772000,9.233772216796876,3.6849467754364014,-8.98385238647461,0.15194423496723175
1772650629450663400,9.243663330078125,2.9790642261505127,-8.577073097229004,0.11485548317432404
1772650629460540700,9.253540771484374,3.0173492431640625,-8.177471160888672,-0.04187439754605293
1772650629470404400,9.263404296875,3.4121651649475098,-8.006982803344727,-0.3529413342475891
1772650629480295700,9.273295654296875,3.8470606803894043,-7.529614448547363,-0.4713860750198364
1772650629490173200,9.283173095703125,3.792025566101074,-6.656832695007324,-0.2225325107574463
1772650629500036600,9.29303662109375,3.222533941268921,-5.739185333251953,0.14656038582324982
1772650629509928000,9.302927978515624,2.82951283454895,-4.72881555557251,0.49292147159576416
1772650629519805200,9.31280517578125,2.6183462142944336,-3.7489547729492188,0.7244270443916321
1772650629529668900,9.3226689453125,2.3808584213256836,-2.9527430534362793,0.7483552694320679
1772650629539560200,9.332560302734375,2.5848467350006104,-2.1200408935546875,0.5030909776687622
1772650629549437400,9.3424375,2.7284159660339355,-1.1539387702941895,0.44027936458587646
1772650629559301000,9.352301025390625,2.7224340438842773,-0.0933200865983963,0.8512466549873352
1772650629569192400,9.3621923828125,2.0578274726867676,0.722034215927124,1.0791629552841187
1772650629579070000,9.372070068359376,1.0863415002822876,1.1940184831619263,1.4446666240692139
1772650629588933400,9.381933349609374,0.8662018179893494,1.511067509651184,1.4662020206451416
1772650629598824700,9.39182470703125,1.2400803565979004,1.368694543838501,0.6777670383453369
1772650629608702000,9.401701904296875,1.6636099815368652,0.9343972206115723,-0.039481572806835175
1772650629618579500,9.411579345703124,1.8490537405014038,0.28175488114356995,-0.5072783827781677
1772650629628457000,9.42145703125,1.7084753513336182,-0.7178468108177185,-1.2550355195999146
1772650629638334500,9.43133447265625,1.6175481081008911,-2.059622049331665,-2.0985054969787598
1772650629648198100,9.4411982421875,1.3663017749786377,-2.6703901290893555,-2.5561327934265137
1772650629658089200,9.451089111328125,0.828514814376831,-2.8731818199157715,-1.846660852432251
1772650629667966700,9.460966796875,0.48514479398727417,-3.305086374282837,-0.9421738982200623
1772650629677830100,9.470830078125,0.8434699773788452,-3.5497524738311768,-0.19322042167186737
1772650629687721500,9.480721435546876,1.7479569911956787,-4.233501434326172,0.5994020700454712
1772650629697599000,9.490598876953126,3.2931220531463623,-5.7517476081848145,0.8255237936973572
1772650629707462700,9.500462646484374,4.884349346160889,-7.500302791595459,1.2406785488128662
1772650629717353700,9.510353759765625,7.147959232330322,-9.271589279174805,2.239083766937256
1772650629727231200,9.520231201171875,9.591031074523926,-10.849656105041504,3.906881093978882
1772650629737095000,9.530094970703125,12.299108505249023,-12.415160179138184,5.287539958953857
1772650629746986000,9.539986083984376,15.108880043029785,-13.822139739990234,6.498906135559082
1772650629756863500,9.549863525390625,17.56451416015625,-14.764313697814941,7.293323516845703
1772650629766727000,9.559726806640626,18.08794403076172,-15.057435035705566,6.660421848297119
1772650629776618200,9.5696181640625,15.78545093536377,-14.724832534790039,4.859224796295166
1772650629786495700,9.579495849609375,11.742776870727539,-14.256437301635742,2.1918256282806396
1772650629796359200,9.589359130859375,7.517650604248047,-13.59362506866455,-0.44446679949760437
1772650629806250500,9.59925048828125,3.7986059188842773,-12.485748291015625,-1.9645073413848877
1772650629816128000,9.6091279296875,2.4951157569885254,-11.358729362487793,-1.795215129852295
1772650629825991700,9.61899169921875,3.4127633571624756,-10.597811698913574,-0.8913264274597168
1772650629835882800,9.6288828125,7.009175777435303,-10.463214874267578,0.3044866919517517
1772650629845760300,9.63876025390625,11.886346817016602,-10.546365737915039,1.7150555849075317
1772650629855623700,9.648623779296875,15.976278305053711,-10.649256706237793,3.0969107151031494
1772650629865515000,9.658514892578125,18.361923217773438,-10.869397163391113,3.900300979614258
1772650629875392500,9.668392578125,17.60997772216797,-11.182258605957031,3.410968780517578
1772650629885269800,9.678269775390625,14.206786155700684,-11.407781600952148,2.8277182579040527
1772650629895147300,9.688147216796875,10.643275260925293,-11.207383155822754,2.200200319290161
1772650629905024500,9.6980244140625,7.835896015167236,-11.338390350341797,1.3040883541107178
1772650629914888200,9.70788818359375,6.041877269744873,-11.22054386138916,0.08733802288770676
1772650629924779500,9.717779541015625,4.911866664886475,-10.996216773986816,-0.9595218896865845
1772650629934657000,9.727656982421875,4.036691665649414,-10.272387504577637,-1.5068800449371338
1772650629944520400,9.7375205078125,3.1411778926849365,-9.422337532043457,-1.8574285507202148
1772650629954411800,9.747411865234374,1.9226330518722534,-8.45743179321289,-1.469791293144226
1772650629964289300,9.757289306640626,2.1990039348602295,-7.696514129638672,0.1585244983434677
1772650629974152700,9.767152587890624,5.175076961517334,-6.920042991638184,0.6520441770553589
1772650629984044000,9.7770439453125,7.242475986480713,-5.917450428009033,1.2011969089508057
1772650629993921300,9.78692138671875,8.277970314025879,-4.944767951965332,3.019742250442505
1772650630003785000,9.796784912109375,8.133204460144043,-3.562912940979004,4.166502475738525
1772650630013676300,9.80667626953125,6.427121639251709,-2.8498518466949463,4.027718544006348
1772650630023553500,9.816553466796876,4.1760735511779785,-2.26959228515625,3.253042459487915
1772650630033417200,9.826417236328124,2.7415764331817627,-1.828116536140442,2.2989044189453125
