time,seconds_elapsed,z,y,x
1772651037566033200,0.204033203125,0.5306735634803772,-0.20738264918327332,-0.18966807425022125
1772651037575910700,0.21391064453125,0.5774033665657043,-0.18432316184043884,-0.0659715011715889
1772651037585788000,0.223787841796875,0.6215370893478394,-0.18371231853961945,0.03955236077308655
1772651037595665400,0.23366552734375,0.6762079000473022,-0.1979145109653473,0.12781979143619537
1772651037605543000,0.24354296875,0.7375980615615845,-0.23120568692684174,0.20157960057258606
1772651037615420200,0.253420166015625,0.7982246279716492,-0.2698417901992798,0.25441789627075195
1772651037625297700,0.263297607421875,0.848924994468689,-0.2999260127544403,0.2851129472255707
1772651037635175200,0.273175048828125,0.8874083757400513,-0.314586341381073,0.28694549202919006
1772651037645052400,0.283052490234375,0.9057337641716003,-0.31351736187934875,0.2710634768009186
1772651037654930000,0.292929931640625,0.9089407324790955,-0.2930539846420288,0.24586601555347443
1772651037664807200,0.30280712890625,0.9045121073722839,-0.24678228795528412,0.21853061020374298
1772651037674684700,0.3126845703125,0.8958075046539307,-0.19501298666000366,0.19195875525474548
1772651037684562000,0.32256201171875,0.8811471462249756,-0.15912571549415588,0.16783028841018677
1772651037694439400,0.332439453125,0.8608365058898926,-0.15393351018428802,0.14202198386192322
1772651037704317000,0.34231689453125,0.8333483934402466,-0.1751604527235031,0.11407572776079178
1772651037714194200,0.352194091796875,0.8011261820793152,-0.22280654311180115,0.0794101431965828
1772651037724071700,0.36207177734375,0.7647807598114014,-0.2901524603366852,0.031916771084070206
1772651037733949200,0.37194921875,0.7206470370292664,-0.376740038394928,-0.03008422814309597
1772651037743826400,0.381826416015625,0.6720846891403198,-0.4688252806663513,-0.09513945877552032
1772651037753704000,0.391703857421875,0.6247440576553345,-0.5375455617904663,-0.14690876007080078
1772651037763581200,0.401581298828125,0.5859552621841431,-0.5862606763839722,-0.18019993603229523
1772651037773458700,0.411458740234375,0.5520532131195068,-0.6239804625511169,-0.19654010236263275
1772651037783336000,0.4213359375,0.5224271416664124,-0.6514685750007629,-0.19333316385746002
1772651037793213400,0.43121337890625,0.4963133931159973,-0.6487197875976562,-0.1650814712047577
1772651037803091000,0.441091064453125,0.47386476397514343,-0.6090146899223328,-0.10323318839073181
1772651037812968200,0.45096826171875,0.4556920528411865,-0.548082709312439,-0.024433890357613564
1772651037822845700,0.460845703125,0.43797749280929565,-0.4853181540966034,0.051769305020570755
1772651037832723000,0.470722900390625,0.4202629029750824,-0.42637139558792114,0.11346487700939178
1772651037842600400,0.480600341796875,0.4017847776412964,-0.3703261613845825,0.14996300637722015
1772651037852478000,0.49047802734375,0.3787252902984619,-0.32665055990219116,0.15958385169506073
1772651037862355200,0.500355224609375,0.33504971861839294,-0.3092414140701294,0.13744063675403595
1772651037872232700,0.510232666015625,0.2608317732810974,-0.3161134421825409,0.08429691940546036
1772651037882110200,0.520110107421875,0.16737215220928192,-0.31351736187934875,0.010231691412627697
1772651037891987500,0.529987548828125,0.08918370306491852,-0.2586938142776489,-0.05864133685827255
1772651037901865000,0.539864990234375,0.046577103435993195,-0.17027367651462555,-0.09834641218185425
1772651037911742200,0.5497421875,0.032222192734479904,-0.07589777559041977,-0.09086353331804276
1772651037921619700,0.55961962890625,0.03894151374697685,0.027029991149902344,-0.038788799196481705
1772651037931497000,0.5694970703125,0.06490252166986465,0.13026317954063416,0.038636088371276855
1772651037941374500,0.57937451171875,0.10063708573579788,0.22127941250801086,0.11896250396966934
1772651037951252000,0.589251953125,0.12110047042369843,0.29977330565452576,0.17806197702884674
1772651037961129200,0.599129150390625,0.12018419802188873,0.353985995054245,0.1973036676645279
1772651037971006700,0.6090068359375,0.10262233763933182,0.3658975064754486,0.17088451981544495
1772651037980884000,0.618884033203125,0.07559234648942947,0.34253260493278503,0.10857810080051422
1772651037990761500,0.628761474609375,0.045355409383773804,0.29916244745254517,0.0261137206107378
1772651038000639000,0.638638916015625,0.021379653364419937,0.2295258641242981,-0.06490252166986465
1772651038010516200,0.64851611328125,0.007635590620338917,0.13545538485050201,-0.14171656966209412
1772651038020393700,0.658393798828125,0.013285927474498749,0.032222192734479904,-0.17302247881889343
1772651038030271000,0.66827099609375,0.04428642615675926,-0.05390727147459984,-0.14736689627170563
1772651038040148500,0.6781484375,0.10216420143842697,-0.08643488585948944,-0.059710320085287094
1772651038050026000,0.68802587890625,0.1850867122411728,-0.07498150318861008,0.08063183724880219
1772651038059903200,0.6979033203125,0.2832804024219513,-0.031000498682260513,0.2648022770881653
1772651038069780700,0.70778076171875,0.381474107503891,0.036039989441633224,0.4721849262714386
1772651038079658000,0.717657958984375,0.47142136096954346,0.125987246632576,0.6769714951515198
1772651038089521700,0.727521728515625,0.540905237197876,0.2223484069108963,0.8370134830474854
1772651038099413000,0.7374130859375,0.5864133834838867,0.31596073508262634,0.9278770089149475
1772651038109290200,0.747290283203125,0.6100836992263794,0.4005630910396576,0.9339854717254639
1772651038119154000,0.75715380859375,0.6064186096191406,0.46164780855178833,0.8643488883972168
1772651038129045000,0.767044921875,0.5821374654769897,0.46638187766075134,0.7430956959724426
1772651038138922500,0.776922607421875,0.5441122055053711,0.42606595158576965,0.6053496599197388
1772651038148786200,0.7867861328125,0.5027272701263428,0.35597124695777893,0.48073679208755493
1772651038158677200,0.79667724609375,0.4680617153644562,0.25808295607566833,0.37948885560035706
1772651038168554800,0.8065546875,0.4381301999092102,0.14202198386192322,0.3133646547794342
1772651038178432000,0.816431884765625,0.416597843170166,0.03145863488316536,0.28755635023117065
1772651038188309500,0.8263095703125,0.3930802047252655,-0.0587940476834774,0.28755635023117065
1772651038198186800,0.836186767578125,0.3649812340736389,-0.12171131372451782,0.29595550894737244
1772651038208064300,0.846064208984375,0.3367295563220978,-0.15484978258609772,0.2985515892505646
1772651038217941800,0.855941650390625,0.31229567527770996,-0.16065283119678497,0.2851129472255707
1772651038227819000,0.865819091796875,0.29290124773979187,-0.1560714691877365,0.2489202618598938
1772651038237696500,0.875696533203125,0.28068432211875916,-0.14278554916381836,0.18569757044315338
1772651038247574000,0.885573974609375,0.26816195249557495,-0.12659808993339539,0.1053711548447609
1772651038257451300,0.895451171875,0.24662958085536957,-0.12339114397764206,0.006719320081174374
1772651038267328800,0.905328857421875,0.22005772590637207,-0.1301104724407196,-0.09330692142248154
1772651038277206000,0.9152060546875,0.1889045089483261,-0.13805148005485535,-0.18340688943862915
1772651038287083500,0.92508349609375,0.16019469499588013,-0.14125843346118927,-0.25563958287239075
1772651038296960800,0.934960693359375,0.12995775043964386,-0.1585148572921753,-0.30695074796676636
1772651038306838300,0.94483837890625,0.09529217332601547,-0.1820324808359146,-0.3264978528022766
1772651038316715800,0.9547158203125,0.06001574173569679,-0.18142163753509521,-0.31168481707572937
1772651038326593000,0.964593017578125,0.028251685202121735,-0.15469707548618317,-0.2835858464241028
1772651038336470500,0.974470458984375,0.009009997360408306,-0.10674555599689484,-0.2654131352901459
1772651038346348000,0.98434814453125,0.012675080448389053,-0.04184303805232048,-0.26159533858299255
1772651038356225300,0.994225341796875,0.036039989441633224,0.043981000781059265,-0.2742704153060913
1772651038366102800,1.004102783203125,0.07207997888326645,0.13316470384597778,-0.3017585575580597
1772651038375980000,1.01397998046875,0.10964708030223846,0.19715094566345215,-0.33474430441856384
1772651038385857500,1.023857421875,0.150421142578125,0.25258535146713257,-0.3633013963699341
1772651038395734800,1.03373486328125,0.1948602795600891,0.3002314269542694,-0.37887802720069885
1772651038405612300,1.0436123046875,0.2373141646385193,0.3211529552936554,-0.38880428671836853
1772651038415489800,1.05348974609375,0.2721324563026428,0.30817243456840515,-0.3955236077308655
1772651038425367000,1.063366943359375,0.30160582065582275,0.2880144715309143,-0.39796698093414307
1772651038435244500,1.07324462890625,0.32726141810417175,0.2764083743095398,-0.4022429287433624
1772651038445122000,1.0831220703125,0.3524588644504547,0.26663482189178467,-0.4052971601486206
1772651038454999300,1.092999267578125,0.37704548239707947,0.24937839806079865,-0.41140562295913696
1772651038464876800,1.102876708984375,0.40667155385017395,0.20707722008228302,-0.41797223687171936
1772651038474754000,1.112754150390625,0.43583953380584717,0.14828316867351532,-0.423164427280426
1772651038484631600,1.122631591796875,0.48104220628738403,0.09376505762338638,-0.42850935459136963
1772651038494508800,1.1325087890625,0.5509842038154602,0.05344913527369499,-0.4277457892894745
1772651038504372500,1.14237255859375,0.6313106417655945,0.017714571207761765,-0.41110020875930786
1772651038514263800,1.152263916015625,0.710262656211853,-0.008704573847353458,-0.3649812340736389
1772651038524141000,1.16214111328125,0.774707019329071,0.024281177669763565,-0.28068432211875916
1772651038534004700,1.172004638671875,0.8168554902076721,0.11025793105363846,-0.16721943020820618
1772651038543895800,1.181895751953125,0.8217422962188721,0.22555534541606903,-0.05008947476744652
1772651038553773300,1.191773193359375,0.7899782061576843,0.3402419090270996,0.021837789565324783
1772651038563650600,1.201650634765625,0.7127060294151306,0.4349232614040375,0.012827792204916477
1772651038573528000,1.211528076171875,0.5792359113693237,0.5059342384338379,-0.08551861345767975
1772651038583405600,1.221405517578125,0.4017847776412964,0.5282301902770996,-0.24617144465446472
1772651038593282800,1.23128271484375,0.20997874438762665,0.4608842432498932,-0.4282039403915405
1772651038603160300,1.241160400390625,0.043828289955854416,0.26816195249557495,-0.5974085927009583
1772651038613037800,1.251037841796875,-0.0590994730591774,-0.01847812905907631,-0.6778877377510071
1772651038622901200,1.2609013671875,-0.06642963737249374,-0.32603973150253296,-0.6247440576553345
1772651038632792600,1.27079248046875,0.049020491540431976,-0.6239804625511169,-0.3975088596343994
1772651038642669800,1.280669921875,0.2686200737953186,-0.8289197087287903,-0.03130592033267021
1772651038652547300,1.29054736328125,0.44042086601257324,-0.749204158782959,0.43889376521110535
1772651038662424600,1.300424560546875,0.5102101564407349,-0.522885262966156,0.9287932515144348
1772651038672302000,1.310302001953125,0.5357130169868469,-0.35200074315071106,1.2484190464019775
1772651038682165800,1.320165771484375,0.5367820262908936,-0.17424418032169342,1.3658545017242432
1772651038692056800,1.330056884765625,0.4909684956073761,0.014965757727622986,1.300493836402893
1772651038701934300,1.339934326171875,0.4030064642429352,0.1901262104511261,1.090667724609375
1772651038711798000,1.349798095703125,0.29412296414375305,0.31565532088279724,0.7921161651611328
1772651038721689000,1.359689208984375,0.1951656937599182,0.3429907262325287,0.46042612195014954
1772651038731566300,1.36956640625,0.10705098509788513,0.26938363909721375,0.14813046157360077
1772651038741430000,1.379429931640625,0.022906772792339325,0.12323843687772751,-0.091321662068367
1772651038751321300,1.3893212890625,-0.055892523378133774,-0.06734590977430344,-0.23120568692684174
1772651038761198600,1.399198486328125,-0.1244601309299469,-0.2588465213775635,-0.26434415578842163
1772651038771076000,1.409076171875,-0.18814095854759216,-0.425607830286026,-0.2107423096895218
1772651038780953600,1.41895361328125,-0.2507528066635132,-0.532353401184082,-0.10277505218982697
1772651038790830800,1.428830810546875,-0.3038965165615082,-0.5525113344192505,0.011606098152697086
1772651038800708400,1.438708251953125,-0.3477247953414917,-0.48608171939849854,0.10201149433851242
1772651038810585600,1.448585693359375,-0.39140036702156067,-0.3465031087398529,0.1498102843761444
1772651038820463000,1.458463134765625,-0.44103172421455383,-0.15423893928527832,0.15118469297885895
1772651038830340400,1.46834033203125,-0.49417543411254883,0.060932014137506485,0.11575555801391602
1772651038840217900,1.4782177734375,-0.5344913601875305,0.251974493265152,0.055892523378133774
1772651038850095400,1.488095458984375,-0.5723638534545898,0.390942245721817,-0.00916270911693573
1772651038859972600,1.49797265625,-0.6067240238189697,0.46928340196609497,-0.06169557198882103
1772651038869850000,1.50785009765625,-0.6444438695907593,0.49020493030548096,-0.09361234307289124
1772651038879727400,1.517727294921875,-0.682774543762207,0.4647020399570465,-0.125987246632576
1772651038889604900,1.52760498046875,-0.716829240322113,0.4065188467502594,-0.18081079423427582
1772651038899482400,1.537482421875,-0.7482879161834717,0.35826191306114197,-0.25716668367385864
1772651038909359600,1.547359619140625,-0.7991409301757812,0.35948359966278076,-0.35765108466148376
1772651038919237000,1.557237060546875,-0.870151937007904,0.3955236077308655,-0.47111594676971436
1772651038929114400,1.5671142578125,-0.9451334476470947,0.48241662979125977,-0.569004237651825
1772651038938991900,1.576991943359375,-1.0037747621536255,0.6201626658439636,-0.6267293095588684
1772651038948869400,1.586869384765625,-1.02683424949646,0.7650861740112305,-0.6433748602867126
1772651038958746600,1.59674658203125,-0.9981244206428528,0.89764004945755,-0.6282563805580139
1772651038968624000,1.6066240234375,-0.9385668039321899,1.0101886987686157,-0.5993938446044922
1772651038978501400,1.61650146484375,-0.8594620823860168,1.0671501159667969,-0.5551074743270874
1772651038988379000,1.62637890625,-0.7650861740112305,1.035691499710083,-0.492495596408844
1772651038998256000,1.636256103515625,-0.682774543762207,0.9387195110321045,-0.4027010500431061
1772651039008133600,1.646133544921875,-0.6409314870834351,0.8304468393325806,-0.28312769532203674
1772651039018011100,1.65601123046875,-0.6516213417053223,0.737750768661499,-0.13973131775856018
1772651039027888400,1.665888427734375,-0.7070556879043579,0.6830799579620361,0.012216945178806782
1772651039037766000,1.675765869140625,-0.7986828088760376,0.6911736726760864,0.1447708010673523
1772651039047643100,1.68564306640625,-0.9034430980682373,0.7229377031326294,0.20341213047504425
1772651039057520600,1.695520751953125,-1.0421054363250732,0.7641699314117432,0.17836740612983704
1772651039067384300,1.70538427734375,-1.2881242036819458,0.7788302302360535,0.11972606182098389
1772651039077275400,1.715275390625,-1.5400986671447754,0.7653915882110596,0.047798797488212585
1772651039087153000,1.72515283203125,-1.7352643013000488,0.721716046333313,-0.05238015204668045
1772651039097030100,1.735030029296875,-1.8650693893432617,0.6562026739120483,-0.1817270666360855
1772651039106907600,1.74490771484375,-1.9406617879867554,0.6163448691368103,-0.28694549202919006
1772651039116785200,1.75478515625,-1.9739528894424438,0.6126797795295715,-0.33718767762184143
1772651039126648600,1.764648681640625,-1.978839635848999,0.6096255779266357,-0.3345915973186493
1772651039136540000,1.774539794921875,-1.9907512664794922,0.6699467301368713,-0.30130040645599365
1772651039146417200,1.784417236328125,-2.0214462280273438,0.7788302302360535,-0.26434415578842163
1772651039156280800,1.79428076171875,-2.051072359085083,0.8365553021430969,-0.24556060135364532
1772651039166172000,1.804171875,-2.050919771194458,0.8176190853118896,-0.24433889985084534
1772651039176049400,1.81404931640625,-1.9967069625854492,0.7667660117149353,-0.2435753494501114
1772651039185913000,1.8239130859375,-1.9038581848144531,0.7094991207122803,-0.23975755274295807
1772651039195804200,1.83380419921875,-1.7981816530227661,0.6479562520980835,-0.21746163070201874
1772651039205681700,1.843681640625,-1.71678626537323,0.6044333577156067,-0.17439688742160797
1772651039215559000,1.853558837890625,-1.6787610054016113,0.5882459282875061,-0.11117420345544815
1772651039225436400,1.8634365234375,-1.6527999639511108,0.6160394549369812,-0.042606595903635025
1772651039235314000,1.87331396484375,-1.6089717149734497,0.6730009913444519,0.007330167107284069
1772651039245191200,1.883191162109375,-1.5364335775375366,0.7380561828613281,0.015423892997205257
1772651039255068700,1.893068603515625,-1.4368654489517212,0.7797465324401855,-0.006413896102458239
1772651039264946000,1.90294580078125,-1.320804476737976,0.7918107509613037,-0.04169032722711563
1772651039274823400,1.912823486328125,-1.188708782196045,0.788451075553894,-0.08108997344970703
1772651039284700700,1.92270068359375,-1.0555440187454224,0.768140435218811,-0.15836215019226074
1772651039294578200,1.932578125,-0.978424608707428,0.7444701194763184,-0.31534990668296814
1772651039304455700,1.94245556640625,-0.9767447710037231,0.7432484030723572,-0.5341859459877014
1772651039314333000,1.9523330078125,-1.0208784341812134,0.7386670708656311,-0.7585195899009705
1772651039324210400,1.96221044921875,-1.0430216789245605,0.6858287453651428,-0.9255862832069397
1772651039334074000,1.97207421875,-1.00392746925354,0.5473191738128662,-0.9972081780433655
1772651039343965200,1.981965087890625,-0.8874083757400513,0.3512371778488159,-0.9588775038719177
1772651039353842700,1.9918427734375,-0.682774543762207,0.164165198802948,-0.8018897175788879
1772651039363706000,2.0017060546875,-0.4008685052394867,-0.007635590620338917,-0.5376983284950256
1772651039373597400,2.011597412109375,-0.09177979826927185,-0.20280128717422485,-0.23410721123218536
1772651039383474700,2.021474609375,0.1682884246110916,-0.3939964771270752,0.09712471067905426
1772651039393352200,2.031352294921875,0.38544461131095886,-0.5809157490730286,0.4220954477787018
1772651039403229700,2.041229736328125,0.6204680800437927,-0.8127322793006897,0.6444438695907593
1772651039413107000,2.05110693359375,0.8919897079467773,-1.0979979038238525,0.7266027927398682
1772651039422970600,2.060970703125,1.1334271430969238,-1.3246222734451294,0.6980457305908203
1772651039432861700,2.07086181640625,1.2543748617172241,-1.411668062210083,0.6204680800437927
1772651039442739200,2.0807392578125,1.2278029918670654,-1.372726559638977,0.4885250926017761
1772651039452603000,2.090602783203125,1.108229637145996,-1.2384928464889526,0.30404922366142273
1772651039462494000,2.100493896484375,0.9645278453826904,-1.040272831916809,0.08170082420110703
1772651039472371500,2.110371337890625,0.8357917666435242,-0.8089144825935364,-0.13087402284145355
1772651039482248700,2.120248779296875,0.7346965670585632,-0.6074876189231873,-0.27839362621307373
1772651039492126200,2.130126220703125,0.6786513328552246,-0.47142136096954346,-0.3177932798862457
1772651039502003500,2.14000341796875,0.6624638438224792,-0.4220954477787018,-0.2357870489358902
1772651039511881000,2.149880859375,0.6778877377510071,-0.4572191834449768,-0.04489727318286896
1772651039521758200,2.15975830078125,0.7207997441291809,-0.5398362874984741,0.22906772792339325
1772651039531635700,2.1696357421875,0.7908945083618164,-0.617719292640686,0.5328115224838257
1772651039541499400,2.17949951171875,0.8834378719329834,-0.6771242022514343,0.7808154821395874
1772651039551390500,2.189390380859375,0.9900307059288025,-0.7156075835227966,0.9292513728141785
1772651039561268000,2.19926806640625,1.0837957859039307,-0.7094991207122803,0.9787300229072571
1772651039571131600,2.209131591796875,1.1545013189315796,-0.6722373962402344,0.9477295279502869
1772651039581022700,2.219022705078125,1.2126845121383667,-0.6474980711936951,0.8628217577934265
1772651039590900200,2.228900146484375,1.2546802759170532,-0.6398624777793884,0.7751652002334595
1772651039600777500,2.238777587890625,1.2763653993606567,-0.6227588057518005,0.7099572420120239
1772651039610655000,2.248655029296875,1.282931923866272,-0.5767925381660461,0.6655181050300598
1772651039620532200,2.2585322265625,1.2856807708740234,-0.5288410186767578,0.6145123243331909
1772651039630409700,2.26840966796875,1.2951488494873047,-0.5112791657447815,0.5462501645088196
1772651039640287200,2.278287353515625,1.2840009927749634,-0.49142661690711975,0.4665345847606659
1772651039650164500,2.28816455078125,1.243990421295166,-0.4871506989002228,0.3658975064754486
1772651039660042000,2.2980419921875,1.1780189275741577,-0.5160132050514221,0.26006820797920227
1772651039669919200,2.307919189453125,1.0969289541244507,-0.5515950918197632,0.15927842259407043
1772651039679796700,2.317796630859375,1.0135482549667358,-0.6042806506156921,0.06520794332027435
1772651039689674200,2.32767431640625,0.9396358132362366,-0.6720846891403198,-0.020157959312200546
1772651039699551500,2.337551513671875,0.881605327129364,-0.7201889157295227,-0.09040539711713791
1772651039709429000,2.347428955078125,0.8507575392723083,-0.749204158782959,-0.16004198789596558
1772651039719306200,2.35730615234375,0.8454126119613647,-0.7771504521369934,-0.2426590770483017
1772651039729183700,2.367183837890625,0.870151937007904,-0.8264763355255127,-0.33260634541511536
1772651039739061000,2.37706103515625,0.9072608947753906,-0.8837432861328125,-0.41445985436439514
1772651039748938500,2.3869384765625,0.9433009028434753,-0.9345963001251221,-0.4712686538696289
1772651039758816000,2.39681591796875,0.964680552482605,-0.9654440879821777,-0.4969242513179779
1772651039768693200,2.406693359375,0.9738432168960571,-0.9463551044464111,-0.48608171939849854
1772651039778557000,2.416556884765625,0.9791881442070007,-0.8832851648330688,-0.4343124032020569
1772651039788448000,2.426447998046875,0.9910996556282043,-0.7886037826538086,-0.35138988494873047
1772651039798325500,2.436325439453125,1.0109522342681885,-0.6769714951515198,-0.24479703605175018
1772651039808202800,2.44620263671875,1.0358442068099976,-0.5609105229377747,-0.12155860662460327
1772651039818080300,2.456080322265625,1.0673028230667114,-0.47203221917152405,0.0018325417768210173
1772651039827957800,2.465957763671875,1.1115893125534058,-0.42957833409309387,0.10521844029426575
1772651039837835000,2.4758349609375,1.1726740598678589,-0.41827765107154846,0.1817270666360855
1772651039847712500,2.48571240234375,1.2499462366104126,-0.42072105407714844,0.222042977809906
1772651039857589800,2.49558984375,1.3299671411514282,-0.430341899394989,0.22815145552158356
1772651039867467300,2.50546728515625,1.3910518884658813,-0.44698747992515564,0.20539739727973938
1772651039877344500,2.515344482421875,1.4122788906097412,-0.47859883308410645,0.1650814712047577
1772651039887222000,2.525221923828125,1.4008255004882812,-0.5213581323623657,0.12430741637945175
1772651039897099500,2.535099609375,1.375475287437439,-0.5819846987724304,0.08307522535324097
1772651039906976800,2.544976806640625,1.3563863039016724,-0.6597150564193726,0.03558185324072838
1772651039916854300,2.554854248046875,1.3432531356811523,-0.7244648337364197,0.0035123717971146107
1772651039926731500,2.5647314453125,1.324774980545044,-0.772416353225708,-0.008551862090826035
1772651039936609000,2.574609130859375,1.325080394744873,-0.7974610924720764,-0.004123218823224306
1772651039946486500,2.584486572265625,1.3464601039886475,-0.7966975569725037,0.012369656935334206
1772651039956363800,2.59436376953125,1.3765443563461304,-0.7876875400543213,0.041232191026210785
1772651039966241300,2.6042412109375,1.4035743474960327,-0.7644753456115723,0.08643488585948944
1772651039976118500,2.614118408203125,1.4328949451446533,-0.7215633392333984,0.14248012006282806
1772651039985996000,2.62399609375,1.4689348936080933,-0.6897992491722107,0.17302247881889343
1772651039995873300,2.633873291015625,1.470920205116272,-0.6797202825546265,0.1441599577665329
1772651040005750800,2.643750732421875,1.411362648010254,-0.728282630443573,0.03771981969475746
1772651040015614500,2.653614501953125,1.2869024276733398,-0.8716790676116943,-0.11529742181301117
1772651040025505500,2.663505615234375,1.1157125234603882,-1.0958600044250488,-0.1948602795600891
1772651040035383000,2.673383056640625,0.8477032780647278,-1.2833900451660156,-0.15912571549415588
1772651040045246700,2.683246826171875,0.5914528369903564,-1.3997565507888794,-0.06673506647348404
1772651040055137800,2.6931376953125,0.43415969610214233,-1.4241904020309448,0.06673506647348404
1772651040065015300,2.703015380859375,0.39353835582733154,-1.3414205312728882,0.24785128235816956
1772651040074878700,2.712878662109375,0.4691306948661804,-1.135717749595642,0.48760882019996643
1772651040084770000,2.72277001953125,0.648108959197998,-0.8364025950431824,0.763559103012085
1772651040094647300,2.732647216796875,0.9144383668899536,-0.5092939138412476,1.0433270931243896
1772651040104511000,2.742510986328125,1.2110047340393066,-0.17393875122070312,1.2840009927749634
1772651040114402300,2.75240234375,1.4806936979293823,0.14629791676998138,1.4406832456588745
1772651040124279600,2.762279541015625,1.6874655485153198,0.4456130862236023,1.4952013492584229
1772651040134143200,2.772143310546875,1.8102458715438843,0.6969767212867737,1.4446537494659424
1772651040144034300,2.782034423828125,1.8704142570495605,0.8493831157684326,1.3117945194244385
1772651040153911800,2.791911865234375,1.8713306188583374,0.8919897079467773,1.12823486328125
1772651040163775500,2.801775390625,1.812689185142517,0.8415948152542114,0.9153546094894409
1772651040173666600,2.81166650390625,1.6990716457366943,0.7163711190223694,0.6891884207725525
1772651040183544000,2.8215439453125,1.5492613315582275,0.543806791305542,0.4622586667537689
1772651040193421300,2.83142138671875,1.3881504535675049,0.34008920192718506,0.2373141646385193
1772651040203298800,2.841298828125,1.2294827699661255,0.0978882759809494,0.033596597611904144
1772651040213176000,2.851176025390625,1.0865445137023926,-0.19715094566345215,-0.13087402284145355
1772651040223053600,2.861053466796875,0.9515473246574402,-0.5245651006698608,-0.2435753494501114
1772651040232930800,2.870930908203125,0.8162446618080139,-0.8335011005401611,-0.2982461750507355
1772651040242808300,2.880808349609375,0.6908682584762573,-1.0871554613113403,-0.28007346391677856
1772651040252672000,2.890672119140625,0.6132906675338745,-1.2510151863098145,-0.18585027754306793
1772651040262563000,2.90056298828125,0.6016845703125,-1.300188422203064,-0.03405473381280899
1772651040272440600,2.910440673828125,0.6545228362083435,-1.2349804639816284,0.13774605095386505
1772651040282317800,2.92031787109375,0.7440119385719299,-1.0854755640029907,0.2877090573310852
1772651040292195300,2.9301953125,0.837471604347229,-0.8919897079467773,0.3828485310077667
1772651040302072800,2.94007275390625,0.9214630722999573,-0.6641436815261841,0.41949936747550964
1772651040311950000,2.9499501953125,0.9866710305213928,-0.4265241026878357,0.3972034156322479
1772651040321827600,2.95982763671875,1.0198094844818115,-0.1979145109653473,0.342074453830719
1772651040331704800,2.969704833984375,1.0190459489822388,0.0010689827613532543,0.2802261710166931
1772651040341582300,2.979582275390625,0.9871291518211365,0.1560714691877365,0.22540263831615448
1772651040351459600,2.98945947265625,0.9399412274360657,0.2557922899723053,0.17653486132621765
1772651040361337000,2.999337158203125,0.8933641314506531,0.29442837834358215,0.12552911043167114
1772651040371214600,3.009214599609375,0.8484668135643005,0.28633466362953186,0.07101099193096161
1772651040381091800,3.019091796875,0.8041804432868958,0.25060009956359863,0.0068720318377017975
1772651040390969300,3.02896923828125,0.7620319724082947,0.1766875684261322,-0.07971556484699249
1772651040400846600,3.0388466796875,0.7169819474220276,0.08231166750192642,-0.18401773273944855
1772651040410724000,3.04872412109375,0.6650599241256714,-0.012369656935334206,-0.2987042963504791
1772651040420601300,3.058601318359375,0.6003101468086243,-0.09330692142248154,-0.40422818064689636
1772651040430478800,3.068478759765625,0.5292991399765015,-0.1495048701763153,-0.4903576374053955
1772651040440356400,3.0783564453125,0.44958359003067017,-0.1835595965385437,-0.5599942207336426
1772651040450233600,3.088233642578125,0.3524588644504547,-0.22662433981895447,-0.6227588057518005
1772651040460111000,3.098111083984375,0.2718270421028137,-0.2492256760597229,-0.6574243903160095
1772651040469988400,3.10798828125,0.2011214643716812,-0.2586938142776489,-0.6652126908302307
1772651040479865900,3.117865966796875,0.1113269105553627,-0.22601348161697388,-0.6395570635795593
1772651040489729500,3.1277294921875,-0.02214321307837963,-0.14782503247261047,-0.582748293876648
1772651040499620600,3.13762060546875,-0.21990501880645752,-0.08429691940546036,-0.5166240930557251
1772651040509498000,3.147498046875,-0.478751540184021,-0.08826743066310883,-0.45615020394325256
1772651040519375400,3.157375244140625,-0.7421793937683105,-0.1453816443681717,-0.4230117201805115
1772651040529252900,3.1672529296875,-0.8971819281578064,-0.20081603527069092,-0.43049460649490356
1772651040539130000,3.177130126953125,-0.8848122358322144,-0.21120044589042664,-0.4868452548980713
1772651040548993800,3.186993896484375,-0.7369872331619263,-0.1776038408279419,-0.5613686442375183
1772651040558885000,3.196885009765625,-0.5213581323623657,-0.13270656764507294,-0.6287145614624023
1772651040568762400,3.206762451171875,-0.3092414140701294,-0.1363716572523117,-0.6713211536407471
1772651040578626000,3.2166259765625,-0.14156384766101837,-0.17286977171897888,-0.6696413159370422
1772651040588517000,3.22651708984375,-0.0331384651362896,-0.2292204350233078,-0.61970454454422
1772651040598394600,3.23639453125,0.021379653364419937,-0.2829749882221222,-0.5201364159584045
1772651040608258300,3.24625830078125,0.05421269312500954,-0.3286358118057251,-0.3833066523075104
1772651040618149400,3.2561494140625,0.07711946964263916,-0.3408527672290802,-0.22005772590637207
1772651040628027000,3.26602685546875,0.09239064902067184,-0.3118375241756439,-0.05604523420333862
1772651040637904100,3.275904052734375,0.10277505218982697,-0.26694026589393616,0.07314895838499069
1772651040647781600,3.28578173828125,0.12048961967229843,-0.2226538211107254,0.13179029524326324
1772651040657659000,3.295658935546875,0.1620272397994995,-0.188599094748497,0.10277505218982697
1772651040667536400,3.305536376953125,0.2047865390777588,-0.17149536311626434,-0.0065666078589856625
1772651040677413600,3.31541357421875,0.20692451298236847,-0.15484978258609772,-0.15683503448963165
1772651040687291100,3.325291015625,0.15179555118083954,-0.12766708433628082,-0.293664813041687
1772651040697168600,3.335168701171875,0.052990999072790146,-0.08154810965061188,-0.3637595474720001
1772651040707046000,3.3450458984375,-0.057114217430353165,-0.03237490355968475,-0.33443886041641235
1772651040716923400,3.35492333984375,-0.12720894813537598,0.019394399598240852,-0.20219044387340546
1772651040726800600,3.364800537109375,-0.13545538485050201,0.05741964280605316,0.01969982497394085
1772651040736678100,3.37467822265625,-0.07834116369485855,0.09208522737026215,0.30817243456840515
1772651040746555400,3.384555419921875,0.033596597611904144,0.10323318839073181,0.6201626658439636
1772651040756419000,3.394419189453125,0.1692046970129013,0.09055810421705246,0.8915315866470337
1772651040766310400,3.404310302734375,0.29091599583625793,0.10094250738620758,1.0760074853897095
1772651040776187600,3.414187744140625,0.4030064642429352,0.11835165321826935,1.1424371004104614
1772651040786051300,3.42405126953125,0.48959407210350037,0.11712995916604996,1.1251806020736694
1772651040795942400,3.4339423828125,0.5351021885871887,0.09513945877552032,1.0651649236679077
1772651040805820000,3.44381982421875,0.5500679612159729,0.032222192734479904,0.9723161458969116
1772651040815683600,3.45368359375,0.5380037426948547,-0.07207997888326645,0.8588512539863586
1772651040825574700,3.46357470703125,0.4966188073158264,-0.20677179098129272,0.7204943299293518
1772651040835452200,3.4734521484375,0.41354358196258545,-0.34604495763778687,0.5544965863227844
1772651040845329400,3.483329345703125,0.28908345103263855,-0.4437805414199829,0.3736858069896698
1772651040855207000,3.49320703125,0.13774605095386505,-0.4816530644893646,0.20371755957603455
1772651040865084200,3.503084228515625,0.0012216945178806782,-0.4715740978717804,0.08979454636573792
1772651040874947800,3.51294775390625,-0.08964183181524277,-0.43446511030197144,0.07314895838499069
1772651040884839200,3.522839111328125,-0.12751436233520508,-0.3710896968841553,0.15744587779045105
1772651040894716400,3.53271630859375,-0.10811996459960938,-0.28282228112220764,0.3133646547794342
1772651040904594000,3.542593994140625,-0.03817795217037201,-0.1525591015815735,0.5007420182228088
1772651040914471200,3.55247119140625,0.05864133685827255,0.016798298805952072,0.660936713218689
1772651040924348700,3.5623486328125,0.16156910359859467,0.16615045070648193,0.7446228265762329
1772651040934212400,3.57221240234375,0.24036839604377747,0.26968905329704285,0.7340856790542603
1772651040944103400,3.582103515625,0.2764083743095398,0.33199548721313477,0.6565080881118774
1772651040953981000,3.59198095703125,0.28160059452056885,0.3686463236808777,0.5465555787086487
1772651040963858200,3.601858154296875,0.26464956998825073,0.37826716899871826,0.42698222398757935
1772651040973735700,3.611735595703125,0.2313583940267563,0.3701734244823456,0.31122666597366333
1772651040983613000,3.621613037109375,0.19959434866905212,0.3542914092540741,0.21746163070201874
1772651040993490400,3.631490478515625,0.18661384284496307,0.32191649079322815,0.16431790590286255
1772651041003368000,3.641367919921875,0.20616094768047333,0.2617480456829071,0.15423893928527832
1772651041013245200,3.6512451171875,0.2510582208633423,0.188599094748497,0.1754658818244934
1772651041023122700,3.661122802734375,0.30740886926651,0.11651911586523056,0.19287502765655518
1772651041033000000,3.671,0.3524588644504547,0.06520794332027435,0.19302773475646973
1772651041042877400,3.68087744140625,0.38422292470932007,0.057114217430353165,0.183865025639534
1772651041052754700,3.690754638671875,0.39827242493629456,0.09422318637371063,0.16279079020023346
1772651041062632200,3.700632080078125,0.3898732662200928,0.16492876410484314,0.12079504877328873
1772651041072509700,3.710509765625,0.3721587061882019,0.24510246515274048,0.06948387622833252
1772651041082387000,3.720386962890625,0.3608580231666565,0.3042019307613373,0.037261683493852615
1772651041092264400,3.730264404296875,0.3552076816558838,0.32756683230400085,0.04688252881169319
1772651041102141700,3.7401416015625,0.3558185398578644,0.32634514570236206,0.10644013434648514
1772651041112019200,3.750019287109375,0.3640649616718292,0.31657159328460693,0.20768806338310242
1772651041121896400,3.759896484375,0.3811686933040619,0.2976353168487549,0.32603973150253296
1772651041131774000,3.76977392578125,0.4092676639556885,0.2721324563026428,0.44637662172317505
1772651041141651200,3.779651123046875,0.4408790171146393,0.2852656841278076,0.5700731873512268
1772651041151528700,3.78952880859375,0.48638713359832764,0.349251925945282,0.6922426819801331
1772651041161406200,3.79940625,0.5364766120910645,0.44988900423049927,0.8026533126831055
1772651041171283500,3.809283447265625,0.5890094637870789,0.5642701387405396,0.8848122358322144
1772651041181161000,3.819160888671875,0.6377245187759399,0.6575770974159241,0.9037485122680664
1772651041191038200,3.8290380859375,0.6659762263298035,0.7110261917114258,0.8501466512680054
1772651041200902000,3.83890185546875,0.6584933400154114,0.6899519562721252,0.7337802648544312
1772651041210793000,3.84879296875,0.6119162440299988,0.5486935377120972,0.5494571328163147
1772651041220670500,3.85867041015625,0.5355603098869324,0.29717719554901123,0.31977853178977966
1772651041230548000,3.8685478515625,0.46241137385368347,0.02626643143594265,0.09620844572782516
1772651041240425200,3.87842529296875,0.44362783432006836,-0.18340688943862915,-0.0719272643327713
1772651041250302700,3.888302734375,0.48760882019996643,-0.3208475112915039,-0.15026842057704926
1772651041260166400,3.89816650390625,0.5789304971694946,-0.38101598620414734,-0.11453386396169662
1772651041270057500,3.908057373046875,0.6948387622833252,-0.4077405333518982,-0.014049487188458443
1772651041279934700,3.917934814453125,0.80280601978302,-0.4500417113304138,0.07452336698770523
1772651041289812200,3.927812255859375,0.8980981707572937,-0.5111264586448669,0.0856713280081749
1772651041299689700,3.937689697265625,0.9790354371070862,-0.5541911721229553,0.0012216945178806782
1772651041309567000,3.94756689453125,1.0312628746032715,-0.5682406425476074,-0.16752485930919647
1772651041319430700,3.9574306640625,1.0453124046325684,-0.5751127004623413,-0.3967452943325043
1772651041329321700,3.96732177734375,1.0077452659606934,-0.5880932211875916,-0.660936713218689
1772651041339199200,3.97719921875,0.9022213816642761,-0.5951179265975952,-0.9336800575256348
1772651041349063000,3.98706298828125,0.7333221435546875,-0.5703786015510559,-1.168398141860962
1772651041358954000,3.9969541015625,0.5596888065338135,-0.5070032477378845,-1.330883502960205
1772651041368831200,4.006831298828125,0.4291202127933502,-0.4640912115573883,-1.411362648010254
1772651041378695000,4.01669482421875,0.3778090178966522,-0.46302223205566406,-1.4148749113082886
1772651041388586200,4.026586181640625,0.42194274067878723,-0.4731011986732483,-1.3389772176742554
1772651041398463500,4.03646337890625,0.5531222224235535,-0.43538138270378113,-1.1706887483596802
1772651041408341000,4.046341064453125,0.7287407517433167,-0.381474107503891,-0.9805625677108765
1772651041418218200,4.05621826171875,0.8619054555892944,-0.39918869733810425,-0.8347227573394775
1772651041428095700,4.066095703125,0.8686248064041138,-0.4853181540966034,-0.6569662094116211
1772651041437973200,4.07597314453125,0.7986828088760376,-0.5383091568946838,-0.3524588644504547
1772651041447850500,4.0858505859375,0.6962131857872009,-0.49585527181625366,0.050394900143146515
1772651041457728000,4.09572802734375,0.5709894895553589,-0.44820916652679443,0.4321744441986084
1772651041467591700,4.105591796875,0.4534013867378235,-0.4115583300590515,0.709346354007721
1772651041477482800,4.115482666015625,0.3555130958557129,-0.3229855000972748,0.8556442856788635
1772651041487360000,4.125360107421875,0.25594499707221985,-0.17118994891643524,0.872137188911438
1772651041497223700,4.1352236328125,0.14889401197433472,-0.0015271181473508477,0.7725690603256226
1772651041507115000,4.145114990234375,0.05726693198084831,0.15316994488239288,0.5897729992866516
1772651041516992300,4.1549921875,-0.00916270911693573,0.22738789021968842,0.34482327103614807
1772651041526856000,4.16485595703125,-0.04153761267662048,0.15484978258609772,0.05772506445646286
1772651041536747000,4.1747470703125,-0.05115845799446106,-0.025197450071573257,-0.2026485800743103
1772651041546624500,4.18462451171875,-0.06581879407167435,-0.21883602440357208,-0.36101073026657104
1772651041556501800,4.194501708984375,-0.09727742522954941,-0.40193748474121094,-0.39857783913612366
1772651041566379300,4.204379150390625,-0.14171656966209412,-0.5433486104011536,-0.3358132839202881
1772651041576256500,4.214256591796875,-0.18768282234668732,-0.5990884304046631,-0.21288026869297028
1772651041586134000,4.224134033203125,-0.21898874640464783,-0.5686988234519958,-0.07314895838499069
1772651041596011500,4.234011474609375,-0.223264679312706,-0.48547086119651794,0.022754060104489326
1772651041605888800,4.243888671875,-0.197609081864357,-0.35291701555252075,0.04169032722711563
1772651041615766300,4.253766357421875,-0.15393351018428802,-0.19119518995285034,-0.017714571207761765
1772651041625643500,4.2636435546875,-0.10048437118530273,-0.05100574716925621,-0.14721418917179108
1772651041635521000,4.27352099609375,-0.05100574716925621,0.047646086663007736,-0.31031039357185364
1772651041645398300,4.283398193359375,-0.009620844386518002,0.1104106456041336,-0.4559974670410156
1772651041655275800,4.29327587890625,0.027182703837752342,0.1450762301683426,-0.5390726923942566
1772651041665153300,4.3031533203125,0.06016845628619194,0.14141114056110382,-0.5471664071083069
1772651041675030500,4.313030517578125,0.08933641016483307,0.09437590092420578,-0.48302745819091797
1772651041684908000,4.322907958984375,0.11499200016260147,0.020463382825255394,-0.36009445786476135
1772651041694785300,4.332785400390625,0.1322484314441681,-0.041384901851415634,-0.1966928243637085
1772651041704662800,4.342662841796875,0.14874130487442017,-0.07437065243721008,-0.020005248486995697
1772651041714540000,4.3525400390625,0.16691401600837708,-0.08460234850645065,0.15057384967803955
1772651041724417500,4.36241748046875,0.18096350133419037,-0.07681404054164886,0.3002314269542694
1772651041734294800,4.372294677734375,0.18539214134216309,-0.0650552362203598,0.41048935055732727
1772651041744172300,4.38217236328125,0.17378604412078857,-0.056808795779943466,0.4847072958946228
1772651041754049800,4.3920498046875,0.14309096336364746,-0.05650337040424347,0.5233433842658997
1772651041763927000,4.401927001953125,0.09071081876754761,-0.056961506605148315,0.5361711978912354
1772651041773804500,4.411804443359375,0.016187451779842377,-0.0522274412214756,0.5351021885871887
1772651041783681800,4.421681884765625,-0.07803573459386826,-0.05131116881966591,0.5303681492805481
1772651041793559300,4.431559326171875,-0.16523417830467224,-0.046424392610788345,0.5352548956871033
1772651041803436500,4.4414365234375,-0.22341738641262054,-0.005803049076348543,0.5578562617301941
1772651041813314000,4.45131396484375,-0.25441789627075195,0.06001574173569679,0.5858024954795837
1772651041823191600,4.461191650390625,-0.2698417901992798,0.1429382562637329,0.598783016204834
1772651041833068800,4.47106884765625,-0.2817533016204834,0.22540263831615448,0.5763344168663025
1772651041842946300,4.4809462890625,-0.30725616216659546,0.27533939480781555,0.5117372870445251
1772651041852823600,4.490823486328125,-0.34375429153442383,0.2993151545524597,0.4190412163734436
1772651041862701000,4.500701171875,-0.3836120665073395,0.30374380946159363,0.32100024819374084
1772651041872578300,4.510578369140625,-0.4282039403915405,0.28312769532203674,0.24021568894386292
1772651041882455800,4.520455810546875,-0.47050508856773376,0.26281702518463135,0.18997350335121155
1772651041892333000,4.5303330078125,-0.50853031873703,0.2489202618598938,0.16019469499588013
1772651041902210600,4.54021044921875,-0.5476245880126953,0.23380178213119507,0.12720894813537598
1772651041912088000,4.550088134765625,-0.5821374654769897,0.22463907301425934,0.08674030750989914
1772651041921965300,4.55996533203125,-0.596492350101471,0.23288552463054657,0.05070032179355621
1772651041931842800,4.5698427734375,-0.5885513424873352,0.26190075278282166,0.016798298805952072
1772651041941720000,4.579719970703125,-0.566408097743988,0.2638860046863556,-0.02504473738372326
1772651041951597600,4.58959765625,-0.543806791305542,0.22723518311977386,-0.06841489672660828
1772651041961474800,4.599474853515625,-0.5244123935699463,0.16767756640911102,-0.08842013776302338
1772651041971352300,4.609352294921875,-0.4975350797176361,0.12079504877328873,-0.06673506647348404
1772651041981229600,4.6192294921875,-0.45111069083213806,0.10140064358711243,-0.008399149402976036
1772651041991107000,4.629107177734375,-0.3761292099952698,0.11392301321029663,0.06261184066534042
1772651042000984600,4.638984619140625,-0.2764083743095398,0.14858859777450562,0.13087402284145355
1772651042010861800,4.64886181640625,-0.1760767251253128,0.15652960538864136,0.17302247881889343
1772651042020739300,4.6587392578125,-0.09513945877552032,0.12308572232723236,0.17561858892440796
1772651042030616600,4.668616455078125,-0.037567105144262314,0.06444438546895981,0.13591352105140686
1772651042040494000,4.678494140625,-0.015576604753732681,-0.05405998229980469,0.06062658876180649
1772651042050371300,4.688371337890625,-0.0261137206107378,-0.23471805453300476,-0.033596597611904144
1772651042060248800,4.698248779296875,-0.04367557913064957,-0.42224815487861633,-0.09437590092420578
1772651042070126000,4.7081259765625,-0.04352286830544472,-0.5595360994338989,-0.0984991192817688
1772651042080003600,4.718003662109375,-0.034665580838918686,-0.6128324866294861,-0.04810422286391258
1772651042089881000,4.727881103515625,-0.03268032893538475,-0.5531222224235535,0.030847785994410515
1772651042099758300,4.73775830078125,-0.028557108715176582,-0.4181249439716339,0.10491301864385605
1772651042109635800,4.7476357421875,-0.03023693896830082,-0.29473379254341125,0.1244601309299469
1772651042119513000,4.75751318359375,-0.03008422814309597,-0.2557922899723053,0.04947862774133682
1772651042129390600,4.767390625,-0.03955236077308655,-0.3313846290111542,-0.1385096162557602
1772651042139267800,4.777267822265625,-0.0847550556063652,-0.4486673176288605,-0.4124746024608612
1772651042149145300,4.787145263671875,-0.19150061905384064,-0.5306735634803772,-0.7165238261222839
1772651042159022600,4.797022705078125,-0.34604495763778687,-0.5651864409446716,-0.9810206890106201
1772651042168900000,4.806900146484375,-0.4940227270126343,-0.5531222224235535,-1.1305255889892578
1772651042178763800,4.816763671875,-0.5859552621841431,-0.5016583204269409,-1.1251806020736694
1772651042188654800,4.82665478515625,-0.6056550741195679,-0.4265241026878357,-0.9772028923034668
1772651042198532400,4.836532470703125,-0.5496098399162292,-0.367730051279068,-0.7133168578147888
1772651042208395800,4.846395751953125,-0.4249969720840454,-0.32191649079322815,-0.3765873312950134
1772651042218287000,4.856287109375,-0.25121092796325684,-0.2912214398384094,-0.012064233422279358
1772651042228164400,4.866164306640625,-0.06978929787874222,-0.2835858464241028,0.2967190444469452
1772651042238028000,4.876028076171875,0.07574506103992462,-0.2648022770881653,0.4700469672679901
1772651042247919000,4.885919189453125,0.15744587779045105,-0.23425991833209991,0.5671716928482056
1772651042257796600,4.895796630859375,0.21822518110275269,-0.20768806338310242,0.571294903755188
1772651042267660300,4.905660400390625,0.25350162386894226,-0.18142163753509521,0.509141206741333
1772651042277551400,4.91555126953125,0.25258535146713257,-0.15714046359062195,0.4366030693054199
1772651042287428900,4.925428955078125,0.22662433981895447,-0.13896775245666504,0.3623851239681244
1772651042297306000,4.93530615234375,0.17653486132621765,-0.12888877093791962,0.2912214398384094
1772651042307183600,4.94518359375,0.10369132459163666,-0.10949437320232391,0.2244863659143448
1772651042317060900,4.955060791015625,0.02367033064365387,-0.08887827396392822,0.1716480851173401
1772651042326938400,4.9649384765625,-0.049020491540431976,-0.06917845457792282,0.13362284004688263
1772651042336815600,4.974815673828125,-0.10674555599689484,-0.052990999072790146,0.111021488904953
1772651042346693000,4.984693115234375,-0.1391204595565796,-0.03405473381280899,0.11147962510585785
1772651042356570600,4.994570556640625,-0.1429382562637329,-0.008093725889921188,0.13591352105140686
1772651042366447900,5.00444775390625,-0.11911521852016449,0.036039989441633224,0.18096350133419037
1772651042376325400,5.014325439453125,-0.06184828653931618,0.07834116369485855,0.22784602642059326
1772651042386202600,5.02420263671875,0.016340164467692375,0.10644013434648514,0.26816195249557495
1772651042396080000,5.034080078125,0.09529217332601547,0.13026317954063416,0.3064926266670227
1772651042405957400,5.043957275390625,0.15347537398338318,0.14125843346118927,0.33947837352752686
1772651042415835000,5.0538349609375,0.18722468614578247,0.14095300436019897,0.3590254783630371
1772651042425712000,5.063712158203125,0.1969982385635376,0.13545538485050201,0.35658207535743713
1772651042435589600,5.073589599609375,0.1913478970527649,0.13453911244869232,0.3358132839202881
1772651042445467000,5.083466796875,0.17561858892440796,0.13453911244869232,0.29351210594177246
1772651042455344400,5.093344482421875,0.15393351018428802,0.12354385852813721,0.23716144263744354
1772651042465222000,5.103221923828125,0.12308572232723236,0.0975828468799591,0.16676130890846252
1772651042475099100,5.11309912109375,0.08429691940546036,0.07101099193096161,0.09895725548267365
1772651042484976600,5.1229765625,0.03634541109204292,0.04947862774133682,0.04153761267662048
1772651042494854000,5.13285400390625,-0.012064233422279358,0.03298575058579445,0.0018325417768210173
1772651042504731400,5.1427314453125,-0.05070032179355621,0.025808297097682953,-0.026877280324697495
1772651042514608600,5.152608642578125,-0.07238540053367615,0.03161134570837021,-0.04963133856654167
1772651042524486100,5.162486083984375,-0.07574506103992462,0.05650337040424347,-0.06826218217611313
1772651042534363400,5.17236328125,-0.06658235192298889,0.10063708573579788,-0.07391251623630524
1772651042544241000,5.182240966796875,-0.04734066128730774,0.14431266486644745,-0.06261184066534042
1772651042554118400,5.192118408203125,-0.02107422985136509,0.17470231652259827,-0.032069481909275055
1772651042563995600,5.20199560546875,0.0022906772792339325,0.1985253542661667,0.010689826682209969
1772651042573873000,5.211872802734375,0.01847812905907631,0.2020377367734909,0.05787777900695801
1772651042583750400,5.22175048828125,0.02641914412379265,0.1954711228609085,0.11621369421482086
1772651042593628000,5.2316279296875,0.03436015918850899,0.1957765519618988,0.1898207813501358
1772651042603505200,5.241505126953125,0.04474456235766411,0.19150061905384064,0.2583884000778198
1772651042613382700,5.251382568359375,0.05635065957903862,0.17439688742160797,0.30939415097236633
1772651042623260000,5.261260009765625,0.06795676052570343,0.150421142578125,0.34757208824157715
1772651042633137400,5.271137451171875,0.08429691940546036,0.1316375881433487,0.3709369897842407
1772651042643014700,5.2810146484375,0.09483403712511063,0.10781454294919968,0.37292224168777466
1772651042652892200,5.29089208984375,0.09177979826927185,0.07742489129304886,0.3436015844345093
1772651042662769400,5.300769287109375,0.062306419014930725,0.049020491540431976,0.2770192325115204
1772651042672647000,5.31064697265625,0.00916270911693573,0.014813045971095562,0.17241163551807404
1772651042682524200,5.320524169921875,-0.05238015204668045,-0.03649812191724777,0.054365407675504684
1772651042692401700,5.330401611328125,-0.10934165865182877,-0.10140064358711243,-0.04947862774133682
1772651042702279200,5.340279052734375,-0.1495048701763153,-0.1707318127155304,-0.10857810080051422
1772651042712142600,5.350142578125,-0.16859383881092072,-0.21685077250003815,-0.11499200016260147
1772651042722034000,5.360033935546875,-0.17439688742160797,-0.2244863659143448,-0.08429691940546036
1772651042731911200,5.3699111328125,-0.15546062588691711,-0.16660858690738678,-0.015423892997205257
1772651042741774800,5.37977490234375,-0.10491301864385605,-0.06551336497068405,0.0853659063577652
1772651042751666000,5.389666015625,-0.022754060104489326,0.05421269312500954,0.20356485247612
1772651042761543400,5.39954345703125,0.07513421028852463,0.208298921585083,0.32634514570236206
1772651042771420700,5.409420654296875,0.1563768982887268,0.3852919042110443,0.4049917459487915
1772651042781298200,5.419298095703125,0.19531841576099396,0.5001311898231506,0.3859027624130249
1772651042791175400,5.429175537109375,0.19363857805728912,0.4815003573894501,0.2492256760597229
1772651042801039000,5.4390390625,0.12797249853610992,0.3249707520008087,0.01847812905907631
1772651042810930400,5.448930419921875,-0.032069481909275055,0.08735115826129913,-0.2707580327987671
1772651042820807700,5.4588076171875,-0.24876753985881805,-0.1501157134771347,-0.5364766120910645
1772651042830671400,5.46867138671875,-0.4727957844734192,-0.30695074796676636,-0.717440128326416
1772651042840562400,5.4785625,-0.6497887969017029,-0.3626905679702759,-0.7892146706581116
1772651042850440000,5.48843994140625,-0.7279772162437439,-0.28160059452056885,-0.7116370797157288
1772651042860303400,5.498303466796875,-0.6641436815261841,-0.07421794533729553,-0.430341899394989
1772651042870194700,5.508194580078125,-0.47554460167884827,0.22494450211524963,-0.020157959312200546
1772651042880072000,5.518072021484375,-0.1850867122411728,0.5360184907913208,0.41140562295913696
1772651042889935600,5.527935546875,0.1369825005531311,0.8139539957046509,0.7687512636184692
1772651042899826700,5.53782666015625,0.41980478167533875,0.9686510562896729,0.978424608707428
1772651042909704200,5.5477041015625,0.6129852533340454,1.0198094844818115,1.0717315673828125
1772651042919568000,5.55756787109375,0.691326379776001,1.0101886987686157,1.086391806602478
1772651042929459000,5.567458984375,0.6722373962402344,0.9200887084007263,1.0341644287109375
1772651042939336200,5.577336181640625,0.5897729992866516,0.7308787703514099,0.940857470035553
1772651042949200000,5.587199951171875,0.47676628828048706,0.4543176591396332,0.8254073858261108
1772651042959091200,5.59709130859375,0.33596599102020264,0.14248012006282806,0.6868977546691895
1772651042968968400,5.606968505859375,0.17531315982341766,-0.12781979143619537,0.499673068523407
1772651042978846000,5.616845947265625,0.009620844386518002,-0.30725616216659546,0.25319617986679077
1772651042988723200,5.62672314453125,-0.1429382562637329,-0.388651579618454,-0.03374931216239929
1772651042998600700,5.6366005859375,-0.2673983871936798,-0.39140036702156067,-0.3046600818634033
1772651043008464100,5.646464111328125,-0.363454133272171,-0.35566580295562744,-0.499673068523407
1772651043018355500,5.65635546875,-0.4515688419342041,-0.30740886926651,-0.5966450572013855
1772651043028232700,5.666232666015625,-0.5265503525733948,-0.2510582208633423,-0.5955760478973389
1772651043038096400,5.676096435546875,-0.5752654075622559,-0.18340688943862915,-0.5100574493408203
1772651043047987500,5.685987548828125,-0.587940514087677,-0.12155860662460327,-0.35291701555252075
1772651043057865000,5.695864990234375,-0.5491516590118408,-0.037567105144262314,-0.1388150453567505
1772651043067742200,5.7057421875,-0.4614951014518738,0.08170082420110703,0.09666658192873001
1772651043077619700,5.71561962890625,-0.34131091833114624,0.19867807626724243,0.2987042963504791
1772651043087497000,5.7254970703125,-0.21410197019577026,0.2942756712436676,0.43477052450180054
1772651043097360600,5.735360595703125,-0.10811996459960938,0.3694098889827728,0.509141206741333
1772651043107251700,5.745251708984375,-0.033291175961494446,0.4181249439716339,0.5296045541763306
1772651043117129200,5.755129150390625,-0.008093725889921188,0.43767204880714417,0.5097520351409912
1772651043126993000,5.764992919921875,-0.030389651656150818,0.42850935459136963,0.4643966257572174
1772651043136884000,5.774884033203125,-0.0916270911693573,0.39766156673431396,0.4059080183506012
1772651043146761500,5.784761474609375,-0.17958909273147583,0.3495573401451111,0.3352024257183075
1772651043156638700,5.794638671875,-0.2802261710166931,0.2805316150188446,0.258999228477478
1772651043166516200,5.80451611328125,-0.38819342851638794,0.18493400514125824,0.168899267911911
1772651043176393500,5.8143935546875,-0.49585527181625366,0.06337540596723557,0.06306997686624527
1772651043186271000,5.82427099609375,-0.5809157490730286,-0.07406523078680038,-0.05024218559265137
1772651043196148200,5.834148193359375,-0.6288672685623169,-0.17317520081996918,-0.14278554916381836
1772651043206025700,5.844025634765625,-0.6557445526123047,-0.23471805453300476,-0.2098260372877121
1772651043215903000,5.853903076171875,-0.671015739440918,-0.2583884000778198,-0.2476985603570938
1772651043225780500,5.863780517578125,-0.6829272508621216,-0.2507528066635132,-0.2686200737953186
1772651043235657700,5.87365771484375,-0.705986738204956,-0.217308908700943,-0.2933593988418579
1772651043245535200,5.88353515625,-0.751494824886322,-0.16706672310829163,-0.33031564950942993
1772651043255412500,5.89341259765625,-0.8141067028045654,-0.11117420345544815,-0.37475478649139404
1772651043265290000,5.9032900390625,-0.8851176500320435,-0.060932014137506485,-0.4178195297718048
1772651043275167200,5.913167236328125,-0.9559759497642517,-0.024128466844558716,-0.4485146105289459
1772651043285044700,5.923044677734375,-1.0172133445739746,-0.004734066314995289,-0.45706647634506226
1772651043294922200,5.932922119140625,-1.0740221738815308,-0.008399149402976036,-0.4515688419342041
1772651043304799500,5.942799560546875,-1.1231954097747803,-0.01817270554602146,-0.4378247857093811
1772651043314677000,5.952677001953125,-1.1580137014389038,-0.008246437646448612,-0.43415969610214233
1772651043324554200,5.96255419921875,-1.1821421384811401,0.02107422985136509,-0.4337015450000763
1772651043334431500,5.972431396484375,-1.209324836730957,0.055892523378133774,-0.4405735731124878
1772651043344309000,5.98230908203125,-1.2464338541030884,0.08261708915233612,-0.4628695249557495
1772651043354186500,5.9921865234375,-1.2902621030807495,0.10231691598892212,-0.49173203110694885
1772651043364063700,6.002063720703125,-1.3377554416656494,0.13148486614227295,-0.5108210444450378
1772651043373941200,6.011941162109375,-1.3831108808517456,0.14660334587097168,-0.5254813432693481
1772651043383818500,6.021818603515625,-1.4222050905227661,0.1432436853647232,-0.5340332388877869
1772651043393696000,6.031696044921875,-1.4588559865951538,0.13392825424671173,-0.5369347333908081
1772651043403573200,6.0415732421875,-1.4977974891662598,0.12354385852813721,-0.5349494814872742
1772651043413450800,6.05145068359375,-1.5385714769363403,0.11682453751564026,-0.5288410186767578
1772651043423328000,6.061327880859375,-1.5805672407150269,0.1113269105553627,-0.517693042755127
1772651043433205500,6.07120556640625,-1.6266862154006958,0.11086877435445786,-0.5004366040229797
1772651043443082800,6.081082763671875,-1.6790664196014404,0.12018419802188873,-0.47951510548591614
1772651043452960300,6.090960205078125,-1.7322101593017578,0.14049486815929413,-0.4611896872520447
1772651043462837500,6.10083740234375,-1.7824523448944092,0.16630317270755768,-0.45447036623954773
1772651043472715000,6.110715087890625,-1.8265860080718994,0.1844758689403534,-0.46012070775032043
1772651043482592300,6.12059228515625,-1.8644585609436035,0.17943638563156128,-0.46989426016807556
1772651043492469800,6.1304697265625,-1.900956630706787,0.1572931706905365,-0.46607646346092224
1772651043502347000,6.140346923828125,-1.9412726163864136,0.12827792763710022,-0.44011545181274414
1772651043512224500,6.150224609375,-1.995790719985962,0.1119377613067627,-0.4030064642429352
1772651043522101800,6.160101806640625,-2.0646636486053467,0.14217470586299896,-0.3736858069896698
1772651043531979300,6.169979248046875,-2.141172409057617,0.23593975603580475,-0.36666107177734375
1772651043541856800,6.179856689453125,-2.2230257987976074,0.4002576768398285,-0.3883461356163025
1772651043551734000,6.189734130859375,-2.3186235427856445,0.6045860648155212,-0.4634803533554077
1772651043561611500,6.199611572265625,-2.4308667182922363,0.7803573608398438,-0.601073682308197
1772651043571475000,6.209474853515625,-2.554868698120117,0.8477032780647278,-0.8066238164901733
1772651043581366300,6.2193662109375,-2.6915457248687744,0.8078454732894897,-1.0607362985610962
1772651043591243500,6.229243408203125,-2.8393707275390625,0.728282630443573,-1.2998830080032349
1772651043601107200,6.239107177734375,-2.976811408996582,0.6723901033401489,-1.4403778314590454
1772651043610998300,6.248998291015625,-3.0525565147399902,0.640626072883606,-1.4254120588302612
1772651043620875800,6.258875732421875,-3.0536253452301025,0.6529957056045532,-1.253764033317566
1772651043630739200,6.2687392578125,-2.979407548904419,0.7519529461860657,-0.9631534218788147
1772651043640630500,6.278630615234375,-2.8102028369903564,0.8982508778572083,-0.6368082761764526
1772651043650507800,6.2885078125,-2.542804479598999,1.0101886987686157,-0.3611634373664856
1772651043660371500,6.298371337890625,-2.201493501663208,1.0509626865386963,-0.16813570261001587
1772651043670262500,6.308262451171875,-1.8409409523010254,0.99736088514328,-0.034665580838918686
1772651043680140000,6.31814013671875,-1.5284925699234009,0.8515210747718811,0.07375980913639069
1772651043690003700,6.328003662109375,-1.2873605489730835,0.6467345356941223,0.17989452183246613
1772651043699894800,6.337894775390625,-1.123653531074524,0.4259132444858551,0.2924431264400482
1772651043709772000,6.34777197265625,-1.0230164527893066,0.23425991833209991,0.40193748474121094
1772651043719635700,6.3576357421875,-0.982700526714325,0.11285403370857239,0.4847072958946228
1772651043729526800,6.36752685546875,-0.9910996556282043,0.0781884491443634,0.518609344959259
1772651043739404300,6.377404296875,-1.0381349325180054,0.10598199814558029,0.47982051968574524
1772651043749268000,6.38726806640625,-1.108229637145996,0.1644706279039383,0.35765108466148376
1772651043759159000,6.397158935546875,-1.1984822750091553,0.2295258641242981,0.16737215220928192
1772651043769036300,6.407036376953125,-1.309045672416687,0.2948864996433258,-0.05115845799446106
1772651043778900000,6.41689990234375,-1.4504568576812744,0.3336753249168396,-0.2683146595954895
1772651043788791000,6.426791015625,-1.6205778121948242,0.33199548721313477,-0.4581354558467865
1772651043798668500,6.43666845703125,-1.7998614311218262,0.31534990668296814,-0.5981721878051758
1772651043808545800,6.4465458984375,-1.9689134359359741,0.29381752014160156,-0.6855233311653137
1772651043818423300,6.45642333984375,-2.106506824493408,0.2832804024219513,-0.731184184551239
1772651043828300800,6.46630078125,-2.2085182666778564,0.28343313932418823,-0.7464553713798523
1772651043838178000,6.476177978515625,-2.2721991539001465,0.30191126465797424,-0.7379034757614136
1772651043848055300,6.48605517578125,-2.299992561340332,0.3455868363380432,-0.7185090780258179
1772651043857932800,6.495932861328125,-2.2978546619415283,0.40712970495224,-0.6937697529792786
1772651043867810000,6.50581005859375,-2.2746424674987793,0.4883723855018616,-0.6580352187156677
1772651043877687600,6.5156875,-2.2460854053497314,0.557550847530365,-0.6099309921264648
1772651043887565000,6.52556494140625,-2.2227203845977783,0.5914528369903564,-0.5494571328163147
1772651043897442300,6.5354423828125,-2.2031733989715576,0.5929799675941467,-0.4734066128730774
1772651043907319800,6.54531982421875,-2.178281307220459,0.5602996349334717,-0.38254308700561523
1772651043917197000,6.555197021484375,-2.1420886516571045,0.4938700199127197,-0.29885703325271606
1772651043927074300,6.56507421875,-2.1016199588775635,0.41507071256637573,-0.2408265322446823
1772651043936951800,6.574951904296875,-2.0663435459136963,0.32100024819374084,-0.21333840489387512
1772651043946829000,6.5848291015625,-2.042062282562256,0.21883602440357208,-0.21288026869297028
1772651043956706600,6.59470654296875,-2.0266385078430176,0.13484452664852142,-0.22723518311977386
1772651043966584000,6.604583984375,-2.016101360321045,0.08857285231351852,-0.2507528066635132
1772651043976461300,6.61446142578125,-2.0095348358154297,0.08643488585948944,-0.2722851634025574
1772651043986338800,6.6243388671875,-2.0064804553985596,0.13545538485050201,-0.2835858464241028
1772651043996216000,6.634216064453125,-2.0006775856018066,0.23792500793933868,-0.265718549489975
1772651044006093300,6.64409326171875,-1.988918662071228,0.3823903799057007,-0.21807247400283813
1772651044015970800,6.653970703125,-1.9739528894424438,0.5401417016983032,-0.14660334587097168
1772651044025848300,6.663848388671875,-1.9635685682296753,0.6752916574478149,-0.0584886260330677
1772651044035725600,6.6737255859375,-1.9551693201065063,0.7806627750396729,0.042759306728839874
1772651044045603000,6.68360302734375,-1.939898133277893,0.8689302206039429,0.1507265567779541
1772651044055480300,6.693480224609375,-1.9201983213424683,0.9304730892181396,0.23441264033317566
1772651044065357800,6.70335791015625,-1.9066070318222046,0.9524635672569275,0.2802261710166931
1772651044075221200,6.71322119140625,-1.9023311138153076,0.9507837295532227,0.2851129472255707
1772651044085112300,6.7231123046875,-1.903247356414795,0.9484930634498596,0.2570139765739441
1772651044094989800,6.73298974609375,-1.9072178602218628,0.9411629438400269,0.20127417147159576
1772651044104867300,6.742867431640625,-1.910730242729187,0.9194778203964233,0.125987246632576
1772651044114744600,6.75274462890625,-1.9142426252365112,0.882979691028595,0.0390942245721817
1772651044124622000,6.7626220703125,-1.926764965057373,0.8408312797546387,-0.046577103435993195
1772651044134499300,6.772499267578125,-1.9402035474777222,0.7953231334686279,-0.11804623156785965
1772651044144376800,6.782376953125,-1.9458539485931396,0.7536327838897705,-0.16752485930919647
1772651044154254000,6.792254150390625,-1.939592719078064,0.7160657048225403,-0.19302773475646973
1772651044164131300,6.80213134765625,-1.926459550857544,0.6896465420722961,-0.19776180386543274
1772651044174008800,6.8120087890625,-1.907523274421692,0.684759795665741,-0.19592925906181335
1772651044183886300,6.82188623046875,-1.8881288766860962,0.7001836895942688,-0.1960819661617279
1772651044193763600,6.831763671875,-1.8678182363510132,0.7307260632514954,-0.20616094768047333
1772651044203641000,6.84164111328125,-1.841399073600769,0.7605048418045044,-0.22479179501533508
1772651044213518300,6.851518310546875,-1.8007776737213135,0.7769976854324341,-0.23838314414024353
1772651044223395800,6.861395751953125,-1.7476340532302856,0.7612683773040771,-0.2376195788383484
1772651044233273000,6.871273193359375,-1.6839531660079956,0.7149966955184937,-0.21425467729568481
1772651044243150600,6.881150634765625,-1.6134003400802612,0.654370129108429,-0.16676130890846252
1772651044253027800,6.89102783203125,-1.54025137424469,0.6026008129119873,-0.10292776674032211
1772651044262905300,6.9009052734375,-1.4605357646942139,0.5599942207336426,-0.03955236077308655
1772651044272782600,6.910782470703125,-1.375475287437439,0.5219689607620239,0.005344913341104984
1772651044282660000,6.92066015625,-1.2856807708740234,0.4784461259841919,0.031916771084070206
1772651044292537300,6.930537353515625,-1.1948171854019165,0.42224815487861633,0.04489727318286896
1772651044302414800,6.940414794921875,-1.1091458797454834,0.35765108466148376,0.055587101727724075
1772651044312292000,6.9502919921875,-1.0289721488952637,0.28999972343444824,0.07055285573005676
1772651044322169600,6.960169677734375,-0.9530744552612305,0.22555534541606903,0.1044548824429512
1772651044332046800,6.970046875,-0.8751913905143738,0.1785201132297516,0.1623326539993286
1772651044341924000,6.979924072265625,-0.7930324673652649,0.1513374149799347,0.2438807636499405
1772651044351801600,6.989801513671875,-0.7078192830085754,0.15408621728420258,0.35169529914855957
1772651044361678800,6.999678955078125,-0.6252021789550781,0.1776038408279419,0.46485477685928345
1772651044371556400,7.009556396484375,-0.559841513633728,0.18722468614578247,0.5535803437232971
1772651044381433900,7.019433837890625,-0.5117372870445251,0.1719534993171692,0.603975236415863
1772651044391311000,7.02931103515625,-0.4802786707878113,0.13392825424671173,0.5990884304046631
1772651044401174800,7.0391748046875,-0.46424391865730286,0.04474456235766411,0.5149442553520203
1772651044411065900,7.04906591796875,-0.47386476397514343,-0.11896250396966934,0.34726667404174805
1772651044420943000,7.058943115234375,-0.5120427012443542,-0.3396310806274414,0.12293300777673721
1772651044430820600,7.068820556640625,-0.5798467397689819,-0.5696150660514832,-0.09895725548267365
1772651044440697900,7.07869775390625,-0.6740699410438538,-0.7398887276649475,-0.2432699203491211
1772651044450575400,7.088575439453125,-0.7742488980293274,-0.798530101776123,-0.26128992438316345
1772651044460439000,7.09843896484375,-0.8567132949829102,-0.767224133014679,-0.1459924876689911
1772651044470330000,7.108330078125,-0.9040539264678955,-0.647192656993866,0.07605048269033432
1772651044480207400,7.118207275390625,-0.9032903909683228,-0.4524851143360138,0.328330397605896
1772651044490084900,7.1280849609375,-0.8532009124755859,-0.23349636793136597,0.5115845799446106
1772651044499962000,7.137962158203125,-0.7779139876365662,-0.017561858519911766,0.5728220343589783
1772651044509839600,7.147839599609375,-0.7009472250938416,0.15210096538066864,0.5036435723304749
1772651044519703300,7.157703369140625,-0.6474980711936951,0.20784078538417816,0.3292466700077057
1772651044529594400,7.167594482421875,-0.6313106417655945,0.1635543555021286,0.10628741979598999
1772651044539471600,7.1774716796875,-0.6656708121299744,0.042759306728839874,-0.11942064017057419
1772651044549349000,7.18734912109375,-0.7467607855796814,-0.13988402485847473,-0.31687700748443604
1772651044559226400,7.197226318359375,-0.856407880783081,-0.34131091833114624,-0.45737189054489136
1772651044569104000,7.207103759765625,-0.9767447710037231,-0.4915793240070343,-0.5097520351409912
1772651044578967600,7.216967529296875,-1.0886825323104858,-0.5599942207336426,-0.4747810363769531
1772651044588858600,7.226858642578125,-1.1659547090530396,-0.5486935377120972,-0.3755183517932892
1772651044598736000,7.23673583984375,-1.1848909854888916,-0.44362783432006836,-0.23929941654205322
1772651044608613400,7.24661328125,-1.1348015069961548,-0.25747212767601013,-0.10124793648719788
1772651044618490600,7.25649072265625,-1.0236272811889648,-0.05757235363125801,0.009315420873463154
1772651044628368100,7.2663681640625,-0.876413106918335,0.09895725548267365,0.06520794332027435
1772651044638245400,7.276245361328125,-0.6972821354866028,0.22540263831615448,0.10781454294919968
1772651044648123000,7.286122802734375,-0.5247178077697754,0.2967190444469452,0.16538690030574799
1772651044658000100,7.296000244140625,-0.3955236077308655,0.31443363428115845,0.24189551174640656
1772651044667863800,7.30586376953125,-0.31412819027900696,0.3002314269542694,0.3202366828918457
1772651044677755000,7.3157548828125,-0.26098448038101196,0.28496024012565613,0.37918344140052795
1772651044687632400,7.32563232421875,-0.22876229882240295,0.2724378705024719,0.40850409865379333
1772651044697495800,7.335495849609375,-0.2244863659143448,0.26128992438316345,0.39766156673431396
1772651044707387100,7.34538720703125,-0.2504473626613617,0.24052110314369202,0.349251925945282
1772651044717264400,7.355264404296875,-0.30435463786125183,0.2089097648859024,0.2777827978134155
1772651044727142000,7.365141845703125,-0.38391751050949097,0.1620272397994995,0.19913621246814728
1772651044737019100,7.37501904296875,-0.4766135811805725,0.09926267713308334,0.13087402284145355
1772651044746896400,7.384896484375,-0.5729747414588928,0.0390942245721817,0.0859767496585846
1772651044756774000,7.39477392578125,-0.6641436815261841,-0.006719320081174374,0.056961506605148315
1772651044766651100,7.404651123046875,-0.7424848675727844,-0.01832541823387146,0.028251685202121735
1772651044776528600,7.414528564453125,-0.8060129284858704,0.019394399598240852,-0.0038177953101694584
1772651044786406000,7.424406005859375,-0.8528954982757568,0.0910162404179573,-0.042759306728839874
1772651044796283400,7.434283447265625,-0.888171911239624,0.17882554233074188,-0.07559234648942947
1772651044806160600,7.44416064453125,-0.9092461466789246,0.2588465213775635,-0.09330692142248154
1772651044816038100,7.4540380859375,-0.9275715351104736,0.30603447556495667,-0.09407047927379608
1772651044825915400,7.463915283203125,-0.9471186995506287,0.32008397579193115,-0.08551861345767975
1772651044835793000,7.47379296875,-0.9671239256858826,0.3139754831790924,-0.08429691940546036
1772651044845670100,7.483670166015625,-0.9840749502182007,0.28633466362953186,-0.0988045409321785
1772651044855547600,7.493547607421875,-1.003622055053711,0.2588465213775635,-0.12812520563602448
1772651044865425000,7.5034248046875,-1.032484531402588,0.2435753494501114,-0.17332790791988373
1772651044875302400,7.513302490234375,-1.0708152055740356,0.24540787935256958,-0.23151111602783203
1772651044885179600,7.5231796875,-1.109298586845398,0.25625041127204895,-0.29351210594177246
1772651044895057200,7.53305712890625,-1.1424371004104614,0.2683146595954895,-0.35230615735054016
1772651044904934400,7.542934326171875,-1.1642749309539795,0.2814478874206543,-0.39292749762535095
1772651044914812000,7.55281201171875,-1.1668709516525269,0.28541839122772217,-0.4136963188648224
1772651044924689200,7.562689208984375,-1.1522105932235718,0.2786990702152252,-0.411863774061203
1772651044934566700,7.572566650390625,-1.1273186206817627,0.2551814317703247,-0.390942245721817
1772651044944444000,7.58244384765625,-1.0941801071166992,0.22250111401081085,-0.34421244263648987
1772651044954321400,7.5923212890625,-1.0608890056610107,0.188599094748497,-0.27533939480781555
1772651044964198700,7.60219873046875,-1.0227110385894775,0.16874656081199646,-0.1913478970527649
1772651044974076200,7.612076171875,-0.9817842841148376,0.16660858690738678,-0.11468657106161118
1772651044983953400,7.621953369140625,-0.9374978542327881,0.16721943020820618,-0.06383354216814041
1772651044993830700,7.63183056640625,-0.9025267958641052,0.17057909071445465,-0.046729814261198044
1772651045003708200,7.641708251953125,-0.8832851648330688,0.17653486132621765,-0.06276455521583557
1772651045013585400,7.65158544921875,-0.8803836107254028,0.17439688742160797,-0.09590301662683487
1772651045023463000,7.661462890625,-0.8915315866470337,0.15362808108329773,-0.13682979345321655
1772651045033340200,7.671340087890625,-0.9098569750785828,0.12079504877328873,-0.1692046970129013
1772651045043217700,7.6812177734375,-0.9261971712112427,0.08872556686401367,-0.1916533261537552
1772651045053095000,7.691094970703125,-0.9295567870140076,0.05421269312500954,-0.20310671627521515
1772651045062972400,7.700972412109375,-0.9158127307891846,0.02107422985136509,-0.19989976286888123
1772651045072849700,7.710849609375,-0.8811471462249756,-0.008551862090826035,-0.17592400312423706
1772651045082727200,7.72072705078125,-0.8324320912361145,-0.019088976085186005,-0.13973131775856018
1772651045092604400,7.7306044921875,-0.778982937335968,-0.021685076877474785,-0.10659284889698029
1772651045102482000,7.74048193359375,-0.7385143637657166,-0.03298575058579445,-0.08460234850645065
1772651045112359200,7.750359130859375,-0.7203416228294373,-0.06291726976633072,-0.072232685983181
1772651045122236700,7.760236572265625,-0.7191199064254761,-0.11377029865980148,-0.0713164210319519
1772651045132114000,7.770114013671875,-0.7301151752471924,-0.18493400514125824,-0.0787992998957634
1772651045141991400,7.779991455078125,-0.7368345260620117,-0.2586938142776489,-0.09987352788448334
1772651045151868700,7.78986865234375,-0.7383615970611572,-0.31657159328460693,-0.13270656764507294
1772651045161746000,7.799745849609375,-0.7350019812583923,-0.3379512429237366,-0.18050536513328552
1772651045171623400,7.80962353515625,-0.7264500856399536,-0.2713688910007477,-0.2414373755455017
1772651045181500700,7.819500732421875,-0.7244648337364197,-0.0984991192817688,-0.30007871985435486
1772651045191378200,7.829378173828125,-0.7525638341903687,0.12339114397764206,-0.34100547432899475
1772651045201255400,7.83925537109375,-0.807081937789917,0.26846736669540405,-0.3877353072166443
1772651045211133000,7.8491328125,-0.8704573512077332,0.2892361879348755,-0.48898324370384216
1772651045221010200,7.85901025390625,-0.9289459586143494,0.20585553348064423,-0.6533011198043823
1772651045230887700,7.8688876953125,-1.0172133445739746,0.01725643500685692,-0.8502993583679199
1772651045240765000,7.878764892578125,-1.1517524719238281,-0.23196925222873688,-1.0204203128814697
1772651045250642400,7.888642333984375,-1.2997303009033203,-0.46424391865730286,-1.116476058959961
1772651045260505900,7.898505859375,-1.4003673791885376,-0.661853015422821,-1.1250278949737549
1772651045270397200,7.908397216796875,-1.4367127418518066,-0.7846332788467407,-1.0390511751174927
1772651045280274400,7.9182744140625,-1.4105989933013916,-0.7438592314720154,-0.8553388714790344
1772651045290138000,7.92813818359375,-1.3401988744735718,-0.5306735634803772,-0.5978667736053467
1772651045300029200,7.938029296875,-1.2244433164596558,-0.20051060616970062,-0.3049654960632324
1772651045309906400,7.947906494140625,-1.0558494329452515,0.15652960538864136,-0.018936265259981155
1772651045319770000,7.95777001953125,-0.8480086922645569,0.4390464723110199,0.22021043300628662
1772651045329661200,7.9676611328125,-0.6340594291687012,0.5644228458404541,0.38727715611457825
1772651045339538700,7.97753857421875,-0.4608842432498932,0.538919985294342,0.49203747510910034
1772651045349402000,7.987402099609375,-0.35352784395217896,0.4178195297718048,0.5453338623046875
1772651045359293400,7.99729345703125,-0.31290650367736816,0.25502872467041016,0.5523586273193359
1772651045369170700,8.007170654296875,-0.3365768492221832,0.10078980028629303,0.5169295072555542
1772651045379034400,8.017034423828125,-0.4143071472644806,-0.007635590620338917,0.4349232614040375
1772651045388925400,8.026925537109374,-0.5375455617904663,-0.055587101727724075,0.3176405727863312
1772651045398802700,8.036802734375,-0.6823163628578186,-0.04031591862440109,0.18218518793582916
1772651045408680200,8.04668017578125,-0.825101912021637,0.025961007922887802,0.04963133856654167
1772651045418557400,8.056557373046875,-0.9422318935394287,0.1104106456041336,-0.05619794875383377
1772651045428435000,8.06643505859375,-1.0094250440597534,0.18615570664405823,-0.11422843486070633
1772651045438312200,8.076312255859374,-1.0155335664749146,0.24556060135364532,-0.11514470726251602
1772651045448189700,8.086189697265626,-0.9642223715782166,0.284196674823761,-0.05894676223397255
1772651045458067000,8.09606689453125,-0.8750386834144592,0.29351210594177246,0.034818295389413834
1772651045467944400,8.1059443359375,-0.7687512636184692,0.27411770820617676,0.14874130487442017
1772651045477821700,8.11582177734375,-0.6722373962402344,0.24128466844558716,0.25976279377937317
1772651045487699200,8.12569921875,-0.6053496599197388,0.2017323076725006,0.33291175961494446
1772651045497576400,8.135576416015626,-0.5749599933624268,0.17332790791988373,0.35444411635398865
1772651045507453700,8.14545361328125,-0.5745018720626831,0.16248537600040436,0.32374903559684753
1772651045517331200,8.155331298828125,-0.6001574397087097,0.164165198802948,0.2564031481742859
1772651045527208400,8.16520849609375,-0.6436802744865417,0.16859383881092072,0.16691401600837708
1772651045537086000,8.1750859375,-0.6931589245796204,0.1650814712047577,0.08063183724880219
1772651045546963200,8.184963134765624,-0.7353073954582214,0.16111096739768982,0.010689826682209969
1772651045556840700,8.1948408203125,-0.7594358325004578,0.15500248968601227,-0.03527642786502838
1772651045566718000,8.204718017578125,-0.7667660117149353,0.14690876007080078,-0.051769305020570755
1772651045576595500,8.214595458984375,-0.7574505805969238,0.14583978056907654,-0.03695625811815262
1772651045586472700,8.22447265625,-0.7360709309577942,0.16767756640911102,-0.0010689827613532543
1772651045596350200,8.23435009765625,-0.7116370797157288,0.21058958768844604,0.04840964451432228
1772651045606227500,8.2442275390625,-0.6923953890800476,0.26434415578842163,0.0910162404179573
1772651045616104700,8.254104736328125,-0.684148907661438,0.32344362139701843,0.10979979485273361
1772651045625982200,8.263982177734375,-0.6875085830688477,0.3906368315219879,0.09712471067905426
1772651045635859500,8.273859375,-0.6922426819801331,0.46867257356643677,0.056808795779943466
1772651045645737000,8.283737060546875,-0.69651859998703,0.5346440672874451,-0.004275931045413017
1772651045655614200,8.2936142578125,-0.698503851890564,0.5602996349334717,-0.07498150318861008
1772651045665491700,8.30349169921875,-0.6988092660903931,0.5375455617904663,-0.13301199674606323
1772651045675369000,8.313368896484375,-0.6954495906829834,0.4683671295642853,-0.17378604412078857
1772651045685246500,8.32324658203125,-0.6807892918586731,0.3706315755844116,-0.20646637678146362
1772651045695123700,8.333123779296875,-0.6562026739120483,0.2692309319972992,-0.23471805453300476
1772651045705001200,8.343001220703124,-0.6281036734580994,0.18691925704479218,-0.26495498418807983
1772651045714878500,8.35287841796875,-0.6088619828224182,0.13316470384597778,-0.3002314269542694
1772651045724755700,8.362755615234375,-0.6018372774124146,0.10766182839870453,-0.34665581583976746
1772651045734633200,8.37263330078125,-0.6029062271118164,0.1044548824429512,-0.4062134325504303
1772651045744510500,8.382510498046875,-0.610236406326294,0.11606097966432571,-0.46210595965385437
1772651045754388000,8.392387939453124,-0.6076403260231018,0.1316375881433487,-0.5001311898231506
1772651045764251400,8.40225146484375,-0.5888567566871643,0.13514995574951172,-0.510515570640564
1772651045774142700,8.412142822265626,-0.552664041519165,0.12201674282550812,-0.4940227270126343
1772651045784020000,8.42202001953125,-0.506239652633667,0.10644013434648514,-0.4566083252429962
1772651045793897200,8.431897216796875,-0.45141613483428955,0.08811471611261368,-0.41797223687171936
1772651045803774700,8.441774658203125,-0.3880407214164734,0.06352811306715012,-0.3805578351020813
1772651045813652000,8.45165185546875,-0.3239017724990845,0.03649812191724777,-0.3381039500236511
1772651045823529500,8.461529541015626,-0.27197974920272827,0.026877280324697495,-0.27808821201324463
1772651045833406700,8.47140673828125,-0.24097923934459686,0.0393996499478817,-0.20646637678146362
1772651045843284200,8.4812841796875,-0.22189027070999146,0.08307522535324097,-0.13438639044761658
1772651045853161500,8.491161376953125,-0.20188501477241516,0.15378080308437347,-0.072232685983181
1772651045863039000,8.5010390625,-0.1650814712047577,0.2357870489358902,-0.021837789565324783
1772651045872916200,8.510916259765626,-0.10689827054738998,0.3179459869861603,0.028098974376916885
1772651045882793500,8.52079345703125,-0.03558185324072838,0.37689274549484253,0.0791047215461731
1772651045892671000,8.5306708984375,0.03695625811815262,0.3633013963699341,0.11651911586523056
1772651045902548200,8.54054833984375,0.09239064902067184,0.2276933193206787,0.09452861547470093
1772651045912412000,8.550411865234375,0.10140064358711243,-0.025197450071573257,-0.012216945178806782
1772651045922303000,8.560302978515624,0.041384901851415634,-0.3365768492221832,-0.17470231652259827
1772651045932180500,8.570180419921876,-0.06978929787874222,-0.634364902973175,-0.3286358118057251
1772651045942044000,8.5800439453125,-0.19211146235466003,-0.8200624585151672,-0.41888850927352905
1772651045951935000,8.58993505859375,-0.2736595869064331,-0.8913788795471191,-0.418430358171463
1772651045961812500,8.5998125,-0.31687700748443604,-0.8904625773429871,-0.3423798978328705
1772651045971676200,8.60967626953125,-0.3077143132686615,-0.7821899056434631,-0.1963873952627182
1772651045981567200,8.619567138671876,-0.2539597451686859,-0.5589252710342407,-0.016798298805952072
1772651045991444500,8.629444580078125,-0.18539214134216309,-0.26663482189178467,0.14034216105937958
1772651046001322000,8.639322021484375,-0.12858334183692932,0.0024433890357613564,0.24250635504722595
1772651046011199200,8.64919921875,-0.10460758954286575,0.20906247198581696,0.3032856583595276
1772651046021076500,8.659076416015624,-0.08582404255867004,0.3339807391166687,0.35291701555252075
1772651046030940200,8.668940185546875,-0.058183200657367706,0.3480302393436432,0.4005630910396576
1772651046040831200,8.678831298828126,-0.02733541466295719,0.2916795611381531,0.4431696832180023
1772651046050708700,8.688708740234375,0.0038177953101694584,0.20142687857151031,0.47539186477661133
1772651046060572200,8.698572265625,0.02107422985136509,0.09559759497642517,0.4987567961215973
1772651046070463500,8.70846337890625,0.023975754156708717,-0.005497625097632408,0.4955498278141022
1772651046080340700,8.7183408203125,0.009620844386518002,-0.09177979826927185,0.448820024728775
1772651046090204400,8.728204345703125,-0.018630841746926308,-0.15057384967803955,0.349251925945282
1772651046100095500,8.738095458984375,-0.06062658876180649,-0.17424418032169342,0.20784078538417816
1772651046109972700,8.74797265625,-0.10674555599689484,-0.15423893928527832,0.04718795046210289
1772651046119850200,8.757850341796875,-0.14461809396743774,-0.10323318839073181,-0.09972081333398819
1772651046129727500,8.7677275390625,-0.16553960740566254,-0.03634541109204292,-0.1901262104511261
1772651046139604700,8.777604736328126,-0.17332790791988373,0.033291175961494446,-0.21807247400283813
1772651046149482200,8.787482177734375,-0.1695101112127304,0.11010521650314331,-0.19226416945457458
1772651046159359500,8.797359375,-0.149199441075325,0.1910424828529358,-0.13499724864959717
1772651046169237000,8.807237060546875,-0.1113269105553627,0.26602399349212646,-0.06245913356542587
1772651046179114200,8.8171142578125,-0.0587940476834774,0.3155026137828827,0.01511846948415041
1772651046188991500,8.826991455078126,-0.0009162708884105086,0.33917292952537537,0.09147437661886215
1772651046198869000,8.836868896484376,0.057114217430353165,0.3374931216239929,0.15393351018428802
1772651046208746200,8.846746337890625,0.10644013434648514,0.3171824514865875,0.1963873952627182
1772651046218623700,8.856623779296875,0.13942588865756989,0.2739650011062622,0.20997874438762665
1772651046228501000,8.8665009765625,0.15622419118881226,0.21975229680538177,0.19440214335918427
1772651046238378500,8.87637841796875,0.15714046359062195,0.15744587779045105,0.14690876007080078
1772651046248255700,8.886255859375,0.13988402485847473,0.09773556143045425,0.06872031837701797
1772651046258133200,8.89613330078125,0.11025793105363846,0.04199574887752533,-0.03649812191724777
1772651046268010500,8.906010498046875,0.07009471952915192,-0.017867282032966614,-0.15683503448963165
1772651046277887700,8.9158876953125,0.02886253222823143,-0.08047912269830704,-0.2722851634025574
1772651046287765200,8.92576513671875,-0.008093725889921188,-0.14217470586299896,-0.36696648597717285
1772651046297642500,8.935642578125,-0.033596597611904144,-0.19623468816280365,-0.4274403750896454
1772651046307520000,8.94552001953125,-0.05115845799446106,-0.24021568894386292,-0.4596625566482544
1772651046317397200,8.955397216796875,-0.055892523378133774,-0.26663482189178467,-0.47355934977531433
1772651046327274800,8.965274658203125,-0.05405998229980469,-0.27289602160453796,-0.4796678125858307
1772651046337152000,8.975152099609375,-0.06154286116361618,-0.26251161098480225,-0.4869979918003082
1772651046347029200,8.985029296875,-0.07650861889123917,-0.23380178213119507,-0.4897467792034149
1772651046356906800,8.99490673828125,-0.10017894953489304,-0.19394400715827942,-0.4886777997016907
1772651046366784000,9.004783935546875,-0.12613995373249054,-0.1579040139913559,-0.4825693368911743
1772651046376661500,9.01466162109375,-0.14522893726825714,-0.12339114397764206,-0.4662291705608368
1772651046386538800,9.024538818359375,-0.1507265567779541,-0.08887827396392822,-0.43950459361076355
1772651046396416000,9.034416015625,-0.1447708010673523,-0.06016845628619194,-0.40712970495224
1772651046406293500,9.04429345703125,-0.13117945194244385,-0.04337015375494957,-0.3790307343006134
1772651046416170800,9.054170654296875,-0.11835165321826935,-0.04504998400807381,-0.3668137788772583
1772651046426048000,9.064048095703125,-0.10827267915010452,-0.07070557028055191,-0.36727190017700195
1772651046435925500,9.073925537109375,-0.10918894410133362,-0.11453386396169662,-0.38666632771492004
1772651046445802800,9.083802734375,-0.11682453751564026,-0.17057909071445465,-0.4133908748626709
1772651046455680300,9.09368017578125,-0.12995775043964386,-0.2223484069108963,-0.43446511030197144
1772651046465557500,9.1035576171875,-0.14431266486644745,-0.2518217861652374,-0.4434750974178314
1772651046475435000,9.11343505859375,-0.16126367449760437,-0.2573194205760956,-0.43415969610214233
1772651046485312300,9.123312255859375,-0.17118994891643524,-0.2313583940267563,-0.41537612676620483
1772651046495189800,9.133189697265625,-0.17210622131824493,-0.183865025639534,-0.39170581102371216
1772651046505067000,9.14306689453125,-0.15347537398338318,-0.12033691257238388,-0.3578037917613983
1772651046514944300,9.1529443359375,-0.12491826713085175,-0.060932014137506485,-0.30343836545944214
1772651046524821800,9.16282177734375,-0.0922379344701767,-0.020157959312200546,-0.2283041626214981
1772651046534699000,9.172698974609375,-0.06184828653931618,0.0036650835536420345,-0.14400723576545715
1772651046544576300,9.182576171875,-0.04169032722711563,-0.007330167107284069,-0.08322793990373611
1772651046554453800,9.192453857421874,-0.04581354558467865,-0.08154810965061188,-0.08765657991170883
1772651046564331000,9.2023310546875,-0.09025268256664276,-0.18249061703681946,-0.17775654792785645
1772651046574208500,9.21220849609375,-0.17714570462703705,-0.2495311051607132,-0.34909921884536743
1772651046584085800,9.222085693359375,-0.3049654960632324,-0.2283041626214981,-0.5673243999481201
1772651046593963000,9.231962890625,-0.4677563011646271,-0.12094775587320328,-0.7840224504470825
1772651046603840500,9.241840576171874,-0.6351284384727478,0.049173206090927124,-0.9497147798538208
1772651046613717800,9.2517177734375,-0.7569924592971802,0.265718549489975,-1.019962191581726
1772651046623581400,9.26158154296875,-0.8167027831077576,0.47982051968574524,-0.9713998436927795
1772651046633472500,9.271472412109375,-0.8038749694824219,0.6780404448509216,-0.7965448498725891
1772651046643350000,9.28135009765625,-0.7084301114082336,0.859767496585846,-0.5033381581306458
1772651046653213400,9.29121337890625,-0.5551074743270874,0.9694145917892456,-0.14492350816726685
1772651046663104500,9.3011044921875,-0.38162681460380554,0.9274188280105591,0.15744587779045105
1772651046672982000,9.31098193359375,-0.2110477238893509,0.7576032876968384,0.3458922505378723
1772651046682845400,9.320845458984374,-0.06810946762561798,0.5092939138412476,0.4162923991680145
1772651046692736500,9.330736572265625,0.03374931216239929,0.19180603325366974,0.38162681460380554
1772651046702614000,9.340614013671875,0.08719844371080399,-0.1169772520661354,0.2692309319972992
1772651046712477400,9.3504775390625,0.08521319180727005,-0.31000497937202454,0.10659284889698029
1772651046722368800,9.36036865234375,0.020616095513105392,-0.35566580295562744,-0.0716218426823616
1772651046732246000,9.37024609375,-0.09330692142248154,-0.2811424434185028,-0.22815145552158356
1772651046742109700,9.380109619140624,-0.24006296694278717,-0.10918894410133362,-0.3393256664276123
1772651046752000800,9.390000732421875,-0.38071054220199585,0.1185043677687645,-0.38941511511802673
1772651046761878000,9.3998779296875,-0.4822639226913452,0.3379512429237366,-0.37322768568992615
1772651046771755500,9.409755615234374,-0.5247178077697754,0.4937172830104828,-0.2954973578453064
1772651046781632800,9.4196328125,-0.492495596408844,0.5632011890411377,-0.16844113171100616
1772651046791510000,9.429510009765625,-0.38636088371276855,0.5792359113693237,-0.012369656935334206
1772651046801373700,9.439373779296876,-0.22784602642059326,0.5549547076225281,0.14889401197433472
1772651046811264800,9.4492646484375,-0.051922015845775604,0.49646610021591187,0.30221667885780334
1772651046821142000,9.45914208984375,0.10323318839073181,0.41919392347335815,0.4318690001964569
1772651046831005700,9.469005615234375,0.21058958768844604,0.33596599102020264,0.5351021885871887
1772651046840896800,9.478896728515625,0.2724378705024719,0.26220619678497314,0.6157340407371521
1772651046850774300,9.488774169921875,0.2990097403526306,0.20906247198581696,0.6670452356338501
1772651046860637700,9.4986376953125,0.2970244884490967,0.1766875684261322,0.6781931519508362
1772651046870529000,9.508529052734374,0.27503398060798645,0.16966283321380615,0.6555918455123901
1772651046880406300,9.51840625,0.23410721123218536,0.18493400514125824,0.6077930331230164
1772651046890283500,9.528283447265625,0.17714570462703705,0.20677179098129272,0.5464028716087341
1772651046900161000,9.5381611328125,0.10369132459163666,0.23471805453300476,0.4813476502895355
1772651046910038300,9.548038330078125,0.0198525357991457,0.2667875289916992,0.4089622497558594
1772651046919915500,9.55791552734375,-0.07116370648145676,0.30130040645599365,0.3327590525150299
1772651046929793000,9.56779296875,-0.1588202863931656,0.33947837352752686,0.26037365198135376
1772651046939670300,9.577670166015626,-0.23532891273498535,0.37231141328811646,0.19898349046707153
1772651046949547800,9.5875478515625,-0.2951919436454773,0.3975088596343994,0.15591876208782196
1772651046959425000,9.597425048828125,-0.33764582872390747,0.40819868445396423,0.12720894813537598
1772651046969302300,9.60730224609375,-0.3602471649646759,0.399952232837677,0.10399674624204636
1772651046979179800,9.6171796875,-0.3639122545719147,0.38132140040397644,0.0850604772567749
1772651046989057000,9.62705712890625,-0.35658207535743713,0.363454133272171,0.07406523078680038
1772651046998934300,9.636934326171875,-0.3405473530292511,0.3455868363380432,0.07421794533729553
1772651047008811800,9.646811767578125,-0.31947311758995056,0.3292466700077057,0.0791047215461731
1772651047018689000,9.65668896484375,-0.2942756712436676,0.3164188861846924,0.08276980370283127
1772651047028566500,9.66656640625,-0.2718270421028137,0.3170297145843506,0.08215895295143127
1772651047038443800,9.67644384765625,-0.25319617986679077,0.3408527672290802,0.07467607408761978
1772651047048321000,9.686321044921876,-0.23471805453300476,0.38193225860595703,0.06841489672660828
1772651047058198500,9.696198486328125,-0.2107423096895218,0.43232715129852295,0.08215895295143127
1772651047068075800,9.70607568359375,-0.17867282032966614,0.48486000299453735,0.10995250940322876
1772651047077953000,9.715953125,-0.14080029726028442,0.5288410186767578,0.1519482582807541
1772651047087830500,9.72583056640625,-0.10170606523752213,0.555260181427002,0.20631365478038788
1772651047097707800,9.735707763671876,-0.058335911482572556,0.5584670901298523,0.2638860046863556
1772651047107585300,9.745585205078125,-0.017409147694706917,0.5253286361694336,0.30817243456840515
1772651047117462500,9.755462646484375,0.00992626789957285,0.4572191834449768,0.34100547432899475
1772651047127339800,9.76533984375,0.02244863659143448,0.3833066523075104,0.3640649616718292
1772651047137217300,9.77521728515625,0.025655584409832954,0.30985227227211,0.3742966651916504
1772651047147094500,9.785094482421876,0.023823043331503868,0.24601873755455017,0.3623851239681244
1772651047156971800,9.7949716796875,0.014202198944985867,0.1960819661617279,0.33077380061149597
1772651047166849300,9.804849365234375,-0.0006108472589403391,0.1710372269153595,0.2880144715309143
1772651047176726500,9.8147265625,-0.015576604753732681,0.17867282032966614,0.26098448038101196
1772651047186604000,9.82460400390625,-0.04306473210453987,0.20967331528663635,0.2927485406398773
1772651047196481300,9.834481201171876,-0.07681404054164886,0.25411245226860046,0.38513919711112976
1772651047206358500,9.844358642578126,-0.07055285573005676,0.34757208824157715,0.5189147591590881
1772651047216236000,9.854236083984375,-0.009468132629990578,0.5355603098869324,0.6705575585365295
1772651047226113300,9.86411328125,0.0522274412214756,0.6670452356338501,0.7401941418647766
1772651047235990500,9.873990478515625,0.06139015033841133,0.6511631608009338,0.5858024954795837
1772651047245854200,9.883854248046875,-0.06276455521583557,0.48791423439979553,0.0459662564098835
1772651047255745300,9.893745361328126,-0.3778090178966522,0.1844758689403534,-0.8814526200294495
1772651047265622500,9.90362255859375,-0.8828269839286804,-0.046729814261198044,-1.7348061800003052
1772651047275486200,9.913486328125,-1.459466814994812,-0.37735089659690857,-2.2314250469207764
1772651047285377300,9.923377197265625,-1.9157696962356567,-0.8127322793006897,-2.300145387649536
1772651047295254500,9.933254638671874,-2.097038745880127,-1.1419789791107178,-1.927833914756775
1772651047305118200,9.9431181640625,-1.968608021736145,-1.207645058631897,-1.210852026939392
1772651047315009300,9.95300927734375,-1.5636162757873535,-0.8880192041397095,-0.32100024819374084
1772651047324886800,9.96288671875,-0.9654440879821777,-0.3465031087398529,0.4546230733394623
1772651047334750200,9.972750244140625,-0.3239017724990845,0.2304421216249466,0.9191724061965942
1772651047344641300,9.982641357421874,0.13942588865756989,0.7404996156692505,1.102121114730835
1772651047354518800,9.992518798828126,0.3148917555809021,1.1448805332183838,1.12655508518219
1772651047364382200,10.00238232421875,0.2677038013935089,1.3591351509094238,1.0630269050598145
1772651047374273300,10.012273193359375,0.09391776472330093,1.3295090198516846,0.9750649333000183
1772651047384150800,10.02215087890625,-0.13774605095386505,1.09219491481781,0.8797727823257446
1772651047394014200,10.03201416015625,-0.36162158846855164,0.7450809478759766,0.7734853625297546
1772651047403905500,10.041905517578124,-0.5166240930557251,0.39857783913612366,0.6517740488052368
1772651047413782800,10.05178271484375,-0.5815265774726868,0.12369657307863235,0.5147915482521057
1772651047423646200,10.061646240234374,-0.5650337338447571,-0.05375456064939499,0.38132140040397644
1772651047433537300,10.071537353515625,-0.5018110275268555,-0.13026317954063416,0.2695363461971283
1772651047443414800,10.081414794921875,-0.4381301999092102,-0.1047603040933609,0.1882936656475067
1772651047453278200,10.0912783203125,-0.402395635843277,-0.011147962883114815,0.12339114397764206
1772651047463169500,10.10116943359375,-0.39796698093414307,0.10353861004114151,0.06276455521583557
1772651047473046800,10.111046875,-0.4130854606628418,0.21242213249206543,-0.0010689827613532543
1772651047482910500,10.120910400390626,-0.448820024728775,0.2990097403526306,-0.08307522535324097
1772651047492801500,10.130801513671875,-0.50685054063797,0.3405473530292511,-0.18569757044315338
1772651047502678800,10.1406787109375,-0.5842754244804382,0.34222719073295593,-0.29717719554901123
1772651047512556000,10.15055615234375,-0.6646018028259277,0.3086305856704712,-0.38575005531311035
1772651047522433500,10.16043359375,-0.7316423058509827,0.2782409191131592,-0.40697699785232544
1772651047532310800,10.170310791015625,-0.7725690603256226,0.2498365342617035,-0.3692571818828583
1772651047542188000,10.18018798828125,-0.7872294187545776,0.20784078538417816,-0.2930539846420288
1772651047552065500,10.1900654296875,-0.772416353225708,0.16737215220928192,-0.18310146033763885
1772651047561942800,10.19994287109375,-0.728282630443573,0.14018943905830383,-0.05482354015111923
1772651047571820000,10.209820068359376,-0.674680769443512,0.1244601309299469,0.06413896381855011
1772651047581697500,10.219697509765625,-0.6369609832763672,0.1053711548447609,0.15316994488239288
1772651047591574800,10.22957470703125,-0.6366555690765381,0.09651386737823486,0.18814095854759216
1772651047601452000,10.2394521484375,-0.6711684465408325,0.10094250738620758,0.15439164638519287
1772651047611329500,10.24932958984375,-0.726908266544342,0.1041494607925415,0.06994201242923737
1772651047621206800,10.259206787109376,-0.7832589149475098,0.09681928902864456,-0.031916771084070206
1772651047631084300,10.269084228515625,-0.8272398710250854,0.0853659063577652,-0.12003148347139359
1772651047640961500,10.27896142578125,-0.8654178380966187,0.05803048983216286,-0.1957765519618988
1772651047650838800,10.2888388671875,-0.9058864712715149,0.025961007922887802,-0.2599155008792877
1772651047660702500,10.298702392578125,-0.948951244354248,0.004581354558467865,-0.30939415097236633
1772651047670593500,10.308593505859376,-1.0005677938461304,-0.0029015245381742716,-0.3602471649646759
1772651047680470800,10.318470703125,-1.0424108505249023,-0.012675080448389053,-0.40422818064689636
1772651047690334500,10.32833447265625,-1.0720369815826416,-0.006413896102458239,-0.4411844313144684
1772651047700225500,10.3382255859375,-1.0946383476257324,0.03680354729294777,-0.4659237563610077
1772651047710102800,10.348102783203124,-1.1163233518600464,0.1310267299413681,-0.47111594676971436
1772651047719966500,10.357966552734375,-1.1520578861236572,0.2886253297328949,-0.46042612195014954
1772651047729857500,10.367857421875,-1.211920976638794,0.441795289516449,-0.5022691488265991
1772651047739734800,10.37773486328125,-1.29163658618927,0.5108210444450378,-0.6705575585365295
1772651047749598500,10.387598388671876,-1.394411563873291,0.47676628828048706,-0.9478822350502014
1772651047759489500,10.397489501953125,-1.5367389917373657,0.37857258319854736,-1.209019422531128
1772651047769366800,10.40736669921875,-1.7132738828659058,0.2211267054080963,-1.3397407531738281
1772651047779230500,10.41723046875,-1.8670547008514404,-0.0032069480512291193,-1.3229424953460693
1772651047789121500,10.42712158203125,-1.9403563737869263,-0.22647161781787872,-1.22963547706604
1772651047798998800,10.436998779296875,-1.9113410711288452,-0.3106158375740051,-1.0912786722183228
1772651047808862500,10.446862548828125,-1.7725260257720947,-0.16538690030574799,-0.8893936276435852
1772651047818753500,10.45675341796875,-1.5222313404083252,0.14248012006282806,-0.5903838872909546
1772651047828630800,10.466630859375,-1.177560806274414,0.4355340898036957,-0.19989976286888123
1772651047838494500,10.476494384765624,-0.7759287357330322,0.6303943991661072,0.23334364593029022
1772651047848385500,10.486385498046875,-0.36039987206459045,0.6801784038543701,0.6193991303443909
1772651047858262800,10.4962626953125,0.001374406274408102,0.5822901725769043,0.8964183330535889
1772651047868126500,10.50612646484375,0.2510582208633423,0.40193748474121094,1.0485193729400635
1772651047878017500,10.516017578125,0.3846810758113861,0.2047865390777588,1.0955545902252197
1772651047887894800,10.525894775390626,0.4149180054664612,0.025197450071573257,1.0724951028823853
1772651047897758500,10.535758544921874,0.3599417507648468,-0.12522368133068085,1.015686273574829
1772651047907649500,10.5456494140625,0.2441861927509308,-0.22494450211524963,0.9373451471328735
1772651047917526800,10.55552685546875,0.10033166408538818,-0.2710634768009186,0.8383878469467163
1772651047927390500,10.565390380859375,-0.04611896723508835,-0.2560977041721344,0.7238540053367615
1772651047937281500,10.575281494140626,-0.18569757044315338,-0.17363333702087402,0.6157340407371521
1772651047947158800,10.58515869140625,-0.30633988976478577,-0.036192700266838074,0.5349494814872742
1772651047957022500,10.5950224609375,-0.3981196880340576,0.12720894813537598,0.4844018816947937
1772651047966913500,10.60491357421875,-0.4640912115573883,0.2898470163345337,0.4559974670410156
1772651047976790800,10.614790771484374,-0.5103628635406494,0.430341899394989,0.43080002069473267
1772651047986654500,10.624654541015625,-0.5412106513977051,0.511431872844696,0.4022429287433624
1772651047996545500,10.634545654296875,-0.5610632300376892,0.5079194903373718,0.3623851239681244
1772651048006422800,10.6444228515625,-0.5731274485588074,0.44484952092170715,0.3136700689792633
1772651048016286500,10.654286376953126,-0.583053708076477,0.34665581583976746,0.2510582208633423
1772651048026177500,10.664177490234374,-0.5880932211875916,0.2354816198348999,0.1719534993171692
1772651048036054800,10.6740546875,-0.5963396430015564,0.12171131372451782,0.08811471611261368
1772651048045932000,10.68393212890625,-0.6113054156303406,0.030847785994410515,0.011300674639642239
1772651048055809500,10.6938095703125,-0.6288672685623169,-0.04107947647571564,-0.0522274412214756
1772651048065686800,10.703686767578125,-0.6320741772651672,-0.11438114941120148,-0.09407047927379608
1772651048075564000,10.71356396484375,-0.6100836992263794,-0.188599094748497,-0.10598199814558029
1772651048085441500,10.723441650390624,-0.5696150660514832,-0.2551814317703247,-0.0910162404179573
1772651048095318800,10.73331884765625,-0.5273138880729675,-0.31000497937202454,-0.06184828653931618
1772651048105196000,10.743196044921875,-0.4975350797176361,-0.33169007301330566,-0.0390942245721817
1772651048115073500,10.753073486328125,-0.4885250926017761,-0.3174878656864166,-0.03680354729294777
1772651048124950800,10.76295068359375,-0.4987567961215973,-0.28160059452056885,-0.05604523420333862
1772651048134828000,10.772828125,-0.5259394645690918,-0.2348707765340805,-0.08994726091623306
1772651048144705500,10.78270556640625,-0.5566345453262329,-0.1895153671503067,-0.14156384766101837
1772651048154582800,10.792582763671875,-0.5806103348731995,-0.17271706461906433,-0.20967331528663635
1772651048164460000,10.8024599609375,-0.5934380888938904,-0.18096350133419037,-0.2851129472255707
1772651048174337300,10.812337158203125,-0.5896202921867371,-0.20997874438762665,-0.3626905679702759
1772651048184214800,10.82221484375,-0.5770979523658752,-0.24128466844558716,-0.4312581717967987
1772651048194078200,10.832078125,-0.5668662786483765,-0.25716668367385864,-0.4796678125858307
1772651048203969300,10.84196923828125,-0.5544965863227844,-0.2432699203491211,-0.4999784827232361
1772651048213846800,10.8518466796875,-0.5340332388877869,-0.208298921585083,-0.4946335554122925
1772651048223710200,10.861710205078126,-0.4990622103214264,-0.17210622131824493,-0.4422534108161926
1772651048233601300,10.871601318359374,-0.4286620616912842,-0.16217994689941406,-0.33199548721313477
1772651048243478800,10.881478759765624,-0.30908870697021484,-0.19806721806526184,-0.16767756640911102
1772651048253356000,10.89135595703125,-0.15393351018428802,-0.27839362621307373,0.017867282032966614
1772651048263233300,10.9012333984375,0.01588202826678753,-0.37475478649139404,0.19470755755901337
1772651048273110800,10.91111083984375,0.17485502362251282,-0.4553866386413574,0.34635040163993835
1772651048282988000,10.920988037109375,0.26938363909721375,-0.5479300022125244,0.43446511030197144
1772651048292865300,10.930865234375,0.22708246111869812,-0.7319477200508118,0.41827765107154846
1772651048302742500,10.940742431640626,0.050547610968351364,-1.0063709020614624,0.28694549202919006
1772651048312606200,10.950606201171874,-0.20539739727973938,-1.3189719915390015,0.04688252881169319
1772651048322497300,10.960497314453125,-0.45828816294670105,-1.5411676168441772,-0.22570806741714478
1772651048332374500,10.97037451171875,-0.6470399498939514,-1.6254645586013794,-0.48928865790367126
1772651048342238200,10.98023828125,-0.7189671993255615,-1.5071128606796265,-0.6910209655761719
1772651048352129300,10.99012939453125,-0.6820109486579895,-1.2960652112960815,-0.8258655071258545
1772651048362006500,11.000006591796875,-0.5795413255691528,-1.037218689918518,-0.8648070096969604
1772651048371870200,11.0098701171875,-0.43171629309654236,-0.6864396333694458,-0.7418739795684814
1772651048381761300,11.01976123046875,-0.2658712565898895,-0.2304421216249466,-0.4324798583984375
1772651048391638500,11.029638427734374,-0.07467607408761978,0.2435753494501114,-0.0018325417768210173
1772651048401502200,11.039502197265625,0.13026317954063416,0.616802990436554,0.41110020875930786
1772651048411393300,11.049393310546876,0.3101576864719391,0.8101361989974976,0.6789567470550537
1772651048421270500,11.0592705078125,0.44393324851989746,0.8150229454040527,0.770125687122345
1772651048431134000,11.069134033203126,0.5419742465019226,0.6922426819801331,0.7296570539474487
1772651048441025300,11.079025390625,0.6094728708267212,0.5012001991271973,0.6201626658439636
1772651048450902500,11.088902587890624,0.6485670804977417,0.2608317732810974,0.49448084831237793
1772651048460766000,11.098765869140625,0.6569662094116211,0.01847812905907631,0.3972034156322479
1772651048470657000,11.108656982421875,0.6320741772651672,-0.16111096739768982,0.3533751368522644
1772651048480534500,11.118534423828125,0.5725166201591492,-0.2501419484615326,0.34421244263648987
1772651048490411800,11.128411865234375,0.4888305068016052,-0.25289076566696167,0.33260634541511536
1772651048500289000,11.1382890625,0.3958290219306946,-0.21058958768844604,0.29320669174194336
1772651048510166500,11.14816650390625,0.30191126465797424,-0.14782503247261047,0.2279987335205078
1772651048520043800,11.158043701171875,0.21028417348861694,-0.09315420687198639,0.15179555118083954
1772651048529921000,11.167921142578125,0.11545012891292572,-0.06780404597520828,0.07513421028852463
1772651048539798300,11.17779833984375,0.023975754156708717,-0.08521319180727005,0.004886778071522713
1772651048549675800,11.18767578125,-0.059557609260082245,-0.13866232335567474,-0.04993676394224167
1772651048559553000,11.197552978515626,-0.1423274129629135,-0.19989976286888123,-0.0850604772567749
1772651048569430300,11.20743017578125,-0.23319093883037567,-0.258999228477478,-0.09071081876754761
1772651048579307800,11.217307861328125,-0.3309265077114105,-0.29381752014160156,-0.06841489672660828
1772651048589185000,11.22718505859375,-0.42392799258232117,-0.2958027720451355,-0.017409147694706917
1772651048599062300,11.237062255859374,-0.4969242513179779,-0.2515163719654083,0.055587101727724075
1772651048608939500,11.246939453125,-0.5444176197052002,-0.1907370537519455,0.1313321590423584
1772651048618817000,11.256817138671876,-0.5667135715484619,-0.11529742181301117,0.19287502765655518
1772651048628694300,11.2666943359375,-0.5769452452659607,-0.04214845970273018,0.21822518110275269
1772651048638571500,11.276571533203125,-0.5818319916725159,-0.011147962883114815,0.19302773475646973
1772651048648449000,11.286448974609375,-0.5816792845726013,-0.024281177669763565,0.12675081193447113
1772651048658326300,11.296326171875,-0.5796940326690674,-0.05344913527369499,0.03497100621461868
1772651048668203500,11.30620361328125,-0.5853443741798401,-0.07437065243721008,-0.07406523078680038
1772651048678080800,11.316080810546875,-0.6047387719154358,-0.08017370104789734,-0.19974705576896667
1772651048687958300,11.325958251953125,-0.6381826996803284,-0.0841442123055458,-0.32726141810417175
1772651048697835500,11.33583544921875,-0.6749862432479858,-0.10140064358711243,-0.44423866271972656
1772651048707712800,11.345712646484374,-0.7061394453048706,-0.1122431829571724,-0.5360184907913208
1772651048717590300,11.35559033203125,-0.7134696245193481,-0.10552386194467545,-0.5919110178947449
1772651048727467500,11.365467529296875,-0.6960604786872864,-0.09040539711713791,-0.6134433746337891
1772651048737344800,11.3753447265625,-0.6558972597122192,-0.06200099736452103,-0.5928272604942322
1772651048747222000,11.385221923828125,-0.5996993184089661,-0.02626643143594265,-0.5329642295837402
1772651048757099500,11.395099609375,-0.5247178077697754,0.010537114925682545,-0.44133713841438293
1772651048766976800,11.404976806640626,-0.43797749280929565,0.03451287001371384,-0.333064466714859
1772651048776854000,11.41485400390625,-0.34512871503829956,0.06291726976633072,-0.21929416060447693
1772651048786731500,11.4247314453125,-0.25594499707221985,0.09315420687198639,-0.111021488904953
1772651048796608800,11.43460888671875,-0.17561858892440796,0.12110047042369843,-0.033443886786699295
1772651048806486000,11.444486083984375,-0.09376505762338638,0.14186927676200867,0.001374406274408102
1772651048816363300,11.45436328125,-0.012064233422279358,0.14996300637722015,-0.001985253533348441
1772651048826240800,11.46424072265625,0.06765133142471313,0.1453816443681717,-0.03817795217037201
1772651048836118000,11.474117919921875,0.14370182156562805,0.12644538283348083,-0.09956810623407364
1772651048845995300,11.483995361328125,0.19776180386543274,0.06490252166986465,-0.18691925704479218
1772651048855872500,11.49387255859375,0.17745113372802734,-0.06459710001945496,-0.29534465074539185
1772651048865750000,11.50375,0.06459710001945496,-0.2548760175704956,-0.37078428268432617
1772651048875613400,11.513613525390625,-0.09330692142248154,-0.41949936747550964,-0.39292749762535095
1772651048885504500,11.52350439453125,-0.24632415175437927,-0.4677563011646271,-0.3568875193595886
1772651048895381800,11.5333818359375,-0.3640649616718292,-0.45523393154144287,-0.266176700592041
1772651048905245400,11.543245361328125,-0.4375193417072296,-0.44301697611808777,-0.14400723576545715
1772651048915136500,11.553136474609374,-0.4524851143360138,-0.43202173709869385,-0.03130592033267021
