time,seconds_elapsed,z,y,x
1772649847037353000,0.00035302734375,-0.32283276319503784,-0.3095468580722809,0.2910687327384949
1772649847047229400,0.0102294921875,-0.31382277607917786,-0.2608317732810974,0.3312319219112396
1772649847057106200,0.020106201171875,-0.2883199155330658,-0.23166382312774658,0.3568875193595886
1772649847066983000,0.02998291015625,-0.24540787935256958,-0.24021568894386292,0.3574983477592468
1772649847076859600,0.039859619140625,-0.188599094748497,-0.2739650011062622,0.333064466714859
1772649847086736100,0.049736083984375,-0.13621893525123596,-0.3038965165615082,0.28160059452056885
1772649847096612900,0.05961279296875,-0.09910997003316879,-0.30603447556495667,0.1969982385635376
1772649847106489600,0.069489501953125,-0.06872031837701797,-0.2730487287044525,0.08093725889921188
1772649847116366000,0.079365966796875,-0.03023693896830082,-0.19348587095737457,-0.031916771084070206
1772649847126242800,0.089242919921875,-0.004581354558467865,-0.10369132459163666,-0.12140589207410812
1772649847136119300,0.099119384765625,0.00916270911693573,-0.046577103435993195,-0.1632489264011383
1772649847185502700,0.148502685546875,0.08842013776302338,0.07559234648942947,-0.11010521650314331
1772649847215132700,0.178132568359375,0.08918370306491852,0.07589777559041977,-0.02504473738372326
1772649847225009200,0.188009033203125,0.09834641218185425,0.041384901851415634,0.004123218823224306
1772649847234886000,0.197885986328125,0.10918894410133362,0.019088976085186005,0.03237490355968475
1772649847244762600,0.2077626953125,0.11606097966432571,0.01252236869186163,0.05329642444849014
1772649847254639000,0.21763916015625,0.11804623156785965,0.011911521665751934,0.06184828653931618
1772649847264515800,0.227515869140625,0.11865708231925964,0.010231691412627697,0.06612421572208405
1772649847274392600,0.237392578125,0.12125317752361298,0.0035123717971146107,0.07116370648145676
1772649847284269000,0.24726904296875,0.12369657307863235,0.0018325417768210173,0.0784938707947731
1772649847294145800,0.257145751953125,0.12247487902641296,0.007941014133393764,0.08521319180727005
1772649847304022500,0.2670224609375,0.12186402827501297,0.01588202826678753,0.08582404255867004
1772649847313899000,0.27689892578125,0.11743538826704025,0.034818295389413834,0.07956285774707794
1772649847323775700,0.286775634765625,0.11331216990947723,0.06352811306715012,0.07269082218408585
1772649847333652500,0.296652587890625,0.10644013434648514,0.08368607610464096,0.06948387622833252
1772649847343529000,0.306529052734375,0.09590301662683487,0.08857285231351852,0.07070557028055191
1772649847353405700,0.31640576171875,0.08857285231351852,0.09972081333398819,0.07925742864608765
1772649847363282400,0.326282470703125,0.0910162404179573,0.10842538625001907,0.09208522737026215
1772649847373159000,0.336158935546875,0.09972081333398819,0.1178935244679451,0.1122431829571724
1772649847383035600,0.34603564453125,0.10949437320232391,0.13545538485050201,0.1366770714521408
1772649847392912400,0.355912353515625,0.11804623156785965,0.1498102843761444,0.15927842259407043
1772649847402788900,0.365788818359375,0.12781979143619537,0.1579040139913559,0.17210622131824493
1772649847412665600,0.37566552734375,0.13514995574951172,0.16217994689941406,0.17439688742160797
1772649847422542000,0.3855419921875,0.13453911244869232,0.15469707548618317,0.16217994689941406
1772649847432418800,0.395418701171875,0.12354385852813721,0.14095300436019897,0.13591352105140686
1772649847442295600,0.405295654296875,0.10918894410133362,0.1510319858789444,0.10903623700141907
1772649847452172000,0.415172119140625,0.09773556143045425,0.16966283321380615,0.08612946420907974
1772649847462048800,0.425048828125,0.0981936976313591,0.168899267911911,0.07207997888326645
1772649847471925500,0.434925537109375,0.10201149433851242,0.1566823273897171,0.07024743407964706
1772649847481802000,0.444802001953125,0.10231691598892212,0.1432436853647232,0.08200624585151672
1772649847491678700,0.4546787109375,0.08674030750989914,0.12323843687772751,0.09498675167560577
1772649847501555500,0.464555419921875,0.06551336497068405,0.11651911586523056,0.10369132459163666
1772649847511432000,0.474431884765625,0.051463883370161057,0.12644538283348083,0.1104106456041336
1772649847521308700,0.48430859375,0.04459185153245926,0.12995775043964386,0.10979979485273361
1772649847531185400,0.494185302734375,0.0459662564098835,0.11285403370857239,0.10369132459163666
1772649847541062000,0.504061767578125,0.04993676394224167,0.08032641559839249,0.09407047927379608
1772649847550938600,0.513938720703125,0.04947862774133682,0.055587101727724075,0.08261708915233612
1772649847560815400,0.5238154296875,0.04092676565051079,0.04871506989002228,0.06978929787874222
1772649847570691800,0.53369189453125,0.030847785994410515,0.07742489129304886,0.06841489672660828
1772649847580568600,0.543568603515625,0.0261137206107378,0.12293300777673721,0.07742489129304886
1772649847590445300,0.5534453125,0.024128466844558716,0.14813046157360077,0.08948912471532822
1772649847600321800,0.56332177734375,0.021837789565324783,0.1450762301683426,0.09559759497642517
1772649847610198500,0.573198486328125,0.015423892997205257,0.11636640131473541,0.09269607067108154
1772649847620075000,0.583074951171875,0.007177455350756645,0.07452336698770523,0.07895200699567795
1772649847629951700,0.59295166015625,-0.0024433890357613564,0.02214321307837963,0.05344913527369499
1772649847639828500,0.602828369140625,-0.010689826682209969,-0.02229592576622963,0.032222192734479904
1772649847649705000,0.612705078125,-0.017867282032966614,-0.03894151374697685,0.020616095513105392
1772649847659581700,0.622581787109375,-0.019241688773036003,-0.03527642786502838,0.019394399598240852
1772649847669458400,0.63245849609375,-0.01511846948415041,-0.019394399598240852,0.02733541466295719
1772649847679335000,0.6423349609375,-0.010231691412627697,-0.0007635590736754239,0.04367557913064957
1772649847689211600,0.652211669921875,-0.0065666078589856625,0.019088976085186005,0.06016845628619194
1772649847699088400,0.66208837890625,-0.005955760832875967,0.025350160896778107,0.07360709458589554
1772649847708964900,0.67196484375,-0.003359660040587187,0.0261137206107378,0.08643488585948944
1772649847718841600,0.681841552734375,-0.005650337319821119,0.025655584409832954,0.10308047384023666
1772649847728718300,0.69171826171875,-0.010995250195264816,0.012980503961443901,0.10979979485273361
1772649847738594800,0.7015947265625,-0.014507622458040714,0.006108472589403391,0.10873081535100937
1772649847748471600,0.711471435546875,-0.015271181240677834,0.011606098152697086,0.10369132459163666
1772649847758348000,0.72134814453125,-0.015271181240677834,0.007177455350756645,0.09269607067108154
1772649847768224800,0.731224853515625,-0.017867282032966614,-0.00030542362947016954,0.07986827939748764
1772649847778101500,0.7411015625,-0.017867282032966614,-0.005955760832875967,0.06826218217611313
1772649847787978000,0.75097802734375,-0.016034740954637527,-0.01725643500685692,0.052990999072790146
1772649847797854700,0.760854736328125,-0.008093725889921188,-0.025808297097682953,0.04321744292974472
1772649847807731500,0.7707314453125,0.0016798300202935934,-0.029473381116986275,0.042606595903635025
1772649847817608000,0.78060791015625,0.009773556143045425,-0.031916771084070206,0.04443913698196411
1772649847827484700,0.790484619140625,0.014202198944985867,-0.046577103435993195,0.046424392610788345
1772649847837361400,0.800361328125,0.018019994720816612,-0.058183200657367706,0.0525328628718853
1772649847847238000,0.81023779296875,0.01511846948415041,-0.05986303091049194,0.06245913356542587
1772649847857114600,0.820114501953125,0.009773556143045425,-0.06902574002742767,0.072232685983181
1772649847866991000,0.8299912109375,0.0038177953101694584,-0.0725381150841713,0.08154810965061188
1772649847876867800,0.839867919921875,-0.0029015245381742716,-0.07421794533729553,0.09437590092420578
1772649847886744600,0.84974462890625,-0.006719320081174374,-0.0594048947095871,0.10231691598892212
1772649847896621000,0.85962109375,-0.014202198944985867,-0.04734066128730774,0.09972081333398819
1772649847906497800,0.869497802734375,-0.01817270554602146,-0.027182703837752342,0.08368607610464096
1772649847916374500,0.87937451171875,-0.01725643500685692,-0.004886778071522713,0.06459710001945496
1772649847926251000,0.8892509765625,-0.019088976085186005,0.02870982140302658,0.04184303805232048
1772649847936127700,0.899127685546875,-0.025197450071573257,0.06581879407167435,0.020157959312200546
1772649847946004200,0.909004150390625,-0.029167955741286278,0.0925433561205864,0.003359660040587187
1772649847955881000,0.918880859375,-0.02993151545524597,0.08933641016483307,-0.008857285603880882
1772649847965757700,0.9287578125,-0.026571854948997498,0.0594048947095871,-0.006261184345930815
1772649847975634200,0.93863427734375,-0.02351761981844902,0.020310672000050545,0.008093725889921188
1772649847985511000,0.948510986328125,-0.019241688773036003,-0.020463382825255394,0.029167955741286278
1772649847995387600,0.9583876953125,-0.012675080448389053,-0.05085303261876106,0.04947862774133682
1772649848005264100,0.96826416015625,-0.003359660040587187,-0.055587101727724075,0.06245913356542587
1772649848015140900,0.978140869140625,0.001985253533348441,-0.04153761267662048,0.0647498071193695
1772649848025017600,0.988017578125,0.004428642801940441,-0.03237490355968475,0.05803048983216286
1772649848034894000,0.99789404296875,0.0065666078589856625,-0.023364907130599022,0.042606595903635025
1772649848044770800,1.007770751953125,0.008246437646448612,-0.017561858519911766,0.02473931387066841
1772649848054647300,1.017647216796875,0.00916270911693573,-0.016492875292897224,0.002748812548816204
1772649848064524000,1.02752392578125,0.01817270554602146,-0.015423892997205257,-0.013896775431931019
1772649848074400800,1.03740087890625,0.031000498682260513,-0.019088976085186005,-0.020616095513105392
1772649848084277200,1.04727734375,0.0397050715982914,-0.028251685202121735,-0.012675080448389053
1772649848094154000,1.057154052734375,0.04474456235766411,-0.037261683493852615,0.002748812548816204
1772649848104030700,1.06703076171875,0.04550812020897865,-0.041384901851415634,0.017561858519911766
1772649848113907200,1.0769072265625,0.04306473210453987,-0.03268032893538475,0.02351761981844902
1772649848123784000,1.086783935546875,0.045355409383773804,-0.017409147694706917,0.018019994720816612
1772649848133660400,1.096660400390625,0.054365407675504684,-0.007177455350756645,0.00992626789957285
1772649848143537200,1.106537109375,0.06337540596723557,-0.009009997360408306,0.001374406274408102
1772649848153414000,1.116413818359375,0.06963659077882767,-0.017714571207761765,-0.0010689827613532543
1772649848163290400,1.126290283203125,0.07513421028852463,-0.026877280324697495,0.0007635590736754239
1772649848173167000,1.1361669921875,0.07589777559041977,-0.031000498682260513,0.007024743594229221
1772649848183043800,1.1460439453125,0.07406523078680038,-0.03161134570837021,0.01435491070151329
1772649848192920300,1.15592041015625,0.06795676052570343,-0.032222192734479904,0.01435491070151329
1772649848202797000,1.165797119140625,0.06368082761764526,-0.03405473381280899,0.008246437646448612
1772649848212673500,1.175673583984375,0.06184828653931618,-0.03542914241552353,-0.0021379655227065086
1772649848222550300,1.18555029296875,0.05986303091049194,-0.04169032722711563,-0.013744063675403595
1772649848232427000,1.195427001953125,0.05390727147459984,-0.05467082932591438,-0.02229592576622963
1772649848242303500,1.205303466796875,0.03680354729294777,-0.0584886260330677,-0.027793550863862038
1772649848252180200,1.21518017578125,0.015271181240677834,-0.042606595903635025,-0.031000498682260513
1772649848262056700,1.225056640625,-0.0021379655227065086,-0.01435491070151329,-0.027946261689066887
1772649848271933400,1.234933349609375,-0.013896775431931019,0.017714571207761765,-0.014049487188458443
1772649848281810200,1.24481005859375,-0.021837789565324783,0.03436015918850899,0.005497625097632408
1772649848291686700,1.254686767578125,-0.02229592576622963,0.02733541466295719,0.025197450071573257
1772649848301563400,1.2645634765625,-0.02092151902616024,0.02870982140302658,0.03924693539738655
1772649848311440100,1.274440185546875,-0.021532366052269936,0.03298575058579445,0.04474456235766411
1772649848321316600,1.284316650390625,-0.0198525357991457,0.04581354558467865,0.04230117425322533
1772649848331193300,1.294193359375,-0.023059483617544174,0.062306419014930725,0.034818295389413834
1772649848341069800,1.30406982421875,-0.023364907130599022,0.0713164210319519,0.028098974376916885
1772649848350946600,1.313946533203125,-0.01969982497394085,0.07375980913639069,0.026724567636847496
1772649848360823300,1.3238232421875,-0.01038440316915512,0.05787777900695801,0.026877280324697495
1772649848370699800,1.33369970703125,-0.0035123717971146107,0.03955236077308655,0.025655584409832954
1772649848380576500,1.343576416015625,0.0004581354442052543,0.010078979656100273,0.016645587980747223
1772649848390453200,1.353453369140625,0.0029015245381742716,-0.010537114925682545,-0.0035123717971146107
1772649848400329700,1.363329833984375,0.005955760832875967,-0.02733541466295719,-0.029167955741286278
1772649848410206500,1.37320654296875,0.010078979656100273,-0.028251685202121735,-0.053143709897994995
1772649848420083200,1.383083251953125,0.012369656935334206,-0.022754060104489326,-0.06352811306715012
1772649848429959700,1.392959716796875,0.011606098152697086,-0.00916270911693573,-0.05619794875383377
1772649848439836400,1.40283642578125,0.00916270911693573,0.008246437646448612,-0.037261683493852615
1772649848449713000,1.412712890625,0.01038440316915512,0.03420744836330414,-0.014202198944985867
1772649848459589600,1.422589599609375,0.01817270554602146,0.06261184066534042,0.004734066314995289
1772649848469466400,1.43246630859375,0.027946261689066887,0.0794101431965828,0.02229592576622963
1772649848479342800,1.4423427734375,0.03497100621461868,0.06734590977430344,0.038483377546072006
1772649848489219600,1.452219482421875,0.03161134570837021,0.04046862944960594,0.05024218559265137
1772649848499096000,1.462095947265625,0.020310672000050545,0.02092151902616024,0.0522274412214756
1772649848508972800,1.471972900390625,0.0007635590736754239,0.004275931045413017,0.038788799196481705
1772649848518849500,1.481849609375,-0.008704573847353458,0.002748812548816204,0.016187451779842377
1772649848528726000,1.49172607421875,-0.008399149402976036,0.014660334214568138,-0.006108472589403391
1772649848538602800,1.501602783203125,-0.004428642801940441,0.025502873584628105,-0.023975754156708717
1772649848548479200,1.511479248046875,-0.0007635590736754239,0.03649812191724777,-0.027029991149902344
1772649848558356000,1.52135595703125,-0.0038177953101694584,0.04214845970273018,-0.015423892997205257
1772649848568232700,1.531232666015625,-0.012216945178806782,0.03924693539738655,-0.0006108472589403391
1772649848578109200,1.541109130859375,-0.02244863659143448,0.033291175961494446,0.015423892997205257
1772649848587986000,1.55098583984375,-0.030847785994410515,0.027182703837752342,0.024586603045463562
1772649848597862700,1.560862548828125,-0.03497100621461868,0.0261137206107378,0.02886253222823143
1772649848607739100,1.5707392578125,-0.036192700266838074,0.031000498682260513,0.03130592033267021
1772649848617616000,1.580615966796875,-0.03573456406593323,0.03894151374697685,0.0331384651362896
1772649848627492400,1.590492431640625,-0.04016320779919624,0.06047387793660164,0.0397050715982914
1772649848637369000,1.600369140625,-0.051769305020570755,0.06658235192298889,0.04092676565051079
1772649848647245800,1.610245849609375,-0.06032116711139679,0.06658235192298889,0.04153761267662048
1772649848657122300,1.620122314453125,-0.06032116711139679,0.06047387793660164,0.04092676565051079
1772649848666999000,1.6299990234375,-0.057114217430353165,0.0462716780602932,0.037414394319057465
1772649848676875500,1.63987548828125,-0.05650337040424347,0.04016320779919624,0.03374931216239929
1772649848686752300,1.649752197265625,-0.05405998229980469,0.04321744292974472,0.031916771084070206
1772649848696629000,1.65962890625,-0.049173206090927124,0.03833066672086716,0.03558185324072838
1772649848706505500,1.66950537109375,-0.04230117425322533,0.02626643143594265,0.04367557913064957
1772649848716382200,1.67938232421875,-0.034665580838918686,0.010995250195264816,0.05405998229980469
1772649848726258700,1.6892587890625,-0.025350160896778107,-0.0036650835536420345,0.05604523420333862
1772649848736135400,1.699135498046875,-0.012980503961443901,-0.021379653364419937,0.05360184609889984
1772649848746012200,1.70901220703125,-0.004275931045413017,-0.03817795217037201,0.041384901851415634
1772649848755888600,1.718888671875,0.0018325417768210173,-0.0525328628718853,0.020005248486995697
1772649848765765400,1.728765380859375,0.005344913341104984,-0.06139015033841133,-0.0068720318377017975
1772649848775641900,1.738641845703125,0.004428642801940441,-0.07085828483104706,-0.036192700266838074
1772649848785518600,1.7485185546875,0.0032069480512291193,-0.08765657991170883,-0.05512896552681923
1772649848795395300,1.758395263671875,0.003359660040587187,-0.10430216789245605,-0.06368082761764526
1772649848805271800,1.768271728515625,0.0016798300202935934,-0.11147962510585785,-0.058183200657367706
1772649848815148500,1.7781484375,-0.00015271181473508477,-0.10277505218982697,-0.0459662564098835
1772649848825025300,1.788025390625,-0.003359660040587187,-0.07757759839296341,-0.03436015918850899
1772649848834901800,1.79790185546875,-0.007941014133393764,-0.04749337583780289,-0.022906772792339325
1772649848844778500,1.807778564453125,-0.009773556143045425,-0.026571854948997498,-0.013744063675403595
1772649848854655000,1.817655029296875,-0.004428642801940441,-0.007941014133393764,0.00015271181473508477
1772649848864531700,1.82753173828125,-0.0007635590736754239,0.002748812548816204,0.017867282032966614
1772649848874408400,1.837408447265625,0.0038177953101694584,0.0004581354442052543,0.03023693896830082
1772649848884285000,1.847284912109375,0.010537114925682545,-0.0032069480512291193,0.03817795217037201
1772649848894161700,1.85716162109375,0.015423892997205257,-0.007482878863811493,0.03817795217037201
1772649848904038100,1.8670380859375,0.012369656935334206,-0.010078979656100273,0.026571854948997498
1772649848913915000,1.876914794921875,0.007941014133393764,-0.007788302376866341,0.013133215717971325
1772649848923791600,1.88679150390625,0.0029015245381742716,-0.009773556143045425,0.0007635590736754239
1772649848933668000,1.896668212890625,-0.008704573847353458,-0.02107422985136509,-0.012064233422279358
1772649848943544800,1.906544921875,-0.012216945178806782,-0.029626091942191124,-0.018630841746926308
1772649848953421300,1.91642138671875,-0.01038440316915512,-0.028404397889971733,-0.016187451779842377
1772649848963298000,1.926298095703125,-0.01038440316915512,-0.02214321307837963,-0.009468132629990578
1772649848973174800,1.9361748046875,-0.016034740954637527,-0.01038440316915512,0.0015271181473508477
1772649848983051300,1.94605126953125,-0.02092151902616024,-0.0004581354442052543,0.008704573847353458
1772649848992928000,1.955927978515625,-0.02886253222823143,0.001374406274408102,0.011911521665751934
1772649849002804500,1.965804443359375,-0.03298575058579445,-0.0004581354442052543,0.011911521665751934
1772649849012681200,1.97568115234375,-0.036039989441633224,-0.011606098152697086,0.011911521665751934
1772649849022558000,1.985557861328125,-0.03588727489113808,-0.02076880633831024,0.009468132629990578
1772649849032434400,1.995434326171875,-0.03176405653357506,-0.016492875292897224,0.005803049076348543
1772649849042311200,2.005311279296875,-0.029473381116986275,-0.006108472589403391,0.003359660040587187
1772649849052187600,2.015187744140625,-0.03008422814309597,0.0018325417768210173,0.004428642801940441
1772649849062064400,2.025064453125,-0.030695075169205666,0.008093725889921188,0.008093725889921188
1772649849071941000,2.034941162109375,-0.028251685202121735,0.010537114925682545,0.013591351918876171
1772649849081817600,2.044817626953125,-0.02214321307837963,0.010078979656100273,0.021532366052269936
1772649849091694300,2.0546943359375,-0.013438640162348747,0.005803049076348543,0.026571854948997498
1772649849101570800,2.06457080078125,-0.006719320081174374,-0.005955760832875967,0.02351761981844902
1772649849111447600,2.074447509765625,-0.0018325417768210173,-0.012675080448389053,0.013744063675403595
1772649849121324300,2.08432421875,0.0006108472589403391,-0.011606098152697086,0.00030542362947016954
1772649849131200800,2.09420068359375,-0.002748812548816204,-0.0068720318377017975,-0.016340164467692375
1772649849141077500,2.104077392578125,-0.008399149402976036,-0.005803049076348543,-0.029320668429136276
1772649849150954000,2.1139541015625,-0.013285927474498749,-0.007177455350756645,-0.03787253051996231
1772649849160830700,2.123830810546875,-0.010231691412627697,-0.004123218823224306,-0.03420744836330414
1772649849170707500,2.13370751953125,-0.005955760832875967,-0.00030542362947016954,-0.024433890357613564
1772649849180584000,2.143583984375,-0.0015271181473508477,0.005497625097632408,-0.004123218823224306
1772649849190460700,2.153460693359375,0.0029015245381742716,0.020616095513105392,0.025808297097682953
1772649849200337200,2.163337158203125,0.008551862090826035,0.03436015918850899,0.051463883370161057
1772649849210214000,2.1732138671875,0.01038440316915512,0.03695625811815262,0.06612421572208405
1772649849220090600,2.183090576171875,0.009315420873463154,0.03023693896830082,0.06429167091846466
1772649849229967000,2.192967041015625,0.01038440316915512,0.017867282032966614,0.05100574716925621
1772649849239843800,2.20284375,0.01038440316915512,0.0016798300202935934,0.025808297097682953
1772649849249720300,2.21272021484375,0.011606098152697086,-0.01038440316915512,0.001985253533348441
1772649849259597000,2.22259716796875,0.012064233422279358,-0.012980503961443901,-0.013285927474498749
1772649849269473800,2.232473876953125,0.008399149402976036,-0.022906772792339325,-0.020616095513105392
1772649849279350300,2.242350341796875,0.004734066314995289,-0.020310672000050545,-0.012675080448389053
1772649849289227000,2.25222705078125,0.004886778071522713,-0.010995250195264816,0.00259610079228878
1772649849299103500,2.262103515625,0.0012216945178806782,-0.004123218823224306,0.016187451779842377
1772649849308980200,2.271980224609375,-0.0018325417768210173,0.004581354558467865,0.023975754156708717
1772649849318857000,2.28185693359375,-0.004886778071522713,0.009468132629990578,0.025197450071573257
1772649849328733400,2.2917333984375,-0.007330167107284069,0.0021379655227065086,0.018630841746926308
1772649849338610200,2.301610107421875,-0.005497625097632408,-0.012064233422279358,0.01252236869186163
1772649849348486700,2.311486572265625,-0.005344913341104984,-0.018936265259981155,0.010078979656100273
1772649849358363400,2.32136328125,-0.010995250195264816,-0.01588202826678753,0.010689826682209969
1772649849368240000,2.331240234375,-0.01710372418165207,-0.0010689827613532543,0.016798298805952072
1772649849378116600,2.34111669921875,-0.025808297097682953,0.018630841746926308,0.023975754156708717
1772649849387993300,2.350993408203125,-0.03008422814309597,0.027793550863862038,0.02641914412379265
1772649849397869800,2.360869873046875,-0.0325276181101799,0.025350160896778107,0.02214321307837963
1772649849407746600,2.37074658203125,-0.031916771084070206,0.008093725889921188,0.009315420873463154
1772649849417623300,2.380623291015625,-0.028251685202121735,-0.012369656935334206,-0.005344913341104984
1772649849427499800,2.390499755859375,-0.029473381116986275,-0.018630841746926308,-0.013285927474498749
1772649849437376500,2.40037646484375,-0.02886253222823143,-0.013133215717971325,-0.017561858519911766
1772649849447253000,2.4102529296875,-0.027182703837752342,-0.0015271181473508477,-0.020616095513105392
1772649849457129700,2.420129638671875,-0.020005248486995697,0.012675080448389053,-0.013438640162348747
1772649849467006500,2.43000634765625,-0.013896775431931019,0.01832541823387146,-0.006108472589403391
1772649849476883000,2.439883056640625,-0.006413896102458239,0.012369656935334206,0.001374406274408102
1772649849486759700,2.449759765625,0.0010689827613532543,-0.0012216945178806782,0.004428642801940441
1772649849496636200,2.45963623046875,0.004275931045413017,-0.01954711228609085,0.003359660040587187
1772649849506513000,2.469512939453125,0.0036650835536420345,-0.023212196305394173,-0.0009162708884105086
1772649849516389400,2.479389404296875,0.005955760832875967,-0.00916270911693573,-0.0035123717971146107
1772649849526266000,2.48926611328125,0.006413896102458239,0,-0.004123218823224306
1772649849536142800,2.499142822265625,0.00519220158457756,0.006108472589403391,-0.0022906772792339325
1772649849546019300,2.509019287109375,0.008246437646448612,0.012369656935334206,0.001374406274408102
1772649849555896000,2.51889599609375,0.013744063675403595,0.012369656935334206,0.007482878863811493
1772649849565772500,2.5287724609375,0.017561858519911766,0.010078979656100273,0.015423892997205257
1772649849575649300,2.538649169921875,0.01695101149380207,0.011911521665751934,0.01725643500685692
1772649849585526000,2.548526123046875,0.010842538438737392,0.008857285603880882,0.01725643500685692
1772649849595402500,2.558402587890625,0.004123218823224306,0.0068720318377017975,0.011147962883114815
1772649849605279200,2.568279296875,0.0010689827613532543,0.0007635590736754239,0.001374406274408102
1772649849615155700,2.57815576171875,0.0015271181473508477,-0.00259610079228878,-0.010231691412627697
1772649849625032400,2.588032470703125,-0.00030542362947016954,-0.0032069480512291193,-0.01817270554602146
1772649849634909200,2.5979091796875,-0.007177455350756645,-0.0021379655227065086,-0.02504473738372326
1772649849644785700,2.60778564453125,-0.01695101149380207,0.004581354558467865,-0.02504473738372326
1772649849654662400,2.617662353515625,-0.023823043331503868,0.01572931744158268,-0.021379653364419937
1772649849664539000,2.627538818359375,-0.03161134570837021,0.020005248486995697,-0.01588202826678753
1772649849674415600,2.63741552734375,-0.037108972668647766,0.017561858519911766,-0.012216945178806782
1772649849684292400,2.647292236328125,-0.03833066672086716,0.01511846948415041,-0.012216945178806782
1772649849694168800,2.6571689453125,-0.033443886786699295,0.011453386396169662,-0.013896775431931019
1772649849704045600,2.667045654296875,-0.028557108715176582,0.005955760832875967,-0.019394399598240852
1772649849713922000,2.676922119140625,-0.026724567636847496,0.0015271181473508477,-0.025655584409832954
1772649849723798800,2.686798828125,-0.02489202655851841,0.0009162708884105086,-0.029320668429136276
1772649849733675300,2.69667529296875,-0.025502873584628105,0.007024743594229221,-0.02870982140302658
1772649849743552000,2.706552001953125,-0.025502873584628105,0.008246437646448612,-0.025655584409832954
1772649849753428700,2.7164287109375,-0.023059483617544174,0.0009162708884105086,-0.023823043331503868
1772649849763305200,2.72630517578125,-0.0198525357991457,-0.008246437646448612,-0.0261137206107378
1772649849773182000,2.736181884765625,-0.01435491070151329,-0.016187451779842377,-0.029167955741286278
1772649849783058400,2.746058349609375,-0.010689826682209969,-0.016340164467692375,-0.030389651656150818
1772649849792935200,2.75593505859375,-0.007024743594229221,-0.008857285603880882,-0.027946261689066887
1772649849802811600,2.765811767578125,-0.0065666078589856625,0.0022906772792339325,-0.024433890357613564
1772649849812688400,2.7756884765625,-0.009009997360408306,0.0022906772792339325,-0.018936265259981155
1772649849822565000,2.785565185546875,-0.013744063675403595,-0.001374406274408102,-0.013896775431931019
1772649849832441600,2.795441650390625,-0.014813045971095562,-0.006261184345930815,-0.008399149402976036
1772649849842318300,2.805318359375,-0.010537114925682545,-0.007941014133393764,-0.0022906772792339325
1772649849852195000,2.815195068359375,-0.00259610079228878,0.001374406274408102,0.007482878863811493
1772649849862071600,2.825071533203125,0.005344913341104984,0.016187451779842377,0.01847812905907631
1772649849871948300,2.8349482421875,0.008857285603880882,0.026724567636847496,0.023975754156708717
1772649849881824800,2.84482470703125,0.004581354558467865,0.028557108715176582,0.022754060104489326
1772649849891701500,2.854701416015625,-0.00519220158457756,0.01435491070151329,0.012980503961443901
1772649849901578200,2.864578125,-0.01847812905907631,-0.01725643500685692,-0.005955760832875967
1772649849911454700,2.874454833984375,-0.029778804630041122,-0.051922015845775604,-0.027793550863862038
1772649849921331500,2.88433154296875,-0.03298575058579445,-0.06062658876180649,-0.04489727318286896
1772649849931208000,2.8942080078125,-0.0331384651362896,-0.04840964451432228,-0.04611896723508835
1772649849941084700,2.904084716796875,-0.033291175961494446,-0.019394399598240852,-0.029778804630041122
1772649849950961200,2.913961181640625,-0.033443886786699295,0.020157959312200546,-0.0012216945178806782
1772649849960838000,2.923837890625,-0.03405473381280899,0.04871506989002228,0.028098974376916885
1772649849970714400,2.93371435546875,-0.03390202298760414,0.051463883370161057,0.04840964451432228
1772649849980591000,2.943591064453125,-0.0331384651362896,0.04107947647571564,0.055739812552928925
1772649849990467800,2.9534677734375,-0.02993151545524597,0.024433890357613564,0.050394900143146515
1772649850000344300,2.96334423828125,-0.026877280324697495,0.005344913341104984,0.033291175961494446
1772649850010221000,2.973220947265625,-0.021990500390529633,-0.008551862090826035,0.01252236869186163
1772649850020097500,2.98309765625,-0.013438640162348747,-0.014813045971095562,-0.0015271181473508477
1772649850029974300,2.992974365234375,-0.005497625097632408,-0.01588202826678753,-0.004123218823224306
1772649850039851000,3.00285107421875,-0.0012216945178806782,-0.01588202826678753,0.0009162708884105086
1772649850049727500,3.0127275390625,0.0024433890357613564,-0.01511846948415041,0.010078979656100273
1772649850059604200,3.022604248046875,0.0038177953101694584,-0.013285927474498749,0.016187451779842377
1772649850069480700,3.032480712890625,0.0007635590736754239,-0.012675080448389053,0.015576604753732681
1772649850079357400,3.042357421875,-0.005497625097632408,-0.013438640162348747,0.007635590620338917
1772649850089234200,3.052234130859375,-0.005650337319821119,-0.012216945178806782,-0.0029015245381742716
1772649850099110700,3.062110595703125,-0.0068720318377017975,-0.010537114925682545,-0.009009997360408306
1772649850108987400,3.0719873046875,-0.007482878863811493,-0.007482878863811493,-0.005344913341104984
1772649850118864000,3.08186376953125,-0.00992626789957285,-0.004886778071522713,0.0068720318377017975
1772649850128740600,3.09174072265625,-0.014049487188458443,-0.0016798300202935934,0.0198525357991457
1772649850138617000,3.1016171875,-0.01695101149380207,-0.0009162708884105086,0.033291175961494446
1772649850148493800,3.111493896484375,-0.021226942539215088,0.0035123717971146107,0.0393996499478817
1772649850158370600,3.12137060546875,-0.023823043331503868,0.017561858519911766,0.03695625811815262
1772649850168247000,3.1312470703125,-0.025808297097682953,0.023059483617544174,0.03008422814309597
1772649850178123800,3.141123779296875,-0.02764083817601204,0.0198525357991457,0.019088976085186005
1772649850188000300,3.151000244140625,-0.02641914412379265,0.01175880990922451,0.009315420873463154
1772649850197877000,3.160876953125,-0.024586603045463562,0.0012216945178806782,0.0032069480512291193
1772649850207753500,3.17075341796875,-0.024433890357613564,-0.012216945178806782,0.0009162708884105086
1772649850217630200,3.180630126953125,-0.022601349279284477,-0.02092151902616024,-0.00030542362947016954
1772649850227507000,3.1905068359375,-0.021379653364419937,-0.019088976085186005,-0.0021379655227065086
1772649850237383400,3.200383544921875,-0.018936265259981155,-0.016034740954637527,-0.004581354558467865
1772649850247260200,3.21026025390625,-0.014813045971095562,-0.01175880990922451,-0.005955760832875967
1772649850257136600,3.22013671875,-0.012369656935334206,-0.0006108472589403391,-0.0035123717971146107
1772649850267013400,3.230013427734375,-0.010689826682209969,0.007941014133393764,-0.0016798300202935934
1772649850276890000,3.23989013671875,-0.008857285603880882,0.009773556143045425,0.001985253533348441
1772649850286766600,3.2497666015625,-0.007635590620338917,0.0018325417768210173,0.0007635590736754239
1772649850296643300,3.259643310546875,-0.007482878863811493,-0.009315420873463154,-0.004123218823224306
1772649850306519800,3.269519775390625,-0.007330167107284069,-0.02092151902616024,-0.009009997360408306
1772649850316396500,3.279396484375,-0.011606098152697086,-0.030695075169205666,-0.010689826682209969
1772649850326273000,3.28927294921875,-0.01832541823387146,-0.02901524491608143,-0.011911521665751934
1772649850336149800,3.299149658203125,-0.01969982497394085,-0.011147962883114815,-0.009009997360408306
1772649850346026500,3.309026611328125,-0.014965757727622986,0.004886778071522713,-0.004123218823224306
1772649850355903000,3.318903076171875,-0.011911521665751934,0.009773556143045425,0.001985253533348441
1772649850365779700,3.32877978515625,-0.012369656935334206,0.0068720318377017975,0.006261184345930815
1772649850375656200,3.33865625,-0.010537114925682545,0.001374406274408102,0.008093725889921188
1772649850385533000,3.348532958984375,-0.012369656935334206,-0.0004581354442052543,0.008704573847353458
1772649850395409400,3.358409423828125,-0.016034740954637527,0.00015271181473508477,0.008093725889921188
1772649850405286100,3.3682861328125,-0.02092151902616024,0.00259610079228878,0.006261184345930815
1772649850415163000,3.378162841796875,-0.025808297097682953,0.0024433890357613564,0.001374406274408102
1772649850425039400,3.388039306640625,-0.027029991149902344,-0.001374406274408102,-0.004123218823224306
1772649850434916000,3.397916015625,-0.02214321307837963,0,-0.004734066314995289
1772649850444792600,3.40779248046875,-0.0198525357991457,0.0018325417768210173,-0.007788302376866341
1772649850454669300,3.41766943359375,-0.020463382825255394,0.007177455350756645,-0.009009997360408306
1772649850464546000,3.427546142578125,-0.02229592576622963,0.010995250195264816,-0.008399149402976036
1772649850474422500,3.437422607421875,-0.0198525357991457,0.00916270911693573,-0.005955760832875967
1772649850484299300,3.44729931640625,-0.01435491070151329,0.0012216945178806782,-0.004734066314995289
1772649850494175700,3.45717578125,-0.01175880990922451,-0.014202198944985867,-0.007177455350756645
1772649850504052500,3.467052490234375,-0.007941014133393764,-0.029626091942191124,-0.01252236869186163
1772649850513929000,3.476928955078125,-0.005497625097632408,-0.033291175961494446,-0.018019994720816612
1772649850523805700,3.4868056640625,-0.0038177953101694584,-0.028404397889971733,-0.02489202655851841
1772649850533682400,3.496682373046875,-0.002748812548816204,-0.016798298805952072,-0.026724567636847496
1772649850543559000,3.506558837890625,-0.00519220158457756,-0.002748812548816204,-0.021226942539215088
1772649850553435600,3.516435546875,-0.010078979656100273,0.004886778071522713,-0.009009997360408306
1772649850563312000,3.52631201171875,-0.019241688773036003,0.006261184345930815,0.0038177953101694584
1772649850573188900,3.53618896484375,-0.025808297097682953,0.0068720318377017975,0.016034740954637527
1772649850583065600,3.546065673828125,-0.02764083817601204,0.01435491070151329,0.025808297097682953
1772649850592942000,3.555942138671875,-0.02641914412379265,0.021685076877474785,0.028251685202121735
1772649850602818800,3.56581884765625,-0.023975754156708717,0.02733541466295719,0.02764083817601204
1772649850612695300,3.5756953125,-0.02107422985136509,0.027793550863862038,0.023975754156708717
1772649850622572000,3.585572021484375,-0.019241688773036003,0.020463382825255394,0.016034740954637527
1772649850632448500,3.595448486328125,-0.01725643500685692,0.013591351918876171,0.010537114925682545
1772649850642325200,3.6053251953125,-0.012980503961443901,0.007482878863811493,0.0038177953101694584
1772649850652201700,3.61520166015625,-0.011300674639642239,0.0024433890357613564,-0.0022906772792339325
1772649850662078500,3.625078369140625,-0.003359660040587187,0.0024433890357613564,-0.009620844386518002
1772649850671955200,3.634955078125,0.003970507066696882,-0.001374406274408102,-0.01817270554602146
1772649850681831700,3.644831787109375,0.009468132629990578,-0.011911521665751934,-0.026724567636847496
1772649850691708400,3.65470849609375,0.011453386396169662,-0.024281177669763565,-0.032222192734479904
1772649850701585000,3.6645849609375,0.009009997360408306,-0.037108972668647766,-0.03527642786502838
1772649850711461600,3.674461669921875,0.005955760832875967,-0.04199574887752533,-0.03771981969475746
1772649850721338000,3.684338134765625,0.0016798300202935934,-0.04153761267662048,-0.03833066672086716
1772649850731214800,3.69421484375,-0.0007635590736754239,-0.030389651656150818,-0.0328330397605896
1772649850741091600,3.704091552734375,-0.0009162708884105086,-0.010078979656100273,-0.01695101149380207
1772649850750968000,3.713968017578125,-0.002748812548816204,0.008704573847353458,0.0050394898280501366
1772649850760844800,3.7238447265625,-0.0038177953101694584,0.020005248486995697,0.025808297097682953
1772649850770721300,3.73372119140625,-0.008093725889921188,0.025655584409832954,0.03802524134516716
1772649850780598000,3.743597900390625,-0.013438640162348747,0.024433890357613564,0.04046862944960594
1772649850790474800,3.753474853515625,-0.016034740954637527,0.01817270554602146,0.030695075169205666
1772649850800351200,3.763351318359375,-0.01847812905907631,0.002748812548816204,0.013591351918876171
1772649850810228000,3.77322802734375,-0.02076880633831024,-0.014202198944985867,-0.002748812548816204
1772649850820104400,3.7831044921875,-0.019088976085186005,-0.012980503961443901,-0.011453386396169662
1772649850829981200,3.792981201171875,-0.017409147694706917,0.0010689827613532543,-0.010842538438737392
1772649850839857700,3.802857666015625,-0.016798298805952072,0.013438640162348747,-0.0029015245381742716
1772649850849734400,3.812734375,-0.016187451779842377,0.02092151902616024,0.004428642801940441
1772649850859611000,3.82261083984375,-0.013744063675403595,0.023364907130599022,0.008093725889921188
1772649850869487600,3.832487548828125,-0.010078979656100273,0.016034740954637527,0.0068720318377017975
1772649850879364000,3.842364013671875,-0.0050394898280501366,0.0030542362947016954,-0.0004581354442052543
1772649850889240800,3.85224072265625,0.0016798300202935934,-0.004428642801940441,-0.008399149402976036
1772649850899117600,3.86211767578125,0.004734066314995289,-0.012980503961443901,-0.01572931744158268
1772649850908994000,3.871994140625,0.004123218823224306,-0.014813045971095562,-0.019394399598240852
1772649850918870800,3.881870849609375,0.004581354558467865,-0.0038177953101694584,-0.01954711228609085
1772649850928747300,3.891747314453125,0.0050394898280501366,0.01038440316915512,-0.013438640162348747
1772649850938624000,3.9016240234375,0.005650337319821119,0.01710372418165207,-0.004886778071522713
1772649850948500700,3.911500732421875,0.003970507066696882,0.016645587980747223,0.0006108472589403391
1772649850958377200,3.921377197265625,0.004123218823224306,0.006261184345930815,0.00259610079228878
1772649850968254000,3.93125390625,0.004734066314995289,-0.005497625097632408,-0.0010689827613532543
1772649850978130400,3.94113037109375,0.004123218823224306,-0.019088976085186005,-0.010842538438737392
1772649850988007200,3.951007080078125,0.0065666078589856625,-0.01969982497394085,-0.014507622458040714
1772649850997883600,3.960883544921875,0.012064233422279358,-0.007482878863811493,-0.011453386396169662
1772649851007760400,3.970760498046875,0.013896775431931019,-0.0018325417768210173,-0.004123218823224306
1772649851017636900,3.980636962890625,0.013896775431931019,0.00259610079228878,0.007482878863811493
1772649851027513600,3.990513671875,0.011453386396169662,0.011911521665751934,0.02092151902616024
1772649851037390300,4.000390380859375,0.008399149402976036,0.016340164467692375,0.03130592033267021
1772649851047266800,4.010266845703125,0.007941014133393764,0.013285927474498749,0.03374931216239929
1772649851057143600,4.0201435546875,0.00992626789957285,-0.0015271181473508477,0.02901524491608143
1772649851067020000,4.03002001953125,0.014049487188458443,-0.010231691412627697,0.015576604753732681
1772649851076896800,4.039896728515625,0.014049487188458443,-0.014049487188458443,0.003970507066696882
1772649851086773200,4.049773193359375,0.012064233422279358,-0.009315420873463154,-0.007788302376866341
1772649851096650000,4.05964990234375,0.010078979656100273,-0.00015271181473508477,-0.012675080448389053
1772649851106526700,4.069526611328125,0.006413896102458239,-0.0007635590736754239,-0.014507622458040714
1772649851116403200,4.0794033203125,0.0035123717971146107,-0.007482878863811493,-0.009620844386518002
1772649851126280000,4.089280029296875,-0.0007635590736754239,-0.014049487188458443,-0.0035123717971146107
1772649851136156400,4.099156494140625,-0.0018325417768210173,-0.021379653364419937,-0.0009162708884105086
1772649851146033200,4.109033203125,0.0012216945178806782,-0.02504473738372326,-0.00030542362947016954
1772649851155909600,4.11890966796875,0.006719320081174374,-0.01832541823387146,0.00030542362947016954
1772649851165786400,4.128786376953125,0.006719320081174374,-0.006108472589403391,0.0032069480512291193
1772649851175662800,4.138662841796875,0.0035123717971146107,0.0032069480512291193,0.0050394898280501366
1772649851185539600,4.14853955078125,-0.002748812548816204,0.008093725889921188,0.004428642801940441
1772649851195416300,4.158416259765625,-0.004428642801940441,0.005650337319821119,0.004428642801940441
1772649851205292800,4.168292724609375,-0.00259610079228878,-0.004886778071522713,0.0032069480512291193
1772649851215169500,4.17816943359375,0.0030542362947016954,-0.020157959312200546,0.0009162708884105086
1772649851225046000,4.1880458984375,0.007482878863811493,-0.02870982140302658,-0.0009162708884105086
1772649851234922800,4.1979228515625,0.006261184345930815,-0.02748812735080719,0.00030542362947016954
1772649851244799200,4.20779931640625,0.004275931045413017,-0.014660334214568138,0.00519220158457756
1772649851254676000,4.217676025390625,0.0006108472589403391,-0.0010689827613532543,0.011147962883114815
1772649851264552400,4.227552490234375,-0.0038177953101694584,0.010078979656100273,0.017867282032966614
1772649851274429200,4.23742919921875,-0.0050394898280501366,0.014965757727622986,0.021532366052269936
1772649851284306000,4.247305908203125,-0.007330167107284069,0.008857285603880882,0.023975754156708717
1772649851294182400,4.257182373046875,-0.008551862090826035,0.004581354558467865,0.027793550863862038
1772649851304059100,4.26705908203125,-0.006719320081174374,0.005344913341104984,0.030847785994410515
1772649851313935600,4.276935546875,-0.0006108472589403391,0.0022906772792339325,0.030847785994410515
1772649851323812400,4.286812255859375,0.0050394898280501366,-0.003359660040587187,0.027793550863862038
1772649851333689000,4.296689208984375,0.01175880990922451,-0.011911521665751934,0.021685076877474785
1772649851343565600,4.306565673828125,0.016645587980747223,-0.01695101149380207,0.014965757727622986
1772649851353442300,4.3164423828125,0.01969982497394085,-0.01695101149380207,0.010689826682209969
1772649851363318800,4.32631884765625,0.012980503961443901,-0.025502873584628105,0.010078979656100273
1772649851373195500,4.336195556640625,0.0068720318377017975,-0.030542362481355667,0.008857285603880882
1772649851383072000,4.346072021484375,0.00259610079228878,-0.026724567636847496,0.011911521665751934
1772649851392948700,4.35594873046875,-0.0036650835536420345,-0.012675080448389053,0.015576604753732681
1772649851402825200,4.3658251953125,-0.010995250195264816,0.0021379655227065086,0.01725643500685692
1772649851412702000,4.375701904296875,-0.017867282032966614,0.011300674639642239,0.01969982497394085
1772649851422578400,4.385578369140625,-0.021532366052269936,0.013133215717971325,0.02092151902616024
1772649851432455200,4.395455078125,-0.023975754156708717,0.011300674639642239,0.019088976085186005
1772649851442331600,4.40533154296875,-0.023975754156708717,0.0050394898280501366,0.013591351918876171
1772649851452208400,4.41520849609375,-0.016034740954637527,-0.0006108472589403391,0.005650337319821119
1772649851462085000,4.425085205078125,-0.007482878863811493,-0.008093725889921188,-0.005344913341104984
1772649851471961600,4.434961669921875,-0.0050394898280501366,-0.021685076877474785,-0.021226942539215088
1772649851481838300,4.44483837890625,-0.0068720318377017975,-0.029778804630041122,-0.03588727489113808
1772649851491714800,4.45471484375,-0.01252236869186163,-0.03237490355968475,-0.04688252881169319
1772649851501591600,4.464591552734375,-0.019241688773036003,-0.03497100621461868,-0.05238015204668045
1772649851511468000,4.474468017578125,-0.02229592576622963,-0.03436015918850899,-0.050547610968351364
1772649851521344800,4.4843447265625,-0.025350160896778107,-0.02626643143594265,-0.041384901851415634
1772649851531221200,4.49422119140625,-0.025350160896778107,-0.007788302376866341,-0.025502873584628105
1772649851541098000,4.504097900390625,-0.0261137206107378,0.01954711228609085,-0.004275931045413017
1772649851550974700,4.513974609375,-0.02733541466295719,0.04443913698196411,0.021379653364419937
1772649851560851200,4.523851318359375,-0.029167955741286278,0.05619794875383377,0.04031591862440109
1772649851570728000,4.53372802734375,-0.02901524491608143,0.04963133856654167,0.04840964451432228
1772649851580604400,4.5436044921875,-0.025197450071573257,0.02993151545524597,0.04107947647571564
1772649851590481200,4.553481201171875,-0.02076880633831024,0.008857285603880882,0.022754060104489326
1772649851600357600,4.563357666015625,-0.017867282032966614,-0.0068720318377017975,-0.0022906772792339325
1772649851610234400,4.573234375,-0.01252236869186163,-0.015576604753732681,-0.023059483617544174
1772649851620110800,4.58311083984375,-0.008246437646448612,-0.014507622458040714,-0.03405473381280899
1772649851629987600,4.592987548828125,-0.005803049076348543,-0.010842538438737392,-0.03161134570837021
1772649851639864300,4.6028642578125,-0.005803049076348543,-0.008857285603880882,-0.02489202655851841
1772649851649740800,4.61274072265625,-0.003970507066696882,-0.004428642801940441,-0.01511846948415041
1772649851659617500,4.622617431640625,-0.006413896102458239,-0.001985253533348441,-0.010231691412627697
1772649851669494000,4.632493896484375,-0.01435491070151329,-0.004428642801940441,-0.014507622458040714
1772649851679370800,4.642370849609375,-0.024128466844558716,-0.0021379655227065086,-0.023059483617544174
1772649851689247200,4.652247314453125,-0.032222192734479904,0.002748812548816204,-0.033596597611904144
1772649851699124000,4.6621240234375,-0.036039989441633224,0.008093725889921188,-0.04031591862440109
1772649851709000400,4.67200048828125,-0.037414394319057465,0.016645587980747223,-0.04153761267662048
1772649851718877200,4.681877197265625,-0.038636088371276855,0.023364907130599022,-0.03787253051996231
1772649851728754000,4.69175390625,-0.04169032722711563,0.027793550863862038,-0.033596597611904144
1772649851738630400,4.70163037109375,-0.04291202127933502,0.025350160896778107,-0.02993151545524597
1772649851748507100,4.711507080078125,-0.04214845970273018,0.017409147694706917,-0.02626643143594265
1772649851758383600,4.721383544921875,-0.042606595903635025,0.018783552572131157,-0.022601349279284477
1772649851768260400,4.73126025390625,-0.04214845970273018,0.0261137206107378,-0.01588202826678753
1772649851778136800,4.74113671875,-0.0390942245721817,0.036039989441633224,-0.012827792204916477
1772649851788013600,4.751013671875,-0.034818295389413834,0.0397050715982914,-0.011606098152697086
1772649851797890000,4.76089013671875,-0.02993151545524597,0.03787253051996231,-0.014049487188458443
1772649851807766800,4.770766845703125,-0.020157959312200546,0.029167955741286278,-0.01588202826678753
1772649851817643300,4.780643310546875,-0.011453386396169662,0.01954711228609085,-0.012216945178806782
1772649851827520000,4.79052001953125,-0.006413896102458239,0.014049487188458443,-0.0024433890357613564
1772649851837396700,4.800396728515625,-0.003359660040587187,0.016187451779842377,0.01175880990922451
1772649851847273200,4.810273193359375,0.004123218823224306,0.020005248486995697,0.022754060104489326
1772649851857150000,4.82014990234375,0.012064233422279358,0.021837789565324783,0.03008422814309597
1772649851867026400,4.8300263671875,0.01817270554602146,0.018783552572131157,0.0331384651362896
1772649851876903200,4.839903076171875,0.021990500390529633,0.01511846948415041,0.031916771084070206
1772649851886779600,4.849779541015625,0.02626643143594265,0.010231691412627697,0.02764083817601204
1772649851896656400,4.859656494140625,0.02489202655851841,0.006413896102458239,0.020310672000050545
1772649851906532900,4.869532958984375,0.021837789565324783,0.003359660040587187,0.012980503961443901
1772649851916409600,4.87940966796875,0.018783552572131157,-0.004734066314995289,0.006261184345930815
1772649851926286000,4.8892861328125,0.016492875292897224,-0.016492875292897224,-0.0016798300202935934
1772649851936162800,4.899162841796875,0.01588202826678753,-0.024586603045463562,-0.007788302376866341
1772649851946039300,4.909039306640625,0.018936265259981155,-0.03130592033267021,-0.01511846948415041
1772649851955916000,4.918916015625,0.023823043331503868,-0.042453885078430176,-0.0198525357991457
1772649851965792500,4.92879248046875,0.033596597611904144,-0.04062134400010109,-0.016798298805952072
1772649851975669200,4.938669189453125,0.04031591862440109,-0.02626643143594265,-0.004734066314995289
1772649851985546000,4.9485458984375,0.03665083646774292,-0.013285927474498749,0.011147962883114815
1772649851995422500,4.95842236328125,0.026877280324697495,-0.0021379655227065086,0.027029991149902344
1772649852005299200,4.96829931640625,0.018936265259981155,0.008551862090826035,0.03924693539738655
1772649852015175700,4.97817578125,0.014202198944985867,0.009773556143045425,0.041232191026210785
1772649852025052400,4.988052490234375,0.016492875292897224,0.009009997360408306,0.03497100621461868
1772649852034929000,4.997928955078125,0.017714571207761765,0.0021379655227065086,0.023364907130599022
1772649852044805600,5.0078056640625,0.013438640162348747,-0.008399149402976036,0.00992626789957285
1772649852054682000,5.01768212890625,0.006108472589403391,-0.011606098152697086,-0.0022906772792339325
1772649852064558800,5.027558837890625,-0.001374406274408102,-0.011147962883114815,-0.011453386396169662
1772649852074435300,5.037435302734375,0.0035123717971146107,-0.015423892997205257,-0.010842538438737392
1772649852084312000,5.04731201171875,0.009009997360408306,0.00259610079228878,0.00015271181473508477
1772649852094188500,5.0571884765625,0.0030542362947016954,0.001985253533348441,0.00992626789957285
1772649852104065300,5.067065185546875,0.004275931045413017,-0.010842538438737392,0.011300674639642239
1772649852113941800,5.076941650390625,0.012827792204916477,-0.012064233422279358,0.011911521665751934
1772649852123818500,5.086818603515625,0.01832541823387146,-0.012675080448389053,0.011911521665751934
1772649852133695200,5.0966953125,0.024433890357613564,-0.019394399598240852,0.008246437646448612
1772649852143571700,5.10657177734375,0.033596597611904144,-0.022601349279284477,0.004581354558467865
1772649852153448400,5.116448486328125,0.04352286830544472,-0.024281177669763565,0.00519220158457756
1772649852163325000,5.126324951171875,0.0459662564098835,-0.021837789565324783,0.011300674639642239
1772649852173201700,5.13620166015625,0.04291202127933502,-0.013133215717971325,0.0198525357991457
1772649852183078100,5.146078125,0.037414394319057465,-0.010689826682209969,0.025961007922887802
1772649852192955000,5.155954833984375,0.03680354729294777,-0.0050394898280501366,0.03268032893538475
1772649852202831400,5.165831298828125,0.031153209507465363,0.0022906772792339325,0.03374931216239929
1772649852212708000,5.1757080078125,0.023212196305394173,-0.003359660040587187,0.025350160896778107
1772649852222584600,5.18558447265625,0.021990500390529633,-0.008399149402976036,0.014813045971095562
1772649852232461300,5.19546142578125,0.018783552572131157,-0.008551862090826035,0.001374406274408102
1772649852242338000,5.205338134765625,0.007788302376866341,-0.011147962883114815,-0.014507622458040714
1772649852252214500,5.215214599609375,-0.003970507066696882,-0.01817270554602146,-0.03405473381280899
1772649852262091300,5.22509130859375,-0.01435491070151329,-0.03008422814309597,-0.04871506989002228
1772649852271967700,5.2349677734375,-0.024128466844558716,-0.03802524134516716,-0.0590994730591774
1772649852281844500,5.244844482421875,-0.03451287001371384,-0.03436015918850899,-0.05726693198084831
1772649852291721000,5.254720947265625,-0.0393996499478817,-0.023212196305394173,-0.04321744292974472
1772649852301597700,5.26459765625,-0.038788799196481705,-0.00519220158457756,-0.021837789565324783
1772649852311474200,5.27447412109375,-0.03268032893538475,0.01725643500685692,0.001374406274408102
1772649852321351000,5.284350830078125,-0.024128466844558716,0.03527642786502838,0.021532366052269936
1772649852331227400,5.294227294921875,-0.013133215717971325,0.04337015375494957,0.037261683493852615
1772649852341104000,5.304104248046875,-0.0050394898280501366,0.037261683493852615,0.04291202127933502
1772649852350980600,5.313980712890625,0.0032069480512291193,0.01038440316915512,0.04306473210453987
1772649852360857300,5.323857421875,0.009315420873463154,0.013438640162348747,0.04428642615675926
1772649852370733800,5.33373388671875,0.006719320081174374,0.010842538438737392,0.03436015918850899
1772649852380610600,5.343610595703125,0.004886778071522713,-0.0004581354442052543,0.017867282032966614
1772649852390487000,5.353487060546875,0.00916270911693573,-0.008399149402976036,0.010689826682209969
1772649852400363800,5.36336376953125,0.013285927474498749,-0.0036650835536420345,0.001985253533348441
1772649852410240300,5.373240234375,0.017561858519911766,-0.012369656935334206,-0.011453386396169662
1772649852420117000,5.383116943359375,0.023059483617544174,-0.02107422985136509,-0.025502873584628105
1772649852429993500,5.392993408203125,0.021685076877474785,-0.024433890357613564,-0.04337015375494957
1772649852439870200,5.4028701171875,0.023364907130599022,-0.01588202826678753,-0.054365407675504684
1772649852449747000,5.412746826171875,0.021990500390529633,-0.007941014133393764,-0.05497625470161438
1772649852459623400,5.42262353515625,0.01725643500685692,-0.005344913341104984,-0.046424392610788345
1772649852469500200,5.432500244140625,0.016187451779842377,-0.007024743594229221,-0.02993151545524597
1772649852479376600,5.442376708984375,0.023059483617544174,-0.008704573847353458,-0.011453386396169662
1772649852489253400,5.45225341796875,0.03237490355968475,-0.008399149402976036,0.006261184345930815
1772649852499129900,5.4621298828125,0.02504473738372326,-0.007177455350756645,0.01175880990922451
1772649852509006300,5.47200634765625,0.01954711228609085,-0.005497625097632408,0.0050394898280501366
1772649852518883000,5.481883056640625,0.01817270554602146,-0.0006108472589403391,-0.007788302376866341
1772649852528759800,5.491759765625,0.017409147694706917,0.0029015245381742716,-0.018936265259981155
1772649852538636300,5.50163623046875,0.018630841746926308,-0.002748812548816204,-0.02626643143594265
1772649852548513000,5.511512939453125,0.027182703837752342,-0.007024743594229221,-0.023212196305394173
1772649852558389500,5.521389404296875,0.037567105144262314,-0.0038177953101694584,-0.012216945178806782
1772649852568266200,5.531266357421875,0.04443913698196411,-0.004886778071522713,-0.0004581354442052543
1772649852578142700,5.541142822265625,0.04993676394224167,-0.0065666078589856625,0.005650337319821119
1772649852588019500,5.55101953125,0.053143709897994995,-0.010231691412627697,0.0050394898280501366
1772649852597896000,5.56089599609375,0.04871506989002228,-0.007330167107284069,-0.0010689827613532543
1772649852607772700,5.570772705078125,0.04306473210453987,-0.004275931045413017,-0.00916270911693573
1772649852617649200,5.580649169921875,0.037567105144262314,-0.0038177953101694584,-0.01710372418165207
1772649852627526000,5.59052587890625,0.032069481909275055,-0.0038177953101694584,-0.020157959312200546
1772649852637402400,5.60040234375,0.026571854948997498,-0.005650337319821119,-0.021379653364419937
1772649852647279000,5.610279052734375,0.020463382825255394,-0.0007635590736754239,-0.01832541823387146
1772649852657155600,5.620155517578125,0.01252236869186163,0.004734066314995289,-0.013438640162348747
1772649852667032300,5.6300322265625,0.004581354558467865,0.006108472589403391,-0.00916270911693573
1772649852676908800,5.63990869140625,-0.0009162708884105086,0.01038440316915512,-0.004275931045413017
1772649852686785500,5.64978564453125,-0.0015271181473508477,0.011147962883114815,0.0007635590736754239
1772649852696662000,5.659662109375,-0.001985253533348441,0.005650337319821119,0.005650337319821119
1772649852706538800,5.669538818359375,-0.00259610079228878,-0.0010689827613532543,0.007482878863811493
1772649852716415500,5.67941552734375,-0.0012216945178806782,0.00015271181473508477,0.012369656935334206
1772649852726292000,5.6892919921875,-0.004275931045413017,0.001985253533348441,0.014813045971095562
1772649852736168700,5.699168701171875,-0.008093725889921188,0.0050394898280501366,0.011147962883114815
1772649852746045200,5.709045166015625,-0.009468132629990578,0.012369656935334206,0.00259610079228878
1772649852755922000,5.718921875,-0.0035123717971146107,0.017714571207761765,-0.0036650835536420345
1772649852765798400,5.72879833984375,0.00015271181473508477,0.01832541823387146,-0.006108472589403391
1772649852775675000,5.7386748046875,0.0009162708884105086,0.009773556143045425,-0.0036650835536420345
1772649852785551600,5.748551513671875,0.005955760832875967,-0.0024433890357613564,0.001985253533348441
1772649852795428400,5.758428466796875,0.012216945178806782,-0.007788302376866341,0.008704573847353458
1772649852805304800,5.768304931640625,0.014049487188458443,-0.009009997360408306,0.013744063675403595
1772649852815181600,5.778181640625,0.014049487188458443,-0.0029015245381742716,0.014813045971095562
1772649852825058000,5.78805810546875,0.012675080448389053,0.00992626789957285,0.010537114925682545
1772649852834934800,5.797934814453125,0.013744063675403595,0.015423892997205257,0.0024433890357613564
1772649852844811300,5.807811279296875,0.015423892997205257,0.021532366052269936,-0.0012216945178806782
1772649852854688000,5.81768798828125,0.016645587980747223,0.023364907130599022,0.0024433890357613564
1772649852864564500,5.827564453125,0.016340164467692375,0.016187451779842377,0.012369656935334206
1772649852874441200,5.837441162109375,0.012064233422279358,0.013133215717971325,0.02092151902616024
1772649852884317700,5.847317626953125,0.007941014133393764,0.011453386396169662,0.02641914412379265
1772649852894194400,5.8571943359375,0.0030542362947016954,0.010078979656100273,0.024586603045463562
1772649852904071000,5.86707080078125,0.0036650835536420345,0.0021379655227065086,0.0198525357991457
1772649852913947600,5.87694775390625,0.010231691412627697,0.019241688773036003,0.01969982497394085
1772649852923824000,5.88682421875,0.017561858519911766,0.008857285603880882,0.010537114925682545
1772649852933700900,5.896700927734375,0.0261137206107378,-0.0029015245381742716,0.004428642801940441
1772649852943577300,5.906577392578125,0.030389651656150818,-0.0022906772792339325,0.0007635590736754239
1772649852953454000,5.9164541015625,0.030847785994410515,0.008704573847353458,0
1772649852963330600,5.92633056640625,0.027793550863862038,0.01847812905907631,-0.0012216945178806782
1772649852973207300,5.936207275390625,0.021532366052269936,0.022754060104489326,-0.006108472589403391
1772649852983083800,5.946083740234375,0.015423892997205257,0.01832541823387146,-0.014049487188458443
1772649852992960500,5.95596044921875,0.01588202826678753,0.010842538438737392,-0.028098974376916885
1772649853002837000,5.9658369140625,0.014660334214568138,0.001374406274408102,-0.04459185153245926
1772649853012713700,5.975713623046875,0.012827792204916477,-0.0012216945178806782,-0.05131116881966591
1772649853022590200,5.985590087890625,0.012064233422279358,0.0068720318377017975,-0.05329642444849014
1772649853032467000,5.995467041015625,0.012064233422279358,0.023364907130599022,-0.047798797488212585
1772649853042343400,6.005343505859375,0.015576604753732681,0.03771981969475746,-0.03558185324072838
1772649853052220200,6.01522021484375,0.017409147694706917,0.04825693368911743,-0.02473931387066841
1772649853062096600,6.0250966796875,0.020005248486995697,0.05131116881966591,-0.014813045971095562
1772649853071973400,6.034973388671875,0.02244863659143448,0.042759306728839874,-0.013591351918876171
1772649853081849900,6.044849853515625,0.025655584409832954,0.02993151545524597,-0.019088976085186005
1772649853091726600,6.0547265625,0.030542362481355667,0.018783552572131157,-0.031916771084070206
1772649853101603000,6.06460302734375,0.038483377546072006,0.010689826682209969,-0.04352286830544472
1772649853111479800,6.074479736328125,0.0462716780602932,0.007482878863811493,-0.05329642444849014
1772649853121356300,6.084356201171875,0.050547610968351364,0.004428642801940441,-0.056961506605148315
1772649853131233000,6.09423291015625,0.051769305020570755,0.008093725889921188,-0.05329642444849014
1772649853141109500,6.104109619140625,0.050547610968351364,0.016187451779842377,-0.04107947647571564
1772649853150986200,6.113986328125,0.047646086663007736,0.026877280324697495,-0.025197450071573257
1772649853160862700,6.12386279296875,0.04214845970273018,0.03130592033267021,-0.009315420873463154
1772649853170739500,6.133739501953125,0.04291202127933502,0.03145863488316536,0.005497625097632408
1772649853180616000,6.143615966796875,0.04367557913064957,0.02107422985136509,0.011606098152697086
1772649853190492700,6.15349267578125,0.04688252881169319,0.011300674639642239,0.01725643500685692
1772649853200369200,6.163369140625,0.0456608310341835,0.009468132629990578,0.019088976085186005
1772649853210246000,6.173245849609375,0.03833066672086716,0.01435491070151329,0.01725643500685692
1772649853220122400,6.183122314453125,0.027793550863862038,0.020463382825255394,0.015271181240677834
1772649853229999000,6.1929990234375,0.016187451779842377,0.02229592576622963,0.012827792204916477
1772649853239875600,6.20287548828125,0.007024743594229221,0.02107422985136509,0.009773556143045425
1772649853249752300,6.21275244140625,0.003359660040587187,0.016034740954637527,0.005650337319821119
1772649853259628800,6.22262890625,0.0035123717971146107,0.0068720318377017975,0.0032069480512291193
1772649853269505500,6.232505615234375,0.004734066314995289,0.0018325417768210173,0.001985253533348441
1772649853279382000,6.242382080078125,0.0022906772792339325,0.001374406274408102,0.0050394898280501366
1772649853289258800,6.2522587890625,-0.00015271181473508477,0.0032069480512291193,0.011147962883114815
1772649853299135200,6.26213525390625,-0.001374406274408102,0.007024743594229221,0.015423892997205257
1772649853309012000,6.272011962890625,0.0004581354442052543,0.010078979656100273,0.021532366052269936
1772649853318888400,6.281888427734375,0.0022906772792339325,0.013744063675403595,0.023364907130599022
1772649853328765200,6.29176513671875,0.004734066314995289,0.01435491070151329,0.022754060104489326
1772649853338641700,6.3016416015625,0.011606098152697086,0.010689826682209969,0.02214321307837963
1772649853348518400,6.311518310546875,0.011606098152697086,0.0021379655227065086,0.02214321307837963
1772649853358395000,6.321394775390625,0.011606098152697086,-0.0021379655227065086,0.02092151902616024
1772649853368271600,6.331271728515625,0.010995250195264816,-0.002748812548816204,0.01725643500685692
1772649853378148000,6.341148193359375,0.011606098152697086,-0.0004581354442052543,0.014202198944985867
1772649853388024800,6.35102490234375,0.010231691412627697,0.001985253533348441,0.011147962883114815
1772649853397901300,6.3609013671875,0.013438640162348747,-0.0016798300202935934,0.01175880990922451
1772649853407778000,6.370778076171875,0.014049487188458443,-0.00519220158457756,0.018630841746926308
1772649853417654500,6.380654541015625,0.013591351918876171,-0.009468132629990578,0.025350160896778107
1772649853427531300,6.39053125,0.015271181240677834,0.012675080448389053,0.0331384651362896
1772649853437407700,6.40040771484375,0.012675080448389053,0.018783552572131157,0.029473381116986275
1772649853447284500,6.410284423828125,0.01038440316915512,0.00519220158457756,0.01847812905907631
1772649853457161000,6.420160888671875,0.01038440316915512,-0.009773556143045425,0.005650337319821119
1772649853467037400,6.430037353515625,0.012369656935334206,-0.023823043331503868,-0.0021379655227065086
1772649853476914200,6.4399140625,0.01175880990922451,-0.020157959312200546,0.0021379655227065086
1772649853486791000,6.449791015625,0.007788302376866341,0.002748812548816204,0.012369656935334206
1772649853496667400,6.45966748046875,-0.00015271181473508477,0.007635590620338917,0.016034740954637527
1772649853506544000,6.469544189453125,-0.001374406274408102,0.007635590620338917,0.014813045971095562
1772649853516420600,6.479420654296875,0.0006108472589403391,0.001374406274408102,0.010537114925682545
1772649853526297000,6.489297119140625,0.004275931045413017,-0.004734066314995289,0.008704573847353458
1772649853536173800,6.499173828125,0.00992626789957285,-0.013285927474498749,0.015576604753732681
1772649853546050300,6.50905029296875,0.010995250195264816,0.005344913341104984,0.02886253222823143
1772649853555927000,6.518927001953125,-0.0006108472589403391,0.01588202826678753,0.04046862944960594
1772649853565803500,6.528803466796875,-0.00916270911693573,0.016340164467692375,0.03802524134516716
1772649853575680300,6.53868017578125,-0.010995250195264816,0.005344913341104984,0.03573456406593323
1772649853585556700,6.548556640625,-0.007788302376866341,0.0010689827613532543,0.03634541109204292
1772649853595433500,6.55843359375,-0.009009997360408306,0.007788302376866341,0.038788799196481705
1772649853605310000,6.56831005859375,-0.010842538438737392,0.010842538438737392,0.040010496973991394
1772649853615186700,6.578186767578125,-0.014049487188458443,0.020157959312200546,0.04184303805232048
1772649853625063200,6.588063232421875,-0.022601349279284477,0.02748812735080719,0.04474456235766411
1772649853634940000,6.59793994140625,-0.029626091942191124,0.05207473039627075,0.05390727147459984
1772649853644816400,6.60781640625,-0.03512371703982353,0.06749862432479858,0.06413896381855011
1772649853654693000,6.617693115234375,-0.03497100621461868,0.057114217430353165,0.06856760382652283
1772649853664569600,6.627569580078125,-0.02641914412379265,0.06154286116361618,0.07711946964263916
1772649853674446300,6.6374462890625,-0.02076880633831024,0.05421269312500954,0.07956285774707794
1772649853684322800,6.64732275390625,-0.01695101149380207,0.03833066672086716,0.0778830274939537
1772649853694199600,6.657199462890625,-0.016340164467692375,0.03771981969475746,0.07482878863811493
1772649853704076000,6.667075927734375,-0.021837789565324783,0.02214321307837963,0.06261184066534042
1772649853713952800,6.676952880859375,-0.02626643143594265,0.021379653364419937,0.047951508313417435
1772649853723829200,6.686829345703125,-0.028098974376916885,0.009620844386518002,0.027182703837752342
1772649853733706000,6.6967060546875,-0.029320668429136276,-0.014202198944985867,0.003359660040587187
1772649853743582500,6.70658251953125,-0.029320668429136276,-0.032069481909275055,-0.018630841746926308
1772649853753459000,6.716458984375,-0.025197450071573257,-0.03405473381280899,-0.03268032893538475
1772649853763335700,6.726335693359375,-0.024586603045463562,-0.021837789565324783,-0.028557108715176582
1772649853773212400,6.73621240234375,-0.03512371703982353,0.0004581354442052543,-0.01511846948415041
1772649853783089000,6.7460888671875,-0.042606595903635025,0.02886253222823143,0.0038177953101694584
1772649853792965400,6.75596533203125,-0.04443913698196411,0.05482354015111923,0.02626643143594265
1772649853802842000,6.765842041015625,-0.0456608310341835,0.06245913356542587,0.04459185153245926
1772649853812718600,6.775718505859375,-0.046577103435993195,0.04840964451432228,0.05207473039627075
1772649853822595300,6.78559521484375,-0.04581354558467865,0.020157959312200546,0.04367557913064957
1772649853832471800,6.795471923828125,-0.04810422286391258,-0.010842538438737392,0.021685076877474785
1772649853842348500,6.8053486328125,-0.055587101727724075,-0.027182703837752342,-0.005803049076348543
1772649853852225000,6.81522509765625,-0.06856760382652283,-0.02626643143594265,-0.032069481909275055
1772649853862101800,6.825101806640625,-0.07437065243721008,-0.017867282032966614,-0.04932591691613197
1772649853871978200,6.834978271484375,-0.07070557028055191,-0.016034740954637527,-0.05482354015111923
1772649853881855000,6.84485498046875,-0.0662769302725792,-0.02076880633831024,-0.04321744292974472
1772649853891731500,6.8547314453125,-0.06933116167783737,-0.0015271181473508477,-0.017561858519911766
1772649853901608200,6.864608154296875,-0.07055285573005676,0.011606098152697086,0.0007635590736754239
1772649853911484700,6.874484619140625,-0.06673506647348404,0.015423892997205257,0.010537114925682545
1772649853921361400,6.884361328125,-0.06612421572208405,0.013591351918876171,0.00992626789957285
1772649853931238000,6.89423779296875,-0.06673506647348404,0.0024433890357613564,0.00519220158457756
1772649853941114400,6.9041142578125,-0.06719319522380829,-0.008093725889921188,-0.002748812548816204
1772649853950991000,6.9139912109375,-0.06902574002742767,-0.0198525357991457,-0.010078979656100273
1772649853960867800,6.923867919921875,-0.07574506103992462,-0.028557108715176582,-0.018019994720816612
1772649853970744300,6.933744384765625,-0.08322793990373611,-0.020005248486995697,-0.022906772792339325
1772649853980620800,6.943620849609375,-0.09315420687198639,-0.0022906772792339325,-0.0261137206107378
1772649853990497500,6.95349755859375,-0.0981936976313591,0.013591351918876171,-0.029320668429136276
1772649854000374000,6.9633740234375,-0.08612946420907974,0.03573456406593323,-0.023823043331503868
1772649854010250800,6.973250732421875,-0.07696675509214401,0.030389651656150818,-0.01588202826678753
1772649854020127200,6.983127197265625,-0.06933116167783737,0.020157959312200546,-0.0004581354442052543
1772649854030004000,6.99300390625,-0.06001574173569679,0.012980503961443901,0.013133215717971325
1772649854039880400,7.00288037109375,-0.051922015845775604,0.00259610079228878,0.02107422985136509
1772649854049757200,7.012757080078125,-0.052990999072790146,-0.004734066314995289,0.022906772792339325
1772649854059633700,7.022633544921875,-0.05360184609889984,-0.008399149402976036,0.016798298805952072
1772649854069510100,7.03251025390625,-0.05375456064939499,-0.009773556143045425,0.007635590620338917
1772649854079387000,7.042386962890625,-0.04886778071522713,-0.008093725889921188,-0.0009162708884105086
1772649854089263600,7.052263671875,-0.04046862944960594,-0.005650337319821119,-0.008399149402976036
1772649854099140000,7.06214013671875,-0.0325276181101799,-0.004428642801940441,-0.011453386396169662
1772649854109016600,7.0720166015625,-0.02901524491608143,0.0004581354442052543,-0.012064233422279358
1772649854118893300,7.081893310546875,-0.030847785994410515,0.010842538438737392,-0.009620844386518002
1772649854128769800,7.091769775390625,-0.037567105144262314,0.01710372418165207,-0.004734066314995289
1772649854138646500,7.101646484375,-0.042453885078430176,0.01832541823387146,0.0007635590736754239
1772649854148523000,7.11152294921875,-0.045355409383773804,0.011606098152697086,0.0032069480512291193
1772649854158399700,7.121399658203125,-0.04107947647571564,0.00916270911693573,0.0038177953101694584
1772649854168276200,7.131276123046875,-0.03680354729294777,0.0012216945178806782,-0.0004581354442052543
1772649854178153000,7.141153076171875,-0.03008422814309597,-0.0038177953101694584,-0.0065666078589856625
1772649854188029400,7.151029541015625,-0.027793550863862038,-0.004428642801940441,-0.01511846948415041
1772649854197906000,7.160906005859375,-0.029626091942191124,-0.006413896102458239,-0.023059483617544174
1772649854207782700,7.17078271484375,-0.03573456406593323,-0.00519220158457756,-0.029167955741286278
1772649854217659400,7.180659423828125,-0.041232191026210785,-0.002748812548816204,-0.029167955741286278
1772649854227536000,7.190535888671875,-0.04367557913064957,-0.002748812548816204,-0.02244863659143448
1772649854237412400,7.200412353515625,-0.04062134400010109,-0.0038177953101694584,-0.013896775431931019
1772649854247289000,7.2102890625,-0.03497100621461868,-0.006261184345930815,-0.005344913341104984
1772649854257165600,7.22016552734375,-0.03374931216239929,-0.0018325417768210173,0.0032069480512291193
1772649854267042300,7.230042236328125,-0.0331384651362896,0.0050394898280501366,0.00992626789957285
1772649854276918800,7.239918701171875,-0.03542914241552353,0.008246437646448612,0.01847812905907631
1772649854286795500,7.24979541015625,-0.04153761267662048,0.011300674639642239,0.025961007922887802
1772649854296672000,7.259672119140625,-0.04581354558467865,0.01252236869186163,0.03145863488316536
1772649854306548700,7.269548828125,-0.04825693368911743,0.009468132629990578,0.032069481909275055
1772649854316425200,7.27942529296875,-0.0462716780602932,0.002748812548816204,0.027182703837752342
1772649854326302000,7.289302001953125,-0.04459185153245926,0.0038177953101694584,0.018630841746926308
1772649854336178400,7.299178466796875,-0.04169032722711563,0.008093725889921188,0.008093725889921188
1772649854346055000,7.309054931640625,-0.03512371703982353,0.010995250195264816,0.001985253533348441
1772649854355931600,7.318931640625,-0.029473381116986275,0.006108472589403391,0.00259610079228878
1772649854365808000,7.32880810546875,-0.023975754156708717,-0.007330167107284069,0.002748812548816204
1772649854375684900,7.338684814453125,-0.01588202826678753,-0.025808297097682953,-0.002748812548816204
1772649854385561300,7.348561279296875,-0.0065666078589856625,-0.03924693539738655,-0.010689826682209969
1772649854395438000,7.35843798828125,-0.0004581354442052543,-0.04306473210453987,-0.0198525357991457
1772649854405314600,7.368314453125,0.0036650835536420345,-0.03573456406593323,-0.02733541466295719
1772649854415191300,7.37819140625,0.0029015245381742716,-0.027946261689066887,-0.032222192734479904
1772649854425067800,7.38806787109375,0.0029015245381742716,-0.025502873584628105,-0.034665580838918686
1772649854434944300,7.3979443359375,0.0016798300202935934,-0.029167955741286278,-0.031000498682260513
1772649854444821000,7.407821044921875,-0.005497625097632408,-0.042606595903635025,-0.025961007922887802
1772649854454697500,7.417697509765625,-0.012675080448389053,-0.05986303091049194,-0.030847785994410515
1772649854464574200,7.42757421875,-0.01695101149380207,-0.06551336497068405,-0.04306473210453987
1772649854474450700,7.43745068359375,-0.021532366052269936,-0.055739812552928925,-0.05528167635202408
1772649854484327400,7.447327392578125,-0.022906772792339325,-0.03680354729294777,-0.06032116711139679
1772649854494204000,7.457203857421875,-0.02367033064365387,-0.016034740954637527,-0.054365407675504684
1772649854504080600,7.46708056640625,-0.024281177669763565,0.0009162708884105086,-0.03298575058579445
1772649854513957000,7.47695703125,-0.02351761981844902,0.012216945178806782,-0.005344913341104984
1772649854523833900,7.486833740234375,-0.01725643500685692,0.019394399598240852,0.021532366052269936
1772649854533710300,7.49671044921875,-0.009773556143045425,0.02076880633831024,0.04169032722711563
1772649854543586800,7.5065869140625,-0.0065666078589856625,0.016492875292897224,0.047951508313417435
1772649854553463600,7.516463623046875,-0.0024433890357613564,0.014660334214568138,0.042453885078430176
1772649854563340000,7.526340087890625,0.004275931045413017,0.008399149402976036,0.024586603045463562
1772649854573216800,7.536216796875,0.007177455350756645,-0.004275931045413017,-0.0004581354442052543
1772649854583093200,7.54609326171875,0.010231691412627697,-0.022906772792339325,-0.026724567636847496
1772649854592970000,7.555969970703125,0.009620844386518002,-0.038483377546072006,-0.04016320779919624
1772649854602846500,7.565846435546875,0.004734066314995289,-0.045202698558568954,-0.04871506989002228
1772649854612723200,7.57572314453125,0.010689826682209969,-0.025655584409832954,-0.056808795779943466
1772649854622599700,7.585599609375,0.001374406274408102,-0.013438640162348747,-0.0525328628718853
1772649854632476200,7.59547607421875,-0.004734066314995289,-0.010842538438737392,-0.0390942245721817
1772649854642353000,7.605352783203125,-0.0021379655227065086,-0.01252236869186163,-0.028557108715176582
1772649854652229400,7.6152294921875,0.0035123717971146107,-0.015576604753732681,-0.018783552572131157
1772649854662106000,7.625106201171875,0.006719320081174374,-0.016645587980747223,-0.009620844386518002
1772649854671982600,7.634982666015625,0.0018325417768210173,-0.011606098152697086,-0.005955760832875967
1772649854681859300,7.644859375,-0.002748812548816204,0.0030542362947016954,-0.011606098152697086
1772649854691735800,7.65473583984375,-0.01511846948415041,0.01695101149380207,-0.016492875292897224
1772649854701612300,7.6646123046875,-0.02626643143594265,0.02489202655851841,-0.018936265259981155
1772649854711489000,7.674489013671875,-0.03298575058579445,0.02244863659143448,-0.024433890357613564
1772649854721365500,7.684365478515625,-0.030542362481355667,0.015576604753732681,-0.03420744836330414
1772649854731242200,7.6942421875,-0.022601349279284477,0.0032069480512291193,-0.04703523963689804
1772649854741118700,7.70411865234375,-0.013438640162348747,-0.012980503961443901,-0.05986303091049194
1772649854750995500,7.713995361328125,-0.0065666078589856625,-0.021532366052269936,-0.06169557198882103
1772649854760872000,7.723871826171875,-0.008399149402976036,-0.012827792204916477,-0.05375456064939499
1772649854770748700,7.733748779296875,-0.014660334214568138,0.005650337319821119,-0.04153761267662048
1772649854780625200,7.743625244140625,-0.01969982497394085,0.02473931387066841,-0.0325276181101799
1772649854790501600,7.753501708984375,-0.014813045971095562,0.03573456406593323,-0.03130592033267021
1772649854800378400,7.76337841796875,-0.009468132629990578,0.03573456406593323,-0.04046862944960594
1772649854810254800,7.7732548828125,-0.009620844386518002,0.03924693539738655,-0.0528382882475853
1772649854820131600,7.783131591796875,-0.0036650835536420345,0.04031591862440109,-0.07116370648145676
1772649854830008000,7.793008056640625,-0.007482878863811493,0.03771981969475746,-0.08780929446220398
1772649854839884800,7.802884765625,-0.009468132629990578,0.041232191026210785,-0.0975828468799591
1772649854849761300,7.81276123046875,-0.003359660040587187,0.04489727318286896,-0.10124793648719788
1772649854859637800,7.8226376953125,0.011453386396169662,0.03451287001371384,-0.10491301864385605
1772649854869514500,7.832514404296875,0.016798298805952072,-0.020310672000050545,-0.11453386396169662
1772649854879391000,7.842390869140625,0.0038177953101694584,-0.06261184066534042,-0.1185043677687645
1772649854889267700,7.852267822265625,-0.02076880633831024,-0.058335911482572556,-0.10995250940322876
1772649854899144200,7.862144287109375,-0.039857782423496246,-0.02504473738372326,-0.09834641218185425
1772649854909021000,7.87202099609375,-0.04199574887752533,0.023059483617544174,-0.08093725889921188
1772649854918897400,7.8818974609375,-0.03665083646774292,0.06306997686624527,-0.049173206090927124
1772649854928774000,7.89177392578125,-0.04169032722711563,0.06933116167783737,0.007177455350756645
1772649854938650600,7.901650634765625,-0.051616594195365906,0.03023693896830082,0.08032641559839249
1772649854948527000,7.911527099609375,-0.053143709897994995,-0.02107422985136509,0.1432436853647232
1772649854958403800,7.92140380859375,-0.038788799196481705,-0.05803048983216286,0.18630841374397278
1772649854968280300,7.9312802734375,-0.01725643500685692,-0.07375980913639069,0.19684553146362305
1772649854978157000,7.941156982421875,-0.004123218823224306,-0.06841489672660828,0.17348061501979828
