time,seconds_elapsed,z,y,x
1772656295561118700,0.17311865234375,9.765109062194824,-0.0011964113218709826,0.04426721855998039
1772656295570997500,0.18299755859375,9.762716293334961,0.008374879136681557,0.04666004329919815
1772656295580875800,0.192875732421875,9.757930755615234,0.003589233849197626,0.04187439754605293
1772656295590754300,0.20275439453125,9.762716293334961,-0.0011964113218709826,0.037088751792907715
1772656295600632800,0.2126328125,9.757930755615234,0.0011964113218709826,0.037088751792907715
1772656295610511400,0.222511474609375,9.757930755615234,0.005982056725770235,0.04187439754605293
1772656295620390000,0.232389892578125,9.762716293334961,0.0011964113218709826,0.04426721855998039
1772656295630268400,0.242268310546875,9.762716293334961,0.003589233849197626,0.0323031060397625
1772656295640147000,0.25214697265625,9.757930755615234,0.005982056725770235,0.03469592705368996
1772656295650025500,0.262025390625,9.76989459991455,0.008374879136681557,0.037088751792907715
1772656295659904000,0.271904052734375,9.774680137634277,0.005982056725770235,0.04426721855998039
1772656295669782500,0.281782470703125,9.765109062194824,0.005982056725770235,0.0323031060397625
1772656295679661000,0.2916611328125,9.762716293334961,0.005982056725770235,0.037088751792907715
1772656295689539600,0.30153955078125,9.765109062194824,0.015553346835076809,0.029910283163189888
1772656295699418000,0.311418212890625,9.760323524475098,0.0011964113218709826,0.039481572806835175
1772656295709296600,0.321296630859375,9.753145217895508,0.008374879136681557,0.039481572806835175
1772656295719175200,0.331175048828125,9.765109062194824,-0.0011964113218709826,0.03469592705368996
1772656295729053700,0.3410537109375,9.757930755615234,-0.003589233849197626,0.03469592705368996
1772656295738932200,0.35093212890625,9.760323524475098,0.003589233849197626,0.037088751792907715
1772656295748810500,0.360810546875,9.753145217895508,0.0011964113218709826,0.03469592705368996
1772656295758689000,0.37068896484375,9.743574142456055,0.008374879136681557,0.037088751792907715
1772656295768567600,0.380567626953125,9.760323524475098,0.0011964113218709826,0.04426721855998039
1772656295778446000,0.390446044921875,9.76989459991455,0.005982056725770235,0.039481572806835175
1772656295788324600,0.40032470703125,9.762716293334961,0.008374879136681557,0.04187439754605293
1772656295798203100,0.410203125,9.762716293334961,0.0011964113218709826,0.04666004329919815
1772656295808081700,0.42008154296875,9.762716293334961,0.005982056725770235,0.04426721855998039
1772656295817960200,0.429960205078125,9.76989459991455,0.008374879136681557,0.037088751792907715
1772656295827838700,0.439838623046875,9.762716293334961,0.010767702013254166,0.04666004329919815
1772656295837717200,0.44971728515625,9.757930755615234,0.0011964113218709826,0.03469592705368996
1772656295847595800,0.459595703125,9.762716293334961,0.003589233849197626,0.04426721855998039
1772656295857474300,0.469474365234375,9.757930755615234,0.003589233849197626,0.03469592705368996
1772656295867352800,0.479352783203125,9.767501831054688,0.008374879136681557,0.037088751792907715
1772656295877231400,0.4892314453125,9.76989459991455,0.008374879136681557,0.04666004329919815
1772656295887110000,0.49910986328125,9.767501831054688,0.0011964113218709826,0.037088751792907715
1772656295896988400,0.508988525390625,9.757930755615234,0.008374879136681557,0.039481572806835175
1772656295906866700,0.51886669921875,9.765109062194824,0.0011964113218709826,0.037088751792907715
1772656295916745500,0.528745361328125,9.762716293334961,0.003589233849197626,0.039481572806835175
1772656295926623700,0.538623779296875,9.765109062194824,0.008374879136681557,0.03469592705368996
1772656295936502300,0.548502197265625,9.757930755615234,0.008374879136681557,0.04187439754605293
1772656295946380800,0.558380859375,9.765109062194824,0.008374879136681557,0.03469592705368996
1772656295956259300,0.56825927734375,9.762716293334961,-0.0011964113218709826,0.039481572806835175
1772656295966137900,0.578137939453125,9.765109062194824,0.005982056725770235,0.037088751792907715
1772656295976016400,0.588016357421875,9.762716293334961,0.003589233849197626,0.0323031060397625
1772656295985895000,0.59789501953125,9.757930755615234,0.010767702013254166,0.029910283163189888
1772656295995773400,0.6077734375,9.765109062194824,0.0011964113218709826,0.039481572806835175
1772656296005652000,0.61765185546875,9.772287368774414,0.0011964113218709826,0.04187439754605293
1772656296015530500,0.627530517578125,9.753145217895508,0.010767702013254166,0.039481572806835175
1772656296025409000,0.637408935546875,9.762716293334961,0.013160524889826775,0.039481572806835175
1772656296035287600,0.64728759765625,9.762716293334961,0.008374879136681557,0.04426721855998039
1772656296045166000,0.657166015625,9.762716293334961,0.005982056725770235,0.039481572806835175
1772656296055044600,0.667044677734375,9.762716293334961,0.005982056725770235,0.039481572806835175
1772656296064923100,0.676923095703125,9.755537986755371,0.005982056725770235,0.037088751792907715
1772656296074801700,0.6868017578125,9.757930755615234,0.010767702013254166,0.029910283163189888
1772656296084680000,0.696679931640625,9.760323524475098,0.003589233849197626,0.0323031060397625
1772656296094558500,0.706558349609375,9.760323524475098,0.003589233849197626,0.037088751792907715
1772656296104437000,0.71643701171875,9.757930755615234,-0.0011964113218709826,0.037088751792907715
1772656296114315500,0.7263154296875,9.765109062194824,0.008374879136681557,0.039481572806835175
1772656296124194000,0.736194091796875,9.762716293334961,0.005982056725770235,0.03469592705368996
1772656296134072600,0.746072509765625,9.765109062194824,0.003589233849197626,0.0323031060397625
1772656296143951000,0.755951171875,9.765109062194824,0.008374879136681557,0.037088751792907715
1772656296153829600,0.76582958984375,9.765109062194824,0.003589233849197626,0.03469592705368996
1772656296163708200,0.775708251953125,9.767501831054688,0.0011964113218709826,0.029910283163189888
1772656296173586700,0.785586669921875,9.76989459991455,0.0011964113218709826,0.04187439754605293
1772656296183465200,0.79546533203125,9.762716293334961,0.008374879136681557,0.037088751792907715
1772656296193343700,0.80534375,9.767501831054688,0.003589233849197626,0.0323031060397625
1772656296203222300,0.81522216796875,9.757930755615234,0.0011964113218709826,0.04187439754605293
1772656296213100800,0.825100830078125,9.765109062194824,0.008374879136681557,0.039481572806835175
1772656296222979300,0.834979248046875,9.760323524475098,0.008374879136681557,0.04666004329919815
1772656296232857900,0.84485791015625,9.765109062194824,0.005982056725770235,0.04666004329919815
1772656296242736400,0.854736328125,9.755537986755371,0.0011964113218709826,0.029910283163189888
1772656296252614700,0.86461474609375,9.762716293334961,0.0011964113218709826,0.03469592705368996
1772656296262493200,0.8744931640625,9.757930755615234,0.008374879136681557,0.04426721855998039
1772656296272371700,0.884371826171875,9.762716293334961,0.0011964113218709826,0.039481572806835175
1772656296282250200,0.894250244140625,9.762716293334961,-0.0011964113218709826,0.03469592705368996
1772656296292128800,0.904128662109375,9.765109062194824,0.005982056725770235,0.02751746028661728
1772656296302007300,0.91400732421875,9.767501831054688,0.005982056725770235,0.0323031060397625
1772656296311885800,0.9238857421875,9.760323524475098,0.005982056725770235,0.039481572806835175
1772656296321764400,0.933764404296875,9.762716293334961,0.0011964113218709826,0.04666004329919815
1772656296331643000,0.943642822265625,9.76989459991455,0.010767702013254166,0.039481572806835175
1772656296341521400,0.953521484375,9.772287368774414,0.005982056725770235,0.037088751792907715
1772656296351400000,0.96339990234375,9.760323524475098,-0.005982056725770235,0.037088751792907715
1772656296361278500,0.973278564453125,9.765109062194824,0.010767702013254166,0.0323031060397625
1772656296371157000,0.983156982421875,9.762716293334961,0.003589233849197626,0.04187439754605293
1772656296381035500,0.993035400390625,9.760323524475098,0.0011964113218709826,0.03469592705368996
1772656296390914000,1.0029140625,9.762716293334961,0.005982056725770235,0.03469592705368996
1772656296400792300,1.012792236328125,9.760323524475098,0.003589233849197626,0.03469592705368996
1772656296410670800,1.0226708984375,9.765109062194824,0.005982056725770235,0.029910283163189888
1772656296420549400,1.03254931640625,9.760323524475098,0.003589233849197626,0.039481572806835175
1772656296430428000,1.042427978515625,9.765109062194824,0.005982056725770235,0.029910283163189888
1772656296440306400,1.052306396484375,9.760323524475098,0.003589233849197626,0.037088751792907715
1772656296450185000,1.06218505859375,9.760323524475098,0.008374879136681557,0.03469592705368996
1772656296460063500,1.0720634765625,9.757930755615234,0.008374879136681557,0.039481572806835175
1772656296469942000,1.08194189453125,9.762716293334961,0.005982056725770235,0.039481572806835175
1772656296479820500,1.091820556640625,9.762716293334961,0.003589233849197626,0.03469592705368996
1772656296489699000,1.101698974609375,9.755537986755371,0.003589233849197626,0.04187439754605293
1772656296499577600,1.11157763671875,9.765109062194824,0.0011964113218709826,0.03469592705368996
1772656296509456100,1.1214560546875,9.757930755615234,0.010767702013254166,0.04187439754605293
1772656296519334700,1.131334716796875,9.757930755615234,0.013160524889826775,0.039481572806835175
1772656296529213200,1.141213134765625,9.762716293334961,-0.003589233849197626,0.039481572806835175
1772656296539091700,1.151091796875,9.765109062194824,0.010767702013254166,0.04426721855998039
1772656296548970200,1.16097021484375,9.765109062194824,0.005982056725770235,0.02751746028661728
1772656296558848500,1.1708486328125,9.762716293334961,0.0011964113218709826,0.029910283163189888
1772656296568727300,1.180727294921875,9.760323524475098,0.0011964113218709826,0.037088751792907715
1772656296578605600,1.19060546875,9.765109062194824,0.008374879136681557,0.039481572806835175
1772656296588484000,1.200484130859375,9.765109062194824,0.008374879136681557,0.039481572806835175
1772656296598362600,1.210362548828125,9.755537986755371,0.005982056725770235,0.0323031060397625
1772656296608241200,1.2202412109375,9.762716293334961,0.003589233849197626,0.04666004329919815
1772656296618119700,1.23011962890625,9.765109062194824,0.008374879136681557,0.039481572806835175
1772656296627998200,1.239998291015625,9.757930755615234,0.008374879136681557,0.039481572806835175
1772656296637876700,1.249876708984375,9.762716293334961,0.0011964113218709826,0.02751746028661728
1772656296647755300,1.25975537109375,9.767501831054688,0.005982056725770235,0.04426721855998039
1772656296657633800,1.2696337890625,9.765109062194824,0.010767702013254166,0.037088751792907715
1772656296667512300,1.27951220703125,9.762716293334961,-0.0011964113218709826,0.039481572806835175
1772656296677390800,1.289390869140625,9.765109062194824,0.003589233849197626,0.04426721855998039
1772656296687269400,1.299269287109375,9.755537986755371,-0.0011964113218709826,0.039481572806835175
1772656296697148000,1.30914794921875,9.765109062194824,0.005982056725770235,0.02751746028661728
1772656296707026400,1.3190263671875,9.760323524475098,0.005982056725770235,0.039481572806835175
1772656296716904700,1.32890478515625,9.757930755615234,0.010767702013254166,0.039481572806835175
1772656296726783500,1.338783447265625,9.765109062194824,0.005982056725770235,0.03469592705368996
1772656296736661800,1.348661865234375,9.765109062194824,0.005982056725770235,0.0323031060397625
1772656296746540300,1.358540283203125,9.762716293334961,0.0011964113218709826,0.037088751792907715
1772656296756418800,1.368418701171875,9.767501831054688,0.013160524889826775,0.04187439754605293
1772656296766297300,1.37829736328125,9.755537986755371,0.0011964113218709826,0.039481572806835175
1772656296776175900,1.38817578125,9.762716293334961,0.005982056725770235,0.03469592705368996
1772656296786054400,1.398054443359375,9.765109062194824,0.003589233849197626,0.039481572806835175
1772656296795933000,1.407932861328125,9.760323524475098,0.0011964113218709826,0.039481572806835175
1772656296805811500,1.4178115234375,9.757930755615234,0.0011964113218709826,0.03469592705368996
1772656296815690000,1.42768994140625,9.762716293334961,-0.005982056725770235,0.037088751792907715
1772656296825568500,1.437568603515625,9.765109062194824,0.008374879136681557,0.037088751792907715
1772656296835447000,1.447447021484375,9.760323524475098,0.0011964113218709826,0.039481572806835175
1772656296845325600,1.45732568359375,9.76989459991455,0.0011964113218709826,0.0323031060397625
1772656296855204000,1.4672041015625,9.762716293334961,0.005982056725770235,0.04426721855998039
1772656296865082600,1.47708251953125,9.767501831054688,0.008374879136681557,0.037088751792907715
1772656296874961200,1.486961181640625,9.767501831054688,-0.0011964113218709826,0.03469592705368996
1772656296884839700,1.496839599609375,9.767501831054688,-0.003589233849197626,0.03469592705368996
1772656296894718000,1.506718017578125,9.760323524475098,-0.0011964113218709826,0.04187439754605293
1772656296904596500,1.516596435546875,9.757930755615234,0.010767702013254166,0.037088751792907715
1772656296914475000,1.52647509765625,9.757930755615234,0.0011964113218709826,0.037088751792907715
1772656296924353500,1.536353515625,9.765109062194824,-0.0011964113218709826,0.037088751792907715
1772656296934232000,1.546232177734375,9.765109062194824,0.005982056725770235,0.03469592705368996
1772656296944110600,1.556110595703125,9.757930755615234,0.005982056725770235,0.029910283163189888
1772656296953989000,1.565989013671875,9.760323524475098,0.008374879136681557,0.039481572806835175
1772656296963867600,1.57586767578125,9.760323524475098,0.0011964113218709826,0.04426721855998039
1772656296973746200,1.58574609375,9.762716293334961,0.005982056725770235,0.039481572806835175
1772656296983624700,1.595624755859375,9.762716293334961,0.008374879136681557,0.0323031060397625
1772656296993503200,1.605503173828125,9.755537986755371,0.003589233849197626,0.04187439754605293
1772656297003381800,1.6153818359375,9.762716293334961,0.005982056725770235,0.037088751792907715
1772656297013260300,1.62526025390625,9.767501831054688,0.008374879136681557,0.037088751792907715
1772656297023138800,1.635138916015625,9.765109062194824,-0.0011964113218709826,0.04187439754605293
1772656297033017300,1.645017333984375,9.762716293334961,0.005982056725770235,0.02751746028661728
1772656297042895600,1.6548955078125,9.760323524475098,0.005982056725770235,0.037088751792907715
1772656297052774100,1.664774169921875,9.757930755615234,0.003589233849197626,0.037088751792907715
1772656297062652700,1.674652587890625,9.762716293334961,0.003589233849197626,0.04187439754605293
1772656297072531200,1.68453125,9.767501831054688,0.003589233849197626,0.04666004329919815
1772656297082409700,1.69440966796875,9.772287368774414,0.0011964113218709826,0.0323031060397625
1772656297092288300,1.704288330078125,9.76989459991455,0.008374879136681557,0.0323031060397625
1772656297102166800,1.714166748046875,9.760323524475098,0.0011964113218709826,0.0323031060397625
1772656297112045300,1.72404541015625,9.762716293334961,0.005982056725770235,0.0323031060397625
1772656297121923800,1.733923828125,9.762716293334961,0.005982056725770235,0.02751746028661728
1772656297131802400,1.74380224609375,9.760323524475098,0.003589233849197626,0.037088751792907715
1772656297141681000,1.753680908203125,9.757930755615234,0.005982056725770235,0.039481572806835175
1772656297151559400,1.763559326171875,9.757930755615234,0.005982056725770235,0.039481572806835175
1772656297161438000,1.77343798828125,9.76989459991455,0.008374879136681557,0.037088751792907715
1772656297171316500,1.78331640625,9.760323524475098,0.005982056725770235,0.04905286431312561
1772656297181194800,1.79319482421875,9.757930755615234,0.003589233849197626,0.04187439754605293
1772656297191073500,1.803073486328125,9.753145217895508,0.003589233849197626,0.039481572806835175
1772656297200951800,1.812951904296875,9.760323524475098,0.0011964113218709826,0.03469592705368996
1772656297210830300,1.822830322265625,9.755537986755371,-0.003589233849197626,0.04187439754605293
1772656297220708900,1.832708984375,9.757930755615234,0.003589233849197626,0.0323031060397625
1772656297230587400,1.84258740234375,9.76989459991455,0.005982056725770235,0.039481572806835175
1772656297240466000,1.8524658203125,9.762716293334961,-0.0011964113218709826,0.037088751792907715
1772656297250344400,1.862344482421875,9.767501831054688,0.010767702013254166,0.029910283163189888
1772656297260223000,1.872222900390625,9.76989459991455,0.0011964113218709826,0.0323031060397625
1772656297270101500,1.8821015625,9.757930755615234,0.005982056725770235,0.03469592705368996
1772656297279980000,1.89197998046875,9.767501831054688,0.003589233849197626,0.039481572806835175
1772656297289858600,1.901858642578125,9.762716293334961,0.003589233849197626,0.04426721855998039
1772656297299737000,1.911737060546875,9.760323524475098,0.005982056725770235,0.039481572806835175
1772656297309615600,1.92161572265625,9.765109062194824,0.008374879136681557,0.039481572806835175
1772656297319494100,1.931494140625,9.767501831054688,0.003589233849197626,0.04187439754605293
1772656297329372700,1.94137255859375,9.762716293334961,0.003589233849197626,0.039481572806835175
1772656297339251200,1.951251220703125,9.762716293334961,0.008374879136681557,0.0323031060397625
1772656297349129700,1.961129638671875,9.765109062194824,0.0011964113218709826,0.039481572806835175
1772656297359008000,1.971008056640625,9.760323524475098,0.0011964113218709826,0.02751746028661728
1772656297368886500,1.980886474609375,9.765109062194824,0.010767702013254166,0.03469592705368996
1772656297378765000,1.99076513671875,9.755537986755371,0.005982056725770235,0.0323031060397625
1772656297388643600,2.0006435546875,9.767501831054688,0.010767702013254166,0.03469592705368996
1772656297398522000,2.010522216796875,9.765109062194824,0.005982056725770235,0.04426721855998039
1772656297408400600,2.020400634765625,9.767501831054688,0.0011964113218709826,0.039481572806835175
1772656297418279200,2.030279052734375,9.765109062194824,0.003589233849197626,0.039481572806835175
1772656297428157700,2.04015771484375,9.757930755615234,0.013160524889826775,0.039481572806835175
1772656297438036200,2.0500361328125,9.76989459991455,0.010767702013254166,0.04426721855998039
1772656297447914800,2.059914794921875,9.760323524475098,0.003589233849197626,0.04187439754605293
1772656297457793300,2.069793212890625,9.757930755615234,0.008374879136681557,0.039481572806835175
1772656297467671800,2.079671875,9.767501831054688,0.005982056725770235,0.039481572806835175
1772656297477550300,2.08955029296875,9.762716293334961,0.0011964113218709826,0.029910283163189888
1772656297487428900,2.099428955078125,9.757930755615234,0.010767702013254166,0.039481572806835175
1772656297497307400,2.109307373046875,9.760323524475098,-0.003589233849197626,0.037088751792907715
1772656297507185700,2.119185546875,9.765109062194824,0.003589233849197626,0.0323031060397625
1772656297517064200,2.129064208984375,9.760323524475098,0.003589233849197626,0.037088751792907715
1772656297526942700,2.138942626953125,9.762716293334961,0.0011964113218709826,0.04187439754605293
1772656297536821200,2.1488212890625,9.767501831054688,0.005982056725770235,0.039481572806835175
1772656297546699800,2.15869970703125,9.755537986755371,0.003589233849197626,0.04666004329919815
1772656297556578300,2.168578369140625,9.765109062194824,0.0011964113218709826,0.039481572806835175
1772656297566456800,2.178456787109375,9.767501831054688,0.003589233849197626,0.037088751792907715
1772656297576335400,2.18833544921875,9.767501831054688,0.0011964113218709826,0.039481572806835175
1772656297586214000,2.1982138671875,9.762716293334961,-0.0011964113218709826,0.04187439754605293
1772656297596092400,2.208092529296875,9.765109062194824,0.003589233849197626,0.037088751792907715
1772656297605971000,2.217970947265625,9.762716293334961,0.003589233849197626,0.0323031060397625
1772656297615849500,2.227849365234375,9.765109062194824,0.0011964113218709826,0.04666004329919815
1772656297625728000,2.23772802734375,9.760323524475098,0.005982056725770235,0.039481572806835175
1772656297635606500,2.2476064453125,9.760323524475098,0.003589233849197626,0.03469592705368996
1772656297645485000,2.257485107421875,9.762716293334961,0.008374879136681557,0.039481572806835175
1772656297655363600,2.267363525390625,9.762716293334961,0.003589233849197626,0.037088751792907715
1772656297665241900,2.277241943359375,9.765109062194824,0.003589233849197626,0.039481572806835175
1772656297675120400,2.287120361328125,9.765109062194824,0.005982056725770235,0.037088751792907715
1772656297684999000,2.2969990234375,9.767501831054688,0.003589233849197626,0.039481572806835175
1772656297694877400,2.30687744140625,9.760323524475098,0.0011964113218709826,0.037088751792907715
1772656297704756000,2.316755859375,9.767501831054688,0.008374879136681557,0.037088751792907715
1772656297714634500,2.326634521484375,9.765109062194824,0.003589233849197626,0.0323031060397625
1772656297724513000,2.336512939453125,9.762716293334961,0.008374879136681557,0.03469592705368996
1772656297734391600,2.3463916015625,9.757930755615234,0.005982056725770235,0.037088751792907715
1772656297744270000,2.35627001953125,9.760323524475098,0.005982056725770235,0.04426721855998039
1772656297754148600,2.366148681640625,9.765109062194824,-0.003589233849197626,0.029910283163189888
1772656297764027100,2.376027099609375,9.762716293334961,0.005982056725770235,0.039481572806835175
1772656297773905700,2.38590576171875,9.762716293334961,0.008374879136681557,0.03469592705368996
1772656297783784200,2.3957841796875,9.757930755615234,0.003589233849197626,0.03469592705368996
1772656297793662700,2.405662841796875,9.767501831054688,0.003589233849197626,0.039481572806835175
1772656297803541200,2.415541259765625,9.757930755615234,0.010767702013254166,0.03469592705368996
1772656297813419800,2.425419677734375,9.767501831054688,0.003589233849197626,0.039481572806835175
1772656297823298000,2.435298095703125,9.765109062194824,0.005982056725770235,0.037088751792907715
1772656297833176600,2.445176513671875,9.767501831054688,0.008374879136681557,0.037088751792907715
1772656297843055000,2.45505517578125,9.762716293334961,0.0011964113218709826,0.04426721855998039
1772656297852933600,2.46493359375,9.765109062194824,0.008374879136681557,0.04187439754605293
1772656297862812200,2.474812255859375,9.762716293334961,0.005982056725770235,0.039481572806835175
1772656297872690700,2.484690673828125,9.765109062194824,0.013160524889826775,0.03469592705368996
1772656297882569200,2.4945693359375,9.762716293334961,0.0011964113218709826,0.04426721855998039
1772656297892447700,2.50444775390625,9.762716293334961,0.0011964113218709826,0.037088751792907715
1772656297902326300,2.514326171875,9.757930755615234,0.003589233849197626,0.039481572806835175
1772656297912204800,2.524204833984375,9.757930755615234,-0.0011964113218709826,0.03469592705368996
1772656297922083300,2.534083251953125,9.76989459991455,0.005982056725770235,0.037088751792907715
1772656297931961900,2.5439619140625,9.760323524475098,-0.003589233849197626,0.039481572806835175
1772656297941840400,2.55384033203125,9.760323524475098,0.008374879136681557,0.02751746028661728
1772656297951719000,2.563718994140625,9.762716293334961,0.0011964113218709826,0.029910283163189888
1772656297961597400,2.573597412109375,9.762716293334961,0.010767702013254166,0.037088751792907715
1772656297971475700,2.583475830078125,9.771689414978027,0.003589233849197626,0.029910283163189888
1772656297981354200,2.593354248046875,9.760323524475098,0.0011964113218709826,0.03469592705368996
1772656297991232800,2.603232666015625,9.762716293334961,0.008374879136681557,0.04187439754605293
1772656298001111300,2.613111328125,9.757930755615234,0.0011964113218709826,0.037088751792907715
1772656298010989800,2.62298974609375,9.767501831054688,0.005982056725770235,0.039481572806835175
1772656298020868400,2.632868408203125,9.757930755615234,0.013160524889826775,0.039481572806835175
1772656298030747000,2.642746826171875,9.762716293334961,0.005982056725770235,0.037088751792907715
1772656298040625400,2.65262548828125,9.762716293334961,0.008374879136681557,0.03469592705368996
1772656298050504000,2.66250390625,9.765109062194824,0.005982056725770235,0.037088751792907715
1772656298060382500,2.672382568359375,9.7669038772583,0.005982056725770235,0.03469592705368996
1772656298070261000,2.682260986328125,9.762716293334961,0.005982056725770235,0.037088751792907715
1772656298080139500,2.692139404296875,9.765109062194824,-0.0011964113218709826,0.029910283163189888
1772656298090018000,2.70201806640625,9.760323524475098,0.008374879136681557,0.04666004329919815
1772656298099896600,2.711896484375,9.762716293334961,0.005982056725770235,0.03469592705368996
1772656298109775000,2.721775146484375,9.760323524475098,0.005982056725770235,0.037088751792907715
1772656298119653600,2.731653564453125,9.762716293334961,0.003589233849197626,0.03469592705368996
1772656298129532000,2.741531982421875,9.765109062194824,0.003589233849197626,0.03469592705368996
1772656298139410400,2.751410400390625,9.760323524475098,0.005982056725770235,0.0323031060397625
1772656298149289000,2.7612890625,9.765109062194824,0.003589233849197626,0.03469592705368996
1772656298159167500,2.77116748046875,9.765109062194824,0.008374879136681557,0.0323031060397625
1772656298169046000,2.7810458984375,9.765109062194824,0.008374879136681557,0.039481572806835175
1772656298178924500,2.790924560546875,9.765109062194824,0.003589233849197626,0.0323031060397625
1772656298188803000,2.800802978515625,9.767501831054688,0.0011964113218709826,0.04187439754605293
1772656298198681600,2.810681640625,9.762716293334961,0.005982056725770235,0.037088751792907715
1772656298208560000,2.82056005859375,9.757930755615234,0.003589233849197626,0.04905286431312561
1772656298218438700,2.830438720703125,9.765109062194824,0.005982056725770235,0.037088751792907715
1772656298228317200,2.840317138671875,9.767501831054688,-0.0011964113218709826,0.03469592705368996
1772656298238195700,2.85019580078125,9.767501831054688,0.005982056725770235,0.0323031060397625
1772656298248074200,2.86007421875,9.765109062194824,0.003589233849197626,0.039481572806835175
1772656298257952800,2.869952880859375,9.757930755615234,0.015553346835076809,0.03469592705368996
1772656298267831300,2.879831298828125,9.757930755615234,0.003589233849197626,0.029910283163189888
1772656298277709800,2.889709716796875,9.767501831054688,0.003589233849197626,0.04187439754605293
1772656298287588000,2.899588134765625,9.765109062194824,-0.0011964113218709826,0.04187439754605293
1772656298297467000,2.909466796875,9.757930755615234,-0.0011964113218709826,0.04187439754605293
1772656298307345200,2.91934521484375,9.762716293334961,0.003589233849197626,0.039481572806835175
1772656298317223700,2.9292236328125,9.765109062194824,0.0011964113218709826,0.04187439754605293
1772656298327102200,2.939102294921875,9.760323524475098,0.003589233849197626,0.03469592705368996
1772656298336980700,2.948980712890625,9.774680137634277,0.010767702013254166,0.0323031060397625
1772656298346859300,2.958859375,9.757930755615234,0.008374879136681557,0.039481572806835175
1772656298356737800,2.96873779296875,9.762716293334961,0.010767702013254166,0.04666004329919815
1772656298366616300,2.9786162109375,9.757930755615234,0.003589233849197626,0.039481572806835175
1772656298376494800,2.988494873046875,9.760323524475098,-0.0011964113218709826,0.03469592705368996
1772656298386373400,2.998373291015625,9.765109062194824,0.003589233849197626,0.037088751792907715
1772656298396252000,3.008251953125,9.762716293334961,-0.0011964113218709826,0.0323031060397625
1772656298406130400,3.01813037109375,9.76989459991455,0.008374879136681557,0.0323031060397625
1772656298416009000,3.028009033203125,9.762716293334961,0.008374879136681557,0.039481572806835175
1772656298425887500,3.037887451171875,9.760323524475098,0.003589233849197626,0.039481572806835175
1772656298435766000,3.04776611328125,9.760323524475098,0.0011964113218709826,0.037088751792907715
1772656298445644300,3.057644287109375,9.76989459991455,0.0011964113218709826,0.039481572806835175
1772656298455522800,3.067522705078125,9.765109062194824,-0.005982056725770235,0.04426721855998039
1772656298465401300,3.0774013671875,9.762716293334961,0.0011964113218709826,0.04187439754605293
1772656298475280000,3.08727978515625,9.767501831054688,0.008374879136681557,0.039481572806835175
1772656298485158400,3.097158447265625,9.762716293334961,0.003589233849197626,0.03469592705368996
1772656298495037000,3.107036865234375,9.76989459991455,0.008374879136681557,0.05144568532705307
1772656298504915500,3.11691552734375,9.762716293334961,0.005982056725770235,0.04187439754605293
1772656298514794000,3.1267939453125,9.767501831054688,0.0011964113218709826,0.04187439754605293
1772656298524672500,3.136672607421875,9.762716293334961,0.0011964113218709826,0.04187439754605293
1772656298534551000,3.146551025390625,9.760323524475098,0.008374879136681557,0.037088751792907715
1772656298544429600,3.1564296875,9.762716293334961,-0.0011964113218709826,0.0323031060397625
1772656298554308000,3.16630810546875,9.760323524475098,-0.0011964113218709826,0.04905286431312561
1772656298564186600,3.1761865234375,9.760323524475098,0.005982056725770235,0.04426721855998039
1772656298574065200,3.186065185546875,9.765109062194824,-0.0011964113218709826,0.029910283163189888
1772656298583943700,3.195943603515625,9.76989459991455,0.005982056725770235,0.04187439754605293
1772656298593822000,3.205822021484375,9.762716293334961,0.003589233849197626,0.037088751792907715
1772656298603700700,3.21570068359375,9.767501831054688,0.008374879136681557,0.03469592705368996
1772656298613579000,3.2255791015625,9.760323524475098,0.003589233849197626,0.037088751792907715
1772656298623457500,3.23545751953125,9.760323524475098,0.005982056725770235,0.037088751792907715
1772656298633336000,3.245336181640625,9.762716293334961,-0.0011964113218709826,0.039481572806835175
1772656298643214600,3.255214599609375,9.767501831054688,0.010767702013254166,0.037088751792907715
1772656298653093000,3.265093017578125,9.757930755615234,0.010767702013254166,0.04426721855998039
1772656298662971600,3.2749716796875,9.757930755615234,0.003589233849197626,0.04187439754605293
1772656298672850200,3.28485009765625,9.762716293334961,0.008374879136681557,0.037088751792907715
1772656298682728700,3.294728759765625,9.760323524475098,0.0011964113218709826,0.04187439754605293
1772656298692607200,3.304607177734375,9.760323524475098,0.005982056725770235,0.039481572806835175
1772656298702485800,3.31448583984375,9.765109062194824,0.008374879136681557,0.037088751792907715
1772656298712364300,3.3243642578125,9.765109062194824,0.003589233849197626,0.0323031060397625
1772656298722242800,3.334242919921875,9.765109062194824,0.005982056725770235,0.03469592705368996
1772656298732121300,3.344121337890625,9.765109062194824,-0.0011964113218709826,0.04426721855998039
1772656298741999900,3.353999755859375,9.765109062194824,-0.0011964113218709826,0.04187439754605293
1772656298751878100,3.363878173828125,9.767501831054688,0.003589233849197626,0.04187439754605293
1772656298761757000,3.3737568359375,9.757930755615234,0.003589233849197626,0.04187439754605293
1772656298771635200,3.38363525390625,9.771689414978027,0.013160524889826775,0.04187439754605293
1772656298781513700,3.393513671875,9.765109062194824,0.003589233849197626,0.039481572806835175
1772656298791392300,3.403392333984375,9.762716293334961,-0.0011964113218709826,0.04187439754605293
1772656298801270800,3.413270751953125,9.757930755615234,0.003589233849197626,0.03469592705368996
1772656298811149300,3.4231494140625,9.762716293334961,0.008374879136681557,0.03469592705368996
1772656298821027800,3.43302783203125,9.762716293334961,0.0011964113218709826,0.039481572806835175
1772656298830906400,3.44290625,9.762716293334961,0.010767702013254166,0.0323031060397625
1772656298840785000,3.452784912109375,9.765109062194824,0.0011964113218709826,0.037088751792907715
1772656298850663400,3.462663330078125,9.757930755615234,0.005982056725770235,0.037088751792907715
1772656298860542000,3.4725419921875,9.767501831054688,0.005982056725770235,0.0323031060397625
1772656298870420500,3.48242041015625,9.765109062194824,0.003589233849197626,0.037088751792907715
1772656298880299000,3.492299072265625,9.765109062194824,0.005982056725770235,0.03469592705368996
1772656298890177500,3.502177490234375,9.757930755615234,0.003589233849197626,0.03469592705368996
1772656298900055800,3.512055908203125,9.762716293334961,0.003589233849197626,0.04187439754605293
1772656298909934300,3.521934326171875,9.767501831054688,0.003589233849197626,0.029910283163189888
1772656298919812900,3.531812744140625,9.765109062194824,0.005982056725770235,0.03469592705368996
1772656298929691400,3.54169140625,9.765109062194824,0.008374879136681557,0.029910283163189888
1772656298939570000,3.55156982421875,9.760323524475098,0.0011964113218709826,0.029910283163189888
1772656298949448400,3.561448486328125,9.767501831054688,0.0011964113218709826,0.02751746028661728
1772656298959327000,3.571326904296875,9.762716293334961,0.0011964113218709826,0.039481572806835175
1772656298969205500,3.58120556640625,9.760323524475098,0.010767702013254166,0.039481572806835175
1772656298979084000,3.591083984375,9.765109062194824,0.0011964113218709826,0.04426721855998039
1772656298988962600,3.600962646484375,9.765109062194824,0.008374879136681557,0.037088751792907715
1772656298998841000,3.610841064453125,9.767501831054688,-0.0011964113218709826,0.0323031060397625
1772656299008719600,3.6207197265625,9.762716293334961,0.008374879136681557,0.04666004329919815
1772656299018598100,3.63059814453125,9.757930755615234,-0.0011964113218709826,0.037088751792907715
1772656299028476700,3.6404765625,9.772287368774414,0.005982056725770235,0.039481572806835175
1772656299038355200,3.650355224609375,9.760323524475098,0.003589233849197626,0.037088751792907715
1772656299048233700,3.660233642578125,9.760323524475098,0.010767702013254166,0.039481572806835175
1772656299058112000,3.670112060546875,9.757930755615234,0.005982056725770235,0.039481572806835175
1772656299067990800,3.67999072265625,9.767501831054688,0.010767702013254166,0.039481572806835175
1772656299077869000,3.689869140625,9.762716293334961,0.008374879136681557,0.039481572806835175
1772656299087747600,3.69974755859375,9.765109062194824,0.005982056725770235,0.04905286431312561
1772656299097626000,3.709626220703125,9.762716293334961,0.003589233849197626,0.04426721855998039
1772656299107504600,3.719504638671875,9.760323524475098,0.005982056725770235,0.039481572806835175
1772656299117383200,3.729383056640625,9.762716293334961,0.003589233849197626,0.039481572806835175
1772656299127261700,3.73926171875,9.757930755615234,0.003589233849197626,0.04187439754605293
1772656299137140200,3.74914013671875,9.765109062194824,0.010767702013254166,0.0323031060397625
1772656299147018800,3.759018798828125,9.762716293334961,0.005982056725770235,0.04187439754605293
1772656299156897300,3.768897216796875,9.76989459991455,0.008374879136681557,0.039481572806835175
1772656299166775800,3.77877587890625,9.760323524475098,0.003589233849197626,0.04666004329919815
1772656299176654300,3.788654296875,9.760323524475098,0.005982056725770235,0.04426721855998039
1772656299186532900,3.798532958984375,9.760323524475098,0.013160524889826775,0.04187439754605293
1772656299196411400,3.808411376953125,9.760323524475098,-0.0011964113218709826,0.039481572806835175
1772656299206290000,3.8182900390625,9.755537986755371,0.010767702013254166,0.04187439754605293
1772656299216168200,3.828168212890625,9.765109062194824,0.0011964113218709826,0.03469592705368996
1772656299226046700,3.838046630859375,9.760323524475098,0.003589233849197626,0.03469592705368996
1772656299235925200,3.84792529296875,9.760323524475098,0.005982056725770235,0.039481572806835175
1772656299245803800,3.8578037109375,9.760323524475098,0.003589233849197626,0.04187439754605293
1772656299255682300,3.867682373046875,9.760323524475098,0.003589233849197626,0.039481572806835175
1772656299265560800,3.877560791015625,9.765109062194824,0.003589233849197626,0.039481572806835175
1772656299275439400,3.887439453125,9.755537986755371,0.0011964113218709826,0.039481572806835175
1772656299285318000,3.89731787109375,9.755537986755371,0.0011964113218709826,0.03469592705368996
1772656299295196400,3.907196533203125,9.762716293334961,0.008374879136681557,0.04426721855998039
1772656299305075000,3.917074951171875,9.767501831054688,0.008374879136681557,0.0323031060397625
1772656299314953500,3.926953369140625,9.755537986755371,0.003589233849197626,0.037088751792907715
1772656299324832000,3.93683203125,9.762716293334961,0.013160524889826775,0.029910283163189888
1772656299334710500,3.94671044921875,9.760323524475098,0.003589233849197626,0.0323031060397625
1772656299344589000,3.956589111328125,9.762716293334961,0.008374879136681557,0.03469592705368996
1772656299354467600,3.966467529296875,9.760323524475098,0.0011964113218709826,0.03469592705368996
1772656299364345900,3.976345947265625,9.760323524475098,0.003589233849197626,0.04187439754605293
1772656299374224600,3.986224609375,9.765109062194824,0.003589233849197626,0.037088751792907715
1772656299384103000,3.99610302734375,9.765109062194824,0.005982056725770235,0.04426721855998039
1772656299393981400,4.0059814453125,9.753145217895508,0.005982056725770235,0.039481572806835175
1772656299403860000,4.01585986328125,9.755537986755371,0.008374879136681557,0.03469592705368996
1772656299413738500,4.025738525390625,9.765109062194824,0.005982056725770235,0.03469592705368996
1772656299423617000,4.035616943359375,9.762716293334961,0.008374879136681557,0.037088751792907715
1772656299433495600,4.04549560546875,9.760323524475098,0.005982056725770235,0.04187439754605293
1772656299443374000,4.0553740234375,9.767501831054688,0.008374879136681557,0.04187439754605293
1772656299453252600,4.065252685546875,9.760323524475098,0.005982056725770235,0.039481572806835175
1772656299463131100,4.075131103515625,9.760323524475098,0.003589233849197626,0.039481572806835175
1772656299473009700,4.085009765625,9.760323524475098,0.010767702013254166,0.04426721855998039
1772656299482888200,4.09488818359375,9.760323524475098,0.003589233849197626,0.03469592705368996
1772656299492766700,4.1047666015625,9.760323524475098,0.005982056725770235,0.039481572806835175
1772656299502645200,4.114645263671875,9.762716293334961,0.003589233849197626,0.04187439754605293
1772656299512523500,4.1245234375,9.757930755615234,-0.0011964113218709826,0.04426721855998039
1772656299522402000,4.134402099609375,9.755537986755371,-0.003589233849197626,0.04426721855998039
1772656299532280600,4.144280517578125,9.760323524475098,0.0011964113218709826,0.029910283163189888
1772656299542159000,4.1541591796875,9.757930755615234,-0.003589233849197626,0.037088751792907715
1772656299552037600,4.16403759765625,9.762716293334961,0.003589233849197626,0.04187439754605293
1772656299561916200,4.173916259765625,9.765109062194824,-0.003589233849197626,0.04187439754605293
1772656299571794700,4.183794677734375,9.757930755615234,0.0011964113218709826,0.037088751792907715
1772656299581673200,4.193673095703125,9.760323524475098,0.003589233849197626,0.037088751792907715
1772656299591551700,4.2035517578125,9.760323524475098,0.0011964113218709826,0.04187439754605293
1772656299601430300,4.21343017578125,9.76989459991455,-0.003589233849197626,0.03469592705368996
1772656299611308800,4.223308837890625,9.765109062194824,0.0011964113218709826,0.037088751792907715
1772656299621187300,4.233187255859375,9.757930755615234,0.0011964113218709826,0.039481572806835175
1772656299631065900,4.24306591796875,9.767501831054688,0.010767702013254166,0.03469592705368996
1772656299640944000,4.252944091796875,9.760323524475098,0.005982056725770235,0.039481572806835175
1772656299650823000,4.262822998046875,9.765109062194824,0.003589233849197626,0.029910283163189888
1772656299660701200,4.272701171875,9.760323524475098,0.008374879136681557,0.04666004329919815
1772656299670579700,4.282579833984375,9.760323524475098,0.008374879136681557,0.037088751792907715
1772656299680458200,4.292458251953125,9.755537986755371,0.008374879136681557,0.039481572806835175
1772656299690336800,4.302336669921875,9.76989459991455,0.005982056725770235,0.037088751792907715
1772656299700215300,4.31221533203125,9.767501831054688,0.0011964113218709826,0.04187439754605293
1772656299710093800,4.32209375,9.767501831054688,0.0011964113218709826,0.029910283163189888
1772656299719972400,4.331972412109375,9.762716293334961,0.005982056725770235,0.04187439754605293
1772656299729851000,4.341850830078125,9.753145217895508,0.008374879136681557,0.04187439754605293
1772656299739729400,4.3517294921875,9.765109062194824,0.0011964113218709826,0.037088751792907715
1772656299749608000,4.36160791015625,9.750752449035645,0.005982056725770235,0.03469592705368996
1772656299759486500,4.371486572265625,9.765109062194824,0.003589233849197626,0.039481572806835175
1772656299769365000,4.381364990234375,9.762716293334961,0.005982056725770235,0.039481572806835175
1772656299779243500,4.391243408203125,9.753145217895508,-0.0011964113218709826,0.03469592705368996
1772656299789121800,4.401121826171875,9.757930755615234,0.003589233849197626,0.039481572806835175
1772656299799000600,4.41100048828125,9.762716293334961,0.010767702013254166,0.04187439754605293
1772656299808878800,4.42087890625,9.757930755615234,0.008374879136681557,0.037088751792907715
1772656299818757400,4.43075732421875,9.755537986755371,0.0011964113218709826,0.037088751792907715
1772656299828636000,4.440635986328125,9.757930755615234,0.003589233849197626,0.02751746028661728
1772656299838514400,4.450514404296875,9.760323524475098,0.0011964113218709826,0.0323031060397625
1772656299848393000,4.46039306640625,9.765109062194824,0.003589233849197626,0.039481572806835175
1772656299858271500,4.470271484375,9.767501831054688,0.005982056725770235,0.039481572806835175
1772656299868150000,4.48014990234375,9.757930755615234,0.0011964113218709826,0.03469592705368996
1772656299878028500,4.490028564453125,9.765109062194824,0.008374879136681557,0.04187439754605293
1772656299887907000,4.499906982421875,9.762716293334961,0.0011964113218709826,0.03469592705368996
1772656299897785600,4.50978564453125,9.772287368774414,0.008374879136681557,0.037088751792907715
1772656299907664100,4.5196640625,9.76989459991455,0.003589233849197626,0.039481572806835175
1772656299917542700,4.529542724609375,9.765109062194824,0.008374879136681557,0.03469592705368996
1772656299927421200,4.539421142578125,9.762716293334961,0.005982056725770235,0.04187439754605293
1772656299937299500,4.549299560546875,9.767501831054688,-0.0011964113218709826,0.03469592705368996
1772656299947178000,4.559177978515625,9.762716293334961,0.0011964113218709826,0.0323031060397625
1772656299957056500,4.569056396484375,9.762716293334961,0.008374879136681557,0.0323031060397625
1772656299966935000,4.57893505859375,9.760323524475098,-0.0011964113218709826,0.03469592705368996
1772656299976813600,4.5888134765625,9.755537986755371,0.003589233849197626,0.037088751792907715
1772656299986692000,4.598692138671875,9.760323524475098,0.005982056725770235,0.037088751792907715
1772656299996570600,4.608570556640625,9.767501831054688,-0.0011964113218709826,0.039481572806835175
1772656300006449200,4.61844921875,9.765109062194824,0.003589233849197626,0.03469592705368996
1772656300016327700,4.62832763671875,9.767501831054688,0.008374879136681557,0.039481572806835175
1772656300026206200,4.638206298828125,9.760323524475098,0.005982056725770235,0.029910283163189888
1772656300036084700,4.648084716796875,9.755537986755371,0.005982056725770235,0.03469592705368996
1772656300045963300,4.65796337890625,9.762716293334961,0.0011964113218709826,0.039481572806835175
1772656300055841800,4.667841796875,9.765109062194824,0.003589233849197626,0.04187439754605293
1772656300065720300,4.67772021484375,9.765109062194824,-0.0011964113218709826,0.0323031060397625
1772656300075598600,4.6875986328125,9.760323524475098,0.0011964113218709826,0.039481572806835175
1772656300085477000,4.69747705078125,9.760323524475098,0.005982056725770235,0.037088751792907715
1772656300095355600,4.707355712890625,9.757930755615234,0.010767702013254166,0.039481572806835175
1772656300105234200,4.717234130859375,9.757930755615234,-0.003589233849197626,0.037088751792907715
1772656300115112700,4.72711279296875,9.762716293334961,0.008374879136681557,0.04666004329919815
1772656300124991200,4.7369912109375,9.765109062194824,0.003589233849197626,0.04187439754605293
1772656300134869800,4.746869873046875,9.757930755615234,0.0011964113218709826,0.03469592705368996
1772656300144748300,4.756748291015625,9.765109062194824,0.003589233849197626,0.037088751792907715
1772656300154626800,4.766626708984375,9.760323524475098,-0.0011964113218709826,0.039481572806835175
1772656300164505300,4.77650537109375,9.760323524475098,0.0011964113218709826,0.037088751792907715
1772656300174383900,4.7863837890625,9.762716293334961,0.010767702013254166,0.039481572806835175
1772656300184262400,4.796262451171875,9.760323524475098,0.0011964113218709826,0.037088751792907715
1772656300194141000,4.806140869140625,9.760323524475098,0.010767702013254166,0.04187439754605293
1772656300204019200,4.816019287109375,9.750752449035645,0.003589233849197626,0.039481572806835175
1772656300213897700,4.825897705078125,9.767501831054688,0.003589233849197626,0.0323031060397625
1772656300223776300,4.8357763671875,9.757930755615234,0.005982056725770235,0.039481572806835175
1772656300233654800,4.84565478515625,9.767501831054688,0.0011964113218709826,0.039481572806835175
1772656300243533300,4.855533203125,9.765109062194824,-0.005982056725770235,0.039481572806835175
1772656300253411800,4.865411865234375,9.762716293334961,0.005982056725770235,0.0323031060397625
1772656300263290400,4.875290283203125,9.760323524475098,0.008374879136681557,0.04187439754605293
1772656300273169000,4.8851689453125,9.757930755615234,0.005982056725770235,0.04905286431312561
1772656300283047400,4.89504736328125,9.765109062194824,0.008374879136681557,0.037088751792907715
1772656300292926000,4.904926025390625,9.762716293334961,0.003589233849197626,0.04666004329919815
1772656300302804500,4.914804443359375,9.757930755615234,0.008374879136681557,0.0323031060397625
1772656300312683000,4.92468310546875,9.757930755615234,0.003589233849197626,0.037088751792907715
1772656300322561300,4.934561279296875,9.757930755615234,0.005982056725770235,0.04187439754605293
1772656300332439800,4.944439697265625,9.753145217895508,0.005982056725770235,0.039481572806835175
1772656300342318300,4.954318359375,9.762716293334961,0.008374879136681557,0.04666004329919815
1772656300352196900,4.96419677734375,9.765109062194824,0.005982056725770235,0.039481572806835175
1772656300362075400,4.974075439453125,9.76989459991455,-0.0011964113218709826,0.037088751792907715
1772656300371954000,4.983953857421875,9.76989459991455,-0.0011964113218709826,0.03469592705368996
1772656300381832400,4.99383251953125,9.765109062194824,-0.003589233849197626,0.04187439754605293
1772656300391711000,5.0037109375,9.755537986755371,0.003589233849197626,0.039481572806835175
1772656300401589500,5.013589599609375,9.750752449035645,0.005982056725770235,0.04187439754605293
1772656300411468000,5.023468017578125,9.760323524475098,0.008374879136681557,0.037088751792907715
1772656300421346600,5.0333466796875,9.760323524475098,0.008374879136681557,0.03469592705368996
1772656300431225000,5.04322509765625,9.762716293334961,0.003589233849197626,0.0323031060397625
1772656300441103600,5.053103515625,9.762716293334961,-0.003589233849197626,0.04426721855998039
1772656300450982000,5.06298193359375,9.753145217895508,0.003589233849197626,0.04187439754605293
1772656300460860400,5.0728603515625,9.760323524475098,0.005982056725770235,0.039481572806835175
1772656300470739000,5.082739013671875,9.760323524475098,0.0011964113218709826,0.04187439754605293
1772656300480617500,5.092617431640625,9.757930755615234,0.003589233849197626,0.03469592705368996
1772656300490496000,5.10249609375,9.757930755615234,0.005982056725770235,0.039481572806835175
1772656300500374500,5.11237451171875,9.760323524475098,0.0011964113218709826,0.0323031060397625
1772656300510253000,5.122253173828125,9.760323524475098,0.003589233849197626,0.039481572806835175
1772656300520131600,5.132131591796875,9.762716293334961,0.005982056725770235,0.04187439754605293
1772656300530010000,5.142010009765625,9.755537986755371,0.013160524889826775,0.039481572806835175
1772656300539888600,5.151888671875,9.757930755615234,-0.0011964113218709826,0.039481572806835175
1772656300549767200,5.16176708984375,9.760323524475098,0.003589233849197626,0.03469592705368996
1772656300559645700,5.171645751953125,9.765109062194824,0.0011964113218709826,0.03469592705368996
1772656300569524200,5.181524169921875,9.760323524475098,-0.0011964113218709826,0.039481572806835175
1772656300579402500,5.191402587890625,9.760323524475098,0.003589233849197626,0.04666004329919815
1772656300589281000,5.201281005859375,9.760323524475098,0.005982056725770235,0.04426721855998039
1772656300599159600,5.21115966796875,9.757930755615234,0.005982056725770235,0.039481572806835175
1772656300609038000,5.2210380859375,9.757930755615234,0.010767702013254166,0.04187439754605293
1772656300618916600,5.23091650390625,9.765109062194824,0.005982056725770235,0.039481572806835175
1772656300628795100,5.240795166015625,9.762716293334961,0.010767702013254166,0.0323031060397625
1772656300638673700,5.250673583984375,9.762716293334961,-0.0011964113218709826,0.037088751792907715
1772656300648552200,5.26055224609375,9.750752449035645,0.005982056725770235,0.037088751792907715
1772656300658430700,5.2704306640625,9.757930755615234,0.0011964113218709826,0.04187439754605293
1772656300668309200,5.280309326171875,9.760323524475098,0.003589233849197626,0.039481572806835175
1772656300678187800,5.290187744140625,9.755537986755371,0.0011964113218709826,0.04426721855998039
1772656300688066300,5.30006640625,9.757930755615234,-0.0011964113218709826,0.03469592705368996
1772656300697944600,5.309944580078125,9.762716293334961,0.005982056725770235,0.039481572806835175
1772656300707823000,5.319822998046875,9.760323524475098,0.003589233849197626,0.04187439754605293
1772656300717701600,5.32970166015625,9.748359680175781,0.005982056725770235,0.04187439754605293
1772656300727580200,5.339580078125,9.767501831054688,0.003589233849197626,0.03469592705368996
1772656300737458700,5.349458740234375,9.755537986755371,0.003589233849197626,0.0323031060397625
1772656300747337200,5.359337158203125,9.760323524475098,0.003589233849197626,0.037088751792907715
1772656300757215700,5.3692158203125,9.753145217895508,0.005982056725770235,0.0323031060397625
1772656300767094300,5.37909423828125,9.760323524475098,0.005982056725770235,0.037088751792907715
1772656300776972800,5.388972900390625,9.755537986755371,0.003589233849197626,0.04187439754605293
1772656300786851300,5.398851318359375,9.755537986755371,0.003589233849197626,0.04666004329919815
1772656300796729600,5.4087294921875,9.762716293334961,0.003589233849197626,0.02751746028661728
1772656300806608400,5.4186083984375,9.760323524475098,0.003589233849197626,0.039481572806835175
1772656300816486700,5.428486572265625,9.762716293334961,-0.0011964113218709826,0.039481572806835175
1772656300826365200,5.438365234375,9.760323524475098,0.005982056725770235,0.0323031060397625
1772656300836243700,5.44824365234375,9.765109062194824,0.003589233849197626,0.037088751792907715
1772656300846122200,5.458122314453125,9.760323524475098,0.003589233849197626,0.04187439754605293
1772656300856000800,5.468000732421875,9.762716293334961,-0.0011964113218709826,0.039481572806835175
1772656300865879300,5.47787939453125,9.767501831054688,0.0011964113218709826,0.037088751792907715
1772656300875757800,5.4877578125,9.762716293334961,-0.005982056725770235,0.0323031060397625
1772656300885636400,5.49763623046875,9.767501831054688,-0.003589233849197626,0.04187439754605293
1772656300895515000,5.507514892578125,9.760323524475098,0.010767702013254166,0.04187439754605293
1772656300905393400,5.517393310546875,9.760323524475098,-0.003589233849197626,0.04187439754605293
1772656300915271700,5.527271728515625,9.759725570678711,0.008374879136681557,0.039481572806835175
1772656300925150200,5.537150146484375,9.753145217895508,0.003589233849197626,0.0323031060397625
1772656300935028700,5.54702880859375,9.759725570678711,0.003589233849197626,0.04187439754605293
1772656300944907300,5.5569072265625,9.760323524475098,-0.0011964113218709826,0.037088751792907715
1772656300954785800,5.566785888671875,9.760323524475098,-0.0011964113218709826,0.03469592705368996
1772656300964664300,5.576664306640625,9.762118339538574,0.010767702013254166,0.039481572806835175
1772656300974542800,5.58654296875,9.762118339538574,0.003589233849197626,0.04187439754605293
1772656300984421400,5.59642138671875,9.753145217895508,-0.0011964113218709826,0.039481572806835175
1772656300994300000,5.6062998046875,9.752547264099121,0.005982056725770235,0.0323031060397625
1772656301004178400,5.616178466796875,9.757332801818848,0.008374879136681557,0.04187439754605293
1772656301014057000,5.626056884765625,9.755537986755371,0.0011964113218709826,0.039481572806835175
1772656301023935200,5.635935302734375,9.760323524475098,0.005982056725770235,0.04187439754605293
1772656301033813800,5.645813720703125,9.757930755615234,0.0011964113218709826,0.04187439754605293
1772656301043692300,5.6556923828125,9.757332801818848,0.005982056725770235,0.02751746028661728
1772656301053570800,5.66557080078125,9.755537986755371,0.0011964113218709826,0.04426721855998039
1772656301063449300,5.675449462890625,9.764511108398438,0.010767702013254166,0.037088751792907715
1772656301073327900,5.685327880859375,9.762118339538574,0.0011964113218709826,0.039481572806835175
1772656301083206400,5.695206298828125,9.753145217895508,0.003589233849197626,0.039481572806835175
1772656301093085000,5.7050849609375,9.750752449035645,-0.003589233849197626,0.0323031060397625
1772656301102963500,5.71496337890625,9.755537986755371,-0.0011964113218709826,0.03469592705368996
1772656301112842000,5.724842041015625,9.757930755615234,0.008374879136681557,0.0323031060397625
1772656301122720500,5.734720458984375,9.760323524475098,0.005982056725770235,0.039481572806835175
1772656301132598800,5.744598876953125,9.755537986755371,0.008374879136681557,0.03469592705368996
1772656301142477300,5.754477294921875,9.750752449035645,0.005982056725770235,0.039481572806835175
1772656301152355800,5.76435595703125,9.760323524475098,0.008374879136681557,0.039481572806835175
1772656301162234400,5.774234375,9.762716293334961,0.0011964113218709826,0.04187439754605293
1772656301172113000,5.78411279296875,9.765109062194824,0.008374879136681557,0.04666004329919815
1772656301181991400,5.793991455078125,9.765109062194824,-0.0011964113218709826,0.039481572806835175
1772656301191870000,5.803869873046875,9.765109062194824,0.005982056725770235,0.039481572806835175
1772656301201748500,5.81374853515625,9.762716293334961,0.005982056725770235,0.039481572806835175
1772656301211627000,5.823626953125,9.760323524475098,0.005982056725770235,0.039481572806835175
1772656301221505500,5.833505615234375,9.760323524475098,0.010767702013254166,0.039481572806835175
1772656301231384000,5.843384033203125,9.757930755615234,-0.0011964113218709826,0.04426721855998039
1772656301241262300,5.853262451171875,9.757930755615234,0.010767702013254166,0.037088751792907715
1772656301251140900,5.863140869140625,9.760323524475098,0.003589233849197626,0.037088751792907715
1772656301261019400,5.873019287109375,9.757930755615234,0.003589233849197626,0.0323031060397625
1772656301270898000,5.88289794921875,9.757930755615234,0.013160524889826775,0.039481572806835175
1772656301280776400,5.8927763671875,9.753145217895508,0.010767702013254166,0.03469592705368996
1772656301290655000,5.902655029296875,9.757930755615234,0.005982056725770235,0.04187439754605293
1772656301300533500,5.912533447265625,9.755537986755371,0.013160524889826775,0.04187439754605293
1772656301310412000,5.922412109375,9.757930755615234,0.003589233849197626,0.03469592705368996
1772656301320290600,5.93229052734375,9.757930755615234,0.008374879136681557,0.0323031060397625
1772656301330168800,5.9421689453125,9.760323524475098,-0.003589233849197626,0.03469592705368996
1772656301340047400,5.95204736328125,9.757930755615234,0.008374879136681557,0.037088751792907715
1772656301349926000,5.96192578125,9.755537986755371,0.005982056725770235,0.03469592705368996
1772656301359804400,5.971804443359375,9.743574142456055,0.010767702013254166,0.04187439754605293
1772656301369683000,5.981682861328125,9.755537986755371,0.010767702013254166,0.04666004329919815
1772656301379561500,5.9915615234375,9.760323524475098,-0.0011964113218709826,0.03469592705368996
1772656301389440000,6.00143994140625,9.765109062194824,0.003589233849197626,0.04187439754605293
1772656301399318500,6.011318603515625,9.757930755615234,0.013160524889826775,0.04187439754605293
1772656301409197000,6.021197021484375,9.753145217895508,-0.0011964113218709826,0.04187439754605293
1772656301419075300,6.031075439453125,9.762716293334961,0.010767702013254166,0.03469592705368996
1772656301428953900,6.040953857421875,9.760323524475098,0.0011964113218709826,0.037088751792907715
1772656301438832400,6.050832275390625,9.760323524475098,0.010767702013254166,0.04187439754605293
1772656301448711000,6.0607109375,9.753145217895508,0.010767702013254166,0.039481572806835175
1772656301458589400,6.07058935546875,9.765109062194824,0.005982056725770235,0.039481572806835175
1772656301468468000,6.080468017578125,9.765109062194824,0.005982056725770235,0.04187439754605293
1772656301478346500,6.090346435546875,9.762716293334961,0.003589233849197626,0.0323031060397625
1772656301488225000,6.10022509765625,9.755537986755371,0.008374879136681557,0.039481572806835175
1772656301498103600,6.110103515625,9.762716293334961,0.005982056725770235,0.037088751792907715
1772656301507982000,6.119982177734375,9.767501831054688,0.003589233849197626,0.037088751792907715
1772656301517860600,6.129860595703125,9.753145217895508,0.010767702013254166,0.029910283163189888
1772656301527739000,6.13973876953125,9.760323524475098,0.0011964113218709826,0.029910283163189888
1772656301537617400,6.149617431640625,9.757930755615234,0.003589233849197626,0.04187439754605293
1772656301547496000,6.159495849609375,9.757930755615234,0.003589233849197626,0.029910283163189888
1772656301557374500,6.16937451171875,9.757930755615234,0.003589233849197626,0.03469592705368996
1772656301567253000,6.1792529296875,9.757930755615234,0.0011964113218709826,0.039481572806835175
1772656301577131500,6.189131591796875,9.762716293334961,0.005982056725770235,0.039481572806835175
1772656301587010000,6.199010009765625,9.757930755615234,0.003589233849197626,0.02512463741004467
1772656301596888600,6.208888671875,9.762716293334961,0.003589233849197626,0.04187439754605293
1772656301606766800,6.218766845703125,9.755537986755371,0.010767702013254166,0.039481572806835175
1772656301616645600,6.228645751953125,9.762716293334961,0.0011964113218709826,0.039481572806835175
1772656301626524000,6.23852392578125,9.753145217895508,0.008374879136681557,0.039481572806835175
1772656301636402400,6.24840234375,9.755537986755371,0.008374879136681557,0.04187439754605293
1772656301646281000,6.258281005859375,9.755537986755371,-0.003589233849197626,0.0323031060397625
1772656301656159500,6.268159423828125,9.767501831054688,0.003589233849197626,0.037088751792907715
1772656301666038000,6.2780380859375,9.757930755615234,0.003589233849197626,0.04187439754605293
1772656301675916500,6.28791650390625,9.757930755615234,0.0011964113218709826,0.0323031060397625
1772656301685795000,6.297795166015625,9.760323524475098,0.008374879136681557,0.039481572806835175
1772656301695673600,6.307673583984375,9.755537986755371,0.005982056725770235,0.03469592705368996
1772656301705552000,6.3175517578125,9.753145217895508,-0.005982056725770235,0.0323031060397625
1772656301715430400,6.327430419921875,9.750752449035645,0.003589233849197626,0.039481572806835175
1772656301725309000,6.337308837890625,9.755537986755371,-0.0011964113218709826,0.04187439754605293
1772656301735187500,6.3471875,9.760323524475098,0.013160524889826775,0.05144568532705307
1772656301745066000,6.35706591796875,9.753145217895508,0.003589233849197626,0.03469592705368996
1772656301754944500,6.366944580078125,9.760323524475098,0.0011964113218709826,0.037088751792907715
1772656301764823000,6.376822998046875,9.757930755615234,0.0011964113218709826,0.04187439754605293
1772656301774701600,6.38670166015625,9.760323524475098,-0.0011964113218709826,0.04426721855998039
1772656301784580000,6.396580078125,9.760323524475098,0.008374879136681557,0.04426721855998039
1772656301794458400,6.406458251953125,9.765109062194824,0.005982056725770235,0.04426721855998039
1772656301804337000,6.4163369140625,9.760323524475098,0.008374879136681557,0.04666004329919815
1772656301814215400,6.42621533203125,9.755537986755371,0.005982056725770235,0.04187439754605293
1772656301824094000,6.436093994140625,9.765109062194824,0.013160524889826775,0.03469592705368996
1772656301833972500,6.445972412109375,9.765109062194824,0.003589233849197626,0.039481572806835175
1772656301843851000,6.45585107421875,9.753145217895508,0.005982056725770235,0.039481572806835175
1772656301853729500,6.4657294921875,9.753145217895508,0.005982056725770235,0.039481572806835175
1772656301863608000,6.475608154296875,9.760323524475098,0.0011964113218709826,0.037088751792907715
1772656301873486300,6.485486328125,9.755537986755371,0.010767702013254166,0.03469592705368996
1772656301883364900,6.49536474609375,9.755537986755371,-0.0011964113218709826,0.03469592705368996
1772656301893243400,6.505243408203125,9.757930755615234,0.008374879136681557,0.0323031060397625
1772656301903122000,6.515121826171875,9.755537986755371,0.0011964113218709826,0.037088751792907715
1772656301913000400,6.52500048828125,9.762716293334961,0.003589233849197626,0.04187439754605293
1772656301922879000,6.53487890625,9.755537986755371,0.0011964113218709826,0.037088751792907715
1772656301932757500,6.544757568359375,9.762716293334961,-0.0011964113218709826,0.04187439754605293
1772656301942636000,6.554635986328125,9.757930755615234,0.008374879136681557,0.03469592705368996
1772656301952514300,6.564514404296875,9.755537986755371,0.003589233849197626,0.04187439754605293
1772656301962392800,6.574392822265625,9.753145217895508,0.003589233849197626,0.03469592705368996
1772656301972271400,6.584271240234375,9.750752449035645,0.005982056725770235,0.037088751792907715
1772656301982150000,6.59414990234375,9.755537986755371,-0.003589233849197626,0.037088751792907715
1772656301992028400,6.6040283203125,9.757930755615234,0.0011964113218709826,0.037088751792907715
1772656302001907000,6.613906982421875,9.755537986755371,0.017946170642971992,0.037088751792907715
1772656302011785500,6.623785400390625,9.760323524475098,0.008374879136681557,0.037088751792907715
1772656302021664000,6.6336640625,9.755537986755371,0.005982056725770235,0.037088751792907715
1772656302031542300,6.643542236328125,9.757930755615234,0.0011964113218709826,0.039481572806835175
1772656302041420800,6.6534208984375,9.760323524475098,0.008374879136681557,0.04187439754605293
1772656302051299300,6.66329931640625,9.760323524475098,-0.0011964113218709826,0.039481572806835175
1772656302061177900,6.673177734375,9.765109062194824,0.0011964113218709826,0.039481572806835175
1772656302071056400,6.683056396484375,9.757930755615234,-0.0011964113218709826,0.039481572806835175
1772656302080935000,6.692934814453125,9.750752449035645,0.005982056725770235,0.037088751792907715
1772656302090813400,6.7028134765625,9.755537986755371,-0.0011964113218709826,0.0323031060397625
1772656302100692000,6.71269189453125,9.755537986755371,0.003589233849197626,0.037088751792907715
1772656302110570200,6.7225703125,9.753145217895508,0.008374879136681557,0.037088751792907715
1772656302120448800,6.73244873046875,9.760323524475098,0.005982056725770235,0.04426721855998039
1772656302130327300,6.742327392578125,9.755537986755371,0.005982056725770235,0.04187439754605293
1772656302140205800,6.752205810546875,9.755537986755371,0.010767702013254166,0.04666004329919815
1772656302150084400,6.76208447265625,9.755537986755371,0.008374879136681557,0.037088751792907715
1772656302159963000,6.771962890625,9.757930755615234,0.005982056725770235,0.04426721855998039
1772656302169841400,6.78184130859375,9.762118339538574,0.010767702013254166,0.04187439754605293
1772656302179720000,6.791719970703125,9.767501831054688,-0.0011964113218709826,0.04426721855998039
1772656302189598200,6.80159814453125,9.762716293334961,0.005982056725770235,0.04187439754605293
1772656302199476700,6.811476806640625,9.754940032958984,0.010767702013254166,0.04187439754605293
1772656302209355300,6.821355224609375,9.755537986755371,0.008374879136681557,0.037088751792907715
1772656302219233800,6.83123388671875,9.764511108398438,0.005982056725770235,0.03469592705368996
1772656302229112300,6.8411123046875,9.757332801818848,0.0011964113218709826,0.0323031060397625
1772656302238990800,6.850990966796875,9.755537986755371,0.0011964113218709826,0.037088751792907715
1772656302248869400,6.860869384765625,9.754940032958984,0.008374879136681557,0.037088751792907715
1772656302258748000,6.870747802734375,9.7669038772583,0.005982056725770235,0.03469592705368996
1772656302268626200,6.880626220703125,9.753145217895508,-0.0011964113218709826,0.037088751792907715
1772656302278504700,6.890504638671875,9.762716293334961,0.003589233849197626,0.04426721855998039
1772656302288383200,6.90038330078125,9.757332801818848,0.008374879136681557,0.037088751792907715
1772656302298261800,6.91026171875,9.759725570678711,0.008374879136681557,0.04187439754605293
1772656302308140300,6.920140380859375,9.750154495239258,0.003589233849197626,0.037088751792907715
1772656302318018800,6.930018798828125,9.750154495239258,0.005982056725770235,0.03469592705368996
1772656302327897300,6.9398974609375,9.759725570678711,0.005982056725770235,0.039481572806835175
1772656302337775600,6.949775634765625,9.754940032958984,0.003589233849197626,0.039481572806835175
1772656302347654100,6.959654052734375,9.769296646118164,0.005982056725770235,0.03469592705368996
1772656302357532700,6.96953271484375,9.759725570678711,0.003589233849197626,0.04187439754605293
1772656302367411200,6.9794111328125,9.759725570678711,0.005982056725770235,0.037088751792907715
1772656302377289700,6.989289794921875,9.759725570678711,0.003589233849197626,0.039481572806835175
1772656302387168300,6.999168212890625,9.759725570678711,0.003589233849197626,0.04187439754605293
1772656302397046800,7.009046875,9.757332801818848,0.0011964113218709826,0.037088751792907715
1772656302406925300,7.01892529296875,9.759725570678711,0.005982056725770235,0.029910283163189888
1772656302416803600,7.028803466796875,9.764511108398438,0.005982056725770235,0.04187439754605293
1772656302426682000,7.03868212890625,9.755537986755371,0.003589233849197626,0.04187439754605293
1772656302436560600,7.048560546875,9.754940032958984,0.005982056725770235,0.04426721855998039
1772656302446439200,7.058439208984375,9.759725570678711,0.003589233849197626,0.04187439754605293
1772656302456317700,7.068317626953125,9.757332801818848,0.003589233849197626,0.039481572806835175
1772656302466196200,7.0781962890625,9.757332801818848,0.0011964113218709826,0.04187439754605293
1772656302476074500,7.088074462890625,9.769296646118164,0.008374879136681557,0.04426721855998039
1772656302485953000,7.097953125,9.764511108398438,-0.0011964113218709826,0.039481572806835175
1772656302495831600,7.10783154296875,9.764511108398438,0.005982056725770235,0.04905286431312561
1772656302505710000,7.1177099609375,9.759725570678711,0.008374879136681557,0.03469592705368996
1772656302515588600,7.127588623046875,9.762118339538574,0.005982056725770235,0.039481572806835175
1772656302525467100,7.137467041015625,9.752547264099121,0.005982056725770235,0.04426721855998039
1772656302535345700,7.147345703125,9.762118339538574,0.003589233849197626,0.039481572806835175
1772656302545224200,7.15722412109375,9.754940032958984,0.008374879136681557,0.039481572806835175
1772656302555102500,7.1671025390625,9.757332801818848,0.003589233849197626,0.039481572806835175
1772656302564981000,7.17698095703125,9.759725570678711,0.005982056725770235,0.039481572806835175
1772656302574859500,7.186859619140625,9.752547264099121,0.005982056725770235,0.037088751792907715
1772656302584738000,7.196738037109375,9.759725570678711,0.010767702013254166,0.037088751792907715
1772656302594616600,7.206616455078125,9.754940032958984,0.0011964113218709826,0.037088751792907715
1772656302604495000,7.2164951171875,9.747760772705078,0.005982056725770235,0.04187439754605293
1772656302614373600,7.22637353515625,9.759725570678711,0.003589233849197626,0.03469592705368996
1772656302624252000,7.236251953125,9.759725570678711,0.003589233849197626,0.029910283163189888
1772656302634130400,7.24613037109375,9.762118339538574,-0.0011964113218709826,0.04426721855998039
1772656302644009000,7.256009033203125,9.752547264099121,0.005982056725770235,0.029910283163189888
1772656302653887500,7.265887451171875,9.754940032958984,0.0011964113218709826,0.039481572806835175
1772656302663766000,7.27576611328125,9.754940032958984,0.005982056725770235,0.039481572806835175
1772656302673644500,7.28564453125,9.757332801818848,0.005982056725770235,0.029910283163189888
1772656302683523000,7.295523193359375,9.754940032958984,-0.0011964113218709826,0.03469592705368996
1772656302693401300,7.3054013671875,9.754940032958984,0.005982056725770235,0.04187439754605293
1772656302703279900,7.31527978515625,9.752547264099121,0.008374879136681557,0.037088751792907715
1772656302713158400,7.325158447265625,9.750752449035645,0.008374879136681557,0.039481572806835175
1772656302723037000,7.335036865234375,9.755537986755371,0.003589233849197626,0.03469592705368996
1772656302732915500,7.34491552734375,9.753145217895508,0.0011964113218709826,0.03469592705368996
1772656302742794000,7.3547939453125,9.755537986755371,0.010767702013254166,0.04187439754605293
1772656302752672300,7.36467236328125,9.7669038772583,0.003589233849197626,0.03469592705368996
1772656302762550800,7.37455078125,9.757332801818848,0.015553346835076809,0.04187439754605293
1772656302772429300,7.38442919921875,9.765109062194824,0.003589233849197626,0.039481572806835175
1772656302782307800,7.394307861328125,9.753145217895508,0.005982056725770235,0.03469592705368996
1772656302792186400,7.404186279296875,9.762118339538574,0.008374879136681557,0.03469592705368996
1772656302802065000,7.41406494140625,9.762118339538574,0.003589233849197626,0.0323031060397625
1772656302811943400,7.423943359375,9.757930755615234,0.0011964113218709826,0.039481572806835175
1772656302821821700,7.43382177734375,9.748359680175781,0.008374879136681557,0.03469592705368996
1772656302831700200,7.4437001953125,9.764511108398438,0.010767702013254166,0.037088751792907715
1772656302841578800,7.453578857421875,9.762118339538574,0.008374879136681557,0.037088751792907715
1772656302851457300,7.463457275390625,9.759725570678711,0.003589233849197626,0.03469592705368996
1772656302861335800,7.473335693359375,9.755537986755371,0.003589233849197626,0.04426721855998039
1772656302871214300,7.48321435546875,9.753145217895508,0.005982056725770235,0.0323031060397625
1772656302881092900,7.4930927734375,9.755537986755371,0.0011964113218709826,0.039481572806835175
1772656302890971100,7.50297119140625,9.759725570678711,0.005982056725770235,0.03469592705368996
1772656302900849700,7.512849609375,9.760323524475098,0.0011964113218709826,0.03469592705368996
1772656302910728200,7.522728271484375,9.757930755615234,0.003589233849197626,0.039481572806835175
1772656302920606700,7.532606689453125,9.760323524475098,0.005982056725770235,0.04187439754605293
1772656302930485200,7.5424853515625,9.762118339538574,0.003589233849197626,0.037088751792907715
1772656302940363800,7.55236376953125,9.7669038772583,0.008374879136681557,0.039481572806835175
1772656302950242000,7.562241943359375,9.762716293334961,-0.0011964113218709826,0.04426721855998039
1772656302960120600,7.57212060546875,9.757930755615234,0.005982056725770235,0.03469592705368996
1772656302969999000,7.5819990234375,9.762118339538574,0.005982056725770235,0.0323031060397625
1772656302979877600,7.591877685546875,9.757930755615234,0.003589233849197626,0.02751746028661728
1772656302989756200,7.601756103515625,9.754940032958984,0.008374879136681557,0.0323031060397625
1772656302999634700,7.611634765625,9.757930755615234,0.003589233849197626,0.037088751792907715
1772656303009513200,7.62151318359375,9.750752449035645,-0.0011964113218709826,0.029910283163189888
1772656303019391500,7.6313916015625,9.755537986755371,0.005982056725770235,0.04187439754605293
1772656303029270000,7.64127001953125,9.755537986755371,0.008374879136681557,0.039481572806835175
1772656303039148500,7.6511484375,9.760323524475098,0.008374879136681557,0.037088751792907715
1772656303049027000,7.661027099609375,9.757332801818848,0.010767702013254166,0.0323031060397625
1772656303058905600,7.670905517578125,9.759725570678711,0.008374879136681557,0.03469592705368996
1772656303068784000,7.6807841796875,9.760323524475098,0.0011964113218709826,0.04187439754605293
1772656303078662700,7.69066259765625,9.760323524475098,-0.0011964113218709826,0.03469592705368996
1772656303088541000,7.700541015625,9.764511108398438,0.005982056725770235,0.039481572806835175
1772656303098419500,7.71041943359375,9.759725570678711,0.005982056725770235,0.04426721855998039
1772656303108298000,7.720298095703125,9.764511108398438,0.003589233849197626,0.039481572806835175
1772656303118176500,7.730176513671875,9.764511108398438,0.003589233849197626,0.037088751792907715
1772656303128055000,7.740054931640625,9.757332801818848,0.003589233849197626,0.039481572806835175
1772656303137933300,7.749933349609375,9.750154495239258,0.013160524889826775,0.039481572806835175
1772656303147811800,7.759811767578125,9.757332801818848,0.008374879136681557,0.02751746028661728
1772656303157690400,7.7696904296875,9.754940032958984,0.003589233849197626,0.03469592705368996
1772656303167569000,7.77956884765625,9.754940032958984,0.005982056725770235,0.05144568532705307
1772656303177447400,7.789447509765625,9.762118339538574,0.005982056725770235,0.04187439754605293
1772656303187326000,7.799325927734375,9.754940032958984,0.008374879136681557,0.039481572806835175
1772656303197204500,7.80920458984375,9.764511108398438,0.0011964113218709826,0.04187439754605293
1772656303207082800,7.819082763671875,9.752547264099121,0.0011964113218709826,0.037088751792907715
1772656303216961300,7.828961181640625,9.759725570678711,-0.0011964113218709826,0.03469592705368996
1772656303226839800,7.83883984375,9.750752449035645,-0.005982056725770235,0.037088751792907715
1772656303236718300,7.84871826171875,9.764511108398438,0.003589233849197626,0.039481572806835175
1772656303246596900,7.858596923828125,9.759725570678711,0.005982056725770235,0.04426721855998039
1772656303256475400,7.868475341796875,9.754940032958984,0.0011964113218709826,0.03469592705368996
1772656303266353700,7.878353759765625,9.754940032958984,0.013160524889826775,0.03469592705368996
1772656303276232200,7.888232177734375,9.753145217895508,0.003589233849197626,0.04426721855998039
1772656303286110700,7.89811083984375,9.754940032958984,0.003589233849197626,0.037088751792907715
1772656303295989200,7.9079892578125,9.757332801818848,0.003589233849197626,0.0323031060397625
1772656303305867800,7.91786767578125,9.771689414978027,0.005982056725770235,0.029910283163189888
1772656303315746300,7.927746337890625,9.759725570678711,0.0011964113218709826,0.03469592705368996
1772656303325624600,7.93762451171875,9.754940032958984,0.003589233849197626,0.039481572806835175
1772656303335503000,7.947503173828125,9.759725570678711,0.010767702013254166,0.037088751792907715
1772656303345381600,7.957381591796875,9.754940032958984,0.0011964113218709826,0.037088751792907715
1772656303355260200,7.96726025390625,9.754940032958984,0.0011964113218709826,0.039481572806835175
1772656303365138700,7.977138671875,9.759725570678711,0.010767702013254166,0.04426721855998039
1772656303375017200,7.987017333984375,9.757332801818848,-0.0011964113218709826,0.04187439754605293
1772656303384895500,7.9968955078125,9.745368003845215,0.003589233849197626,0.037088751792907715
1772656303394774000,8.00677392578125,9.757332801818848,0.003589233849197626,0.039481572806835175
1772656303404652500,8.016652587890626,9.757332801818848,0.0011964113218709826,0.037088751792907715
1772656303414531000,8.026531005859376,9.754940032958984,0.008374879136681557,0.039481572806835175
1772656303424409600,8.03640966796875,9.757332801818848,0.008374879136681557,0.04666004329919815
1772656303434288000,8.0462880859375,9.757332801818848,-0.0011964113218709826,0.04426721855998039
1772656303444166400,8.05616650390625,9.752547264099121,0.0011964113218709826,0.02512463741004467
1772656303454045000,8.066044921875,9.754940032958984,0.008374879136681557,0.04426721855998039
1772656303463923500,8.07592333984375,9.752547264099121,0.003589233849197626,0.0323031060397625
1772656303473802000,8.085802001953125,9.757332801818848,0.005982056725770235,0.037088751792907715
1772656303483680500,8.095680419921875,9.757332801818848,0.0011964113218709826,0.039481572806835175
1772656303493559000,8.10555908203125,9.752547264099121,0.003589233849197626,0.039481572806835175
1772656303503437300,8.115437255859375,9.759725570678711,0.005982056725770235,0.037088751792907715
1772656303513315800,8.12531591796875,9.754940032958984,0.015553346835076809,0.03469592705368996
1772656303523194400,8.1351943359375,9.754940032958984,0.008374879136681557,0.039481572806835175
1772656303533073000,8.145072998046874,9.757332801818848,0.005982056725770235,0.03469592705368996
1772656303542951400,8.154951416015624,9.754940032958984,0.010767702013254166,0.037088751792907715
1772656303552830000,8.164829833984374,9.764511108398438,0.005982056725770235,0.03469592705368996
1772656303562708200,8.174708251953126,9.750154495239258,0.005982056725770235,0.04905286431312561
1772656303572586800,8.184586669921876,9.759725570678711,0.0011964113218709826,0.04187439754605293
1772656303582465300,8.19446533203125,9.7669038772583,0.005982056725770235,0.037088751792907715
1772656303592343800,8.20434375,9.757332801818848,0.010767702013254166,0.029910283163189888
1772656303602222300,8.214222412109375,9.7669038772583,0.005982056725770235,0.037088751792907715
1772656303612100600,8.2241005859375,9.757332801818848,0.005982056725770235,0.037088751792907715
1772656303621979100,8.233979248046875,9.754940032958984,0.003589233849197626,0.037088751792907715
1772656303631857700,8.243857666015625,9.757332801818848,0.008374879136681557,0.037088751792907715
1772656303641736200,8.253736083984375,9.764511108398438,0.003589233849197626,0.03469592705368996
1772656303651614700,8.26361474609375,9.754940032958984,0.008374879136681557,0.03469592705368996
1772656303661493200,8.2734931640625,9.759725570678711,0.003589233849197626,0.04187439754605293
1772656303671371800,8.283371826171875,9.757332801818848,0.008374879136681557,0.04426721855998039
1772656303681250000,8.29325,9.754940032958984,0.0011964113218709826,0.037088751792907715
1772656303691128600,8.303128662109375,9.757332801818848,-0.003589233849197626,0.039481572806835175
1772656303701007000,8.313007080078124,9.754940032958984,-0.003589233849197626,0.037088751792907715
1772656303710885600,8.3228857421875,9.759725570678711,0.013160524889826775,0.03469592705368996
1772656303720764200,8.33276416015625,9.757332801818848,0.013160524889826775,0.04187439754605293
1772656303730642400,8.342642333984376,9.754940032958984,0.005982056725770235,0.037088751792907715
1772656303740521000,8.35252099609375,9.759725570678711,0.003589233849197626,0.039481572806835175
1772656303750399500,8.3623994140625,9.764511108398438,0.010767702013254166,0.04187439754605293
1772656303760278000,8.372278076171876,9.747760772705078,0.010767702013254166,0.03469592705368996
1772656303770156500,8.382156494140625,9.754940032958984,0.008374879136681557,0.037088751792907715
1772656303780034800,8.392034912109375,9.759725570678711,0.005982056725770235,0.039481572806835175
1772656303789913300,8.401913330078125,9.754940032958984,0.010767702013254166,0.037088751792907715
1772656303799791900,8.4117919921875,9.759725570678711,0.003589233849197626,0.03469592705368996
1772656303809670400,8.42167041015625,9.762118339538574,0.003589233849197626,0.039481572806835175
1772656303819549000,8.431548828125,9.757332801818848,0.0011964113218709826,0.05144568532705307
1772656303829427200,8.44142724609375,9.757332801818848,0.010767702013254166,0.03469592705368996
1772656303839305700,8.4513056640625,9.757332801818848,0.005982056725770235,0.039481572806835175
1772656303849184300,8.461184326171875,9.754940032958984,0.008374879136681557,0.03469592705368996
1772656303859062800,8.471062744140625,9.752547264099121,-0.003589233849197626,0.04426721855998039
1772656303868941300,8.48094140625,9.757332801818848,0.003589233849197626,0.039481572806835175
1772656303878819800,8.49081982421875,9.759725570678711,0.003589233849197626,0.0323031060397625
1772656303888698000,8.500697998046874,9.754940032958984,0.005982056725770235,0.037088751792907715
1772656303898576600,8.51057666015625,9.757332801818848,0.003589233849197626,0.04666004329919815
1772656303908455200,8.520455078125,9.764511108398438,0.005982056725770235,0.03469592705368996
1772656303918333700,8.530333740234376,9.759725570678711,-0.0011964113218709826,0.039481572806835175
1772656303928212200,8.540212158203126,9.764511108398438,0.010767702013254166,0.037088751792907715
1772656303938090500,8.550090576171876,9.762118339538574,0.003589233849197626,0.04426721855998039
1772656303947969000,8.559968994140625,9.757332801818848,0.005982056725770235,0.039481572806835175
1772656303957847600,8.56984765625,9.764511108398438,0.005982056725770235,0.04187439754605293
1772656303967726000,8.57972607421875,9.759725570678711,0.005982056725770235,0.039481572806835175
1772656303977604600,8.5896044921875,9.769296646118164,-0.0011964113218709826,0.039481572806835175
1772656303987483100,8.599483154296875,9.757332801818848,0.005982056725770235,0.037088751792907715
1772656303997361400,8.609361328125,9.759725570678711,-0.0011964113218709826,0.04187439754605293
1772656304007240000,8.619239990234375,9.764511108398438,0.008374879136681557,0.0323031060397625
1772656304017118500,8.629118408203125,9.759725570678711,-0.0011964113218709826,0.04187439754605293
1772656304026997000,8.6389970703125,9.754940032958984,0.0011964113218709826,0.037088751792907715
1772656304036875500,8.64887548828125,9.757332801818848,0.008374879136681557,0.03469592705368996
1772656304046754000,8.658754150390624,9.764511108398438,0.010767702013254166,0.037088751792907715
1772656304056632300,8.66863232421875,9.759725570678711,0.005982056725770235,0.04426721855998039
1772656304066510800,8.6785107421875,9.759725570678711,0.003589233849197626,0.0323031060397625
1772656304076389400,8.688389404296874,9.757332801818848,0.008374879136681557,0.039481572806835175
1772656304086268000,8.698267822265626,9.757332801818848,-0.0011964113218709826,0.029910283163189888
1772656304096146200,8.708146240234376,9.759725570678711,0.005982056725770235,0.03469592705368996
1772656304106024700,8.718024658203126,9.759725570678711,-0.003589233849197626,0.037088751792907715
1772656304115903200,8.7279033203125,9.752547264099121,0.008374879136681557,0.037088751792907715
1772656304125781800,8.73778173828125,9.752547264099121,0.0011964113218709826,0.0323031060397625
1772656304135660300,8.747660400390625,9.754940032958984,0.0011964113218709826,0.037088751792907715
1772656304145538800,8.757538818359375,9.752547264099121,0.008374879136681557,0.029910283163189888
1772656304155417000,8.7674169921875,9.7669038772583,0.013160524889826775,0.037088751792907715
1772656304165295600,8.777295654296875,9.757332801818848,0.0011964113218709826,0.04426721855998039
1772656304175174100,8.787174072265625,9.750154495239258,0.013160524889826775,0.04426721855998039
1772656304185052700,8.797052734375,9.757332801818848,0.0011964113218709826,0.039481572806835175
1772656304194931200,8.80693115234375,9.750154495239258,0.005982056725770235,0.04187439754605293
1772656304204809500,8.8168095703125,9.754940032958984,0.003589233849197626,0.039481572806835175
1772656304214688000,8.82668798828125,9.759725570678711,0.010767702013254166,0.037088751792907715
1772656304224566500,8.83656640625,9.759725570678711,0.005982056725770235,0.039481572806835175
1772656304234445000,8.846445068359374,9.759725570678711,0.003589233849197626,0.039481572806835175
1772656304244323600,8.856323486328124,9.7669038772583,0.003589233849197626,0.037088751792907715
1772656304254201900,8.866201904296876,9.757332801818848,0.010767702013254166,0.037088751792907715
1772656304264080400,8.876080322265626,9.752547264099121,0.008374879136681557,0.037088751792907715
1772656304273959000,8.885958984375,9.759725570678711,0.015553346835076809,0.0323031060397625
1772656304283837400,8.89583740234375,9.754940032958984,0.008374879136681557,0.04666004329919815
1772656304293716000,8.905716064453125,9.762118339538574,0.003589233849197626,0.04187439754605293
1772656304303594200,8.91559423828125,9.762118339538574,0.003589233849197626,0.039481572806835175
1772656304313472800,8.92547265625,9.754940032958984,0.0011964113218709826,0.0323031060397625
1772656304323351300,8.935351318359375,9.759725570678711,0.003589233849197626,0.039481572806835175
1772656304333229800,8.945229736328125,9.759725570678711,0.003589233849197626,0.037088751792907715
1772656304343108400,8.9551083984375,9.754940032958984,0.010767702013254166,0.04187439754605293
1772656304352987000,8.96498681640625,9.762118339538574,0.003589233849197626,0.03469592705368996
1772656304362865200,8.974865234375,9.759725570678711,0.005982056725770235,0.03469592705368996
1772656304372743700,8.98474365234375,9.757332801818848,0.003589233849197626,0.04187439754605293
1772656304382622200,8.994622314453125,9.757332801818848,0.005982056725770235,0.04187439754605293
1772656304392500700,9.004500732421874,9.759725570678711,0.005982056725770235,0.037088751792907715
1772656304402379300,9.014379150390624,9.752547264099121,0.005982056725770235,0.037088751792907715
1772656304412257500,9.024257568359374,9.752547264099121,-0.0011964113218709826,0.039481572806835175
1772656304422136000,9.034135986328126,9.762118339538574,0.010767702013254166,0.039481572806835175
1772656304432014600,9.0440146484375,9.752547264099121,0.003589233849197626,0.037088751792907715
1772656304441893000,9.05389306640625,9.754940032958984,0.005982056725770235,0.04426721855998039
1772656304451771400,9.063771484375,9.750154495239258,0.0011964113218709826,0.04187439754605293
1772656304461650000,9.07364990234375,9.759725570678711,0.008374879136681557,0.039481572806835175
1772656304471528400,9.083528564453125,9.757332801818848,0.0011964113218709826,0.04426721855998039
1772656304481407000,9.093406982421875,9.759725570678711,0.010767702013254166,0.037088751792907715
1772656304491285500,9.103285400390625,9.759725570678711,0.008374879136681557,0.04187439754605293
1772656304501163800,9.113163818359375,9.762118339538574,0.003589233849197626,0.04187439754605293
1772656304511042300,9.123042236328125,9.757332801818848,0.003589233849197626,0.039481572806835175
1772656304520920800,9.1329208984375,9.759725570678711,0.005982056725770235,0.04187439754605293
1772656304530799400,9.14279931640625,9.764511108398438,0.003589233849197626,0.039481572806835175
1772656304540678000,9.152677978515625,9.762118339538574,0.015553346835076809,0.037088751792907715
1772656304550556200,9.16255615234375,9.762118339538574,0.013160524889826775,0.039481572806835175
1772656304560434700,9.1724345703125,9.752547264099121,0.005982056725770235,0.0323031060397625
1772656304570313200,9.182313232421874,9.747760772705078,0.0011964113218709826,0.037088751792907715
1772656304580191700,9.192191650390624,9.752547264099121,0.003589233849197626,0.037088751792907715
1772656304590070000,9.202070068359374,9.750154495239258,0.008374879136681557,0.04666004329919815
1772656304599948500,9.211948486328126,9.764511108398438,0.003589233849197626,0.03469592705368996
1772656304609827000,9.2218271484375,9.759725570678711,-0.0011964113218709826,0.037088751792907715
1772656304619705600,9.23170556640625,9.752547264099121,0.0011964113218709826,0.037088751792907715
1772656304629584100,9.241584228515626,9.757332801818848,0.003589233849197626,0.03469592705368996
1772656304639462700,9.251462646484375,9.754940032958984,0.010767702013254166,0.029910283163189888
1772656304649341000,9.2613408203125,9.759725570678711,0.003589233849197626,0.037088751792907715
1772656304659219500,9.271219482421875,9.757332801818848,0.0011964113218709826,0.04666004329919815
1772656304669098000,9.281097900390625,9.754940032958984,0.003589233849197626,0.0323031060397625
1772656304678976500,9.2909765625,9.762118339538574,0.013160524889826775,0.029910283163189888
1772656304688855000,9.30085498046875,9.754940032958984,-0.003589233849197626,0.04187439754605293
1772656304698733300,9.3107333984375,9.762118339538574,0.010767702013254166,0.03469592705368996
1772656304708611800,9.32061181640625,9.759725570678711,0.003589233849197626,0.03469592705368996
1772656304718490400,9.330490478515625,9.762118339538574,0.008374879136681557,0.037088751792907715
1772656304728369000,9.340368896484375,9.754940032958984,0.005982056725770235,0.039481572806835175
1772656304738247200,9.3502470703125,9.759725570678711,0.008374879136681557,0.0323031060397625
1772656304748125700,9.360125732421874,9.752547264099121,0.003589233849197626,0.039481572806835175
1772656304758004200,9.370004150390624,9.754940032958984,0.003589233849197626,0.02751746028661728
1772656304767882800,9.3798828125,9.750154495239258,0.013160524889826775,0.029910283163189888
1772656304777761300,9.38976123046875,9.750154495239258,0.003589233849197626,0.04187439754605293
1772656304787639600,9.3996396484375,9.762118339538574,0.008374879136681557,0.029910283163189888
1772656304797518000,9.40951806640625,9.762118339538574,0.005982056725770235,0.04187439754605293
1772656304807396600,9.419396728515625,9.754940032958984,0.0011964113218709826,0.039481572806835175
1772656304817275100,9.429275146484375,9.757332801818848,0.008374879136681557,0.039481572806835175
1772656304827153400,9.4391533203125,9.754940032958984,0.008374879136681557,0.0323031060397625
1772656304837032000,9.449031982421875,9.764511108398438,0.005982056725770235,0.039481572806835175
1772656304846910500,9.458910400390625,9.757332801818848,-0.0011964113218709826,0.0323031060397625
1772656304856789000,9.4687890625,9.757332801818848,0.008374879136681557,0.037088751792907715
1772656304866667500,9.47866748046875,9.757332801818848,0.0011964113218709826,0.037088751792907715
1772656304876545800,9.4885458984375,9.757332801818848,0.0011964113218709826,0.04187439754605293
1772656304886424300,9.49842431640625,9.759725570678711,0.0011964113218709826,0.039481572806835175
1772656304896302800,9.508302734375,9.762118339538574,0.005982056725770235,0.04187439754605293
1772656304906181400,9.518181396484374,9.762118339538574,0.0011964113218709826,0.02751746028661728
1772656304916059600,9.5280595703125,9.762118339538574,0.003589233849197626,0.04187439754605293
1772656304925938200,9.537938232421874,9.754940032958984,0.005982056725770235,0.04187439754605293
1772656304935816700,9.547816650390626,9.762118339538574,0.003589233849197626,0.0323031060397625
1772656304945695200,9.5576953125,9.759725570678711,0.008374879136681557,0.037088751792907715
1772656304955573800,9.56757373046875,9.757332801818848,0.0011964113218709826,0.03469592705368996
1772656304965452000,9.5774521484375,9.759725570678711,0.003589233849197626,0.0323031060397625
1772656304975330600,9.58733056640625,9.759725570678711,0.005982056725770235,0.039481572806835175
1772656304985209000,9.597208984375,9.762118339538574,0.0011964113218709826,0.029910283163189888
1772656304995087600,9.607087646484375,9.757332801818848,-0.0011964113218709826,0.029910283163189888
1772656305004966100,9.616966064453125,9.759725570678711,0.005982056725770235,0.039481572806835175
1772656305014844400,9.626844482421875,9.762118339538574,0.010767702013254166,0.039481572806835175
1772656305024723000,9.636722900390625,9.752547264099121,0.010767702013254166,0.0323031060397625
1772656305034601500,9.6466015625,9.759725570678711,0.008374879136681557,0.03469592705368996
1772656305044480000,9.65647998046875,9.759725570678711,0.003589233849197626,0.037088751792907715
1772656305054358300,9.666358154296875,9.750154495239258,0.010767702013254166,0.04426721855998039
1772656305064236800,9.67623681640625,9.754940032958984,0.003589233849197626,0.037088751792907715
1772656305074115300,9.686115234375,9.752547264099121,0.005982056725770235,0.04187439754605293
1772656305083993900,9.695993896484374,9.759725570678711,-0.0011964113218709826,0.039481572806835175
1772656305093872400,9.705872314453124,9.764511108398438,0.0011964113218709826,0.039481572806835175
1772656305103750700,9.715750732421874,9.764511108398438,0.003589233849197626,0.0323031060397625
1772656305113629200,9.725629150390626,9.759725570678711,-0.0011964113218709826,0.0323031060397625
1772656305123507700,9.7355078125,9.750154495239258,0.005982056725770235,0.04666004329919815
1772656305133386200,9.74538623046875,9.745368003845215,0.005982056725770235,0.0323031060397625
1772656305143264500,9.755264404296875,9.759725570678711,0.0011964113218709826,0.039481572806835175
1772656305153143000,9.76514306640625,9.757332801818848,0.005982056725770235,0.039481572806835175
1772656305163021600,9.775021484375,9.764511108398438,0.008374879136681557,0.04426721855998039
1772656305172900000,9.784900146484375,9.759725570678711,0.005982056725770235,0.04187439754605293
1772656305182778400,9.7947783203125,9.750154495239258,-0.0011964113218709826,0.04426721855998039
1772656305192657000,9.804656982421875,9.762118339538574,0.0011964113218709826,0.039481572806835175
1772656305202535400,9.814535400390625,9.762118339538574,0.0011964113218709826,0.0323031060397625
1772656305212414000,9.8244140625,9.757332801818848,0.0011964113218709826,0.039481572806835175
1772656305222292500,9.83429248046875,9.757332801818848,-0.0011964113218709826,0.037088751792907715
1772656305232170800,9.844170654296875,9.759725570678711,0.005982056725770235,0.037088751792907715
1772656305242049300,9.85404931640625,9.754940032958984,0.008374879136681557,0.0323031060397625
1772656305251927800,9.863927734375,9.754940032958984,0.010767702013254166,0.037088751792907715
1772656305261806300,9.873806396484374,9.752547264099121,0.003589233849197626,0.04426721855998039
1772656305271684600,9.8836845703125,9.754940032958984,0.003589233849197626,0.037088751792907715
1772656305281563100,9.893563232421876,9.757332801818848,0.005982056725770235,0.04187439754605293
1772656305291441700,9.903441650390626,9.759725570678711,0.003589233849197626,0.037088751792907715
1772656305301320200,9.9133203125,9.757332801818848,0.003589233849197626,0.04187439754605293
1772656305311198500,9.923198486328126,9.757332801818848,-0.0011964113218709826,0.029910283163189888
1772656305321077000,9.933076904296875,9.752547264099121,0.0011964113218709826,0.039481572806835175
1772656305330955500,9.94295556640625,9.757332801818848,0.008374879136681557,0.03469592705368996
1772656305340834000,9.952833984375,9.759725570678711,0.005982056725770235,0.039481572806835175
1772656305350712600,9.962712646484375,9.764511108398438,0.005982056725770235,0.03469592705368996
1772656305360590800,9.9725908203125,9.757332801818848,-0.0011964113218709826,0.04187439754605293
1772656305370469400,9.982469482421875,9.762118339538574,0.008374879136681557,0.04187439754605293
1772656305380348000,9.992347900390625,9.762118339538574,-0.0011964113218709826,0.04666004329919815
1772656305390226400,10.002226318359375,9.747760772705078,0.0011964113218709826,0.02512463741004467
1772656305400104700,10.012104736328125,9.7669038772583,0.003589233849197626,0.03469592705368996
1772656305409983200,10.021983154296874,9.762118339538574,0.003589233849197626,0.04187439754605293
1772656305419861800,10.03186181640625,9.757332801818848,-0.0011964113218709826,0.037088751792907715
1772656305429740300,10.041740234375,9.762118339538574,-0.0011964113218709826,0.037088751792907715
1772656305439618600,10.05161865234375,9.754940032958984,0.003589233849197626,0.04187439754605293
1772656305449497000,10.0614970703125,9.759725570678711,0.005982056725770235,0.0323031060397625
1772656305459375600,10.071375732421876,9.762118339538574,0.008374879136681557,0.039481572806835175
1772656305469254100,10.081254150390626,9.754940032958984,0.010767702013254166,0.03469592705368996
1772656305479132400,10.09113232421875,9.762118339538574,-0.003589233849197626,0.04187439754605293
1772656305489011000,10.101010986328125,9.762118339538574,0.008374879136681557,0.039481572806835175
1772656305498889500,10.110889404296875,9.757332801818848,0.003589233849197626,0.03469592705368996
1772656305508768000,10.12076806640625,9.754940032958984,-0.0011964113218709826,0.04426721855998039
1772656305518646300,10.130646240234375,9.757332801818848,-0.0011964113218709826,0.0323031060397625
1772656305528524800,10.14052490234375,9.762118339538574,0.005982056725770235,0.037088751792907715
1772656305538403300,10.1504033203125,9.762118339538574,0.005982056725770235,0.03469592705368996
1772656305548281900,10.16028173828125,9.754940032958984,-0.0011964113218709826,0.04426721855998039
1772656305558160400,10.170160400390625,9.757332801818848,0.003589233849197626,0.037088751792907715
1772656305568038700,10.18003857421875,9.757332801818848,0.008374879136681557,0.037088751792907715
1772656305577917200,10.189917236328125,9.759725570678711,0.0011964113218709826,0.037088751792907715
1772656305587795700,10.199795654296874,9.759725570678711,0.003589233849197626,0.03469592705368996
1772656305597674200,10.20967431640625,9.754940032958984,0.008374879136681557,0.04187439754605293
1772656305607552500,10.219552490234374,9.757332801818848,0.010767702013254166,0.04187439754605293
1772656305617431000,10.22943115234375,9.762118339538574,0.0011964113218709826,0.037088751792907715
1772656305627309600,10.2393095703125,9.754940032958984,0.013160524889826775,0.04426721855998039
1772656305637188000,10.24918798828125,9.764511108398438,0.003589233849197626,0.037088751792907715
1772656305647066400,10.25906640625,9.759725570678711,0.0011964113218709826,0.037088751792907715
1772656305656945000,10.26894482421875,9.759725570678711,0.005982056725770235,0.04426721855998039
1772656305666823400,10.278823486328125,9.762118339538574,0.005982056725770235,0.039481572806835175
1772656305676702000,10.288701904296875,9.759725570678711,0.005982056725770235,0.04187439754605293
1772656305686580200,10.298580322265625,9.759725570678711,0.010767702013254166,0.04187439754605293
1772656305696458800,10.308458740234375,9.754940032958984,0.005982056725770235,0.039481572806835175
1772656305706337300,10.318337158203125,9.759725570678711,0.005982056725770235,0.037088751792907715
1772656305716215800,10.3282158203125,9.759725570678711,0.008374879136681557,0.039481572806835175
1772656305726094000,10.338093994140625,9.750154495239258,0.005982056725770235,0.03469592705368996
1772656305735972600,10.34797265625,9.747760772705078,0.005982056725770235,0.039481572806835175
1772656305745851100,10.35785107421875,9.757332801818848,0.003589233849197626,0.037088751792907715
1772656305755729700,10.367729736328124,9.754940032958984,0.008374879136681557,0.037088751792907715
1772656305765608000,10.37760791015625,9.757332801818848,0.010767702013254166,0.03469592705368996
1772656305775486500,10.387486572265624,9.759725570678711,0.0011964113218709826,0.039481572806835175
1772656305785365000,10.397364990234376,9.757332801818848,0.005982056725770235,0.04187439754605293
1772656305795243500,10.407243408203126,9.750154495239258,-0.003589233849197626,0.04187439754605293
1772656305805121800,10.417121826171876,9.754940032958984,0.003589233849197626,0.039481572806835175
1772656305815000300,10.427000244140626,9.754940032958984,-0.0011964113218709826,0.037088751792907715
1772656305824878800,10.43687890625,9.759725570678711,0.005982056725770235,0.04187439754605293
1772656305834757400,10.44675732421875,9.762118339538574,0.008374879136681557,0.04187439754605293
1772656305844635600,10.4566357421875,9.754940032958984,0.010767702013254166,0.04187439754605293
1772656305854514200,10.46651416015625,9.759725570678711,-0.0011964113218709826,0.04187439754605293
1772656305864392700,10.476392822265625,9.762118339538574,0.010767702013254166,0.037088751792907715
1772656305874271200,10.486271240234375,9.757332801818848,0.008374879136681557,0.037088751792907715
1772656305884149500,10.4961494140625,9.759725570678711,0.013160524889826775,0.039481572806835175
1772656305894028000,10.506028076171875,9.754940032958984,0.003589233849197626,0.03469592705368996
1772656305903906600,10.515906494140625,9.759725570678711,0.003589233849197626,0.03469592705368996
1772656305913785000,10.52578515625,9.752547264099121,0.010767702013254166,0.04426721855998039
1772656305923663400,10.535663330078124,9.759725570678711,0.005982056725770235,0.037088751792907715
1772656305933542000,10.5455419921875,9.752547264099121,0.0011964113218709826,0.029910283163189888
1772656305943420400,10.55542041015625,9.759725570678711,0.005982056725770235,0.02512463741004467
1772656305953299000,10.565298828125,9.762118339538574,0.010767702013254166,0.037088751792907715
1772656305963177200,10.57517724609375,9.754940032958984,0.005982056725770235,0.039481572806835175
1772656305973055700,10.5850556640625,9.759725570678711,0.003589233849197626,0.039481572806835175
1772656305982934300,10.594934326171876,9.759725570678711,0.008374879136681557,0.04187439754605293
1772656305992812800,10.604812744140625,9.762118339538574,0.008374879136681557,0.03469592705368996
1772656306002691000,10.614691162109375,9.759725570678711,0.005982056725770235,0.04187439754605293
1772656306012569600,10.624569580078125,9.757332801818848,0.008374879136681557,0.039481572806835175
1772656306022448000,10.6344482421875,9.752547264099121,0.0011964113218709826,0.037088751792907715
1772656306032326700,10.64432666015625,9.752547264099121,0.008374879136681557,0.04426721855998039
1772656306042205000,10.654204833984375,9.757332801818848,0.013160524889826775,0.029910283163189888
1772656306052083500,10.66408349609375,9.764511108398438,0.003589233849197626,0.04426721855998039
1772656306061962000,10.6739619140625,9.759725570678711,0.0011964113218709826,0.039481572806835175
1772656306071840500,10.683840576171875,9.754940032958984,0.005982056725770235,0.04905286431312561
1772656306081718800,10.69371875,9.759725570678711,-0.0011964113218709826,0.03469592705368996
