time,seconds_elapsed,z,y,x
1772562109185382400,0.06838232421875,0.17851302027702332,0.108265221118927,-0.23821869492530823
1772562109195365400,0.078365478515625,0.20945468544960022,0.07643085718154907,-0.22612793743610382
1772562109205347300,0.088347412109375,0.23009072244167328,0.08406054973602295,-0.21720635890960693
1772562109215330300,0.098330322265625,0.24002590775489807,0.12513341009616852,-0.20797370374202728
1772562109225312300,0.108312255859375,0.2448427677154541,0.1790512502193451,-0.20873962342739105
1772562109235295200,0.118295166015625,0.24492746591567993,0.23057329654693604,-0.21207337081432343
1772562109245277400,0.12827734375,0.25185754895210266,0.2882770597934723,-0.2060474455356598
1772562109255259400,0.13825927734375,0.270177960395813,0.3603150546550751,-0.18552272021770477
1772562109265242400,0.148242431640625,0.3019268214702606,0.45287853479385376,-0.13971209526062012
1772562109275224300,0.158224365234375,0.3533628582954407,0.5541470646858215,-0.08411940187215805
1772562109285207300,0.168207275390625,0.4085853695869446,0.6625734567642212,-0.03519367426633835
1772562109295189500,0.178189453125,0.44129323959350586,0.7605849504470825,-0.011157313361763954
1772562109305172200,0.188172119140625,0.4360300302505493,0.8160426020622253,-0.016716662794351578
1772562109315154400,0.198154541015625,0.39398592710494995,0.8014817833900452,-0.06818091869354248
1772562109325137400,0.208137451171875,0.3230763375759125,0.7030316591262817,-0.1367674320936203
1772562109335119400,0.218119384765625,0.237226665019989,0.562325119972229,-0.18996433913707733
1772562109345102300,0.228102294921875,0.1588655412197113,0.3979990482330322,-0.2054722011089325
1772562109355084500,0.23808447265625,0.10421721637248993,0.25902649760246277,-0.14244823157787323
1772562109365067300,0.2480673828125,0.06942833960056305,0.16238997876644135,-0.018282867968082428
1772562109375049500,0.258049560546875,0.05792801454663277,0.08852427452802658,0.1418447494506836
1772562109385032400,0.268032470703125,0.033903107047080994,0.018218951299786568,0.2919863164424896
1772562109395014400,0.278014404296875,-0.023085078224539757,-0.11999271810054779,0.3737637400627136
1772562109404997400,0.287997314453125,-0.11406292021274567,-0.3586524426937103,0.3684118390083313
1772562109414979300,0.297979248046875,-0.20348387956619263,-0.6575523018836975,0.31137174367904663
1772562109424961300,0.307961181640625,-0.2704322934150696,-0.9346883296966553,0.250415176153183
1772562109434944500,0.317944580078125,-0.3069796562194824,-1.1302647590637207,0.23040257394313812
1772562109444926200,0.32792626953125,-0.31873616576194763,-1.2224836349487305,0.25344184041023254
1772562109454909400,0.337909423828125,-0.2970798909664154,-1.2244423627853394,0.3121376633644104
1772562109464891400,0.347891357421875,-0.25937217473983765,-1.128526210784912,0.35349708795547485
1772562109474874400,0.357874267578125,-0.2183523029088974,-1.0197625160217285,0.32967376708984375
1772562109484856300,0.367856201171875,-0.15961122512817383,-0.9786728024482727,0.22597533464431763
1772562109494839600,0.377839599609375,-0.08283043652772903,-1.038343906402588,0.05046743527054787
1772562109504821200,0.3878212890625,0.0030341395176947117,-1.1843687295913696,-0.1537914276123047
1772562109514804500,0.397804443359375,0.061172012239694595,-1.3421066999435425,-0.33241575956344604
1772562109524786200,0.4077861328125,0.08074092119932175,-1.4420247077941895,-0.4656073749065399
1772562109534769400,0.417769287109375,0.05118941888213158,-1.4943805932998657,-0.5619325637817383
1772562109544751400,0.42775146484375,-0.013077452778816223,-1.5061752796173096,-0.6402369737625122
1772562109554734300,0.437734375,-0.07525001466274261,-1.4518518447875977,-0.7381891012191772
1772562109564716300,0.44771630859375,-0.10327978432178497,-1.3026490211486816,-0.8291451334953308
1772562109574698200,0.4576982421875,-0.09592732787132263,-1.0920803546905518,-0.8934604525566101
1772562109584681200,0.46768115234375,-0.061352040618658066,-0.8988837003707886,-0.9313883781433105
1772562109594663400,0.477663330078125,-0.02105015702545643,-0.731624960899353,-0.9277055263519287
1772562109604646100,0.487646240234375,0.024573519825935364,-0.553875744342804,-0.8750052452087402
1772562109614628400,0.49762841796875,0.06843764334917068,-0.3537418246269226,-0.7849145531654358
1772562109624611300,0.507611328125,0.10197722911834717,-0.14789332449436188,-0.6976915001869202
1772562109634593300,0.51759326171875,0.11336784064769745,0.0498887300491333,-0.6380228400230408
1772562109644576300,0.527576171875,0.10957469791173935,0.24918478727340698,-0.6036983728408813
1772562109654558500,0.537558349609375,0.10492561757564545,0.40897712111473083,-0.5871577858924866
1772562109664541200,0.547541259765625,0.09857264906167984,0.5098991990089417,-0.5821872353553772
1772562109674523400,0.5575234375,0.09410998970270157,0.5425508618354797,-0.5738019943237305
1772562109684506400,0.56750634765625,0.10230213403701782,0.533331036567688,-0.5446792840957642
1772562109694488300,0.57748828125,0.11353561282157898,0.5426843166351318,-0.48209288716316223
1772562109704471300,0.58747119140625,0.1145862340927124,0.5986538529396057,-0.39845550060272217
1772562109714453200,0.597453369140625,0.11024128645658493,0.6449912190437317,-0.32218897342681885
1772562109724435500,0.607435546875,0.10812807083129883,0.6487902402877808,-0.266405314207077
1772562109734418700,0.617418701171875,0.10821142792701721,0.6332288384437561,-0.21355701982975006
1772562109744400400,0.627400390625,0.10096842795610428,0.5972708463668823,-0.16809099912643433
1772562109754383600,0.637383544921875,0.08551010489463806,0.5782114267349243,-0.11460727453231812
1772562109764365600,0.647365478515625,0.06820142269134521,0.5700717568397522,-0.06136642023921013
1772562109774348500,0.6573486328125,0.05330982804298401,0.5581567287445068,-0.0124247120693326
1772562109784330500,0.66733056640625,0.0442337729036808,0.540198802947998,0.012160792015492916
1772562109794313700,0.677313720703125,0.04006832465529442,0.5022812485694885,0.025428660213947296
1772562109804295400,0.68729541015625,0.03781316056847572,0.43784019351005554,0.017705494537949562
1772562109814278700,0.697278564453125,0.028015390038490295,0.38330984115600586,0.0038149782922118902
1772562109824260400,0.70726025390625,0.017063938081264496,0.3781110942363739,0.003275688039138913
1772562109834243600,0.71724365234375,0.012227637693285942,0.3903685510158539,0.0054727960377931595
1772562109844225500,0.7272255859375,0.007102650590240955,0.37969887256622314,0.009973005391657352
1772562109854208500,0.73720849609375,0.02268640324473381,0.3450540602207184,0.0041761030443012714
1772562109864190500,0.7471904296875,0.05849207192659378,0.29364946484565735,-0.004473311826586723
1772562109874172700,0.757172607421875,0.1058763638138771,0.22716177999973297,-0.021639248356223106
1772562109884155400,0.7671552734375,0.16106265783309937,0.12893295288085938,-0.03889040648937225
1772562109894137600,0.7771376953125,0.20757396519184113,0.02286270447075367,-0.061950452625751495
1772562109904120600,0.78712060546875,0.23597390949726105,-0.10550352185964584,-0.09318719804286957
1772562109914102500,0.7971025390625,0.24985536932945251,-0.22696258127689362,-0.11558251827955246
1772562109924085500,0.80708544921875,0.24290958046913147,-0.2838799059391022,-0.12925519049167633
1772562109934067500,0.8170673828125,0.22432072460651398,-0.2862280309200287,-0.12842215597629547
1772562109944050400,0.827050537109375,0.2051640748977661,-0.2725335359573364,-0.12137995660305023
1772562109954032600,0.83703271484375,0.19263842701911926,-0.25185781717300415,-0.11313827335834503
1772562109964015400,0.847015380859375,0.17429563403129578,-0.25054246187210083,-0.1080244705080986
1772562109973997600,0.85699755859375,0.16291701793670654,-0.22521500289440155,-0.08648482710123062
1772562109983980500,0.86698046875,0.15972867608070374,-0.15720586478710175,-0.05678312107920647
1772562109993962500,0.87696240234375,0.15501941740512848,-0.09175708144903183,-0.03351827710866928
1772562110003945500,0.886945556640625,0.14252439141273499,-0.04821386933326721,-0.02526567503809929
1772562110013927400,0.896927490234375,0.12219434976577759,-0.021854698657989502,-0.03975726664066315
1772562110023910400,0.906910400390625,0.09944988787174225,-0.0034762241411954165,-0.0656631663441658
1772562110033892600,0.916892578125,0.07614829391241074,0.0028972530271857977,-0.09425805509090424
1772562110043874600,0.92687451171875,0.05108156055212021,-0.016575248911976814,-0.11303654313087463
1772562110053857500,0.936857421875,0.018313759937882423,-0.03864779323339462,-0.12001508474349976
1772562110063839700,0.94683984375,-0.009376989677548409,-0.03910825401544571,-0.11051718890666962
1772562110073822500,0.956822509765625,-0.025342907756567,-0.020118318498134613,-0.09220289438962936
1772562110083804700,0.9668046875,-0.034982483834028244,-0.004944690968841314,-0.07347661256790161
1772562110093787600,0.97678759765625,-0.04457412660121918,-0.010132262483239174,-0.06321172416210175
1772562110103769600,0.98676953125,-0.057323478162288666,-0.02696397341787815,-0.06864377856254578
1772562110113752600,0.996752685546875,-0.06114138290286064,-0.05696767941117287,-0.08101283013820648
1772562110123734500,1.006734619140625,-0.061345916241407394,-0.07610941678285599,-0.09322182089090347
1772562110133717500,1.016717529296875,-0.052146025002002716,-0.07797762006521225,-0.08952881395816803
1772562110143699700,1.02669970703125,-0.036670662462711334,-0.07316821813583374,-0.07499301433563232
1772562110153682400,1.036682373046875,-0.02948678657412529,-0.0702456682920456,-0.056600429117679596
1772562110163664600,1.04666455078125,-0.02797570824623108,-0.058155979961156845,-0.028027107939124107
1772562110173647600,1.056647705078125,-0.028615932911634445,-0.04935716465115547,-0.004496747627854347
1772562110183629600,1.066629638671875,-0.023809192702174187,-0.0366019532084465,0.014610634185373783
1772562110193611500,1.076611572265625,-0.020596621558070183,-0.015385613776743412,0.02942659892141819
1772562110203594800,1.0865947265625,-0.014131531119346619,0.024291224777698517,0.04500715434551239
1772562110213576400,1.096576416015625,-0.007378820329904556,0.046837013214826584,0.05018221214413643
1772562110223559700,1.1065595703125,0.005200887098908424,0.04465002566576004,0.04878218472003937
1772562110233541400,1.116541259765625,0.026331473141908646,0.032638102769851685,0.047511059790849686
1772562110243524600,1.126524658203125,0.04723888635635376,0.005089567042887211,0.04471474140882492
1772562110253506600,1.136506591796875,0.06687463819980621,-0.03143329173326492,0.0510844886302948
1772562110263489500,1.146489501953125,0.0790862962603569,-0.049137186259031296,0.05608324334025383
1772562110273471500,1.156471435546875,0.08551783114671707,-0.05091564357280731,0.07445506006479263
1772562110283454700,1.166454833984375,0.07707161456346512,-0.027728833258152008,0.10061448812484741
1772562110293436400,1.1764365234375,0.06657982617616653,0.014372281730175018,0.11969364434480667
1772562110303419600,1.186419677734375,0.06469084322452545,0.06974738836288452,0.12735795974731445
1772562110313401300,1.1964013671875,0.06594705581665039,0.10645294189453125,0.12065663933753967
1772562110323384600,1.206384521484375,0.07423242181539536,0.12375736236572266,0.09584104269742966
1772562110333366500,1.216366455078125,0.07872650027275085,0.12292938679456711,0.06828105449676514
1772562110343348500,1.226348388671875,0.07450113445520401,0.10548488050699234,0.03766615316271782
1772562110353331500,1.23633154296875,0.06290359795093536,0.06913379579782486,0.007684551179409027
1772562110363313700,1.246313720703125,0.04659173637628555,0.006872287020087242,-0.023872043937444687
1772562110373296400,1.25629638671875,0.03586319088935852,-0.05952857434749603,-0.05137157812714577
1772562110383278600,1.266278564453125,0.029514482244849205,-0.10716667026281357,-0.07168696820735931
1772562110393261600,1.276261474609375,0.02365153282880783,-0.13580523431301117,-0.0797417014837265
1772562110403243500,1.286243408203125,0.020871194079518318,-0.1434977799654007,-0.08379317075014114
1772562110413226500,1.2962265625,0.017356352880597115,-0.11784833669662476,-0.07289844006299973
1772562110423208400,1.30620849609375,0.010844125412404537,-0.07609130442142487,-0.045280128717422485
1772562110433191400,1.31619140625,0.006997988559305668,-0.02642415091395378,-0.022191587835550308
1772562110443173600,1.326173583984375,0.0037502634804695845,0.00720624765381217,-0.0019006980583071709
1772562110453156400,1.33615625,0.006104497704654932,0.018919894471764565,0.0031305458396673203
1772562110463138600,1.346138671875,0.012528575025498867,0.026129605248570442,0.005479720421135426
1772562110473120800,1.356120849609375,0.011389275081455708,0.025119202211499214,0.00794207863509655
1772562110483103500,1.366103515625,0.009209477342665195,0.025044366717338562,0.0033510555513203144
1772562110493085700,1.376085693359375,0.0070741549134254456,0.02460387907922268,0.0027949875220656395
1772562110503068700,1.386068603515625,0.004171042703092098,0.018198179081082344,0.004729773849248886
1772562110513050600,1.396050537109375,-0.002133192028850317,-0.002516687149181962,0.00355851580388844
1772562110523033600,1.40603369140625,-0.00974477268755436,-0.019963055849075317,0.006747651379555464
1772562110533015600,1.416015625,-0.01344603393226862,-0.0296644177287817,0.012520851567387581
1772562110542998500,1.42599853515625,-0.017476728186011314,-0.030121151357889175,0.016658606007695198
1772562110552980700,1.435980712890625,-0.020014720037579536,-0.014031928963959217,0.019750801846385002
1772562110562963500,1.44596337890625,-0.021352427080273628,-0.001371527905575931,0.014364558272063732
1772562110572945700,1.455945556640625,-0.012455870397388935,0.0035020567011088133,0.006183327175676823
1772562110582928600,1.4659287109375,-0.014888135716319084,0.005030178464949131,-0.005375057924538851
1772562110592910600,1.47591064453125,-0.008651545271277428,0.005567604675889015,-0.011980762705206871
1772562110602893600,1.4858935546875,-0.004246943164616823,0.014209295623004436,-0.013646037317812443
1772562110612875500,1.49587548828125,0.002226402750238776,0.011582620441913605,-0.01489506009966135
1772562110622858500,1.5058583984375,0.0031755531672388315,-0.0044141896069049835,-0.011382084339857101
1772562110632840700,1.5158408203125,-0.0054855793714523315,0.004497013986110687,0.003582217963412404
1772562110642822400,1.525822509765625,-0.01612464152276516,0.027027888223528862,0.02010340429842472
1772562110652805600,1.5358056640625,-0.02322809025645256,0.03621792420744896,0.029259618371725082
1772562110662787600,1.54578759765625,-0.023429691791534424,0.024147147312760353,0.028795694932341576
1772562110672770600,1.5557705078125,-0.018803248181939125,0.018277008086442947,0.02178385853767395
1772562110682752500,1.56575244140625,-0.012291287072002888,0.0035441347863525152,0.010183927603065968
1772562110692735700,1.57573583984375,-0.0049124667420983315,-0.014191718772053719,0.0029606360476464033
1772562110702717400,1.585717529296875,0.0041129859164357185,-0.021435517817735672,0.0014290522085502744
1772562110712700700,1.59570068359375,0.011293667368590832,-0.025378860533237457,0.0007984156836755574
1772562110722682400,1.605682373046875,0.011747203767299652,-0.036791570484638214,0.0006862966110929847
1772562110732665600,1.61566552734375,0.01630067639052868,-0.05053587630391121,-0.004855741746723652
1772562110742647300,1.625647216796875,0.016051936894655228,-0.05450372025370598,-0.003585147438570857
1772562110752630500,1.635630615234375,0.014852449297904968,-0.04699626937508583,0.0006617955514229834
1772562110762612200,1.6456123046875,0.013462012633681297,-0.043836429715156555,0.003931358456611633
1772562110772595500,1.655595458984375,0.012893694452941418,-0.019722305238246918,0.016762735322117805
1772562110782577200,1.6655771484375,0.018079934641718864,0.013026053085923195,0.027908597141504288
1772562110792559400,1.675559326171875,0.023200927302241325,0.04079509899020195,0.038059767335653305
1772562110802542300,1.685542236328125,0.024816399440169334,0.066227488219738,0.04704873636364937
1772562110812524300,1.695524169921875,0.026798857375979424,0.07349765300750732,0.054128482937812805
1772562110822507300,1.70550732421875,0.025946378707885742,0.06972901523113251,0.057668089866638184
1772562110832489200,1.7154892578125,0.025971146300435066,0.055755674839019775,0.05684357509016991
1772562110842472200,1.72547216796875,0.02744840271770954,0.033002689480781555,0.053212087601423264
1772562110852454400,1.735454345703125,0.024960476905107498,0.016943562775850296,0.05025571212172508
1772562110862437400,1.745437255859375,0.025550900027155876,0.014515292830765247,0.04978246986865997
1772562110872419300,1.75541943359375,0.018972359597682953,0.01979660801589489,0.04765939712524414
1772562110882402300,1.76540234375,0.019763585180044174,0.013466806150972843,0.043477967381477356
1772562110892384300,1.77538427734375,0.021452561020851135,0.006843258626759052,0.03354118391871452
1772562110902367200,1.7853671875,0.024466726928949356,0.003656520042568445,0.018151041120290756
1772562110912349400,1.795349365234375,0.02803696133196354,0.0021065603941679,0.007444334216415882
1772562110922331400,1.805331298828125,0.02834429033100605,0.007980694994330406,-0.0019174759509041905
1772562110932314400,1.815314453125,0.031200796365737915,0.0281517431139946,0.004289819858968258
1772562110942296300,1.82529638671875,0.030299315229058266,0.050206709653139114,0.013017265126109123
1772562110952279300,1.835279296875,0.030006634071469307,0.04628361016511917,0.01738884299993515
1772562110962261500,1.845261474609375,0.028259601444005966,0.02653014473617077,0.0057340520434081554
1772562110972244200,1.855244140625,0.030375482514500618,-0.0019313243683427572,-0.010923221707344055
1772562110982226400,1.865226318359375,0.0271914079785347,-0.037166010588407516,-0.03051663003861904
1772562110992209400,1.87520947265625,0.02540069818496704,-0.04639759287238121,-0.03483095020055771
1772562111002191400,1.88519140625,0.026026008650660515,-0.042400721460580826,-0.026020947843790054
1772562111012174300,1.89517431640625,0.02581588365137577,-0.032106801867485046,-0.011487279087305069
1772562111022156500,1.905156494140625,0.023003319278359413,-0.018801383674144745,0.0036514601670205593
1772562111032139300,1.91513916015625,0.02334846556186676,-0.003341468283906579,0.017134778201580048
1772562111042121500,1.92512158203125,0.02497246116399765,0.0049220542423427105,0.019513247534632683
1772562111052104400,1.9351044921875,0.027591681107878685,0.015106781385838985,0.022958312183618546
1772562111062086400,1.94508642578125,0.02630537375807762,0.029697975143790245,0.032096948474645615
1772562111072069400,1.9550693359375,0.026817765086889267,0.03460884466767311,0.04225504398345947
1772562111082051300,1.96505126953125,0.02605876512825489,0.036928191781044006,0.05289623886346817
1772562111092033300,1.975033203125,0.025241173803806305,0.032290562987327576,0.062481753528118134
1772562111102016500,1.9850166015625,0.02364141307771206,0.014493188820779324,0.06544851511716843
1772562111111998200,1.994998291015625,0.023424366489052773,-0.0017014936311170459,0.05500306561589241
1772562111121981400,2.0049814453125,0.023358851671218872,-0.014196778647601604,0.040944237262010574
1772562111131963100,2.014963134765625,0.020258933305740356,-0.027767715975642204,0.02196388877928257
1772562111141946400,2.0249462890625,0.018871957436203957,-0.03437608480453491,0.0129924975335598
1772562111151928300,2.03492822265625,0.019458653405308723,-0.02215457148849964,0.009373261593282223
1772562111161911300,2.044911376953125,0.023074958473443985,-0.015084411017596722,0.01170326117426157
1772562111171893200,2.054893310546875,0.029807696118950844,-0.013754960149526596,0.01925625279545784
1772562111181876500,2.06487646484375,0.02828703075647354,-0.014281733892858028,0.01781708002090454
1772562111191858200,2.074858154296875,0.02208080142736435,-0.017311345785856247,0.013085974380373955
1772562111201841400,2.08484130859375,0.015505190007388592,-0.014072941616177559,0.006582002621144056
1772562111211823400,2.0948232421875,0.011274758726358414,-0.001455151243135333,0.002037850907072425
1772562111221805300,2.104805419921875,0.01079752016812563,0.006669620517641306,0.0006167881074361503
1772562111231788300,2.114788330078125,0.011542672291398048,0.005176652688533068,0.0041313618421554565
1772562111241770200,2.124770263671875,0.011669439263641834,-0.002763562137261033,0.00830693170428276
1772562111251753200,2.134753173828125,0.008624646812677383,-0.005182777531445026,0.009707754477858543
1772562111261735400,2.1447353515625,0.0011590076610445976,-0.0025505092926323414,0.01326786819845438
1772562111271718100,2.15471826171875,-0.007869374938309193,-0.00029880666988901794,0.0013829795643687248
1772562111281700400,2.164700439453125,-0.01429132092744112,0.001127848750911653,-0.00723634148016572
1772562111291683300,2.174683349609375,-0.015969378873705864,-0.005007275380194187,-0.017477527260780334
1772562111301665300,2.184665283203125,-0.020059462636709213,-0.030016489326953888,-0.023061908781528473
1772562111311648300,2.194648193359375,-0.02064695581793785,-0.05149967595934868,-0.031990956515073776
1772562111321630500,2.20463037109375,-0.01516004465520382,-0.06299201399087906,-0.02732270024716854
1772562111331613200,2.21461328125,-0.019210712984204292,-0.06192115694284439,-0.021527396515011787
1772562111341595400,2.224595458984375,-0.013719274662435055,-0.04813344031572342,-0.015690280124545097
1772562111351578400,2.234578369140625,-0.00806112214922905,-0.02869556099176407,-0.005604622419923544
1772562111361560300,2.244560302734375,0.004848284646868706,0.005380650516599417,-0.004208593629300594
1772562111371542500,2.25454248046875,0.011921107769012451,0.0313296914100647,-0.00032384038786403835
1772562111381525200,2.264525146484375,0.01824318617582321,0.04142307490110397,-0.00015339808305725455
1772562111391507500,2.274507568359375,0.023693878203630447,0.03623070940375328,0.002270078519359231
1772562111401490400,2.284490478515625,0.023551132529973984,0.01925305649638176,0.010007892735302448
1772562111411472400,2.294472412109375,0.01938488334417343,0.007762315683066845,0.026275012642145157
1772562111421455400,2.304455322265625,0.010840663686394691,0.010961837135255337,0.048114530742168427
1772562111431437300,2.314437255859375,0.00777722941711545,0.010996724478900433,0.05884014815092087
1772562111441420300,2.324420166015625,0.012924320995807648,-0.0021912488155066967,0.048101216554641724
1772562111451402500,2.334402587890625,0.01697658747434616,-0.010615892708301544,0.03984994441270828
1772562111461385200,2.34438525390625,0.021334316581487656,-0.02448084205389023,0.026316558942198753
1772562111471367400,2.354367431640625,0.023869380354881287,-0.03473854064941406,0.015237542800605297
1772562111481350400,2.364350341796875,0.026006300002336502,-0.04005607217550278,0.004773982334882021
1772562111491332400,2.374332275390625,0.03141731023788452,-0.03207804262638092,0.014158163219690323
1772562111501315300,2.3843154296875,0.031310517340898514,-0.022164158523082733,0.01900511607527733
1772562111511297500,2.394297607421875,0.03175739571452141,-0.018335863947868347,0.02256309986114502
1772562111521279200,2.404279296875,0.03550606220960617,-0.02004161849617958,0.017163008451461792
1772562111531262500,2.414262451171875,0.0356818325817585,-0.02468217723071575,-0.0022024342324584723
1772562111541244200,2.424244140625,0.03050784207880497,-0.02430747076869011,-0.011720838025212288
1772562111551227400,2.434227294921875,0.0231734961271286,-0.03254462778568268,-0.023966852575540543
1772562111561209300,2.444209228515625,0.015027951449155807,-0.038166824728250504,-0.02483956888318062
1772562111571192300,2.4541923828125,0.013373329304158688,-0.03581738471984863,-0.021192902699112892
1772562111581174300,2.46417431640625,0.013866281136870384,-0.029709959402680397,-0.01005210168659687
1772562111591157500,2.474157470703125,0.017304155975580215,-0.02984151802957058,0.003368099918588996
1772562111601139200,2.48413916015625,0.022337529808282852,-0.013674532994627953,0.015980564057826996
1772562111611122400,2.494122314453125,0.02412770688533783,0.01139859575778246,0.03196938335895538
1772562111621104400,2.5041044921875,0.028859078884124756,0.027464646846055984,0.0399591326713562
1772562111631087400,2.51408740234375,0.02708141878247261,0.03356834501028061,0.04405560716986656
1772562111641069300,2.5240693359375,0.026191921904683113,0.03287219628691673,0.050084471702575684
1772562111651052500,2.534052490234375,0.024170316755771637,0.02081766352057457,0.04526814445853233
1772562111661034200,2.5440341796875,0.01835850067436695,0.0054970309138298035,0.03347913175821304
1772562111671016400,2.554016357421875,0.01507269311696291,0.0002897519152611494,0.022104769945144653
1772562111680999200,2.563999267578125,0.01685860939323902,-0.00869095977395773,0.014964302070438862
1772562111690981400,2.5739814453125,0.013935523107647896,-0.0062973108142614365,0.007734618615359068
1772562111700964400,2.58396435546875,0.011127485893666744,0.002302036387845874,0.003022687742486596
1772562111710946300,2.5939462890625,0.013876400887966156,0.010150638408958912,-0.002767290687188506
1772562111720929300,2.60392919921875,0.017055416479706764,0.013087838888168335,-0.007781223859637976
1772562111730911200,2.6139111328125,0.0231734961271286,0.002174471039324999,-0.012990899384021759
1772562111740895500,2.6238955078125,0.020739100873470306,-0.013817811384797096,-0.010802580043673515
1772562111750877400,2.63387744140625,0.018207233399152756,-0.01992657035589218,-0.00652687530964613
1772562111760860400,2.6438603515625,0.01613396219909191,-0.011079016141593456,-0.002656503114849329
1772562111770842600,2.653842529296875,0.013669739477336407,-0.01056342851370573,0.0031230889726430178
1772562111780825300,2.663825439453125,0.00980416126549244,0.0005693838465958834,0.0029470541048794985
1772562111790807600,2.6738076171875,0.010595385916531086,0.010676879435777664,-0.00018668759730644524
1772562111800790500,2.68379052734375,0.013968812301754951,0.009080047719180584,-0.01016901433467865
1772562111810772500,2.6937724609375,0.01679788902401924,0.003606186481192708,-0.015566975809633732
1772562111820754400,2.70375439453125,0.017614413052797318,-0.0018322548130527139,-0.014401842840015888
1772562111830737400,2.7137373046875,0.01726740412414074,-0.014819160103797913,-0.011056113056838512
1772562111840719400,2.72371923828125,0.009033975191414356,-0.01906503736972809,-0.001990979304537177
1772562111850702600,2.73370263671875,0.004036819562315941,-0.02442598156630993,0.002124936319887638
1772562111860684300,2.743684326171875,-0.001023452845402062,-0.03075604885816574,0.008606803603470325
1772562111870667500,2.75366748046875,-0.0023161512799561024,-0.024718929082155228,0.012629242613911629
1772562111880649200,2.763649169921875,0.0010080065112560987,-0.02172074094414711,0.01480371318757534
1772562111890632400,2.773632568359375,0.004189418628811836,-0.03423067554831505,0.01738112047314644
1772562111900614400,2.783614501953125,0.005395564250648022,-0.04670518636703491,0.012498747557401657
1772562111910597600,2.79359765625,0.007286142557859421,-0.06162208318710327,0.011156780645251274
1772562111920579300,2.803579345703125,0.013352557085454464,-0.07461485266685486,0.006585464812815189
1772562111930562600,2.8135625,0.011829229071736336,-0.08684541285037994,0.005282380152493715
1772562111940544300,2.823544189453125,0.004575577098876238,-0.0887727439403534,0.005185973364859819
1772562111950526500,2.8335263671875,-0.0026463831309229136,-0.07615894824266434,0.005863748025149107
1772562111960509400,2.843509521484375,-0.012293684296309948,-0.06106681749224663,0.004234692547470331
1772562111970491400,2.853491455078125,-0.01534460112452507,-0.04332883283495903,0.003562244353815913
1772562111980474400,2.863474365234375,-0.02088158018887043,-0.02154630422592163,-0.00347409350797534
1772562111990456300,2.873456298828125,-0.02443370409309864,0.00452870549634099,-0.008017180487513542
1772562112000439300,2.883439208984375,-0.015194665640592575,0.02833683229982853,-0.014451909810304642
1772562112010421500,2.89342138671875,-0.010093913413584232,0.047811996191740036,-0.00848616287112236
1772562112020404200,2.903404296875,0.0016186692519113421,0.05645422264933586,0.006612096447497606
1772562112030386400,2.913386474609375,0.004878911189734936,0.04999206215143204,0.028624454513192177
1772562112040369400,2.923369384765625,0.006367085501551628,0.0279123242944479,0.0433243028819561
1772562112050351400,2.933351318359375,0.005918608978390694,0.00330258603207767,0.05760151147842407
1772562112060334300,2.943334228515625,0.005905559752136469,-0.00962413102388382,0.06496328860521317
1772562112070316500,2.953316650390625,0.007797469384968281,-0.021282386034727097,0.0634431540966034
1772562112080299300,2.96329931640625,0.007582818623632193,-0.030954720452427864,0.05149754509329796
1772562112090281500,2.973281494140625,0.006096508353948593,-0.038179609924554825,0.03569328412413597
1772562112100263400,2.983263427734375,0.006402505561709404,-0.032102543860673904,0.019876502454280853
1772562112110246400,2.993246337890625,-0.0008021441171877086,-0.023665381595492363,0.015119564719498158
1772562112120228600,3.003228515625,-0.0006439523422159255,-0.021828066557645798,0.012833506800234318
1772562112130211300,3.01321142578125,-0.001353152096271515,-0.010371148586273193,0.020976921543478966
1772562112140193500,3.023193603515625,-0.003133208956569433,0.011204984039068222,0.03599901497364044
1772562112150176500,3.033176513671875,-0.005242698825895786,0.01776248589158058,0.043838027864694595
1772562112160158500,3.043158447265625,-0.004186755511909723,0.017353158444166183,0.045935533940792084
1772562112170141400,3.053141357421875,-0.0032346753869205713,0.0196852870285511,0.03753725439310074
1772562112180123400,3.063123291015625,-0.003950000274926424,0.010319482535123825,0.02033216878771782
1772562112190106400,3.0731064453125,-0.006936203222721815,-0.005760417319834232,-0.003228283952921629
1772562112200088600,3.083088623046875,-0.005051750224083662,-0.023089073598384857,-0.030553648248314857
1772562112210071600,3.093071533203125,-0.00637933611869812,-0.033722009509801865,-0.04950843006372452
1772562112220053500,3.103053466796875,-0.008261125534772873,-0.03542057424783707,-0.059292882680892944
1772562112230036500,3.113036376953125,-0.00777589762583375,-0.030729150399565697,-0.05911045894026756
1772562112240018400,3.123018310546875,-0.004369981121271849,-0.02666303515434265,-0.05036064237356186
1772562112250000400,3.13300048828125,0.00036485306918621063,-0.032211996614933014,-0.03937510401010513
1772562112259983600,3.142983642578125,0.002944657113403082,-0.02576581761240959,-0.02310292236506939
1772562112269965300,3.15296533203125,0.006168413441628218,-0.02149197645485401,-0.008708003908395767
1772562112279948500,3.162948486328125,0.003173955250531435,-0.026926422491669655,-0.0005925533478148282
1772562112289930200,3.17293017578125,0.008289621211588383,-0.028723789379000664,0.007730890065431595
1772562112299913500,3.18291357421875,0.009789247065782547,-0.030255639925599098,0.023060046136379242
1772562112309895400,3.1928955078125,0.009127984754741192,-0.03352067619562149,0.03365649655461311
1772562112319878400,3.20287841796875,0.008641159161925316,-0.041615087538957596,0.03880465403199196
1772562112329860400,3.2128603515625,0.012116051279008389,-0.039384424686431885,0.03672312572598457
1772562112339843600,3.222843505859375,0.008067780174314976,-0.03319923207163811,0.03603869304060936
1772562112349825300,3.2328251953125,0.005530586466193199,-0.0031427964568138123,0.03611326217651367
1772562112359808500,3.24280859375,-0.0006122607155703008,0.02672295644879341,0.0390041247010231
1772562112369790500,3.25279052734375,-0.0026221484877169132,0.03377047926187515,0.03615960106253624
1772562112379773400,3.2627734375,-0.004066380672156811,0.021257085725665092,0.027164775878190994
1772562112389755400,3.27275537109375,-0.0017696705181151628,0.016098808497190475,0.025912556797266006
1772562112399737300,3.2827373046875,0.007262440398335457,0.007954861968755722,0.023359917104244232
1772562112409720300,3.29272021484375,0.01347719319164753,-0.008158328011631966,0.02534370683133602
1772562112419702500,3.30270263671875,0.016034094616770744,-0.028075575828552246,0.025312013924121857
1772562112429685200,3.312685302734375,0.016336096450686455,-0.034577950835227966,0.02792564034461975
1772562112439667500,3.32266748046875,0.013889983296394348,-0.02359640598297119,0.03664136677980423
1772562112449650400,3.332650390625,0.012279036454856396,-0.012595952488481998,0.04014236107468605
1772562112459632400,3.34263232421875,0.005432316102087498,-0.00037257623625919223,0.03780703246593475
1772562112469615400,3.352615478515625,-0.0013259878614917397,0.012458800338208675,0.025551432743668556
1772562112479597300,3.362597412109375,0.0023065637797117233,0.025044100359082222,0.01926290988922119
1772562112489580300,3.372580322265625,0.0002609897928778082,0.019930033013224602,0.00782383419573307
1772562112499562500,3.3825625,0.004259459674358368,0.0009369000908918679,-0.004998753312975168
1772562112509545500,3.39254541015625,0.007937551476061344,-0.01612144522368908,-0.017400827258825302
1772562112519527400,3.40252734375,0.012472381815314293,-0.02953924983739853,-0.021024592220783234
1772562112529510400,3.412510498046875,0.0054794540628790855,-0.03172623738646507,-0.02237747795879841
1772562112539492400,3.422492431640625,0.0027081684675067663,-0.031554728746414185,-0.020626448094844818
1772562112549474600,3.432474609375,0.00013875069271307439,-0.031810395419597626,-0.02358308993279934
1772562112559457500,3.44245751953125,-0.004715392831712961,-0.030040988698601723,-0.024816399440169334
1772562112569439500,3.452439453125,-0.00330205331556499,-0.015632223337888718,-0.017497500404715538
1772562112579422500,3.46242236328125,-0.003168362658470869,0.0015749934827908874,-0.008954878896474838
1772562112589404400,3.472404296875,-0.002532133599743247,0.005314604379236698,-0.006643521599471569
1772562112599387400,3.482387451171875,-0.006962834391742945,-0.009007343091070652,-0.011294732801616192
1772562112609369600,3.49236962890625,-0.005856557283550501,-0.017900437116622925,-0.008388957008719444
1772562112619352300,3.502352294921875,-0.002700445242226124,-0.01121936459094286,0.00024501082953065634
1772562112629334500,3.51233447265625,-0.007108509540557861,-0.016389891505241394,0.0006679208017885685
1772562112639317500,3.5223173828125,-0.00899855513125658,-0.02671230398118496,-0.008666458539664745
1772562112649299500,3.532299560546875,-0.007400924805551767,-0.029937392100691795,-0.011604724451899529
1772562112659282400,3.542282470703125,-0.0060110208578407764,-0.01613342948257923,-0.009757822379469872
1772562112669264600,3.5522646484375,-0.008736765943467617,-0.00515721132978797,-0.0037233654875308275
1772562112679247400,3.562247314453125,-0.015281750820577145,0.00041971419705078006,0.003282079705968499
1772562112689229600,3.5722294921875,-0.01733611337840557,0.0008729841792955995,0.011244132183492184
1772562112699211300,3.582211181640625,-0.02232341468334198,-0.002038117265328765,0.016687367111444473
1772562112709194500,3.592194580078125,-0.024419056251645088,-0.007899735122919083,0.012606339529156685
1772562112719176400,3.602176513671875,-0.02220836654305458,-0.002282329136505723,0.01318291388452053
1772562112729159400,3.612159423828125,-0.020268520340323448,0.007938084192574024,0.011028682813048363
1772562112739140900,3.622140869140625,-0.016389092430472374,0.004549478180706501,0.00478330347687006
1772562112749124000,3.6321240234375,-0.017705494537949562,-0.005536711774766445,-0.0030368026345968246
1772562112759106000,3.64210595703125,-0.018696988001465797,-0.003885285696014762,-0.006611031014472246
1772562112769089000,3.652089111328125,-0.021223796531558037,-0.002540122950449586,-0.010932542383670807
1772562112779071000,3.662071044921875,-0.023077355697751045,-0.007829693146049976,-0.01786421798169613
1772562112789054000,3.672053955078125,-0.023137809708714485,-0.013402624055743217,-0.024274712428450584
1772562112799036000,3.682035888671875,-0.022895729169249535,-0.023484554141759872,-0.02684066817164421
1772562112809019000,3.692018798828125,-0.026974359527230263,-0.04084383696317673,-0.028722990304231644
1772562112819000800,3.702000732421875,-0.029469475150108337,-0.05760151147842407,-0.02395673096179962
1772562112828982800,3.711982666015625,-0.024939438328146935,-0.04020361229777336,-0.008926116861402988
1772562112838966000,3.721966064453125,-0.027126692235469818,-0.006935137789696455,0.007510646712034941
1772562112848948000,3.731947998046875,-0.031854867935180664,0.01853267103433609,0.020903684198856354
1772562112858931000,3.741930908203125,-0.03351588174700737,0.03965367004275322,0.027215376496315002
1772562112868913000,3.751912841796875,-0.03448766842484474,0.052985984832048416,0.03130572289228439
1772562112878895900,3.761895751953125,-0.03936631605029106,0.05150926485657692,0.027957597747445107
1772562112888877800,3.7718779296875,-0.03880119323730469,0.03139334172010422,0.02201448753476143
1772562112898861000,3.781861083984375,-0.0378379262983799,0.01774890348315239,0.017739849165081978
1772562112908843000,3.791843017578125,-0.03537476807832718,-0.006132727488875389,0.0033071134239435196
1772562112918826000,3.801825927734375,-0.03328977897763252,-0.0288766548037529,-0.012658803723752499
1772562112928808000,3.811807861328125,-0.02503105066716671,-0.04279087483882904,-0.023988157510757446
1772562112938791000,3.821791015625,-0.026623355224728584,-0.045532066375017166,-0.03419125825166702
1772562112948772900,3.83177294921875,-0.026073412969708443,-0.036607012152671814,-0.03247245401144028
1772562112958756000,3.841756103515625,-0.02678767219185829,-0.017705760896205902,-0.02287016250193119
1772562112968737800,3.85173779296875,-0.02658926695585251,-0.001651692553423345,-0.00857617799192667
1772562112978720000,3.861719970703125,-0.02570110186934471,0.025259284302592278,0.010488860309123993
1772562112988703000,3.871702880859375,-0.02304566465318203,0.03683444857597351,0.02599484845995903
1772562112998685000,3.881684814453125,-0.019526829943060875,0.029194369912147522,0.03349590674042702
1772562113008668000,3.89166796875,-0.01441169623285532,0.01654621958732605,0.03923102468252182
1772562113018650000,3.901650146484375,-0.008921856060624123,-0.0022303974255919456,0.04201748967170715
1772562113028632800,3.9116328125,-0.0043923514895141125,-0.01878034509718418,0.030605047941207886
1772562113038615000,3.921614990234375,-0.002749447477981448,-0.029629530385136604,0.014564295299351215
1772562113048598000,3.931597900390625,-0.0029526466969400644,-0.02797357738018036,0.0023486416321247816
1772562113058580000,3.941580078125,-0.0006607302348129451,-0.025740517303347588,-0.011530156247317791
1772562113068563000,3.95156298828125,0.0006332996999844909,-0.03586958348751068,-0.028781313449144363
1772562113078545000,3.961544921875,0.003147589974105358,-0.045164015144109726,-0.0310407392680645
1772562113088528000,3.97152783203125,0.004030694253742695,-0.04051040858030319,-0.027123229578137398
1772562113098510000,3.981510009765625,0.001776594785042107,-0.031983766704797745,-0.019457854330539703
1772562113108492800,3.991492919921875,-0.0021201425697654486,-0.01955718919634819,-0.01107315719127655
1772562113118473000,4.001472900390625,-0.0046850331127643585,0.004516987595707178,-0.002046106616035104
1772562113128455000,4.011454833984375,-0.0007896272582001984,0.008333830162882805,0.008082427084445953
1772562113138437000,4.02143701171875,-0.003578489413484931,0.004656270612031221,0.01438133604824543
1772562113148419800,4.031419921875,-0.0034229608718305826,0.0032650355715304613,0.026258235797286034
1772562113158402000,4.041402099609375,-0.0018141453620046377,0.008143147453665733,0.03621020168066025
1772562113168385000,4.051385009765625,-0.0006743124104104936,0.0070674968883395195,0.026993000879883766
1772562113178367000,4.061366943359375,-0.0016940367640927434,-0.008472047746181488,0.009767409414052963
1772562113188350000,4.071349853515625,-0.0014777880860492587,-0.023059513419866562,-0.009489641524851322
1772562113198332000,4.081331787109375,0.0003049319493584335,-0.030905984342098236,-0.02641616016626358
1772562113208315000,4.09131494140625,-0.0012096078135073185,-0.042519498616456985,-0.04002784192562103
1772562113218297000,4.101297119140625,-0.009310944005846977,-0.049746785312891006,-0.040040094405412674
1772562113228279800,4.11127978515625,-0.011626029387116432,-0.04783916100859642,-0.036678120493888855
1772562113238262000,4.121261962890625,-0.011409514583647251,-0.03943076357245445,-0.03026203252375126
1772562113248245000,4.131244873046875,-0.004565989598631859,-0.015619173645973206,-0.022056033834815025
1772562113258227000,4.14122705078125,0.0004319647268857807,-0.01908101700246334,-0.01950286142528057
1772562113268210000,4.1512099609375,0.005935919936746359,-0.011181281879544258,-0.012890764512121677
1772562113278192000,4.161192138671875,0.006714361719787121,-0.005246427375823259,-0.0019523634109646082
1772562113288173800,4.171173828125,0.005805424880236387,-0.010752513073384762,0.006661897525191307
1772562113298157000,4.181156982421875,-0.00009214537567459047,-0.021020330488681793,0.008231830783188343
1772562113308138800,4.191138671875,0.0028240159153938293,-0.03265781328082085,0.008230498991906643
1772562113318122000,4.2011220703125,0.002296443795785308,-0.033131055533885956,0.0034376082476228476
1772562113328104000,4.21110400390625,0.002683134749531746,-0.028181303292512894,-0.0035987296141684055
1772562113338087000,4.2210869140625,0.003281546989455819,-0.02203313075006008,-0.004412325099110603
1772562113348068900,4.23106884765625,0.005253351293504238,-0.015804262831807137,-0.007507450878620148
1772562113358052000,4.241052001953125,0.009904296137392521,-0.010483001358807087,-0.003881823504343629
1772562113368033800,4.25103369140625,0.009678459726274014,-0.006446181330829859,-0.0023182816803455353
1772562113378017000,4.26101708984375,0.008570052683353424,-0.011930429376661777,0.0016018913593143225
1772562113387999000,4.2709990234375,0.009520534425973892,-0.01732812449336052,0.0012596751330420375
1772562113397982000,4.28098193359375,0.007215834688395262,-0.011697135865688324,-0.0007568703731521964
1772562113407964000,4.2909638671875,0.009046758525073528,-0.008406533859670162,-0.0030863373540341854
1772562113417947100,4.300947021484375,0.007207578979432583,-0.005358280148357153,-0.004250937607139349
1772562113427928800,4.3109287109375,0.005545233841985464,-0.005781722720712423,-0.004022971261292696
1772562113437911000,4.3209111328125,0.0028365328907966614,-0.010900318622589111,0.0002031991898547858
1772562113447893800,4.330893798828125,0.01064944826066494,-0.018514828756451607,-0.00044288369826972485
1772562113457876000,4.3408759765625,0.01281486451625824,-0.023435285314917564,-0.002112685702741146
1772562113467859000,4.35085888671875,0.007661115378141403,-0.02694559656083584,-0.007709851488471031
1772562113477841000,4.3608408203125,0.002439721953123808,-0.023617444559931755,-0.014377341605722904
1772562113487824000,4.370823974609375,0.0010849718237295747,-0.022116221487522125,-0.021576665341854095
1772562113497805800,4.380805908203125,-0.0018895127577707171,-0.018644258379936218,-0.024354076012969017
1772562113507788800,4.390788818359375,0.006502640433609486,-0.015137674286961555,-0.02311543934047222
1772562113517771000,4.40077099609375,0.007445931900292635,-0.01516723446547985,-0.02076706290245056
1772562113527753700,4.410753662109375,0.014207964763045311,-0.016258863732218742,-0.0177004337310791
1772562113537736000,4.42073583984375,0.017208281904459,-0.011227354407310486,-0.014230601489543915
1772562113547719000,4.430718994140625,0.014574681408703327,-0.01227743923664093,-0.008222510106861591
1772562113557700900,4.440700927734375,0.007358846720308065,-0.007189469411969185,-0.005505286622792482
1772562113567683800,4.450683837890625,0.0039292280562222,0.0029949909076094627,0.0035065840929746628
1772562113577666000,4.460666015625,0.0035947347059845924,0.00621182331815362,0.011513111181557178
1772562113587648000,4.47064794921875,-0.0014197311829775572,0.010616958141326904,0.01537442859262228
1772562113597631000,4.480630859375,0.0022533005103468895,0.0070619042962789536,0.012924054637551308
1772562113607613000,4.490613037109375,0.005593703594058752,0.0007779093575663865,0.010604174807667732
1772562113617596000,4.500595947265625,0.007558583747595549,-0.003175287041813135,0.0011518171522766352
1772562113627578000,4.510578125,0.010144513100385666,0.002353701740503311,-0.006717024836689234
1772562113637560800,4.520560791015625,0.005277053453028202,-0.00159443449229002,-0.019832827150821686
1772562113647543000,4.53054296875,0.001130778226070106,-0.01581491529941559,-0.02586968056857586
1772562113657526000,4.540526123046875,0.00048363005043938756,-0.022175343707203865,-0.026804715394973755
1772562113667508000,4.550508056640625,-0.0006460828590206802,-0.021095698699355125,-0.017479658126831055
1772562113677491000,4.560490966796875,-0.0007994809420779347,-0.016650082543492317,-0.005557218100875616
1772562113687473200,4.57047314453125,-0.004393683280795813,-0.002463423879817128,0.005228850524872541
1772562113697455900,4.580455810546875,-0.001967010786756873,0.014395717531442642,0.01284469198435545
1772562113707438000,4.59043798828125,-0.005337241105735302,0.02093324437737465,0.01576591283082962
1772562113717421000,4.600421142578125,-0.006632869131863117,0.01776301860809326,0.008344216272234917
1772562113727403000,4.610403076171875,-0.004787564743310213,0.01417334284633398,0.003194994293153286
1772562113737385000,4.620385009765625,-0.004230164922773838,0.006828877609223127,0.0021827267482876778
1772562113747367400,4.630367431640625,-0.006887200754135847,-0.0012602078495547175,-0.004391552414745092
1772562113757349400,4.640349365234375,-0.005697034299373627,-0.006968693342059851,-0.009798568673431873
1772562113767332400,4.650332275390625,-0.0029443909879773855,-0.00965901929885149,-0.0119706429541111
1772562113777314300,4.660314208984375,-0.008688030764460564,-0.008583367802202702,-0.015543007291853428
1772562113787297300,4.67029736328125,-0.007256581448018551,-0.01471609529107809,-0.019413910806179047
1772562113797279200,4.680279296875,-0.008638761937618256,-0.019706327468156815,-0.02106746844947338
1772562113807262500,4.690262451171875,-0.008159925229847431,-0.010043312795460224,-0.01703570783138275
1772562113817244400,4.700244384765625,-0.010519752278923988,0.0038655782118439674,-0.003952131140977144
1772562113827227400,4.710227294921875,-0.013643108308315277,0.0078059914521873,0.0029145635198801756
1772562113837209300,4.720209228515625,-0.013371998444199562,0.009187106974422932,0.014903848059475422
1772562113847192300,4.7301923828125,-0.009409480728209019,0.013129117898643017,0.025438249111175537
1772562113857174300,4.74017431640625,-0.008245945908129215,0.011741877533495426,0.02959837205708027
1772562113867157200,4.7501572265625,-0.006201436743140221,0.0025933862198144197,0.028484106063842773
1772562113877139500,4.760139404296875,-0.006481601390987635,0.006084790453314781,0.024164192378520966
1772562113887121400,4.770121337890625,-0.008144745603203773,0.008825182914733887,0.024651017040014267
1772562113897104400,4.7801044921875,-0.007922904565930367,0.009928531013429165,0.012326973490417004
1772562113907086300,4.79008642578125,-0.004306597635149956,0.011412976309657097,0.01016688346862793
1772562113917069300,4.8000693359375,-0.0051593417301774025,0.0012458267156034708,0.005429386626929045
1772562113927051300,4.81005126953125,-0.002389388158917427,-0.008203867822885513,0.0013217268278822303
1772562113937034500,4.820034423828125,0.0010703244479373097,-0.013034042902290821,0.0014500912511721253
1772562113947016200,4.83001611328125,0.00038242992013692856,-0.008114651776850224,-0.0011102718999609351
1772562113956999400,4.83999951171875,0.00007323692989302799,-0.002374474424868822,-0.007765777874737978
1772562113966981400,4.8499814453125,-0.0029140308033674955,0.011068097315728664,-0.008826781064271927
1772562113976964400,4.85996435546875,-0.0054576159454882145,0.018443722277879715,-0.009576194919645786
1772562113986946300,4.8699462890625,-0.003746002446860075,0.009400691837072372,-0.011316836811602116
1772562113996929300,4.87992919921875,-0.003870371961966157,-0.0038695731200277805,-0.010040383785963058
1772562114006911200,4.8899111328125,-0.0032205607276409864,-0.01890231855213642,-0.012742958962917328
1772562114016893400,4.8998935546875,-0.0004849616379942745,-0.027643345296382904,-0.020055200904607773
1772562114026876200,4.909876220703125,0.0009398295660503209,-0.023491211235523224,-0.02239239029586315
1772562114036858400,4.9198583984375,-0.0008990831556729972,-0.01864718832075596,-0.02245284430682659
1772562114046841300,4.92984130859375,-0.0005424859118647873,-0.008551943115890026,-0.02310611866414547
1772562114056823300,4.9398232421875,-0.007533017545938492,0.0059809270314872265,-0.016529176384210587
1772562114066806300,4.94980615234375,-0.013527260161936283,0.016503343358635902,-0.014446849934756756
1772562114076788500,4.95978857421875,-0.015835154801607132,0.01848127320408821,-0.014194648712873459
1772562114086771200,4.969771240234375,-0.0192533228546381,0.016947291791439056,-0.013964551500976086
1772562114096753400,4.97975341796875,-0.015530223958194256,0.011147726327180862,-0.013824469409883022
1772562114106736400,4.989736328125,-0.01143002137541771,0.00869016069918871,-0.007449660450220108
1772562114116718300,4.99971826171875,-0.010132528841495514,0.005542038008570671,-0.009591640904545784
1772562114126701300,5.009701416015625,-0.007333546411246061,0.010456369258463383,-0.0058094197884202
1772562114136683300,5.019683349609375,-0.00980416126549244,0.019759323447942734,-0.0014261227333918214
1772562114146666200,5.029666259765625,-0.00942253042012453,0.015244732610881329,-0.002360093407332897
1772562114156648400,5.0396484375,-0.010774084366858006,0.010029198601841927,-0.009875800460577011
1772562114166630100,5.049630126953125,-0.007953530177474022,0.00446878420189023,-0.012089153751730919
1772562114176613400,5.05961328125,-0.004461860284209251,0.003965180367231369,-0.010223343037068844
1772562114186595300,5.06959521484375,-0.0006988134700804949,0.002544117858633399,-0.004355333745479584
1772562114196578300,5.079578369140625,-0.000022370553779182956,-0.003085538512095809,0.0009036105475388467
1772562114206560300,5.089560302734375,0.005361742340028286,-0.012104067020118237,0.002210689941421151
1772562114216543500,5.09954345703125,0.00774820102378726,-0.014359498396515846,0.00037630466977134347
1772562114226525200,5.109525146484375,0.010374343954026699,-0.018369153141975403,0.0020602215081453323
1772562114236508400,5.11950830078125,0.00621208967640996,-0.016620522364974022,-0.002083390951156616
1772562114246490400,5.129490478515625,0.008027300238609314,-0.013193033635616302,0.00159470085054636
1772562114256473300,5.139473388671875,0.002555303042754531,-0.0021997711155563593,0.004803809802979231
1772562114266455300,5.149455322265625,-0.002977414056658745,0.006141249556094408,0.014524880796670914
1772562114276438300,5.159438232421875,-0.0012042814632877707,0.01938088797032833,0.0271914079785347
1772562114286420200,5.169420166015625,-0.003943342715501785,0.026382071897387505,0.03356275334954262
1772562114296403500,5.179403564453125,-0.0012551478575915098,0.025296835228800774,0.04417651519179344
1772562114306385200,5.18938525390625,-0.005935387220233679,0.02376312017440796,0.04774089157581329
1772562114316367400,5.199367431640625,-0.008355135098099709,0.017416007816791534,0.04647349193692207
1772562114326350300,5.209350341796875,-0.0041406829841434956,0.0009350358741357923,0.0426180325448513
1772562114336332300,5.219332275390625,-0.008976982906460762,-0.00046312372433021665,0.02448803186416626
1772562114346315300,5.229315185546875,-0.013520868495106697,0.0031406658235937357,0.011995144188404083
1772562114356297200,5.239297119140625,-0.015088139101862907,0.000720118754543364,-0.004539357963949442
1772562114366280200,5.2492802734375,-0.016811471432447433,-0.006749781779944897,-0.01571211777627468
1772562114376262400,5.259262451171875,-0.02056919038295746,-0.010252637788653374,-0.022343123331665993
1772562114386245400,5.269245361328125,-0.02015160769224167,-0.0041465419344604015,-0.023124493658542633
1772562114396227300,5.279227294921875,-0.013813816010951996,0.003870638320222497,-0.021220866590738297
1772562114406210300,5.289210205078125,-0.006177468225359917,0.007455785758793354,-0.015051387250423431
1772562114416192300,5.299192138671875,-0.001008805469609797,0.004022172186523676,-0.00555269094184041
1772562114426175200,5.30917529296875,0.0026519757229834795,-0.0008082693675532937,-0.0008444883860647678
1772562114436157200,5.3191572265625,-0.002144643571227789,-0.010063819587230682,0.005901564843952656
1772562114446140400,5.329140380859375,-0.0027201527263969183,-0.012447615154087543,0.0021134845446795225
1772562114456122400,5.339122314453125,-0.003820570884272456,-0.013762949965894222,-0.0016048208344727755
1772562114466104300,5.349104248046875,-0.006537261418998241,-0.015799736604094505,-0.011111240833997726
1772562114476087300,5.35908740234375,-0.005548962391912937,-0.009848369285464287,-0.014960573986172676
1772562114486069200,5.3690693359375,0.003950266633182764,-0.012323245406150818,-0.011559983715415001
1772562114496052200,5.37905224609375,0.006409695837646723,-0.01811215840280056,-0.01101536676287651
1772562114506034400,5.389034423828125,0.009255017153918743,-0.022654712200164795,-0.001466602785512805
1772562114516017400,5.399017333984375,0.013286244124174118,-0.027873177081346512,0.003322825999930501
1772562114525999400,5.408999267578125,0.01263989508152008,-0.033779799938201904,0.006166283041238785
1772562114535982300,5.418982421875,0.013866547495126724,-0.03092808835208416,0.008836634457111359
1772562114545964300,5.42896435546875,0.01113334484398365,-0.0287040825933218,0.007641940843313932
1772562114555947300,5.438947265625,0.012330169789493084,-0.023866983130574226,0.013677729293704033
1772562114565929500,5.448929443359375,0.015780294314026833,-0.01071096770465374,0.022290658205747604
1772562114575912200,5.458912109375,0.01338984165340662,0.0003866909828502685,0.03479686379432678
1772562114585894400,5.468894287109375,0.01458826381713152,0.009731989353895187,0.044369861483573914
1772562114595877400,5.47887744140625,0.01824025623500347,0.012485697865486145,0.050809916108846664
1772562114605859300,5.488859375,0.02075241692364216,0.008701878599822521,0.04960031062364578
1772562114615841300,5.49884130859375,0.020314859226346016,-0.0036735644098371267,0.04343802109360695
1772562114625824300,5.50882421875,0.01695954240858555,-0.014230068773031235,0.035468779504299164
1772562114635806200,5.51880615234375,0.014673484489321709,-0.028960278257727623,0.01864718832075596
1772562114645789400,5.52878955078125,0.01781921088695526,-0.03051290102303028,0.005409945268183947
1772562114655771100,5.538771240234375,0.020481307059526443,-0.022951388731598854,-0.0001661812566453591
1772562114665754400,5.54875439453125,0.01756567694246769,-0.01798326149582863,-0.003546531544998288
1772562114675736300,5.558736328125,0.009132245555520058,-0.008637430146336555,-0.008101335726678371
1772562114685719300,5.56871923828125,0.007012369576841593,0.0037465349305421114,-0.0018333201296627522
1772562114695701200,5.578701171875,0.003194994293153286,0.006443518213927746,-0.0036719664931297302
1772562114705684500,5.5886845703125,0.0070459251292049885,0.0025840650778263807,-0.0010775149567052722
1772562114715666200,5.598666259765625,0.013002883642911911,-0.004634432960301638,0.005628324579447508
1772562114725649400,5.6086494140625,0.015307583846151829,-0.014119813218712807,0.014073207974433899
1772562114735631000,5.618631103515625,0.009505354799330235,-0.027782628312706947,0.011157579720020294
1772562114745613800,5.62861376953125,0.007219563238322735,-0.026132801547646523,0.00041332258842885494
1772562114755596500,5.638596435546875,0.006853645201772451,-0.013689713552594185,-0.002965962514281273
1772562114765578800,5.648578857421875,0.001648496720008552,-0.009753827005624771,-0.01347772590816021
1772562114775561700,5.658561767578125,-0.004177967086434364,-0.0037348170299082994,-0.01661279797554016
1772562114785543700,5.668543701171875,-0.0027204190846532583,0.0037862160243093967,-0.016686035320162773
1772562114795526700,5.678526611328125,0.0011259844759479165,0.001871136948466301,-0.007420365698635578
1772562114805508600,5.688508544921875,-0.002767290687188506,-0.01187982875853777,-0.008074438199400902
1772562114815491600,5.69849169921875,-0.003546797903254628,-0.023792147636413574,-0.01062414888292551
1772562114825473800,5.708473876953125,-0.00133903743699193,-0.027999144047498703,-0.01272937748581171
1772562114835456500,5.71845654296875,-0.00029401297797448933,-0.027172498404979706,-0.01546550914645195
1772562114845438700,5.728438720703125,-0.002922286745160818,-0.024323448538780212,-0.01781654730439186
1772562114855421700,5.738421630859375,-0.0046570696868002415,-0.017364876344799995,-0.01176078524440527
1772562114865403600,5.748403564453125,-0.00669252360239625,-0.006536995060741901,-0.008329036645591259
1772562114875386600,5.75838671875,-0.006570284720510244,-0.00395772373303771,-0.0063031697645783424
1772562114885368600,5.76836865234375,-0.0033776871860027313,-0.0005691175465472043,0.0002868224401026964
1772562114895350800,5.778350830078125,-0.002263953210785985,-0.00788269005715847,-0.0016250609187409282
1772562114905333800,5.788333740234375,-0.0006958839949220419,-0.012414591386914253,-0.0031241541728377342
1772562114915315700,5.798315673828125,0.005394499283283949,-0.015273761004209518,-0.008593488484621048
1772562114925298700,5.808298583984375,0.008507467806339264,-0.013130183331668377,-0.009639844298362732
1772562114935281000,5.818281005859375,0.012974121607840061,-0.018025871366262436,-0.009677127934992313
1772562114945263600,5.828263671875,0.011089668609201908,-0.03548156097531319,-0.00948165263980627
1772562114955245800,5.838245849609375,0.014134461060166359,-0.04304707050323486,-0.0070216902531683445
1772562114965228800,5.848228759765625,0.018068749457597733,-0.039862461388111115,-0.006428071763366461
1772562114975210800,5.858210693359375,0.0150402020663023,-0.03825684264302254,-0.006786266807466745
1772562114985193700,5.86819384765625,0.01064864918589592,-0.030668962746858597,-0.008158859796822071
1772562114995175700,5.87817578125,0.014942198060452938,-0.008795621804893017,0.0002993392990902066
1772562115005158700,5.88815869140625,0.017475396394729614,0.013000753708183765,0.011438809335231781
1772562115015140900,5.898140869140625,0.017963821068406105,0.017364343628287315,0.02010686695575714
1772562115025123600,5.90812353515625,0.019267437979578972,0.007249657064676285,0.02550855651497841
1772562115035105800,5.918105712890625,0.021461082622408867,0.0011299792677164078,0.03128708153963089
1772562115045087700,5.928087646484375,0.016931844875216484,-0.010573814623057842,0.023963123559951782
1772562115055070700,5.93807080078125,0.011361311189830303,-0.022668294608592987,0.007336742244660854
1772562115065052700,5.948052734375,0.009059807285666466,-0.024778850376605988,-0.009881126694381237
1772562115075036000,5.958035888671875,0.0062453788705170155,-0.02075055241584778,-0.027589816600084305
1772562115085017600,5.968017578125,0.0018359832465648651,-0.033372603356838226,-0.04152240976691246
1772562115095000800,5.978000732421875,0.000180029688635841,-0.03250228241086006,-0.04838937148451805
1772562115104982500,5.987982421875,0.005602758377790451,-0.025550633668899536,-0.03870078921318054
1772562115114965800,5.9979658203125,0.004530036821961403,-0.02677728608250618,-0.03245461359620094
1772562115124947700,6.00794775390625,0.0029372002463787794,-0.029740851372480392,-0.020245617255568504
1772562115134930700,6.0179306640625,0.004847751930356026,-0.02207414247095585,-0.011064369231462479
1772562115144912600,6.02791259765625,0.0037465349305421114,-0.00609357887879014,0.0002247707889182493
1772562115154896000,6.037895751953125,0.0013765880139544606,0.003373426152393222,0.010031861253082752
1772562115164877600,6.047877685546875,-0.0008625978953205049,0.011982360854744911,0.01932043395936489
1772562115174860800,6.05786083984375,-0.00036272252327762544,0.011008176021277905,0.029414081946015358
1772562115184842500,6.067842529296875,0.000687361869495362,0.003665574826300144,0.03767148032784462
1772562115194824700,6.07782470703125,-0.004971322603523731,-0.005608084611594677,0.040293626487255096
1772562115204807700,6.0878076171875,-0.005537244491279125,-0.004442951641976833,0.033065542578697205
1772562115214789600,6.09778955078125,-0.006600644905120134,-0.00026045716367661953,0.03074592910706997
1772562115224772600,6.107772705078125,-0.009018528275191784,-0.0019297265680506825,0.023627297952771187
1772562115234754800,6.1177548828125,-0.008459264412522316,-0.007589210290461779,0.01315202098339796
1772562115244737500,6.127737548828125,-0.005588643718510866,-0.01504313200712204,0.0038919434882700443
1772562115254719700,6.1377197265625,-0.003486876841634512,-0.02557007409632206,-0.006765494588762522
1772562115264702700,6.14770263671875,-0.004269846249371767,-0.033601369708776474,-0.0145299406722188
1772562115274684700,6.1576845703125,-0.0038274950347840786,-0.033125463873147964,-0.017423996701836586
1772562115284667600,6.167667724609375,-0.004638161510229111,-0.02480095438659191,-0.015510249882936478
1772562115294649600,6.177649658203125,-0.006366552785038948,-0.020016584545373917,-0.017437046393752098
1772562115304632600,6.187632568359375,-0.008164453320205212,-0.022415559738874435,-0.016531305387616158
1772562115314614800,6.19761474609375,-0.0052964948117733,-0.024893099442124367,-0.020796624943614006
1772562115324597500,6.207597412109375,-0.0028099012561142445,-0.02527659386396408,-0.02859009988605976
1772562115334579700,6.217579833984375,-0.005042961798608303,-0.027722707018256187,-0.03146285191178322
1772562115344561700,6.227561767578125,-0.004187820944935083,-0.021526597440242767,-0.02762390486896038
1772562115354544600,6.237544677734375,-0.0035475967451930046,-0.014929947443306446,-0.023022761568427086
1772562115364526800,6.24752685546875,-0.005361209623515606,-0.016886305063962936,-0.013517406769096851
1772562115374509800,6.257509765625,-0.00264851376414299,-0.021828066557645798,-0.006499977316707373
1772562115384491800,6.26749169921875,-0.001321194227784872,-0.01919420063495636,-0.0017326525412499905
1772562115394474800,6.277474853515625,-0.0031971249263733625,-0.013954431749880314,0.0023379891645163298
1772562115404456700,6.287456787109375,-0.00042104575550183654,0.00019574233738239855,0.002192314248532057
1772562115414439700,6.297439697265625,-0.002639458980411291,-0.00013395700079854578,0.009222260676324368
1772562115424422000,6.307421875,0.0006348976166918874,-0.0005973470397293568,0.013110209256410599
1772562115434404600,6.317404541015625,0.004899151157587767,-0.009445167146623135,0.01727060042321682
1772562115444386800,6.32738671875,0.005693305749446154,-0.01822773925960064,0.01799764297902584
1772562115454369800,6.337369873046875,0.0060179452411830425,-0.018812570720911026,0.009943710640072823
1772562115464351700,6.347351806640625,0.004290885291993618,-0.011471832171082497,-0.0009544769418425858
1772562115474333700,6.357333740234375,0.000336090917699039,-0.004125502891838551,-0.012005796656012535
1772562115484316700,6.367316650390625,-0.004537493921816349,0.0020879183430224657,-0.022470688447356224
1772562115494298600,6.377298583984375,-0.00555056007578969,-0.0030149647500365973,-0.03496890142560005
1772562115504281900,6.38728173828125,-0.008637962862849236,-0.006792126223444939,-0.038534075021743774
1772562115514263600,6.397263671875,-0.012249741703271866,-0.006095176562666893,-0.042380478233098984
1772562115524246800,6.407246826171875,-0.01459039468318224,-0.009701895527541637,-0.04559944197535515
1772562115534228700,6.417228759765625,-0.012201006524264812,-0.011088870465755463,-0.03959374874830246
1772562115544211700,6.427211669921875,-0.01037620846182108,-0.005804625805467367,-0.03570207208395004
1772562115554193700,6.437193603515625,-0.010338124819099903,-0.005710882600396872,-0.0256291963160038
1772562115564177000,6.447177001953125,-0.013254020363092422,-0.008311459794640541,-0.02100009098649025
1772562115574158600,6.45715869140625,-0.016099341213703156,-0.008594819344580173,-0.015175756998360157
1772562115584141800,6.467141845703125,-0.015576030127704144,-0.007478156127035618,-0.015601064078509808
1772562115594123500,6.47712353515625,-0.015422898344695568,-0.013005813583731651,-0.020987840369343758
1772562115604106800,6.487106689453125,-0.01569640450179577,-0.013923538848757744,-0.02732882648706436
1772562115614088700,6.497088623046875,-0.01116237323731184,-0.009765013121068478,-0.031247667968273163
1772562115624070700,6.507070556640625,-0.010242783464491367,-0.005245095584541559,-0.035902075469493866
1772562115634053600,6.5170537109375,-0.011957593262195587,-0.0052261874079704285,-0.03399951383471489
1772562115644035600,6.52703564453125,-0.008588427677750587,-0.010003365576267242,-0.02797011472284794
1772562115654018600,6.5370185546875,-0.005588909611105919,-0.015442073345184326,-0.020412597805261612
1772562115664000800,6.547000732421875,-0.0032256206031888723,-0.02273833565413952,-0.015191469341516495
1772562115673983700,6.556983642578125,-0.004286624025553465,-0.025901371613144875,-0.011966381222009659
1772562115683965700,6.566965576171875,-0.0030485205352306366,-0.01822853833436966,-0.010188987478613853
1772562115693948700,6.57694873046875,-0.002924150787293911,-0.00929310079663992,-0.005617405753582716
1772562115703930600,6.5869306640625,-0.0057652113027870655,0.0005105279851704836,-0.0023276028223335743
1772562115713913600,6.59691357421875,-0.007993744686245918,0.01776035502552986,0.0036663739010691643
1772562115723895800,6.606895751953125,-0.006216616835445166,0.021832061931490898,0.012605007737874985
1772562115733878500,6.61687841796875,-0.005074386950582266,0.016817329451441765,0.01338478084653616
1772562115743860700,6.62686083984375,-0.0012482235906645656,0.011876633390784264,0.009386044926941395
1772562115753842400,6.636842529296875,0.000824248360004276,-0.0019110844004899263,-0.0019236012594774365
1772562115763825400,6.646825439453125,0.0014642059104517102,-0.010261958464980125,-0.015860188752412796
1772562115773807400,6.656807373046875,0.0018687400734052062,-0.02239345572888851,-0.03436622768640518
1772562115783790300,6.666790283203125,-0.0012426309986039996,-0.023902935907244682,-0.03855591267347336
1772562115793772300,6.676772216796875,-0.0026935210917145014,-0.02568778581917286,-0.03880545124411583
1772562115803755300,6.68675537109375,-0.005774531979113817,-0.019055716693401337,-0.03521977365016937
1772562115813737500,6.696737548828125,-0.0068022459745407104,-0.00688986387103796,-0.01955452561378479
1772562115823720200,6.70672021484375,-0.006794789340347052,0.0006050702068023384,-0.007537811063230038
1772562115833702400,6.716702392578125,-0.006456035189330578,-0.0002170476218452677,0.00037257623625919223
1772562115843685400,6.726685302734375,-0.007237140089273453,0.0010785802733153105,0.004569718148559332
1772562115853667300,6.736667236328125,-0.008530104532837868,-0.0002711098059080541,0.0012743226252496243
1772562115863650300,6.746650390625,-0.009154882282018661,-0.006728742737323046,-0.0009145294898189604
1772562115873632500,6.756632568359375,-0.011259046383202076,-0.00039228363311849535,0.00031878036679700017
1772562115883615200,6.766615234375,-0.012031096033751965,0.0000066579027588886674,0.007284810766577721
1772562115893597400,6.776597412109375,-0.01251978613436222,-0.0007286408799700439,0.008378837257623672
1772562115903580400,6.786580322265625,-0.013730992563068867,0.0022114890161901712,0.006413158029317856
1772562115913562400,6.796562255859375,-0.012975719757378101,0.0008484831196255982,0.0015760586829856038
1772562115923544300,6.80654443359375,-0.011490474455058575,-0.00723367789760232,-0.012538162060081959
1772562115933527300,6.81652734375,-0.009153816848993301,-0.006347378250211477,-0.022846726700663567
1772562115943509200,6.82650927734375,-0.008563661016523838,-0.0038839541375637054,-0.023211846128106117
1772562115953492500,6.836492431640625,-0.005373460240662098,-0.007710916455835104,-0.02299133501946926
1772562115963474200,6.84647412109375,-0.00759853096678853,-0.010627876967191696,-0.016816796734929085
1772562115973457400,6.85645751953125,-0.0036479979753494263,-0.009907491505146027,-0.00723527604714036
1772562115983439000,6.866439208984375,0.002153698354959488,-0.009339706040918827,0.008810802362859249
1772562115993422300,6.87642236328125,0.006109291687607765,-0.010876350104808807,0.021824339404702187
1772562116003404300,6.886404296875,0.007553790230304003,-0.005705822724848986,0.03365010395646095
1772562116013387300,6.89638720703125,0.005143629387021065,-0.004834969062358141,0.03731834515929222
1772562116023369200,6.906369140625,0.0024429175537079573,-0.004716724622994661,0.036194488406181335
1772562116033352400,6.9163525390625,-0.0007994809420779347,-0.006971090566366911,0.024409735575318336
1772562116043334100,6.926334228515625,-0.002959837205708027,-0.01474698819220066,0.017436513677239418
1772562116053317400,6.9363173828125,-0.0027055053506046534,-0.021043499931693077,0.00914422981441021
1772562116063299300,6.94629931640625,-0.000570981705095619,-0.024931715801358223,0.002098038326948881
1772562116073281300,6.95628125,0.0004924184759147465,-0.018277540802955627,0.0016908409306779504
1772562116083264300,6.96626416015625,0.004063451196998358,-0.010454504750669003,0.0051742554642260075
1772562116093246200,6.97624609375,0.00049082055920735,-0.0017755294684320688,0.013427125290036201
1772562116103229200,6.986229248046875,-0.0024341291282325983,-0.001312139444053173,0.014815697446465492
1772562116113211400,6.99621142578125,-0.008673915639519691,-0.0022985744290053844,0.017776601016521454
1772562116123194000,7.006194091796875,-0.011741078458726406,-0.006876814644783735,0.011859322898089886
1772562116133176300,7.01617626953125,-0.013377591036260128,-0.00896872766315937,0.006582268979400396
1772562116143159300,7.0261591796875,-0.015986690297722816,-0.0007898935582488775,0.0028005801141262054
1772562116153141200,7.036141357421875,-0.01233496330678463,0.0022069616243243217,-0.0020849888678640127
1772562116163124200,7.046124267578125,-0.013410081155598164,0.0025989788118749857,-0.004584099166095257
1772562116173106400,7.0561064453125,-0.015184279531240463,0.005215268116444349,-0.0034432008396834135
1772562116183089200,7.066089111328125,-0.015499597415328026,0.0013483584625646472,-0.007861385121941566
1772562116193071400,7.0760712890625,-0.020556140691041946,0.002139050979167223,-0.011724832467734814
1772562116203053300,7.08605322265625,-0.018517758697271347,-0.004548146389424801,-0.01840723678469658
1772562116213036300,7.096036376953125,-0.016689764335751534,-0.01128035131841898,-0.02473304234445095
1772562116223018500,7.1060185546875,-0.011989018879830837,-0.01456056721508503,-0.022775087505578995
1772562116233001200,7.116001220703125,-0.011810054071247578,-0.011320831254124641,-0.01955985277891159
1772562116242983400,7.1259833984375,-0.006656837183982134,-0.010244381614029408,-0.010349310003221035
1772562116252966400,7.13596630859375,-0.00202267081476748,-0.0023193468805402517,-0.001181378262117505
1772562116262948400,7.1459482421875,0.0002796319022309035,0.003954794257879257,0.006327404174953699
1772562116272931300,7.155931396484375,-0.0009709885343909264,0.007437942549586296,0.01122335996478796
1772562116282913300,7.165913330078125,-0.0009414274245500565,0.00814794097095728,0.005897836294025183
1772562116292896300,7.175896240234375,-0.0021166803780943155,0.006201969459652901,-0.0014349111588671803
1772562116302878500,7.18587841796875,-0.0032554480712860823,-0.0007094661123119295,-0.00917645450681448
1772562116312861200,7.195861083984375,-0.0009930927772074938,-0.0064773401245474815,-0.020315125584602356
1772562116322843400,7.205843505859375,0.0012002866715192795,-0.015274293720722198,-0.02381771430373192
1772562116332826400,7.215826416015625,0.004905010107904673,-0.021015003323554993,-0.025896046310663223
1772562116342808300,7.225808349609375,0.007062969263643026,-0.02171408385038376,-0.024943433701992035
1772562116352790300,7.235790283203125,0.006554838269948959,-0.011215370148420334,-0.022172147408127785
1772562116362773500,7.2457734375,0.0011984225129708648,-0.002400573343038559,-0.01648949459195137
1772562116372755200,7.255755126953125,0.0011795139871537685,0.015969645231962204,-0.005294364411383867
1772562116382738400,7.265738525390625,-0.0023968450259417295,0.02430613897740841,0.0028003137558698654
1772562116392720100,7.27572021484375,-0.0033372072502970695,0.0225609689950943,0.013230318203568459
1772562116402703400,7.285703369140625,-0.004227235447615385,0.012891563586890697,0.012221512384712696
1772562116412685300,7.295685302734375,-0.0035087147261947393,0.005025917664170265,0.010095510631799698
1772562116422668300,7.305668212890625,-0.0086001455783844,-0.00210629403591156,-0.0012713931500911713
1772562116432650200,7.315650146484375,-0.0115559883415699,-0.016891898587346077,-0.0149800144135952
1772562116442633500,7.325633544921875,-0.012118981219828129,-0.01877475343644619,-0.022476280108094215
1772562116452615200,7.335615234375,-0.01242311391979456,-0.017400560900568962,-0.020896226167678833
1772562116462598400,7.345598388671875,-0.015085475519299507,-0.017243701964616776,-0.017063671723008156
1772562116472580400,7.355580322265625,-0.017016001045703888,-0.012329903431236744,-0.012517922557890415
1772562116482563300,7.365563232421875,-0.014138455502688885,-0.00908324308693409,-0.004008057527244091
1772562116492545300,7.375545166015625,-0.012147476896643639,-0.004040814470499754,0.0007206514128483832
1772562116502527200,7.38552734375,-0.013348029926419258,0.008927448652684689,0.007929561659693718
1772562116512510200,7.39551025390625,-0.01044518407434225,0.01714250072836876,0.02118145115673542
1772562116522492400,7.405492431640625,-0.008962868712842464,0.016467923298478127,0.027700070291757584
1772562116532475100,7.41547509765625,-0.006806507240980864,0.007631554268300533,0.026941603049635887
1772562116542457300,7.425457275390625,0.0026644926983863115,-0.003465305082499981,0.024645425379276276
1772562116552440300,7.4354404296875,0.004683701321482658,-0.017465543001890182,0.01774650625884533
1772562116562422300,7.44542236328125,-0.002150236163288355,-0.022792130708694458,0.00768801337108016
1772562116572405200,7.4554052734375,-0.005515672732144594,-0.02040061354637146,-0.00754899624735117
1772562116582387200,7.46538720703125,-0.009178850799798965,-0.0075788237154483795,-0.010901915840804577
1772562116592370200,7.4753701171875,-0.01570199802517891,0.0023523701820522547,-0.010667557828128338
1772562116602352400,7.485352294921875,-0.016055665910243988,0.00893890019506216,-0.007798534352332354
1772562116612335000,7.495335205078125,-0.011421765200793743,0.006740726996213198,-0.0027811392210423946
1772562116622317300,7.5053173828125,-0.006746319588273764,0.0005573995877057314,-0.0006482133758254349
1772562116632299500,7.515299560546875,-0.002766757970675826,-0.005049353465437889,0.002802710747346282
1772562116642282200,7.5252822265625,-0.0018168084789067507,-0.007089600898325443,0.0038693067617714405
1772562116652264400,7.535264404296875,-0.0075966669246554375,-0.009573264978826046,0.008668589405715466
1772562116662247400,7.545247314453125,-0.012967463582754135,-0.004449076950550079,0.01546471007168293
1772562116672229400,7.5552294921875,-0.016752615571022034,0.004040015395730734,0.015659652650356293
1772562116682212400,7.56521240234375,-0.018983012065291405,0.0023579627741128206,0.015380021184682846
1772562116692194300,7.5751943359375,-0.019818712025880814,0.003481284249573946,0.013563745655119419
1772562116702177300,7.58517724609375,-0.0152561841532588,0.0012175972806289792,0.010144779458642006
1772562116712159500,7.595159423828125,-0.012313657440245152,-0.0006769755273126066,0.007539409212768078
1772562116722142200,7.60514208984375,-0.013215404003858566,0.0020040287636220455,0.009869941510260105
1772562116732124400,7.61512451171875,-0.018135594204068184,-0.004595284350216389,0.008656072430312634
1772562116742107400,7.625107421875,-0.019541477784514427,-0.010041449218988419,0.0019094864837825298
1772562116752089000,7.635089111328125,-0.017471667379140854,-0.01215972751379013,-0.003245328087359667
1772562116762072000,7.645072021484375,-0.020170249044895172,-0.012566391378641129,-0.0073380740359425545
1772562116772054300,7.65505419921875,-0.020058929920196533,-0.007793474476784468,-0.0075876121409237385
1772562116782036000,7.665035888671875,-0.015686018392443657,-0.004058391321450472,-0.00321949552744627
1772562116792019200,7.675019287109375,-0.014711568132042885,-0.006695186719298363,-0.0041731735691428185
1772562116802001000,7.6850009765625,-0.01037540938705206,-0.006232596002519131,0.00433109886944294
1772562116811984100,7.694984130859375,-0.00595562718808651,-0.0033776871860027313,0.011173025704920292
1772562116821966000,7.704966064453125,-0.006836334243416786,-0.0013195963110774755,0.016335830092430115
1772562116831949000,7.714948974609375,-0.011994078755378723,-0.0019353191601112485,0.014538462273776531
1772562116841931000,7.724930908203125,-0.010222810320556164,-0.008177235722541809,0.008196410723030567
1772562116851914200,7.734914306640625,-0.010086722671985626,-0.008168714120984077,-0.0003043993201572448
1772562116861896000,7.74489599609375,-0.013202620670199394,-0.007640076335519552,-0.007473895326256752
1772562116871879200,7.754879150390625,-0.010958109050989151,-0.0057553574442863464,-0.01660214550793171
1772562116881861000,7.764861083984375,-0.006463491823524237,-0.0032296155113726854,-0.01799577847123146
1772562116891844000,7.774843994140625,-0.0043926178477704525,-0.007326888851821423,-0.01949114352464676
1772562116901826000,7.784825927734375,-0.0011430287268012762,-0.003952131140977144,-0.00971601065248251
1772562116911809300,7.794809326171875,0.0018943065078929067,-0.0054850466549396515,0.00042770366417244077
1772562116921791000,7.804791015625,0.0027806065045297146,-0.009560748003423214,0.005485845264047384
1772562116931773200,7.814773193359375,0.005869873333722353,-0.012042282149195671,0.00983585324138403
1772562116941756000,7.824755859375,0.00552126532420516,-0.017139306291937828,0.012130964547395706
1772562116951738000,7.834738037109375,0.007273092865943909,-0.018725484609603882,0.007277087774127722
1772562116961721000,7.84472119140625,0.009766610339283943,-0.011211642064154148,0.009441704489290714
1772562116971703000,7.854703125,0.014621553011238575,0.001419198582880199,0.0076238312758505344
1772562116981686000,7.86468603515625,0.017478059977293015,0.012691826559603214,0.012541624717414379
1772562116991668200,7.874668212890625,0.0166143961250782,0.02016199380159378,0.020626181736588478
1772562117001651000,7.88465087890625,0.015808258205652237,0.022645924240350723,0.018546519801020622
1772562117011633200,7.894633056640625,0.014188523404300213,0.021648837253451347,0.022774821147322655
1772562117021616000,7.9046162109375,0.015299327671527863,0.019518041983246803,0.023314377292990685
1772562117031598000,7.91459814453125,0.011925634928047657,0.013042032718658447,0.021887455135583878
1772562117041581000,7.9245810546875,0.013084376230835915,0.001657285145483911,0.02039874903857708
1772562117051563000,7.93456298828125,0.01649375632405281,0.0007898935582488775,0.024633973836898804
1772562117061546000,7.9445458984375,0.014534201472997665,0.00558092026039958,0.027151193469762802
1772562117071528200,7.954528076171875,0.012093947269022465,0.003837615018710494,0.02177400514483452
1772562117081510100,7.96451025390625,0.009999903850257397,-0.001234641415067017,0.009256082586944103
1772562117091493000,7.9744931640625,0.013036173768341541,-0.005149754695594311,0.0015254586469382048
1772562117101475000,7.98447509765625,0.008620119653642178,-0.003925233148038387,-0.0011369034182280302
1772562117111458000,7.9944580078125,0.000434361572843045,-0.0034908715169876814,-0.004559864290058613
1772562117121440300,8.004440185546875,-0.0037081853952258825,-0.006896788254380226,-0.01092508528381586
1772562117131423000,8.014423095703124,-0.005016063805669546,0.0006407565670087934,-0.008069378323853016
1772562117141405200,8.0244052734375,-0.006631537340581417,0.003912449814379215,-0.0032463932875543833
1772562117151388200,8.03438818359375,-0.009584450162947178,0.00013795174891129136,0.0026346652302891016
1772562117161370000,8.0443701171875,-0.01053306832909584,0.00012889699428342283,0.0049521480686962605
1772562117171353000,8.05435302734375,-0.00941906776279211,-0.0013821806060150266,0.0067785438150167465
1772562117181335300,8.064335205078125,-0.009168997406959534,0.003439738880842924,0.005471197888255119
1772562117191318000,8.074318115234375,-0.008355667814612389,0.002240251051262021,-0.003641340183094144
1772562117201300200,8.08430029296875,-0.011110974475741386,0.0017606157343834639,-0.003382747294381261
1772562117211282000,8.094281982421874,-0.01104253064841032,0.0003448793722782284,-0.012199142016470432
1772562117221265200,8.10426513671875,-0.013084376230835915,-0.0008892294717952609,-0.014798386953771114
1772562117231247000,8.1142470703125,-0.00788588635623455,-0.004971588961780071,-0.018859175965189934
1772562117241230000,8.12422998046875,-0.004008323885500431,-0.010245447047054768,-0.014231134206056595
1772562117251212000,8.1342119140625,-0.004298874642699957,-0.012888900935649872,-0.012854013592004776
1772562117261195300,8.1441953125,-0.00526773277670145,-0.00589757040143013,-0.002177134156227112
1772562117271177000,8.154177001953125,-0.0022098910994827747,0.006673881784081459,0.007249923422932625
1772562117281160200,8.16416015625,-0.00603392394259572,0.01943787932395935,0.017243169248104095
1772562117291142100,8.17414208984375,-0.002005626680329442,0.021408086642622948,0.01938355155289173
1772562117301125000,8.184125,0.00018642126815393567,0.016161393374204636,0.02454528957605362
1772562117311107000,8.194107177734375,0.008282165043056011,0.011328821070492268,0.02706810273230076
1772562117321090300,8.20409033203125,0.013642309233546257,0.0011867046123370528,0.032228242605924606
1772562117331072000,8.214072021484375,0.01890631392598152,-0.00009960222087102011,0.03875352069735527
1772562117341055200,8.22405517578125,0.017231717705726624,-0.00256462418474257,0.03581206128001213
1772562117351037000,8.234036865234375,0.01696992851793766,-0.005347893573343754,0.027177026495337486
1772562117361020200,8.244020263671874,0.015720373019576073,-0.0111059146001935,0.021921277046203613
1772562117371002000,8.254002197265624,0.010273676365613937,-0.01762852817773819,0.015737151727080345
1772562117380984000,8.263984130859376,0.008900550194084644,-0.019089538604021072,0.01287771575152874
1772562117390967000,8.273967041015625,0.009853961877524853,-0.012169314548373222,0.013255617581307888
1772562117400949000,8.283948974609375,0.0090568782761693,-0.008646751753985882,0.013568006455898285
1772562117410932000,8.293931884765625,0.007271495182067156,0.0028999161440879107,0.017672736197710037
1772562117420914200,8.3039140625,0.003209908027201891,0.013086773455142975,0.01727459393441677
1772562117430897000,8.31389697265625,0.0024471788201481104,0.010641193017363548,0.017725734040141106
1772562117440879000,8.323879150390624,-0.0007643272401764989,0.008292817510664463,0.01690814271569252
1772562117450862000,8.333862060546876,-0.002531334524974227,0.007220362313091755,0.016948623582720757
1772562117460844000,8.343843994140625,-0.0035569178871810436,0.004491953644901514,0.016166185960173607
1772562117470827000,8.353826904296875,-0.005727660376578569,0.004603540059179068,0.011197793297469616
1772562117480809200,8.363809326171875,-0.009910155087709427,-0.002642388455569744,-0.0019387812353670597
1772562117490792000,8.3737919921875,-0.009817210957407951,-0.0021845910232514143,-0.01104332972317934
1772562117500774100,8.383774169921875,-0.00923104863613844,-0.0011486213188618422,-0.020248280838131905
1772562117510756000,8.393756103515624,-0.01088833436369896,-0.0005776396137662232,-0.022549517452716827
1772562117520739000,8.403739013671874,-0.011648932471871376,-0.002186455298215151,-0.02954138070344925
1772562117530721300,8.41372119140625,-0.015116901136934757,-0.004490089602768421,-0.02961301989853382
1772562117540704000,8.4237041015625,-0.018456505611538887,0.002010420197620988,-0.02906547300517559
1772562117550686200,8.433686279296875,-0.0238824300467968,0.0070946612395346165,-0.024058731272816658
1772562117560669200,8.443669189453125,-0.021325262263417244,0.008236890658736229,-0.013710485771298409
1772562117570651100,8.453651123046875,-0.024694427847862244,0.014458834193646908,-0.0030245520174503326
1772562117580634000,8.463634033203125,-0.018137725070118904,0.021407553926110268,0.007005977910012007
1772562117590616300,8.4736162109375,-0.018005631864070892,0.018447451293468475,0.014812235720455647
1772562117600599000,8.48359912109375,-0.015513179823756218,0.016947824507951736,0.024864336475729942
1772562117610581200,8.493581298828126,-0.013848970644176006,0.009197759442031384,0.03188842535018921
1772562117620564200,8.503564208984375,-0.015545137226581573,0.002621882129460573,0.026202043518424034
1772562117630546200,8.513546142578125,-0.00894129741936922,0.014065751805901527,0.02365765906870365
1772562117640529200,8.523529052734375,-0.00951014831662178,0.033782731741666794,0.018081532791256905
1772562117650511000,8.533510986328125,-0.014582671225070953,0.034449853003025055,0.016474047675728798
1772562117660493000,8.5434931640625,-0.015220231376588345,0.03026789054274559,0.022190788760781288
1772562117670476300,8.553476318359374,-0.014405038207769394,0.022897059097886086,0.02791738510131836
1772562117680458000,8.5634580078125,-0.012879579328000546,0.019268769770860672,0.03663897141814232
1772562117690441200,8.573441162109376,-0.004201935604214668,0.015222894959151745,0.04658188298344612
1772562117700423000,8.5834228515625,0.002621349412947893,0.022012092173099518,0.04849056899547577
1772562117710406100,8.59340625,0.004920190200209618,0.016765663400292397,0.04283801093697548
1772562117720388000,8.60338818359375,0.00771784083917737,0.014268950559198856,0.026567962020635605
1772562117730372000,8.6133720703125,0.00902731716632843,0.010335994884371758,0.01733904331922531
1772562117740354000,8.62335400390625,0.008767658844590187,0.008164453320205212,0.010153301991522312
1772562117750336300,8.633336181640624,0.0037582528311759233,-0.0018106831703335047,0.004322576802223921
1772562117760319000,8.643319091796876,-0.0013068130938336253,0.010334396734833717,0.005287440028041601
1772562117770301200,8.65330126953125,-0.010057427920401096,0.013404754921793938,0.0027079021092504263
1772562117780284200,8.6632841796875,-0.009426791220903397,0.0020580908749252558,-0.00446825148537755
1772562117790266000,8.67326611328125,-0.007732488214969635,0.001812014845199883,-0.00498197553679347
1772562117800249000,8.6832490234375,-0.0062855929136276245,0.007881625555455685,0.005708485841751099
1772562117810231000,8.69323095703125,-0.009690177626907825,0.012081430293619633,0.01882801577448845
1772562117820214000,8.703214111328125,-0.012052401900291443,0.015732357278466225,0.02556501515209675
1772562117830196200,8.7131962890625,-0.007978564128279686,0.024959411472082138,0.03538675233721733
1772562117840179000,8.723178955078126,-0.0037230991292744875,0.022477079182863235,0.03891224414110184
1772562117850161200,8.7331611328125,0.0010743191232904792,0.01823998987674713,0.03779664635658264
1772562117860144000,8.74314404296875,-0.005920473486185074,0.013888118788599968,0.031316112726926804
1772562117870126000,8.7531259765625,-0.008472580462694168,0.008018511347472668,0.01673264056444168
1772562117880109000,8.763109130859375,-0.005757754202932119,-0.00044794369023293257,-0.0030240193009376526
1772562117890091300,8.77309130859375,-0.0021020330023020506,-0.0011403656098991632,-0.024928253144025803
1772562117900073000,8.783072998046874,0.002145442645996809,-0.009486179798841476,-0.04572780802845955
1772562117910056200,8.79305615234375,0.007392668630927801,-0.019414443522691727,-0.05193936452269554
1772562117920038000,8.803037841796876,0.011859056539833546,-0.017191769555211067,-0.04790281131863594
1772562117930021000,8.813021240234375,0.010033725760877132,-0.008171643130481243,-0.028869731351733208
1772562117940003000,8.823003173828125,0.003614175831899047,0.006307963281869888,-0.014416489750146866
1772562117949986000,8.832986083984375,-0.0012303803814575076,0.014207432046532631,0.0014093448407948017
1772562117959968000,8.842968017578125,-0.0011286477092653513,0.0213050227612257,0.013075854629278183
1772562117969951200,8.852951171875,-0.00427144393324852,0.015393070876598358,0.02201954834163189
1772562117979933000,8.862932861328124,-0.002042910782620311,0.005573463626205921,0.02233007363975048
1772562117989916200,8.872916259765624,-0.005615541245788336,-0.003153448924422264,0.019819777458906174
1772562117999897900,8.88289794921875,-0.007241934072226286,-0.012229502201080322,0.008957009762525558
1772562118009881000,8.892881103515625,-0.007860319688916206,-0.011891813017427921,0.0010777813149616122
1772562118019863000,8.902863037109375,-0.009227853268384933,-0.0016591493040323257,-0.0019489012192934752
1772562118029846000,8.912845947265625,-0.009697634726762772,0.0005491438205353916,-0.0007512777228839695
1772562118039828000,8.922827880859375,-0.004136155359447002,0.005784385837614536,0.0013483584625646472
1772562118049810200,8.93281005859375,-0.007516505662351847,0.006867493502795696,0.006370014976710081
1772562118059793000,8.94279296875,-0.00723607512190938,0.007011037785559893,0.007525294087827206
1772562118069775000,8.952775146484376,-0.006684001535177231,0.005968144163489342,0.01233469694852829
1772562118079758000,8.962758056640626,-0.009037436917424202,0.007127684075385332,0.01350462343543768
1772562118089740000,8.972739990234375,-0.0049004824832081795,0.0030208237003535032,0.01064971461892128
1772562118099723000,8.982722900390625,0.0005214469274505973,-0.0070467242039740086,0.008195078931748867
1772562118109705000,8.992705078125,0.006658968050032854,-0.008478705771267414,0.008658736012876034
1772562118119688000,9.00268798828125,0.0084877610206604,-0.011839348822832108,0.00999218039214611
1772562118129670100,9.012670166015624,0.007794539909809828,-0.009725331328809261,0.00800386443734169
1772562118139652900,9.02265283203125,0.0027057717088609934,-0.011018563061952591,0.0051870387978851795
1772562118149635000,9.032635009765626,0.0002711098059080541,-0.004215251188725233,0.0015547533985227346
1772562118159618000,9.0426181640625,-0.004278901033103466,-0.0017741979099810123,-0.0021081583108752966
1772562118169600000,9.05260009765625,-0.006628874223679304,-0.002234125742688775,-0.003799531841650605
1772562118179583000,9.0625830078125,-0.005341236013919115,-0.0017246630741283298,0.00202267081476748
1772562118189565200,9.072565185546875,-0.007510646712034941,-0.002590989461168647,0.005276254843920469
1772562118199547100,9.082547119140624,-0.0065527078695595264,-0.007200388703495264,0.007860053330659866
1772562118209530000,9.092530029296874,-0.006993727292865515,-0.007703459821641445,0.012674516066908836
1772562118219512000,9.102511962890626,-0.004542553797364235,-0.004443484358489513,0.019364377483725548
1772562118229495000,9.1124951171875,-0.0026847326662391424,0.003824033075943589,0.025898175314068794
1772562118239477200,9.122477294921875,-0.0016791230300441384,0.010013218969106674,0.028143487870693207
1772562118249460000,9.1324599609375,-0.006262157112360001,-0.0011339739430695772,0.028136828914284706
1772562118259442200,9.142442138671875,-0.010697385296225548,-0.006711964961141348,0.029316343367099762
1772562118269425200,9.152425048828125,-0.01215546578168869,0.005591839086264372,0.026707777753472328
1772562118279407000,9.162406982421874,-0.017051687464118004,0.0035537220537662506,0.011695804074406624
1772562118289390000,9.17239013671875,-0.01715262234210968,0.0013294500531628728,0.0008018778171390295
1772562118299372000,9.1823720703125,-0.014593057334423065,0.006255765445530415,-0.00452817277982831
1772562118309355000,9.19235498046875,-0.00785765703767538,0.0017539578257128596,-0.008184426464140415
1772562118319337200,9.202337158203125,-0.008766060695052147,0.0019049590919166803,-0.007225422188639641
1772562118329320000,9.21231982421875,-0.0046813045628368855,0.006759635638445616,-0.010096043348312378
1772562118339302100,9.22230224609375,0.002558765234425664,0.005741775035858154,-0.016167784109711647
1772562118349284000,9.2322841796875,-0.001032507512718439,0.0013259878614917397,-0.022644592449069023
1772562118359267000,9.24226708984375,-0.00043276368523947895,-0.0052413675002753735,-0.029075326398015022
1772562118369249000,9.2522490234375,-0.00196354859508574,-0.01480371318757534,-0.03325995057821274
1772562118379232300,9.262232177734376,-0.0013137373607605696,-0.028741899877786636,-0.036795563995838165
1772562118389214000,9.2722138671875,0.003614175831899047,-0.03417661413550377,-0.04059562832117081
1772562118399197200,9.282197265625,0.004424042999744415,-0.029282521456480026,-0.028811408206820488
1772562118409179000,9.292178955078125,0.002426672261208296,-0.01757899299263954,-0.026926955208182335
1772562118419162000,9.302162109375,-0.0009446232579648495,0.00010918960470007733,-0.012552010826766491
1772562118429144000,9.31214404296875,-0.00618172949180007,0.007640875410288572,-0.009471798315644264
1772562118439127000,9.322126953125,-0.009429986588656902,0.01158741395920515,-0.0013243899447843432
1772562118449109000,9.33210888671875,-0.01320768054574728,0.012916064821183681,0.012810070998966694
1772562118459092200,9.34209228515625,-0.01173069141805172,0.013257748447358608,0.024447819218039513
1772562118469074000,9.352073974609375,-0.007586546707898378,0.010786068625748158,0.03020557202398777
1772562118479057200,9.36205712890625,-0.005859220866113901,0.00609411159530282,0.02955363132059574
1772562118489039000,9.3720390625,-0.008415056392550468,0.01056129764765501,0.02088663913309574
1772562118499021000,9.38202099609375,-0.01010696217417717,0.015537148341536522,0.007617439609020948
1772562118509004000,9.392004150390624,-0.017781393602490425,0.009882990270853043,-0.004881574306637049
1772562118518986000,9.401986083984376,-0.016457537189126015,-0.0010434264549985528,-0.01810816302895546
1772562118528969000,9.411968994140626,-0.014702247455716133,-0.01410596538335085,-0.02359347604215145
1772562118538951200,9.421951171875,-0.017918014898896217,-0.018970228731632233,-0.023788154125213623
1772562118548934000,9.431933837890625,-0.013199691660702229,-0.01067847665399313,-0.024115189909934998
1772562118558916000,9.441916015625,-0.010773018933832645,-0.004904743749648333,-0.022050973027944565
1772562118568899000,9.451899169921875,-0.007133010774850845,-0.002153964713215828,-0.018202971667051315
1772562118578881000,9.461881103515625,-0.007534348871558905,0.0036309538409113884,-0.00768934516236186
1772562118588864000,9.471864013671874,-0.008614527061581612,0.004758003633469343,0.010274475440382957
1772562118598846000,9.481845947265626,-0.01188036147505045,0.011064369231462479,0.021803831681609154
1772562118608829000,9.491828857421876,-0.010926949791610241,0.016176307573914528,0.03417261689901352
1772562118618811100,9.50181103515625,-0.005584116093814373,0.012254535220563412,0.03292093053460121
1772562118628793900,9.5117939453125,0.002398176584392786,0.004793423693627119,0.02726810611784458
1772562118638776000,9.521776123046875,0.00458809407427907,-0.0051984903402626514,0.014755776152014732
1772562118648758300,9.53175830078125,0.006006227340549231,-0.015675898641347885,-0.00007430219557136297
1772562118658741000,9.541740966796874,0.006293848622590303,-0.01387187372893095,-0.010271811857819557
1772562118668723200,9.55172314453125,0.0070254188030958176,-0.014492922462522984,-0.013352557085454464
1772562118678706200,9.5617060546875,0.006322610657662153,-0.0191984623670578,-0.013790646567940712
1772562118688688000,9.571688232421875,0.00885048322379589,-0.00860494002699852,-0.007124488707631826
1772562118698671000,9.581671142578125,0.01513128262013197,0.004866127856075764,0.0019531622529029846
1772562118708653000,9.591653076171875,0.01823626086115837,0.011314439587295055,0.012926184572279453
1772562118718636000,9.601635986328125,0.01895451545715332,0.00839668046683073,0.01762666366994381
1772562118728618200,9.6116181640625,0.017282849177718163,0.009877397678792477,0.01146597322076559
1772562118738601000,9.62160107421875,0.017560085281729698,0.00914343073964119,0.005562544334679842
1772562118748583700,9.631583740234374,0.010545851662755013,-0.0019773971289396286,-0.008351407013833523
1772562118758566700,9.641566650390626,0.00689039658755064,-0.010600713081657887,-0.028569059446454048
1772562118768548600,9.651548583984376,0.009129582904279232,-0.01757633127272129,-0.03965766355395317
1772562118778531600,9.661531494140625,0.006524478085339069,-0.025015337392687798,-0.05065944790840149
1772562118788513500,9.671513427734375,0.008606537245213985,-0.02966654859483242,-0.05386403203010559
1772562118798495500,9.68149560546875,0.007752994541078806,-0.02473623864352703,-0.05036623403429985
1772562118808478700,9.691478759765625,0.008410529233515263,-0.015547534450888634,-0.048505749553442
1772562118818460700,9.701460693359374,0.004592354875057936,-0.002752376953139901,-0.04477839171886444
1772562118828443600,9.711443603515624,-0.0018034926615655422,0.0022426480427384377,-0.04188007116317749
1772562118838425600,9.721425537109376,-0.007130879908800125,0.000594950164668262,-0.04284653440117836
1772562118848408600,9.73140869140625,-0.012708071619272232,-0.004821386653929949,-0.04706710949540138
1772562118858390500,9.741390625,-0.014133661985397339,-0.0002937466779258102,-0.044014595448970795
1772562118868373800,9.751373779296875,-0.013889716938138008,-0.0007997472421266139,-0.042218293994665146
1772562118878355500,9.76135546875,-0.017598435282707214,-0.0022719427943229675,-0.032753683626651764
1772562118888338700,9.771338623046875,-0.01636618934571743,-0.0001560612436151132,-0.02581189014017582
1772562118898320600,9.781320556640624,-0.013542707078158855,0.004569185432046652,-0.013613280840218067
1772562118908303600,9.7913037109375,-0.0071766865439713,0.015728630125522614,0.002115348819643259
1772562118918285600,9.80128564453125,-0.006386526394635439,0.017140904441475868,0.008586031384766102
1772562118928267800,9.811267822265625,-0.004566255956888199,0.007694671396166086,0.015176822431385517
1772562118938250500,9.82125048828125,0.000984836951829493,0.0001257012045243755,0.017832260578870773
1772562118948232700,9.831232666015625,0.0003182477375958115,0.001888980157673359,0.02345925383269787
1772562118958215700,9.841215576171875,0.0010836402652785182,0.007075486239045858,0.020476512610912323
1772562118968197600,9.85119775390625,0.0028535770252346992,0.013243633322417736,0.012998090125620365
1772562118978180600,9.8611806640625,0.0039084553718566895,0.00794154591858387,0.0032953955233097076
1772562118988162600,9.87116259765625,0.0025326660834252834,-0.00045833003241568804,-0.006563626695424318
1772562118998145500,9.8811455078125,0.006913299672305584,-0.005605954211205244,-0.016807742416858673
1772562119008127700,9.891127685546875,0.013351225294172764,-0.023212911561131477,-0.02461107075214386
1772562119018110500,9.9011103515625,0.014882543124258518,-0.03256672993302345,-0.026982614770531654
1772562119028092700,9.9110927734375,0.018864234909415245,-0.03825151547789574,-0.03242425248026848
1772562119038075600,9.92107568359375,0.01775502786040306,-0.03303704410791397,-0.030910246074199677
1772562119048057600,9.9310576171875,0.010928281582891941,-0.025647306814789772,-0.02461746148765087
1772562119058040600,9.94104052734375,0.004350806120783091,-0.006740726996213198,-0.02298494428396225
1772562119068022800,9.951022705078126,-0.0018887137994170189,0.0033771544694900513,-0.02322196587920189
1772562119078004500,9.96100439453125,-0.009121060371398926,0.004693288821727037,-0.023919181898236275
1772562119087987700,9.97098779296875,-0.01067874301224947,-0.005431783385574818,-0.027244403958320618
1772562119097969400,9.980969482421875,-0.010321347042918205,-0.012468121014535427,-0.026934411376714706
1772562119107952600,9.99095263671875,-0.009266735054552555,-0.01667964458465576,-0.029351230710744858
1772562119117934600,10.0009345703125,-0.011243865825235844,-0.01263829693198204,-0.01913268119096756
1772562119127917600,10.01091748046875,-0.01732679270207882,0.000022636868379777297,-0.009341037832200527
1772562119137899500,10.0208994140625,-0.025117337703704834,0.005204082932323217,-0.0010665960144251585
1772562119147882800,10.0308828125,-0.0291802566498518,0.008734636008739471,0.00048363005043938756
1772562119157864400,10.040864501953125,-0.02678554132580757,0.008981510996818542,-0.001630387152545154
1772562119167847700,10.05084765625,-0.027467576786875725,0.004852279555052519,-0.0049532135017216206
1772562119177829600,10.06082958984375,-0.01859205961227417,-0.002840793924406171,-0.00347462622448802
1772562119187812600,10.0708125,-0.015260712243616581,-0.012338957749307156,-0.004456533584743738
1772562119197794600,10.080794677734374,-0.011415639892220497,-0.01625327207148075,0.0017443705582991242
1772562119207777500,10.090777587890624,-0.00529702752828598,-0.013532053679227829,0.004479969386011362
1772562119217759500,10.100759521484376,-0.0005829659639857709,-0.005921804811805487,0.005507417023181915
1772562119227741700,10.11074169921875,-0.0016612798208370805,0.0017707358347252011,0.0062613580375909805
1772562119237724400,10.120724365234375,-0.0023459785152226686,0.007318366784602404,0.012937103398144245
1772562119247706600,10.13070654296875,0.0020807278342545033,0.012967996299266815,0.015974439680576324
1772562119257689600,10.140689697265625,0.005543902516365051,0.004322310443967581,0.019895145669579506
1772562119267671600,10.150671630859375,0.01260953489691019,-0.0043862261809408665,0.015030615031719208
1772562119277654500,10.160654541015624,0.016329437494277954,-0.016501745209097862,0.007479754276573658
1772562119287636500,10.170636474609376,0.017363011837005615,-0.022536467760801315,0.0013707289472222328
1772562119297619500,10.180619384765626,0.020845893770456314,-0.01979367807507515,-0.004629373084753752
1772562119307601700,10.1906015625,0.01660507544875145,-0.012603409588336945,-0.008420116268098354
1772562119317584600,10.200584716796875,0.018282335251569748,-0.008116249926388264,-0.013148559257388115
1772562119327566600,10.210566650390625,0.016377907246351242,-0.0087820403277874,-0.010216418653726578
1772562119337549600,10.220549560546875,0.014448714442551136,-0.011743208393454552,-0.009254750795662403
1772562119347531500,10.230531494140624,0.014724884182214737,-0.007216900121420622,-0.00002450108149787411
1772562119357514500,10.240514404296874,0.01631132885813713,-0.008504272438585758,0.006857373286038637
1772562119367496700,10.25049658203125,0.01321274135261774,-0.008763131685554981,0.01082601584494114
1772562119377478700,10.260478759765626,0.005974003113806248,-0.010866762138903141,0.009532785043120384
1772562119387461600,10.270461669921875,0.0035662390291690826,-0.008784170262515545,0.006013417616486549
1772562119397443600,10.280443603515625,-0.006427805405110121,-0.005459479987621307,0.0012500877492129803
1772562119407426600,10.290426513671875,-0.011561847291886806,0.0009326389990746975,-0.003976366017013788
1772562119417408800,10.30040869140625,-0.0164793748408556,0.0035087147261947393,-0.010055030696094036
1772562119427391500,10.3103916015625,-0.015052452683448792,0.0070587084628641605,-0.011783954687416553
1772562119437373700,10.320373779296874,-0.014536865055561066,0.0033449302427470684,-0.01432407833635807
1772562119447356700,10.330356689453126,-0.017428524792194366,0.00458596320822835,-0.016694290563464165
1772562119457338600,10.340338623046875,-0.02094469591975212,0.0012090750969946384,-0.01661120168864727
1772562119467321600,10.350321533203125,-0.023837953805923462,-0.005812082905322313,-0.019451728090643883
1772562119477303600,10.360303466796875,-0.029159748926758766,-0.01200126949697733,-0.018569156527519226
1772562119487286500,10.37028662109375,-0.02665850892663002,-0.011384746991097927,-0.015180017799139023
1772562119497268700,10.380268798828125,-0.02039928175508976,-0.016154201701283455,-0.008896023035049438
1772562119507251500,10.39025146484375,-0.015193333849310875,-0.018688466399908066,-0.003974767867475748
1772562119517233700,10.400233642578126,-0.010992197319865227,-0.01185186579823494,-0.005077050067484379
1772562119527215600,10.410215576171876,-0.005314071662724018,-0.006265352945774794,-0.000107858024421148
1772562119537198600,10.420198486328125,0.000050600061513250694,-0.00571833923459053,-0.0011358382180333138
1772562119547180500,10.4301806640625,-0.007675496395677328,-0.007523430045694113,0.00196434766985476
1772562119557163800,10.440163818359375,-0.010005496442317963,-0.00839881133288145,0.004771052859723568
1772562119567145500,10.4501455078125,-0.00971547793596983,-0.010824684053659439,0.00839641410857439
1772562119577128700,10.460128662109375,-0.006734868045896292,-0.008800681680440903,0.012260394170880318
1772562119587110400,10.4701103515625,0.0004087952256668359,-0.002968891989439726,0.011717109940946102
1772562119597093600,10.48009375,0.004032026045024395,0.0006772418855689466,0.016699085012078285
1772562119607075600,10.49007568359375,0.002924683503806591,-0.0008751147543080151,0.012986105866730213
1772562119617058600,10.50005859375,0.008800681680440903,-0.0019803266040980816,0.01185053400695324
1772562119627040500,10.51004052734375,0.006321811582893133,-0.002813895931467414,0.0027244137600064278
1772562119637023700,10.520023681640625,0.005256813485175371,-0.004868790972977877,-0.0062155514024198055
1772562119647005400,10.53000537109375,0.003966778516769409,0.0004471447318792343,-0.011018030345439911
1772562119656988700,10.53998876953125,0.0059990365989506245,-0.006355101242661476,-0.013965616934001446
1772562119666970600,10.549970703125,0.0035545211285352707,-0.01889379695057869,-0.0182863287627697
1772562119676952600,10.55995263671875,0.001181111903861165,-0.020437896251678467,-0.01561145018786192
1772562119686935600,10.569935546875,-0.002171807922422886,-0.014493188820779324,-0.007949003018438816
1772562119696917500,10.57991748046875,-0.010074205696582794,-0.009501892141997814,-0.0027499801944941282
1772562119706900500,10.589900390625,-0.015037006698548794,0.0010522148804739118,0.00433136522769928
1772562119716882700,10.599882568359375,-0.015749135985970497,0.014067615382373333,0.012004464864730835
1772562119726865400,10.609865478515625,-0.01764104515314102,0.02052524872124195,0.01853133924305439
1772562119736847600,10.61984765625,-0.020435234531760216,0.018380871042609215,0.02040008082985878
1772562119746830600,10.62983056640625,-0.021989189088344574,0.01101643219590187,0.021809957921504974
1772562119756812300,10.639812255859376,-0.019047992303967476,0.0021201425697654486,0.016496950760483742
1772562119766795500,10.64979541015625,-0.019043998792767525,-0.007198790553957224,0.009033442474901676
1772562119776777500,10.659777587890625,-0.018579276278614998,-0.006965497974306345,-0.0013992248568683863
1772562119786760400,10.669760498046875,-0.017358483746647835,0.00005246427463134751,-0.00600409647449851
1772562119796742400,10.679742431640625,-0.02027411200106144,0.0007448861724697053,-0.012612731195986271
1772562119806725400,10.689725341796875,-0.020232301205396652,-0.0010735202813521028,-0.01435017678886652
1772562119816707300,10.699707275390624,-0.01842161826789379,-0.004086620640009642,-0.01197090931236744
1772562119826689500,10.709689453125,-0.01564766839146614,0.0030160299502313137,-0.004309260752052069
1772562119836672500,10.719672607421876,-0.015239406377077103,0.0014823154779151082,0.004460262134671211
1772562119846654500,10.729654541015625,-0.01233629509806633,0.005405950825661421,0.01495045330375433
1772562119856637400,10.739637451171875,-0.0072808158583939075,0.006611830089241266,0.02748994715511799
1772562119866619400,10.749619384765625,-0.006427273154258728,0.0051771849393844604,0.03545546159148216
1772562119876602400,10.759602294921875,-0.0012319782981649041,0.007148190401494503,0.04217967763543129
1772562119886584600,10.76958447265625,0.0021963089238852262,0.008009457029402256,0.04354934021830559
1772562119896567300,10.7795673828125,0.009305884130299091,0.009812949225306511,0.04567214846611023
1772562119906549500,10.789549560546876,0.009594570845365524,0.013193033635616302,0.03784298524260521
1772562119916532500,10.799532470703125,0.00424135010689497,0.01558215543627739,0.02672721818089485
1772562119926514400,10.809514404296875,0.0019022959750145674,0.016440758481621742,0.01689828932285309
1772562119936497400,10.819497314453125,-0.005634716246277094,0.013226589187979698,0.010409497655928135
1772562119946479600,10.829479736328125,-0.0059785302728414536,0.002590989461168647,0.0014117417158558965
1772562119956461300,10.83946142578125,-0.007773500867187977,-0.006669886875897646,-0.0038256309926509857
1772562119966444500,10.849444580078124,-0.007597998715937138,-0.01618722639977932,-0.010001501068472862
1772562119976426200,10.85942626953125,-0.0016373114194720984,-0.015787485986948013,-0.010039051994681358
1772562119986409500,10.869409423828126,-0.005256813485175371,-0.004835235420614481,-0.005350024439394474
1772562119996391400,10.879391357421875,-0.008142348378896713,0.008817194029688835,-0.005884520709514618
1772562120006374400,10.88937451171875,-0.01503860391676426,0.014945393428206444,-0.006170544307678938
1772562120016356400,10.8993564453125,-0.017436780035495758,0.02153991349041462,-0.008589226752519608
1772562120026339600,10.909339599609375,-0.02196149155497551,0.013127519749104977,-0.010458500124514103
1772562120036321300,10.9193212890625,-0.026875022798776627,-0.0006117281154729426,-0.018027203157544136
1772562120046304500,10.929304443359374,-0.027364779263734818,-0.013510216027498245,-0.02316976711153984
1772562120056286200,10.9392861328125,-0.02533651515841484,-0.02243872918188572,-0.02774534374475479
1772562120066269400,10.94926953125,-0.02418389916419983,-0.019149992614984512,-0.025783926248550415
1772562120076251400,10.95925146484375,-0.021290108561515808,-0.004927380476146936,-0.021914886310696602
1772562120086234400,10.969234375,-0.0224405936896801,0.010015616193413734,-0.012694223783910275
1772562120096216300,10.97921630859375,-0.020856546238064766,0.018449313938617706,-0.004880508873611689
1772562120106198500,10.989198486328124,-0.021737786009907722,0.015591209754347801,-0.004274373408406973
1772562120116181200,10.99918115234375,-0.020503144711256027,0.009488310664892197,0.002065015025436878
1772562120126163500,11.00916357421875,-0.020551081746816635,0.001455151243135333,0.008435828611254692
1772562120136146400,11.019146484375,-0.01507029589265585,0.005751362536102533,0.013413277454674244
1772562120146128400,11.02912841796875,-0.013733921572566032,0.01008059736341238,0.019338544458150864
1772562120156111400,11.039111328125,-0.011656123213469982,0.015749402344226837,0.016949422657489777
1772562120166093300,11.04909326171875,-0.004918325692415237,0.017181916162371635,0.011816978454589844
1772562120176076300,11.059076171875,-0.00014221279707271606,0.011155448853969574,0.007710117381066084
1772562120186058500,11.06905859375,0.005121524911373854,0.01212990004569292,0.006165218073874712
1772562120196041500,11.07904150390625,-0.0006207828409969807,0.020596355199813843,0.003463707398623228
1772562120206023400,11.0890234375,-0.004325239919126034,0.02395087294280529,0.002305498579517007
1772562120216006400,11.09900634765625,-0.0019680759869515896,0.023994814604520798,0.004253334365785122
1772562120225988400,11.10898828125,0.002922020386904478,0.01423725951462984,0.0046823699958622456
1772562120235971300,11.118971435546875,0.009321862831711769,-0.004589159041643143,0.009103217162191868
1772562120245953500,11.12895361328125,0.010355701670050621,-0.020062124356627464,0.003832821501418948
1772562120255935500,11.138935546875,0.015426094643771648,-0.025975408032536507,-0.0012479572324082255
1772562120265918500,11.14891845703125,0.015986423939466476,-0.02015826478600502,-0.013486247509717941
1772562120275900400,11.158900390625,0.010668090544641018,-0.014342720620334148,-0.02395540103316307
1772562120285883400,11.16888330078125,0.0040442761965096,-0.013586116023361683,-0.03689969331026077
1772562120295865600,11.178865478515625,-0.0020777983590960503,-0.012178102508187294,-0.04712942987680435
1772562120305848300,11.188848388671875,-0.0024975123815238476,-0.02304113656282425,-0.0504879429936409
1772562120315830500,11.19883056640625,-0.0034519892651587725,-0.027211381122469902,-0.04827458783984184
1772562120325813500,11.2088134765625,-0.006602775305509567,-0.01938008889555931,-0.03760676458477974
1772562120335795500,11.21879541015625,-0.005285575985908508,-0.003382747294381261,-0.027536286041140556
1772562120345778400,11.2287783203125,-0.001710548298433423,0.011214304715394974,-0.021131383255124092
1772562120355760400,11.238760498046876,0.009549296461045742,0.012223909609019756,-0.018483934924006462
1772562120365743400,11.248743408203126,0.0111045828089118,0.005434446502476931,-0.008859005756676197
1772562120375725600,11.2587255859375,0.0032554480712860823,-0.00027084347675554454,0.00863450113683939
1772562120385708300,11.268708251953125,-0.0013350426452234387,0.006569752003997564,0.0205761156976223
1772562120395690500,11.2786904296875,0.0007510114228352904,0.009097624570131302,0.024040887132287025
1772562120405672400,11.28867236328125,0.007006510626524687,0.0031497206073254347,0.01798059791326523
1772562120415655400,11.298655517578124,0.012225240468978882,-0.008095476776361465,0.011841213330626488
1772562120425637400,11.308637451171874,0.01389770582318306,-0.010696852579712868,0.00430047232657671
1772562120435620600,11.31862060546875,0.017910024151206017,-0.008096808567643166,0.004517520312219858
1772562120445602300,11.328602294921875,0.011406319215893745,-0.011801531538367271,0.002781938062980771
1772562120455585500,11.33858544921875,0.005000085104256868,-0.012766129337251186,-0.004042145796120167
1772562120465567200,11.348567138671875,0.004626443609595299,-0.01317838579416275,-0.005524461157619953
1772562120475550500,11.358550537109375,0.006038983818143606,-0.010313357226550579,-0.006771087180823088
1772562120485532400,11.368532470703125,0.006430468522012234,-0.015468704514205456,-0.00863263662904501
1772562120495515400,11.378515380859374,0.0073111760430037975,-0.01721360720694065,-0.008704275824129581
1772562120505497300,11.388497314453126,0.006136455573141575,-0.018191520124673843,-0.00993279181420803
1772562120515480600,11.39848046875,0.005860285833477974,-0.010371946729719639,-0.013452425599098206
1772562120525462300,11.408462158203125,0.006654706783592701,-0.004150536376982927,-0.016081498935818672
1772562120535445500,11.418445556640625,0.006608634255826473,-0.007251254748553038,-0.02028529718518257
1772562120545427500,11.428427490234375,0.005616073962301016,-0.011565842665731907,-0.02708328329026699
1772562120555409400,11.438409423828125,0.006048837676644325,-0.012443087063729763,-0.028670260682702065
1772562120565392400,11.448392333984375,0.00115421402733773,-0.010335195809602737,-0.02328614704310894
1772562120575374300,11.458374267578124,-0.0004519384237937629,-0.003829892026260495,-0.022896526381373405
1772562120585357300,11.468357421875,-0.005590241402387619,0.007258445490151644,-0.01896516978740692
1772562120595339500,11.478339599609376,-0.005309810396283865,0.014384797774255276,-0.012471050955355167
1772562120605322200,11.488322265625,-0.003951864782720804,0.030121151357889175,-0.004515655804425478
1772562120615304400,11.498304443359375,-0.002698581200093031,0.060019128024578094,0.011185542680323124
1772562120625287400,11.508287353515625,-0.0036101811565458775,0.09661921858787537,0.023208649829030037
1772562120635269400,11.518269287109375,-0.01878540590405464,0.11864489316940308,0.040938377380371094
1772562120645252400,11.52825244140625,-0.04250378534197807,0.030911043286323547,0.041724808514118195
1772562120655234300,11.538234375,-0.029165342450141907,-0.02803296595811844,0.030419424176216125
1772562120665217300,11.54821728515625,-0.0018849853659048676,-0.039131954312324524,0.03274250030517578
1772562120675199500,11.558199462890625,-0.001157143502496183,-0.010938934050500393,0.025619076564908028
1772562120685181400,11.568181396484375,-0.009327455423772335,-0.0002769687562249601,0.011709652841091156
1772562120695164400,11.578164306640625,-0.021404890343546867,0.00347462622448802,-0.0034940673504024744
1772562120705146600,11.588146728515625,-0.021394770592451096,-0.0044043357484042645,-0.019810723140835762
1772562120715129300,11.59812939453125,-0.033135317265987396,-0.013860155828297138,-0.03713458403944969
1772562120725111600,11.608111572265624,-0.04121561348438263,-0.014083328656852245,-0.05121072381734848
1772562120735094500,11.618094482421874,-0.046781886368989944,0.012897422537207603,-0.05584888532757759
1772562120745076500,11.628076416015626,-0.056597765535116196,0.03237631544470787,-0.05158436298370361
1772562120755062500,11.6380625,-0.0543186329305172,-0.013281450606882572,-0.040644098073244095
1772562120765044700,11.648044677734376,-0.03357553854584694,-0.05494340881705284,-0.02490907721221447
