time,seconds_elapsed,z,y,x
1772650969295830500,0.15483056640625,8.270193099975586,-5.866004943847656,1.536790370941162
1772650969305707800,0.164707763671875,7.933403491973877,-5.856433391571045,1.4380863904953003
1772650969315585300,0.174585205078125,7.698906898498535,-5.855835437774658,1.3196417093276978
1772650969325462500,0.184462646484375,7.576872825622559,-5.807380676269531,1.2502498626708984
1772650969335340000,0.194340087890625,7.600203037261963,-5.740381717681885,1.2089736461639404
1772650969345217300,0.20421728515625,7.6289167404174805,-5.7164530754089355,1.2041879892349243
1772650969355094800,0.2140947265625,7.569096088409424,-5.615954875946045,1.2675977945327759
1772650969364972000,0.223971923828125,7.424928665161133,-5.474778175354004,1.3645070791244507
1772650969374849500,0.233849609375,7.2813591957092285,-5.3455657958984375,1.4781662225723267
1772650969384726800,0.243726806640625,7.144968509674072,-5.275575637817383,1.622931957244873
1772650969394604300,0.253604248046875,7.061219692230225,-5.207978248596191,1.7778671979904175
1772650969404481800,0.263481689453125,7.0546393394470215,-5.191826820373535,1.9680966138839722
1772650969414359000,0.273359130859375,7.197610378265381,-5.182853698730469,2.1200408935546875
1772650969424236500,0.283236572265625,7.344171047210693,-5.200799942016602,2.191227436065674
1772650969434113800,0.29311376953125,7.4877400398254395,-5.245067119598389,2.193620204925537
1772650969443991300,0.3029912109375,7.631309509277344,-5.306682586669922,2.2127628326416016
1772650969453868500,0.31286865234375,7.777271747589111,-5.386841773986816,2.2342982292175293
1772650969463746000,0.32274609375,7.93998384475708,-5.457430362701416,2.2271196842193604
1772650969473623300,0.332623291015625,8.107481002807617,-5.523830890655518,2.2438695430755615
1772650969483500800,0.342500732421875,8.229515075683594,-5.614160060882568,2.2325034141540527
1772650969493378000,0.3523779296875,8.291728973388672,-5.6548380851745605,2.1894326210021973
1772650969503255600,0.362255615234375,8.270193099975586,-5.711069583892822,2.1020946502685547
1772650969513132800,0.3721328125,8.210970878601074,-5.802595138549805,1.9986051321029663
1772650969523010300,0.38201025390625,8.158329010009766,-5.870192050933838,1.9471594095230103
1772650969532887600,0.391887451171875,8.058428764343262,-5.925227165222168,1.9405791759490967
1772650969542765000,0.40176513671875,7.984251022338867,-5.927619934082031,1.9387845993041992
1772650969552642600,0.411642578125,8.075178146362305,-5.8821563720703125,1.9142581224441528
1772650969562519800,0.421519775390625,8.24147891998291,-5.854040622711182,1.815554141998291
1772650969572397300,0.431397216796875,8.270193099975586,-5.8959150314331055,1.6630117893218994
1772650969582274600,0.441274658203125,8.162516593933105,-5.916254043579102,1.5708880424499512
1772650969592152000,0.451152099609375,8.019545555114746,-5.868995666503906,1.5756736993789673
1772650969602029300,0.461029296875,7.878368377685547,-5.7786664962768555,1.6348960399627686
1772650969611906800,0.47090673828125,7.813164234161377,-5.639883041381836,1.7078771591186523
1772650969621784000,0.4807841796875,7.841279983520508,-5.534000396728516,1.7611174583435059
1772650969631661600,0.49066162109375,7.908278942108154,-5.462215900421143,1.7868403196334839
1772650969641538800,0.500538818359375,7.95553731918335,-5.321039199829102,1.8400806188583374
1772650969651416300,0.510416259765625,7.966903209686279,-5.241477966308594,1.8819550275802612
1772650969661293800,0.5202939453125,7.919046401977539,-5.2181477546691895,1.8963119983673096
1772650969671171000,0.530171142578125,7.856832981109619,-5.270790100097656,1.8705891370773315
1772650969681048600,0.540048583984375,7.83111047744751,-5.416752338409424,1.8029918670654297
1772650969690925800,0.54992578125,7.9250288009643555,-5.512465000152588,1.76051926612854
1772650969700803300,0.55980322265625,8.003992080688477,-5.620141983032227,1.7234305143356323
1772650969710680600,0.5696806640625,8.090731620788574,-5.758327484130859,1.6845471858978271
1772650969720558000,0.57955810546875,8.10987377166748,-5.8372907638549805,1.6468602418899536
1772650969730435300,0.589435302734375,8.052446365356445,-5.904888153076172,1.578664779663086
1772650969740312800,0.599312744140625,8.038687705993652,-5.960521221160889,1.5122638940811157
1772650969750190000,0.609190185546875,8.014759063720703,-5.970690727233887,1.40279221534729
1772650969760067600,0.619067626953125,8.042875289916992,-5.942574977874756,1.3573286533355713
1772650969769944800,0.62894482421875,8.064410209655762,-5.911468505859375,1.3381860256195068
1772650969779822300,0.638822265625,8.116454124450684,-5.825326919555664,1.3489537239074707
1772650969789699600,0.648699462890625,8.087141990661621,-5.6895341873168945,1.3926228284835815
1772650969799577000,0.6585771484375,7.996214866638184,-5.5244293212890625,1.4554343223571777
1772650969809454300,0.668454345703125,7.862216949462891,-5.4173502922058105,1.4787644147872925
1772650969819331800,0.678331787109375,7.725826263427734,-5.343770980834961,1.5212370157241821
1772650969829209300,0.688209228515625,7.596613883972168,-5.291727066040039,1.5332010984420776
1772650969839086600,0.698086669921875,7.53140926361084,-5.138586521148682,1.5960127115249634
1772650969848964000,0.707964111328125,7.557132244110107,-4.951946258544922,1.6516457796096802
1772650969858841300,0.71784130859375,7.573283672332764,-4.814957141876221,1.7240287065505981
1772650969868718800,0.72771875,7.5804619789123535,-4.72881555557251,1.794616937637329
1772650969878596000,0.73759619140625,7.603792190551758,-4.6372904777526855,1.8388842344284058
1772650969888473600,0.7474736328125,7.64447021484375,-4.587040901184082,1.862214207649231
1772650969898350800,0.757350830078125,7.730611801147461,-4.625326156616211,1.8167506456375122
1772650969908228400,0.767228271484375,7.854440212249756,-4.668396949768066,1.7216359376907349
1772650969918105600,0.777105712890625,8.019545555114746,-4.716253280639648,1.6187444925308228
1772650969927983000,0.786983154296875,8.205587387084961,-4.72582483291626,1.5517455339431763
1772650969937860400,0.7968603515625,8.336593627929688,-4.7575297355651855,1.4632110595703125
1772650969947737900,0.80673779296875,8.322834968566895,-4.849653244018555,1.2903295755386353
1772650969957615000,0.816614990234375,8.279764175415039,-4.968696117401123,1.0654042959213257
1772650969967492600,0.82649267578125,8.186444282531738,-5.054239749908447,0.8997012972831726
1772650969977369900,0.836369873046875,8.019545555114746,-5.068596363067627,0.7076773047447205
1772650969987247400,0.846247314453125,7.897511005401611,-5.1050872802734375,0.47676992416381836
1772650969997124900,0.856124755859375,7.765905857086182,-5.185844898223877,0.27816563844680786
1772650970007002000,0.866002197265625,7.691728591918945,-5.213362216949463,0.16450655460357666
1772650970016879600,0.875879638671875,7.5774712562561035,-5.218746185302734,0.11724831163883209
1772650970026756900,0.8857568359375,7.4506516456604,-5.179264545440674,0.10588239878416061
1772650970036634400,0.89563427734375,7.321439266204834,-5.163113117218018,0.11545369029045105
1772650970046511600,0.90551171875,7.134799003601074,-5.170291423797607,0.16151553392410278
1772650970056389000,0.91538916015625,6.963113784790039,-5.124229907989502,0.2925225794315338
1772650970066266400,0.925266357421875,6.898507595062256,-5.010570526123047,0.4654040038585663
1772650970076143900,0.935143798828125,6.8482584953308105,-4.886742115020752,0.6861419081687927
1772650970086021000,0.945021240234375,6.867401123046875,-4.762913703918457,0.9493523836135864
1772650970095898600,0.954898681640625,7.0893354415893555,-4.627718925476074,1.3046865463256836
1772650970105775900,0.96477587890625,7.576274871826172,-4.3657050132751465,1.7934205532073975
1772650970115639600,0.9746396484375,8.089534759521484,-4.044468402862549,2.3222343921661377
1772650970125530600,0.984530517578125,8.609375953674316,-3.6945180892944336,2.771486759185791
1772650970135408000,0.994408203125,9.039485931396484,-3.4995031356811523,3.0346972942352295
1772650970145285400,1.004285400390625,9.325428009033203,-3.5222349166870117,3.08135724067688
1772650970155163000,1.014162841796875,9.559925079345703,-3.6472599506378174,2.888735055923462
1772650970165040000,1.0240400390625,9.805787086486816,-3.679563045501709,2.654836654663086
1772650970174917600,1.033917724609375,9.949356079101562,-3.94815731048584,2.197209358215332
1772650970184795100,1.043795166015625,9.908080101013184,-4.583451747894287,1.5798611640930176
1772650970194672400,1.05367236328125,9.69930648803711,-5.62672233581543,1.1096714735031128
1772650970204536000,1.0635361328125,9.483354568481445,-6.653841495513916,0.9780662655830383
1772650970214427100,1.07342724609375,9.328418731689453,-7.35613489151001,0.9906286001205444
1772650970224304600,1.0833046875,9.437292098999023,-7.603193759918213,1.0043872594833374
1772650970234182000,1.093181884765625,9.77109146118164,-7.507481098175049,0.9690931439399719
1772650970244059400,1.103059326171875,10.098908424377441,-7.139584541320801,0.882951557636261
1772650970253936600,1.1129365234375,10.444072723388672,-6.8004021644592285,0.7950153350830078
1772650970263814100,1.122814208984375,10.508678436279297,-6.477969169616699,0.5126622319221497
1772650970273691400,1.13269140625,10.308279991149902,-5.961119174957275,0.2386840581893921
1772650970283569000,1.14256884765625,9.879964828491211,-5.8235321044921875,0.12741780281066895
1772650970293446100,1.152446044921875,9.31585693359375,-5.819344520568848,0.04127619042992592
1772650970303323600,1.16232373046875,8.816953659057617,-5.898307800292969,-0.054436713457107544
1772650970313201000,1.172200927734375,8.306683540344238,-6.035895347595215,0.1824527233839035
1772650970323064600,1.182064697265625,7.849056243896484,-6.156732559204102,0.4666004180908203
1772650970332955600,1.19195556640625,7.515257835388184,-6.150152206420898,0.5443671345710754
1772650970342833200,1.201833251953125,7.3262248039245605,-6.135197162628174,0.4660021960735321
1772650970352710700,1.211710693359375,7.106084823608398,-6.083751678466797,0.43968117237091064
1772650970362588000,1.221587890625,6.957729816436768,-6.062814235687256,0.4378865361213684
1772650970372465200,1.231465087890625,6.898507595062256,-6.08195686340332,0.4169493317604065
1772650970382342700,1.2413427734375,6.833901405334473,-6.172286033630371,0.27038896083831787
1772650970392220200,1.25122021484375,6.953542709350586,-6.3840508460998535,0.019740786403417587
1772650970402097400,1.261097412109375,7.240681171417236,-6.525825500488281,-0.2063809484243393
1772650970411975000,1.270974853515625,7.576872825622559,-6.478567123413086,-0.39182472229003906
1772650970421852200,1.28085205078125,7.8795647621154785,-6.38464879989624,-0.672383189201355
1772650970431729700,1.290729736328125,7.950153350830078,-6.3493547439575195,-1.0235298871994019
1772650970441607000,1.30060693359375,7.787441253662109,-6.3631134033203125,-1.3920245170593262
1772650970451484400,1.310484375,7.485945701599121,-6.374479293823242,-1.7198412418365479
1772650970461361700,1.320361572265625,7.120441913604736,-6.4085774421691895,-1.9226330518722534
1772650970471239200,1.3302392578125,6.754938125610352,-6.424130439758301,-1.947757601737976
1772650970481116400,1.340116455078125,6.372086524963379,-6.308078765869141,-1.8424733877182007
1772650970490994000,1.349993896484375,6.001797199249268,-6.120840549468994,-1.6019947528839111
1772650970500871200,1.35987109375,5.774479389190674,-5.855835437774658,-1.2179467678070068
1772650970510748700,1.369748779296875,5.711667537689209,-5.513063430786133,-0.7495517134666443
1772650970520626200,1.379626220703125,5.777470111846924,-5.1343994140625,-0.31046873331069946
1772650970530503400,1.38950341796875,6.025127410888672,-4.730610370635986,0.1657029688358307
1772650970540380700,1.399380615234375,6.356533527374268,-4.366901397705078,0.6113662123680115
1772650970550258200,1.409258056640625,6.539584159851074,-4.149752616882324,0.8656035661697388
1772650970560135400,1.419135498046875,6.594020843505859,-4.027718544006348,0.8548358678817749
1772650970570013000,1.429012939453125,6.770491600036621,-4.004388809204102,0.7537391185760498
1772650970579890400,1.438890380859375,7.052246570587158,-4.075575351715088,0.6652047038078308
1772650970589767700,1.448767578125,7.281957626342773,-4.274777889251709,0.4612165689468384
1772650970599645200,1.458645263671875,7.428517818450928,-4.5583271980285645,0.15672987699508667
1772650970609522400,1.4685224609375,7.437490940093994,-4.980660438537598,-0.1178465187549591
1772650970619400000,1.47839990234375,7.40279483795166,-5.336592674255371,-0.15972091257572174
1772650970629277200,1.488277099609375,7.4015984535217285,-5.595615863800049,-0.0568295381963253
1772650970639154700,1.49815478515625,7.4979095458984375,-5.669793128967285,0.17228323221206665
1772650970649032000,1.508031982421875,7.534400463104248,-5.759523868560791,0.5138586759567261
1772650970658909400,1.517909423828125,7.444669246673584,-5.851049423217773,0.9224331378936768
1772650970668786700,1.52778662109375,7.347760200500488,-5.822933673858643,1.439282774925232
1772650970678650400,1.537650390625,7.2813591957092285,-5.818148136138916,1.973480463027954
1772650970688541400,1.54754150390625,7.347161769866943,-5.738586902618408,2.554338216781616
1772650970698419000,1.5574189453125,7.75753116607666,-5.48793888092041,3.1549365520477295
1772650970708282600,1.56728271484375,8.282156944274902,-5.085346221923828,3.7016966342926025
1772650970718173700,1.577173583984375,8.8109712600708,-4.6163530349731445,4.086342811584473
1772650970728051000,1.587051025390625,9.217751502990723,-4.238885402679443,4.059423446655273
1772650970737928400,1.596928466796875,9.486345291137695,-4.089334011077881,3.6017963886260986
1772650970747806000,1.606805908203125,9.480961799621582,-4.208376884460449,2.8594231605529785
1772650970757683200,1.61668310546875,9.148359298706055,-4.4584269523620605,1.97407865524292
1772650970767547000,1.626546875,8.584251403808594,-4.738387107849121,1.1018948554992676
1772650970777438000,1.63643798828125,7.9728851318359375,-4.925625324249268,0.44386860728263855
1772650970787315500,1.6463154296875,7.499105930328369,-4.909473896026611,0.04307080805301666
1772650970797192700,1.656192626953125,7.1234331130981445,-4.753940582275391,0.019142581149935722
1772650970807070200,1.6660703125,6.865008354187012,-4.502095699310303,0.3200400173664093
1772650970816947500,1.675947509765625,6.792625427246094,-4.133002758026123,0.7334001660346985
1772650970826825000,1.685824951171875,7.007380962371826,-3.8590247631073,1.1443674564361572
1772650970836702200,1.6957021484375,7.325028419494629,-3.7645082473754883,1.4446666240692139
1772650970846579700,1.705579833984375,7.601997375488281,-3.824328899383545,1.5038890838623047
1772650970856457000,1.71545703125,7.843672752380371,-4.031308174133301,1.2837493419647217
1772650970866334500,1.72533447265625,8.081160545349121,-4.430909156799316,0.755533754825592
1772650970876211700,1.735211669921875,8.247461318969727,-4.948357105255127,0.1621137410402298
1772650970886089200,1.745089111328125,8.58066177368164,-5.454439163208008,-0.23210379481315613
1772650970895966500,1.754966552734375,9.1716890335083,-5.675775527954102,-0.4055834412574768
1772650970905844000,1.764843994140625,10.000204086303711,-5.799005508422852,-0.3930211067199707
1772650970915707600,1.774707763671875,10.728219985961914,-6.03110933303833,-0.25782662630081177
1772650970925598700,1.7845986328125,11.106884956359863,-6.302694797515869,-0.09451649338006973
1772650970935476200,1.794476318359375,11.354541778564453,-6.708278179168701,-0.2267199456691742
1772650970945339600,1.804339599609375,11.501700401306152,-7.507481098175049,-1.0151549577713013
1772650970955230700,1.814230712890625,11.292327880859375,-8.496315002441406,-1.843071699142456
1772650970965108200,1.824108154296875,10.564909934997559,-9.510871887207031,-2.1708884239196777
1772650970974972000,1.833971923828125,9.956535339355469,-10.222138404846191,-1.9369899034500122
1772650970984863000,1.843863037109375,9.713065147399902,-10.52662467956543,-1.5308083295822144
1772650970994740500,1.853740478515625,10.034899711608887,-10.228718757629395,-0.9152546525001526
1772650971004617700,1.86361767578125,10.234102249145508,-9.599406242370605,-0.2883351147174835
1772650971014495200,1.8734951171875,10.566106796264648,-8.974879264831543,0.07776673883199692
1772650971024372500,1.88337255859375,10.925628662109375,-8.50169849395752,0.259621262550354
1772650971034250000,1.89325,10.743175506591797,-8.345566749572754,0.19740787148475647
1772650971044127200,1.903127197265625,9.783055305480957,-8.546564102172852,-0.031106693670153618
1772650971054004700,1.913004638671875,8.398807525634766,-8.890532493591309,-0.25064817070961
1772650971063868400,1.922868408203125,7.028916358947754,-9.095717430114746,-0.25304099917411804
1772650971073759500,1.932759521484375,5.927619934082031,-8.951549530029297,0.08793623000383377
1772650971083636700,1.94263671875,5.112864017486572,-8.529216766357422,0.7082754969596863
1772650971093500400,1.95250048828125,4.607978343963623,-7.99083137512207,1.5601203441619873
1772650971103391700,1.962391845703125,4.418346881866455,-7.472187042236328,2.482553482055664
1772650971113269000,1.97226904296875,4.422534465789795,-7.026523590087891,3.195016384124756
1772650971123132700,1.982132568359375,4.591826438903809,-6.762714862823486,3.606581926345825
1772650971133023700,1.992023681640625,5.019543647766113,-6.737590312957764,3.809373617172241
1772650971142901200,2.0019013671875,5.598008632659912,-6.839883327484131,3.858426570892334
1772650971152778500,2.011778564453125,6.188437461853027,-7.001399040222168,3.6574294567108154
1772650971162656000,2.021656005859375,6.7657060623168945,-7.087540626525879,3.191427230834961
1772650971172533200,2.031533203125,7.158727169036865,-7.135396957397461,2.466402053833008
1772650971182410800,2.04141064453125,7.439883708953857,-7.146164894104004,1.7341982126235962
1772650971192288000,2.0512880859375,7.576872825622559,-7.018148899078369,1.0863415002822876
1772650971202165500,2.06116552734375,7.479365348815918,-6.756134510040283,0.5958128571510315
1772650971212029200,2.071029296875,7.16231632232666,-6.527021884918213,0.18484555184841156
1772650971221920300,2.080920166015625,6.774080753326416,-6.235695838928223,-0.09092725813388824
1772650971231797500,2.090797607421875,6.385247230529785,-5.870192050933838,-0.1621137410402298
1772650971241675000,2.100675048828125,6.020341873168945,-5.492125988006592,-0.16689938306808472
1772650971251552300,2.11055224609375,5.629713535308838,-5.123631477355957,-0.12442677468061447
1772650971261429800,2.1204296875,5.325226783752441,-4.839483737945557,0.0077766734175384045
1772650971271307000,2.13030712890625,5.062016487121582,-4.646263599395752,0.1495514214038849
1772650971281184500,2.1401845703125,4.944169998168945,-4.401597023010254,0.31405797600746155
1772650971291061800,2.150061767578125,4.8574299812316895,-4.178466320037842,0.47916272282600403
1772650971300939300,2.159939208984375,4.786243438720703,-4.144967079162598,0.5718846321105957
1772650971310816500,2.16981640625,4.676771640777588,-4.286143779754639,0.494716078042984
1772650971320694000,2.179694091796875,4.545764923095703,-4.487140655517578,0.24526432156562805
1772650971330571500,2.189571533203125,4.357329845428467,-4.735994338989258,-0.028115665540099144
1772650971340448800,2.19944873046875,4.1629133224487305,-5.146961688995361,-0.2638086974620819
1772650971350326300,2.209326171875,4.000799655914307,-5.7649078369140625,-0.49292147159576416
1772650971360203500,2.21920361328125,3.9451663494110107,-6.317649841308594,-0.6083751320838928
1772650971370081000,2.2290810546875,4.13060998916626,-6.640082836151123,-0.49351966381073
1772650971379958300,2.238958251953125,4.557130813598633,-6.829115867614746,-0.16749759018421173
1772650971389835800,2.248835693359375,5.24626350402832,-6.994220733642578,0.2584248483181
1772650971399713000,2.258713134765625,6.27996301651001,-7.191030025482178,0.6783652305603027
1772650971409590500,2.268590576171875,7.875975608825684,-7.189235687255859,0.9822536706924438
1772650971419454200,2.2784541015625,9.644869804382324,-6.943373203277588,1.1186445951461792
1772650971429345300,2.28834521484375,10.96630573272705,-6.606583118438721,1.1389836072921753
1772650971439222500,2.298222412109375,11.603395462036133,-6.348158359527588,1.1958130598068237
1772650971449086200,2.308086181640625,11.396415710449219,-6.056832313537598,1.0552347898483276
1772650971458977300,2.317977294921875,11.186446189880371,-5.682953834533691,0.8524430394172668
1772650971468854800,2.327854736328125,10.206584930419922,-5.566901683807373,0.6137589812278748
1772650971478732000,2.33773193359375,8.983254432678223,-5.504688262939453,0.381655216217041
1772650971488609500,2.347609619140625,8.131409645080566,-5.212165832519531,0.37028929591178894
1772650971498487000,2.357487060546875,7.368099212646484,-4.731208801269531,0.5515456199645996
1772650971508350500,2.3673505859375,6.790830612182617,-4.223930358886719,0.9463613629341125
1772650971518241800,2.37724169921875,6.530013084411621,-3.8703906536102295,1.3441680669784546
1772650971528119000,2.387119140625,6.641279220581055,-3.6185460090637207,1.5104693174362183
1772650971537996500,2.39699658203125,6.900900363922119,-3.410968780517578,1.4261223077774048
1772650971547873800,2.406873779296875,7.35613489151001,-3.387040376663208,1.2484551668167114
1772650971557751300,2.416751220703125,7.805985450744629,-3.6646077632904053,0.9607182741165161
1772650971567628500,2.426628662109375,8.220541954040527,-4.125824451446533,0.6927221417427063
1772650971577506000,2.436506103515625,8.526225090026855,-4.65523624420166,0.615553617477417
1772650971587383300,2.44638330078125,8.9312105178833,-4.985445976257324,0.7962117195129395
1772650971597260800,2.4562607421875,9.336195945739746,-5.111667156219482,1.1748759746551514
1772650971607138000,2.466137939453125,9.548559188842773,-5.277968406677246,1.7312071323394775
1772650971617015600,2.476015625,9.572486877441406,-5.669195175170898,2.435295343399048
1772650971626879200,2.485879150390625,9.611370086669922,-6.172286033630371,2.974278450012207
1772650971636770300,2.495770263671875,9.495318412780762,-6.960123062133789,3.4235310554504395
1772650971646647600,2.5056474609375,9.7005033493042,-7.8113694190979,3.9050865173339844
1772650971656511200,2.51551123046875,10.351948738098145,-8.632705688476562,4.109074592590332
1772650971666402600,2.525402587890625,11.201400756835938,-9.394820213317871,3.3822548389434814
1772650971676279800,2.53527978515625,11.703295707702637,-10.007980346679688,2.121237277984619
1772650971686143500,2.5451435546875,11.855239868164062,-10.40638542175293,1.5433706045150757
1772650971696034600,2.55503466796875,11.337193489074707,-10.116853713989258,1.3710874319076538
1772650971705912000,2.564912109375,9.817750930786133,-9.787242889404297,0.45583271980285645
1772650971715775700,2.574775634765625,8.073383331298828,-9.366703987121582,-0.5521438121795654
1772650971725666800,2.584666748046875,6.467201232910156,-8.782257080078125,-1.1934202909469604
1772650971735544000,2.5945439453125,5.2115678787231445,-8.051848411560059,-1.6175481081008911
1772650971745407700,2.60440771484375,4.3178486824035645,-7.3399834632873535,-1.6689938306808472
1772650971755298800,2.614298828125,3.7184464931488037,-6.806384086608887,-1.5272190570831299
1772650971765176300,2.62417626953125,3.881756544113159,-6.320641040802002,-1.2041879892349243
1772650971775040000,2.6340400390625,4.59721040725708,-5.861817359924316,-0.8464609980583191
1772650971784931000,2.64393115234375,5.346164226531982,-5.609374523162842,-0.7094719409942627
1772650971794808300,2.653808349609375,5.715855121612549,-5.601597785949707,-1.0701899528503418
1772650971804685800,2.663685791015625,5.702096462249756,-5.967101573944092,-1.583450436592102
1772650971814563300,2.673563232421875,5.539384365081787,-6.617351055145264,-1.948355793952942
1772650971824440600,2.683440673828125,5.237888813018799,-7.059424877166748,-2.1684954166412354
1772650971834318000,2.693318115234375,4.913661479949951,-7.253841876983643,-2.170290231704712
1772650971844195300,2.7031953125,4.600799560546875,-7.0857462882995605,-1.8969101905822754
1772650971854072800,2.71307275390625,4.59003210067749,-6.622735023498535,-1.3776676654815674
1772650971863950000,2.7229501953125,4.90827751159668,-6.0370917320251465,-0.8273184299468994
1772650971873827600,2.73282763671875,5.30847692489624,-5.5381879806518555,-0.4378865361213684
1772650971883704800,2.742704833984375,5.6590256690979,-5.306084156036377,-0.2392822653055191
1772650971893582300,2.752582275390625,5.983851432800293,-5.337191104888916,-0.17108681797981262
1772650971903459600,2.76245947265625,6.235695838928223,-5.498706340789795,-0.18963119387626648
1772650971913337000,2.772337158203125,6.599404811859131,-5.6344990730285645,-0.06041877344250679
1772650971923200800,2.78220068359375,7.201797962188721,-5.639284610748291,0.22073788940906525
1772650971933091800,2.792091796875,7.843672752380371,-5.4514479637146,0.3924229145050049
1772650971942969300,2.80196923828125,8.183453559875488,-5.1320061683654785,0.28115665912628174
1772650971952846600,2.8118466796875,8.263612747192383,-4.871787071228027,-0.0077766734175384045
1772650971962724000,2.82172412109375,8.0955171585083,-4.849653244018555,-0.388235479593277
1772650971972601300,2.831601318359375,7.613363265991211,-5.13021183013916,-0.8769695162773132
1772650971982478800,2.841478759765625,7.1718878746032715,-5.446064472198486,-1.2921242713928223
1772650971992356000,2.851356201171875,6.8554368019104,-5.793023586273193,-1.5182459354400635
1772650972002233600,2.861233642578125,6.565307140350342,-6.1573309898376465,-1.618146300315857
1772650972012110800,2.87111083984375,6.344569206237793,-6.4803619384765625,-1.6259230375289917
1772650972021988400,2.88098828125,6.285944938659668,-6.62931489944458,-1.4883357286453247
1772650972031865600,2.890865478515625,6.4564337730407715,-6.63769006729126,-1.1413763761520386
1772650972041743000,2.9007431640625,6.778866767883301,-6.561119556427002,-0.7190431952476501
1772650972051620400,2.910620361328125,7.106084823608398,-6.419943332672119,-0.3475574851036072
1772650972061497900,2.920497802734375,7.351947784423828,-6.199803352355957,-0.053240302950143814
1772650972071375000,2.930375,7.467999458312988,-5.987440586090088,0.13040883839130402
1772650972081252600,2.940252685546875,7.515257835388184,-5.849853038787842,0.25004997849464417
1772650972091129900,2.9501298828125,7.60080099105835,-5.693721294403076,0.36251261830329895
1772650972101007400,2.96000732421875,7.734799385070801,-5.776872158050537,0.35832518339157104
1772650972110884900,2.969884765625,7.877171993255615,-6.075974941253662,0.1824527233839035
1772650972120762000,2.97976220703125,7.932207107543945,-6.235695838928223,-0.040677983313798904
1772650972130639600,2.9896396484375,7.902894973754883,-6.1675004959106445,-0.22432711720466614
1772650972140516900,2.999516845703125,7.764111042022705,-6.142973899841309,-0.3170489966869354
1772650972150394400,3.009394287109375,7.51585578918457,-6.278766632080078,-0.4504488706588745
1772650972160271600,3.019271728515625,7.23170804977417,-6.294320106506348,-0.42293140292167664
1772650972170149000,3.029149169921875,7.09292459487915,-6.132206439971924,-0.16450655460357666
1772650972180026400,3.0390263671875,6.970890522003174,-5.876173973083496,0.24287149310112
1772650972189904000,3.04890380859375,6.9206414222717285,-5.577071189880371,0.8171489238739014
1772650972199781000,3.058781005859375,7.037291526794434,-5.25762939453125,1.573280930519104
1772650972209658600,3.06865869140625,7.262216567993164,-4.96211576461792,2.4675984382629395
1772650972219522300,3.078522216796875,7.606184959411621,-4.674378871917725,3.235694408416748
1772650972229413400,3.088413330078125,7.959724426269531,-4.4997029304504395,3.675973892211914
1772650972239290600,3.09829052734375,8.291728973388672,-4.526622295379639,3.6939198970794678
1772650972249168100,3.108168212890625,8.534002304077148,-4.89691162109375,3.267399311065674
1772650972259045600,3.118045654296875,8.851051330566406,-5.577669620513916,2.5872395038604736
1772650972268923000,3.1279228515625,9.220144271850586,-6.147161483764648,1.9268203973770142
1772650972278800400,3.13780029296875,9.64367389678955,-6.500102519989014,1.2855439186096191
1772650972288677600,3.147677734375,9.997213363647461,-6.802196502685547,0.7417750358581543
1772650972298555100,3.15755517578125,10.172487258911133,-7.117451190948486,0.40319061279296875
1772650972308418800,3.167418701171875,10.307083129882812,-7.439883708953857,0.04666004329919815
1772650972318310000,3.177309814453125,10.491929054260254,-7.929215908050537,-0.349352091550827
1772650972328187100,3.187187255859375,10.53081226348877,-8.760722160339355,-0.7393822073936462
1772650972338050800,3.19705078125,10.241280555725098,-9.954142570495605,-1.2239288091659546
1772650972347942000,3.20694189453125,9.386445045471191,-11.45384407043457,-1.8562321662902832
1772650972357819400,3.2168193359375,8.054241180419922,-12.876975059509277,-2.2366909980773926
1772650972367683000,3.22668310546875,6.918846607208252,-13.61037540435791,-1.848455548286438
1772650972377574100,3.23657421875,6.612565517425537,-13.146167755126953,-0.8321040868759155
1772650972387451600,3.24645166015625,7.272386074066162,-11.770893096923828,0.268594354391098
1772650972397315000,3.256315185546875,8.260024070739746,-10.50808048248291,1.0504491329193115
1772650972407206400,3.266206298828125,9.135796546936035,-9.538987159729004,1.516451358795166
1772650972417083600,3.276083740234375,9.379266738891602,-8.861220359802246,1.6941183805465698
1772650972426961200,3.285961181640625,8.805587768554688,-8.815756797790527,1.6959130764007568
1772650972436838400,3.29583837890625,7.730013370513916,-9.159127235412598,1.674975872039795
1772650972446716000,3.3057158203125,6.540182590484619,-9.657432556152344,1.6390835046768188
1772650972456579600,3.31557958984375,5.5387864112854,-9.406784057617188,2.0853450298309326
1772650972466470700,3.325470703125,4.792225360870361,-8.787042617797852,2.8426733016967773
1772650972476348000,3.335347900390625,4.191029071807861,-8.057829856872559,3.487539052963257
1772650972486211600,3.345211669921875,3.958326816558838,-6.9930243492126465,4.195216178894043
1772650972496102700,3.3551025390625,3.8572301864624023,-6.071787357330322,4.555335998535156
1772650972505980200,3.364980224609375,3.7782669067382812,-5.586642742156982,4.369892120361328
1772650972515843800,3.37484375,3.982254981994629,-5.488536834716797,3.5886356830596924
1772650972525735000,3.38473486328125,4.454239368438721,-5.578866004943848,2.691925525665283
1772650972535612400,3.3946123046875,4.847858905792236,-5.7750773429870605,1.9250258207321167
1772650972545475800,3.404475830078125,5.125426292419434,-6.0610198974609375,1.378864049911499
1772650972555367200,3.4143671875,5.531607627868652,-6.3631134033203125,1.0348957777023315
1772650972565244400,3.424244384765625,5.960521221160889,-6.756134510040283,0.6873382925987244
1772650972575122000,3.434121826171875,6.286543369293213,-7.1024956703186035,0.486939400434494
1772650972584999200,3.443999267578125,6.389434814453125,-7.223333358764648,0.4707878530025482
1772650972594876700,3.453876708984375,6.288936138153076,-7.110870838165283,0.592223584651947
1772650972604754000,3.46375390625,6.185446739196777,-6.789036273956299,0.867398202419281
1772650972614631400,3.47363134765625,6.119643688201904,-6.4426751136779785,1.210170030593872
1772650972624508700,3.4835087890625,5.9784674644470215,-6.198009014129639,1.451246976852417
1772650972634386200,3.49338623046875,5.737390518188477,-6.149554252624512,1.591825246810913
1772650972644263400,3.503263427734375,5.484349727630615,-6.231508255004883,1.6031911373138428
1772650972654141000,3.513140869140625,5.443671703338623,-6.250650882720947,1.6013965606689453
1772650972664018400,3.523018310546875,5.5968122482299805,-6.251847267150879,1.6767704486846924
1772650972673895700,3.532895751953125,5.888736724853516,-6.354738712310791,1.7748762369155884
1772650972683773200,3.542773193359375,6.192625045776367,-6.4325056076049805,1.7790635824203491
1772650972693650400,3.552650390625,6.560521602630615,-6.481558322906494,1.6947166919708252
1772650972703528000,3.56252783203125,6.949953556060791,-6.687341213226318,1.5140584707260132
1772650972713405200,3.5724052734375,7.249056339263916,-6.842874526977539,1.3268201351165771
1772650972723282700,3.58228271484375,7.490731239318848,-6.844669342041016,1.3160524368286133
1772650972733160000,3.592159912109375,7.572087287902832,-6.905686378479004,1.3950155973434448
1772650972743037400,3.602037353515625,7.419544696807861,-6.811169624328613,1.5948163270950317
1772650972752914700,3.611914794921875,7.244868755340576,-6.699305057525635,1.9232312440872192
1772650972762792200,3.621792236328125,7.230511665344238,-6.529414653778076,2.2408783435821533
1772650972772669700,3.631669677734375,7.315456867218018,-6.16271448135376,2.6081767082214355
1772650972782547000,3.641546875,7.416553974151611,-5.6823554039001465,2.927020311355591
1772650972792424400,3.651424560546875,7.58943510055542,-5.289932727813721,2.960519790649414
1772650972802301700,3.6613017578125,7.764111042022705,-4.709074974060059,3.016152858734131
1772650972812165400,3.671165283203125,7.790432453155518,-4.291527271270752,2.809173822402954
1772650972822056400,3.681056396484375,7.456035137176514,-3.899702787399292,2.475374937057495
1772650972831934000,3.690933837890625,6.943971157073975,-3.810570001602173,2.004587173461914
1772650972841811200,3.700811279296875,6.446264266967773,-3.672982692718506,1.6115660667419434
1772650972851688700,3.710688720703125,6.111268997192383,-3.7465620040893555,1.2921242713928223
1772650972861566000,3.72056591796875,5.91087007522583,-3.7980077266693115,1.1934202909469604
1772650972871443500,3.730443359375,5.839085578918457,-3.8434712886810303,1.2442678213119507
1772650972881320700,3.74032080078125,6.0502519607543945,-3.9182469844818115,1.5230315923690796
1772650972891198200,3.7501982421875,6.454041004180908,-3.7902309894561768,2.0823538303375244
1772650972901075500,3.760075439453125,6.853642463684082,-3.6083765029907227,2.7768707275390625
1772650972910953000,3.769952880859375,7.164709091186523,-3.517449378967285,3.4235310554504395
1772650972920830500,3.77983056640625,7.442874908447266,-3.5096726417541504,3.910470485687256
1772650972930694000,3.78969384765625,7.75334358215332,-3.438486099243164,4.261617183685303
1772650972940585200,3.799585205078125,8.14098072052002,-3.4707891941070557,4.4482574462890625
1772650972950462500,3.80946240234375,8.58784008026123,-3.5431721210479736,4.451846599578857
1772650972960340000,3.819340087890625,8.82233715057373,-3.6873397827148438,4.233501434326172
1772650972970217200,3.82921728515625,8.913264274597168,-3.8805601596832275,3.9565322399139404
1772650972980094700,3.8390947265625,8.736793518066406,-4.037290096282959,3.813561201095581
1772650972989972000,3.848971923828125,8.36710262298584,-4.167698860168457,3.7776687145233154
1772650972999849500,3.858849365234375,7.839485168457031,-4.265206336975098,3.786043643951416
1772650973009726700,3.868726806640625,7.389634609222412,-4.558925151824951,3.716651678085327
1772650973019604200,3.878604248046875,7.020541667938232,-5.193621635437012,2.799602508544922
1772650973029481700,3.888481689453125,6.603592395782471,-6.084349632263184,1.5571293830871582
1772650973039359000,3.89835888671875,6.656234264373779,-8.041080474853516,0.7525427341461182
1772650973049222700,3.90822265625,6.918846607208252,-9.519247055053711,1.4362918138504028
1772650973059113700,3.91811376953125,7.564310550689697,-10.398011207580566,2.4293131828308105
1772650973068991200,3.9279912109375,9.170493125915527,-11.300105094909668,3.7495529651641846
1772650973078855000,3.93785498046875,10.958529472351074,-10.568499565124512,4.931607246398926
1772650973088746000,3.94774609375,12.359527587890625,-7.7114691734313965,5.877370834350586
1772650973098623200,3.957623291015625,12.3942232131958,-6.296114444732666,5.68893575668335
1772650973108500700,3.967500732421875,11.092527389526367,-6.946962356567383,4.244269371032715
1772650973118378000,3.9773779296875,9.145966529846191,-7.641479015350342,2.390429735183716
1772650973128255500,3.98725537109375,7.686344623565674,-7.913662910461426,0.40378883481025696
1772650973138119200,3.997119140625,6.5712890625,-8.11824893951416,-1.6175481081008911
1772650973148010200,4.00701025390625,6.251847267150879,-8.233104705810547,-3.108874797821045
1772650973157887500,4.016887451171875,6.429514408111572,-8.317451477050781,-3.7902309894561768
1772650973167751200,4.026751220703125,6.6418776512146,-8.313263893127441,-3.893122434616089
1772650973177642500,4.036642578125,6.668198585510254,-8.036892890930176,-3.4366915225982666
1772650973187519700,4.046519775390625,6.452246189117432,-7.420143127441406,-2.441277265548706
1772650973197383400,4.056383544921875,6.061617851257324,-6.5419769287109375,-1.1928220987319946
1772650973207274500,4.0662744140625,5.8235321044921875,-5.7756757736206055,-0.001794616924598813
1772650973217152000,4.076152099609375,5.405984401702881,-5.466403484344482,0.8165507316589355
1772650973227015700,4.086015625,5.096114158630371,-5.269593715667725,1.5565310716629028
1772650973236906800,4.09590673828125,4.966901779174805,-5.20379114151001,2.0476579666137695
1772650973246784000,4.105783935546875,4.913661479949951,-5.358128070831299,2.6189444065093994
1772650973256647700,4.115647705078125,4.932205677032471,-5.554339408874512,3.025724172592163
1772650973266538800,4.125538818359375,5.149952411651611,-5.587839126586914,3.22552490234375
1772650973276416300,4.135416259765625,5.740381717681885,-5.697310924530029,3.31465744972229
1772650973286280000,4.145280029296875,6.671787738800049,-5.556732177734375,3.6197423934936523
1772650973296171000,4.1551708984375,7.613961696624756,-5.285745143890381,3.4277184009552
1772650973306048500,4.165048583984375,8.58185863494873,-4.992624282836914,2.9874391555786133
1772650973315912000,4.174911865234375,9.186046600341797,-4.803591251373291,2.059023857116699
1772650973325803300,4.18480322265625,9.358927726745605,-4.8299126625061035,0.97148597240448
1772650973335680500,4.194680419921875,9.18724250793457,-4.71744966506958,0.02512463741004467
1772650973345544200,4.204544189453125,8.3629150390625,-5.300102233886719,-1.2430713176727295
1772650973355435300,4.214435302734375,7.655237674713135,-5.688337802886963,-1.3914263248443604
1772650973365312800,4.224312744140625,6.815357208251953,-5.169693470001221,-1.1958130598068237
1772650973375190000,4.23418994140625,6.747759819030762,-4.910670280456543,-0.7860422134399414
1772650973385067500,4.244067626953125,7.207181930541992,-4.960919380187988,-0.47976094484329224
1772650973394945000,4.253945068359375,7.728219032287598,-5.068596363067627,-0.41096729040145874
1772650973404822300,4.263822265625,8.21874713897705,-5.237888813018799,-0.3684946894645691
1772650973414699800,4.27369970703125,9.216554641723633,-5.279763221740723,0.6005984544754028
1772650973424577000,4.283576904296875,10.869397163391113,-4.418346881866455,2.765504837036133
1772650973434440700,4.293440673828125,9.737591743469238,-5.574678421020508,1.4877375364303589
1772650973444331800,4.303331787109375,4.70608377456665,-9.346364974975586,-3.129812002182007
1772650973454209300,4.313209228515625,0.592223584651947,-11.20917797088623,-3.7914273738861084
1772650973464073000,4.323072998046875,1.1497513055801392,-8.315656661987305,-1.683350682258606
1772650973473964000,4.332964111328125,2.7248268127441406,-5.216951370239258,0.7860422134399414
1772650973483841300,4.34284130859375,4.799404144287109,-4.510470867156982,2.029113531112671
1772650973493705000,4.352705078125,7.2059855461120605,-5.442475318908691,1.8460626602172852
1772650973503596000,4.362595947265625,9.173483848571777,-6.204588890075684,0.9601200819015503
1772650973513473500,4.3724736328125,10.39083194732666,-6.308676719665527,0.31106695532798767
1772650973523337200,4.382337158203125,10.015159606933594,-6.609574317932129,-0.623330295085907
1772650973533228300,4.392228271484375,8.654839515686035,-7.0271220207214355,-1.323829174041748
1772650973543105800,4.402105712890625,7.368697166442871,-6.988836765289307,-1.8251254558563232
1772650973552983000,4.411983154296875,6.4115681648254395,-6.594619274139404,-1.8945173025131226
1772650973562860500,4.421860595703125,7.214958667755127,-6.049055576324463,-1.2813565731048584
1772650973572737800,4.43173779296875,8.019545555114746,-5.7756757736206055,-0.9320043921470642
1772650973582615300,4.441615234375,7.965108394622803,-5.962913990020752,-1.0630114078521729
1772650973592492500,4.451492431640625,7.985447406768799,-6.017350673675537,-0.7860422134399414
1772650973602370000,4.4613701171875,8.73619556427002,-6.283552169799805,-0.6771687865257263
1772650973612247300,4.471247314453125,8.432307243347168,-6.69571590423584,-0.4833501875400543
1772650973622124800,4.481124755859375,7.445865631103516,-5.774479389190674,0.4378865361213684
1772650973632002300,4.491002197265625,7.479963779449463,-5.1320061683654785,0.8225327730178833
1772650973641879600,4.500879638671875,7.576274871826172,-5.209175109863281,1.1491531133651733
1772650973651757000,4.510757080078125,7.509873867034912,-5.272584915161133,1.26699960231781
1772650973661634300,4.52063427734375,7.365108013153076,-6.072983741760254,0.9607182741165161
1772650973671511800,4.53051171875,7.235297679901123,-5.883950710296631,1.0474581718444824
1772650973681389000,4.54038916015625,7.028318405151367,-5.60099983215332,0.7692924737930298
1772650973691266600,4.5502666015625,7.11146879196167,-5.5722856521606445,0.7830511927604675
1772650973701143800,4.560143798828125,7.29093074798584,-5.60817813873291,0.7280163168907166
1772650973711021300,4.570021240234375,7.505686283111572,-5.5722856521606445,0.6029912829399109
1772650973720898600,4.579898681640625,7.779664516448975,-5.606383323669434,0.43968117237091064
1772650973730776000,4.589776123046875,8.10987377166748,-5.647061347961426,0.33439695835113525
1772650973740653600,4.599653564453125,8.429315567016602,-5.592624664306641,0.3397808074951172
1772650973750530800,4.60953076171875,8.644071578979492,-5.482554912567139,0.34217363595962524
1772650973760408000,4.619407958984375,8.777471542358398,-5.3748779296875,0.3290131092071533
1772650973770285600,4.62928564453125,8.793622970581055,-5.328815937042236,0.1501496136188507
1772650973780163000,4.6391630859375,8.73619556427002,-5.4143595695495605,-0.08075776696205139
1772650973790040300,4.649040283203125,8.629117012023926,-5.6656060218811035,-0.355932354927063
1772650973799917800,4.658917724609375,8.512466430664062,-5.903093338012695,-0.729810893535614
1772650973809795000,4.668795166015625,8.45324420928955,-6.107679843902588,-1.1802598237991333
1772650973819658800,4.67865869140625,8.321639060974121,-6.412166595458984,-1.7772690057754517
1772650973829549800,4.6885498046875,7.829315662384033,-7.105486869812012,-2.466402053833008
1772650973839427300,4.69842724609375,6.915257453918457,-8.029714584350586,-3.0562326908111572
1772650973849291000,4.708291015625,5.883352756500244,-8.840283393859863,-3.3230323791503906
1772650973859182000,4.71818212890625,5.115854740142822,-9.06281566619873,-3.0867412090301514
1772650973869059300,4.728059326171875,5.127819061279297,-8.793025016784668,-2.2911276817321777
1772650973878936800,4.737936767578125,5.880959987640381,-8.554341316223145,-1.3148560523986816
1772650973888814300,4.747814453125,6.966104984283447,-8.45324420928955,-0.37866419553756714
1772650973898691600,4.757691650390625,8.212167739868164,-8.408976554870605,0.5144568681716919
1772650973908555300,4.76755517578125,9.473783493041992,-8.336593627929688,1.3932210206985474
1772650973918446300,4.7774462890625,10.559526443481445,-8.150551795959473,2.2857437133789062
1772650973928323800,4.78732373046875,11.170892715454102,-7.893921852111816,3.214757204055786
1772650973938187500,4.7971875,11.33360481262207,-7.481758117675781,4.098307132720947
1772650973948078600,4.80707861328125,10.952547073364258,-6.990631580352783,4.72881555557251
1772650973957955800,4.816955810546875,9.964909553527832,-6.650850772857666,4.94775915145874
1772650973967819500,4.826819580078125,8.669795036315918,-6.507879257202148,4.670191764831543
1772650973977710600,4.836710693359375,7.272984504699707,-6.451648235321045,3.8979079723358154
1772650973987588000,4.846588134765625,6.048457622528076,-6.477370738983154,2.878565549850464
1772650973997451800,4.85645166015625,5.142175674438477,-6.668796539306641,1.6636099815368652
1772650974007342800,4.8663427734375,4.578067779541016,-7.010970115661621,0.5042873620986938
1772650974017220000,4.87622021484375,4.384249210357666,-7.365108013153076,-0.5204389095306396
1772650974027083800,4.886083740234375,4.632504463195801,-7.5433735847473145,-1.1276177167892456
1772650974036975000,4.89597509765625,5.088337421417236,-7.565506935119629,-1.3914263248443604
1772650974046852400,4.905852294921875,5.599205017089844,-7.466204643249512,-1.4344971179962158
1772650974056729900,4.915729736328125,6.202794551849365,-7.363313674926758,-1.3878371715545654
1772650974066607000,4.925607177734375,6.795616149902344,-7.336394309997559,-1.2424731254577637
1772650974076484600,4.935484619140625,7.263412952423096,-7.313662528991699,-1.042074203491211
1772650974086361900,4.94536181640625,7.4811601638793945,-7.226922512054443,-0.8009973764419556
1772650974096239400,4.9552392578125,7.316653251647949,-7.134799003601074,-0.5892325639724731
1772650974106116600,4.96511669921875,6.850651264190674,-7.0301127433776855,-0.4546363055706024
1772650974115994000,4.974994140625,6.286543369293213,-6.954140663146973,-0.24167509377002716
1772650974125871400,4.984871337890625,5.797211170196533,-6.874579429626465,0.05024927482008934
1772650974135748900,4.994748779296875,5.587240695953369,-6.725626468658447,0.47617170214653015
1772650974145626400,5.00462646484375,5.535196781158447,-6.580262184143066,1.0492527484893799
1772650974155503600,5.014503662109375,5.551946640014648,-6.372086524963379,1.5828521251678467
1772650974165381000,5.024381103515625,5.592026710510254,-6.184848308563232,2.0027925968170166
1772650974175244500,5.03424462890625,5.5968122482299805,-5.986244201660156,2.270190477371216
1772650974185135900,5.044135986328125,5.651248931884766,-5.90369176864624,2.407179594039917
1772650974195013000,5.05401318359375,5.754140377044678,-5.888736724853516,2.461616277694702
1772650974204890600,5.063890625,5.944967746734619,-5.818148136138916,2.495713949203491
1772650974214767900,5.073767822265625,6.255436420440674,-5.774479389190674,2.4705893993377686
1772650974224645400,5.083645263671875,6.6107707023620605,-5.788238048553467,2.3976082801818848
1772650974234522600,5.093522705078125,6.974479675292969,-5.843272686004639,2.2229323387145996
1772650974244400000,5.103400146484375,7.373483180999756,-5.997011661529541,1.9537396430969238
1772650974254277600,5.113277587890625,7.631907939910889,-6.26440954208374,1.5906288623809814
1772650974264155000,5.12315478515625,7.633702278137207,-6.401997089385986,1.1563315391540527
1772650974274032000,5.1330322265625,7.506882667541504,-6.424728870391846,0.8183453679084778
1772650974283909600,5.14290966796875,7.308278560638428,-6.362515449523926,0.6496513485908508
1772650974293787100,5.152787109375,7.211967468261719,-6.260820388793945,0.6299105882644653
1772650974303664400,5.162664306640625,7.2089762687683105,-6.058627128601074,0.735194742679596
1772650974313542000,5.1725419921875,7.2681989669799805,-5.828317642211914,0.8679963946342468
1772650974323419100,5.182419189453125,7.377072334289551,-5.61954402923584,0.9918249845504761
1772650974333296600,5.192296630859375,7.512266635894775,-5.375475883483887,1.0414760112762451
1772650974343174000,5.202173828125,7.578667640686035,-5.169693470001221,1.0701899528503418
1772650974353051400,5.212051513671875,7.63729190826416,-4.985445976257324,1.074975609779358
1772650974362928600,5.2219287109375,7.670193195343018,-4.8568315505981445,1.0259226560592651
1772650974372806100,5.23180615234375,7.598408222198486,-4.786243438720703,0.9756734371185303
1772650974382683400,5.241683349609375,7.485945701599121,-4.7234320640563965,0.9014959335327148
1772650974392561000,5.251560791015625,7.325626373291016,-4.685744762420654,0.8703892230987549
1772650974402438100,5.261438232421875,7.136593341827393,-4.636094093322754,0.9020941257476807
1772650974412315600,5.271315673828125,6.917052268981934,-4.6510491371154785,0.9457631707191467
1772650974422193200,5.281193115234375,6.740581512451172,-4.696512699127197,0.9559326171875
1772650974432070400,5.2910703125,6.595217227935791,-4.765904426574707,0.9649057388305664
1772650974441948000,5.300947998046875,6.50189733505249,-4.799404144287109,1.0247262716293335
1772650974451825200,5.3108251953125,6.524031162261963,-4.862813949584961,1.1258230209350586
1772650974461702700,5.32070263671875,6.672386169433594,-4.911268711090088,1.2496516704559326
1772650974471580000,5.330579833984375,6.854838848114014,-4.971088886260986,1.3878371715545654
1772650974481457400,5.34045751953125,7.079763889312744,-5.078167915344238,1.6522440910339355
1772650974491334700,5.350334716796875,7.427321434020996,-5.190032482147217,2.012363910675049
1772650974501212200,5.360212158203125,7.960920810699463,-5.212764263153076,2.4538395404815674
1772650974511089400,5.37008935546875,8.822935104370117,-4.984249591827393,3.0101709365844727
1772650974520967000,5.379966796875,9.873384475708008,-4.633102893829346,3.4438700675964355
1772650974530830600,5.38983056640625,10.740184783935547,-4.439284324645996,3.648456335067749
1772650974540721700,5.3997216796875,11.243873596191406,-4.457230567932129,3.565305709838867
1772650974550599000,5.409598876953125,11.451451301574707,-4.555335998535156,3.246462106704712
1772650974560462600,5.419462646484375,11.431710243225098,-4.685744762420654,2.761317253112793
1772650974570354000,5.42935400390625,11.168499946594238,-4.833501815795898,2.1397817134857178
1772650974580231200,5.439231201171875,10.652846336364746,-5.143372058868408,1.3657035827636719
1772650974590094800,5.4490947265625,10.077970504760742,-5.651248931884766,0.6251249313354492
1772650974599986000,5.45898583984375,9.538389205932617,-6.3463640213012695,0.2267199456691742
1772650974609863400,5.468863525390625,9.233304023742676,-7.1856465339660645,0.08614161610603333
1772650974619727000,5.47872705078125,9.212367057800293,-8.097909927368164,-0.2787638306617737
1772650974629618200,5.4886181640625,9.319445610046387,-8.677571296691895,-0.7782655358314514
1772650974639495400,5.498495361328125,9.309276580810547,-8.498109817504883,-0.7519445419311523
1772650974649373000,5.508373046875,8.953344345092773,-7.859225749969482,-0.35413774847984314
1772650974659250200,5.518250244140625,8.294719696044922,-7.304689407348633,-0.29312077164649963
1772650974669127700,5.528127685546875,7.8819580078125,-7.0169525146484375,-0.7184450030326843
1772650974679005000,5.5380048828125,8.209774017333984,-6.99122953414917,-1.4159528017044067
1772650974688882400,5.54788232421875,9.006584167480469,-6.970890522003174,-2.114656925201416
1772650974698759700,5.557759765625,9.407979965209961,-6.700501441955566,-2.6668007373809814
1772650974708637200,5.56763720703125,9.21296501159668,-6.364908218383789,-2.6979074478149414
1772650974718514700,5.5775146484375,8.493922233581543,-6.052046775817871,-2.3509483337402344
1772650974728392000,5.587391845703125,7.551748275756836,-5.645267009735107,-1.815554141998291
1772650974738255600,5.597255615234375,6.7316083908081055,-5.068596363067627,-1.057627558708191
1772650974748146700,5.607146728515625,6.168098449707031,-4.393222332000732,-0.30987054109573364
1772650974758024200,5.617024169921875,5.894718647003174,-3.8763725757598877,0.2315055876970291
1772650974767887600,5.6268876953125,5.579464435577393,-3.8524444103240967,0.12741780281066895
1772650974777779000,5.636779052734375,5.403591632843018,-4.067798614501953,0.13519448041915894
1772650974787656200,5.64665625,5.24626350402832,-4.314259052276611,-0.15493527054786682
1772650974797533700,5.65653369140625,5.01296329498291,-4.665405750274658,-0.6197410821914673
1772650974807411000,5.666410888671875,5.002195835113525,-5.124827861785889,-1.0390832424163818
1772650974817288400,5.676288330078125,5.018347263336182,-5.678766250610352,-1.3603196144104004
1772650974827165700,5.686165771484375,5.033900737762451,-6.029314994812012,-1.6115660667419434
1772650974837043200,5.696043212890625,5.120640277862549,-6.278168201446533,-1.690529227256775
1772650974846920700,5.705920654296875,5.501697540283203,-6.460621356964111,-1.482353687286377
1772650974856798000,5.7157978515625,6.3361945152282715,-6.592226505279541,-1.129412293434143
1772650974866675200,5.72567529296875,7.598408222198486,-6.625127792358398,-0.7956135272979736
1772650974876552700,5.735552734375,9.065208435058594,-6.5527448654174805,-0.5060819983482361
1772650974886416400,5.74541650390625,10.573883056640625,-6.357131481170654,-0.3397808074951172
1772650974896307500,5.755307373046875,11.69312572479248,-6.109474182128906,-0.3128615617752075
1772650974906185000,5.76518505859375,12.067004203796387,-5.915655612945557,-0.4498506486415863
1772650974916048400,5.77504833984375,11.710474014282227,-5.763113498687744,-0.5742774605751038
1772650974925939700,5.784939697265625,10.6295166015625,-5.541179180145264,-0.617946445941925
1772650974935817000,5.79481689453125,9.159725189208984,-5.264209747314453,-0.5359922647476196
1772650974945680600,5.8046806640625,7.807182312011719,-5.024927616119385,-0.4408775866031647
1772650974955571700,5.81457177734375,6.762714862823486,-4.789234638214111,-0.31764721870422363
1772650974965449200,5.82444921875,6.0472612380981445,-4.562514781951904,-0.2315055876970291
1772650974975313000,5.83431298828125,5.604588985443115,-4.361517429351807,-0.25064817070961
1772650974985204000,5.844203857421875,5.413163185119629,-4.262813568115234,-0.3439682424068451
1772650974995081200,5.854081298828125,5.484947681427002,-4.326223373413086,-0.47976094484329224
1772650975004958700,5.863958740234375,5.798407554626465,-4.514657974243164,-0.6005984544754028
1772650975014836200,5.873836181640625,6.3463640213012695,-4.792225360870361,-0.6807580590248108
1772650975024713500,5.88371337890625,7.080960273742676,-5.107480049133301,-0.7513462901115417
1772650975034590700,5.8935908203125,7.82692289352417,-5.285147190093994,-0.6741777658462524
1772650975044468200,5.90346826171875,8.486743927001953,-5.343173027038574,-0.5138586759567261
1772650975054345700,5.913345703125,9.019744873046875,-5.302495002746582,-0.19202402234077454
1772650975064209200,5.923209228515625,9.464211463928223,-5.254638671875,0.1537388563156128
1772650975074100500,5.9331005859375,9.780064582824707,-5.173880577087402,0.4899304509162903
1772650975083977700,5.942977783203125,9.858428955078125,-5.111667156219482,0.7130611538887024
1772650975093855200,5.952855224609375,9.746564865112305,-5.051248550415039,0.8745766878128052
1772650975103732500,5.962732421875,9.46899700164795,-4.95074987411499,0.9798609018325806
1772650975113610000,5.97260986328125,9.078967094421387,-4.799404144287109,1.0031908750534058
1772650975123487200,5.9824873046875,8.684749603271484,-4.721039295196533,0.8871390223503113
1772650975133364700,5.99236474609375,8.297112464904785,-4.758127689361572,0.6484549641609192
1772650975143242000,6.002241943359375,7.938787460327148,-4.754538536071777,0.4163511395454407
1772650975153119500,6.012119384765625,7.7114691734313965,-4.754538536071777,0.20997019112110138
1772650975162996700,6.021996826171875,7.605587005615234,-4.692325115203857,0.0687936544418335
1772650975172874200,6.031874267578125,7.609774112701416,-4.593023300170898,-0.02273181453347206
1772650975182751500,6.04175146484375,7.716853141784668,-4.473381996154785,-0.06939185410737991
1772650975192629000,6.05162890625,7.8693952560424805,-4.34955358505249,-0.12622138857841492
1772650975202506200,6.06150634765625,7.988438606262207,-4.260420799255371,-0.12263216078281403
1772650975212383700,6.0713837890625,8.167302131652832,-4.216751575469971,-0.10468599200248718
1772650975222261000,6.081260986328125,8.315058708190918,-4.182653903961182,-0.05563312768936157
1772650975232138500,6.091138427734375,8.394021987915039,-4.135993957519531,0.037088751792907715
1772650975242016000,6.10101611328125,8.504091262817383,-4.074976921081543,0.15493527054786682
1772650975251893200,6.110893310546875,8.606385231018066,-4.025924205780029,0.25423741340637207
1772650975261770800,6.120770751953125,8.781061172485352,-4.022933006286621,0.26500511169433594
1772650975271648000,6.13064794921875,8.988637924194336,-4.013361930847168,0.18783657252788544
1772650975281525500,6.140525390625,9.179466247558594,-4.046861171722412,0.07597211748361588
1772650975291402800,6.15040283203125,9.270991325378418,-4.150351047515869,-0.035892341285943985
1772650975301280300,6.1602802734375,9.197412490844727,-4.289732933044434,-0.12442677468061447
1772650975311157500,6.170157470703125,9.118449211120605,-4.395017147064209,-0.16151553392410278
1772650975321035000,6.180034912109375,9.042476654052734,-4.4410786628723145,-0.20099709928035736
1772650975330912300,6.189912353515625,8.918049812316895,-4.46560525894165,-0.2554338276386261
1772650975340789800,6.199789794921875,8.74636459350586,-4.498506546020508,-0.2949153780937195
1772650975350667000,6.2096669921875,8.553144454956055,-4.555934429168701,-0.30987054109573364
1772650975360544500,6.21954443359375,8.380861282348633,-4.567898273468018,-0.22791635990142822
1772650975370421800,6.229421875,8.383852005004883,-4.525425910949707,-0.035892341285943985
1772650975380299300,6.23929931640625,8.558527946472168,-4.47697114944458,0.2183450609445572
1772650975390176500,6.249176513671875,8.902496337890625,-4.454239368438721,0.44745782017707825
1772650975400054000,6.259053955078125,9.29731273651123,-4.48414945602417,0.7016952633857727
1772650975409931300,6.26893115234375,9.496515274047852,-4.5684967041015625,1.0372886657714844
1772650975419808800,6.278808837890625,9.549755096435547,-4.60857629776001,1.3597214221954346
1772650975429686300,6.288686279296875,9.57188892364502,-4.628915309906006,1.4739787578582764
1772650975439563500,6.2985634765625,9.624530792236328,-4.77248477935791,1.3657035827636719
1772650975449440800,6.308440673828125,9.599406242370605,-5.130809783935547,1.1120643615722656
1772650975459318300,6.318318359375,9.43609619140625,-5.650650501251221,0.9014959335327148
1772650975469195800,6.32819580078125,9.230313301086426,-6.180062770843506,0.7597211599349976
1772650975479059200,6.33805908203125,9.215357780456543,-6.641279220581055,0.6382854580879211
1772650975488950500,6.347950439453125,9.42353343963623,-6.861418724060059,0.5204389095306396
1772650975498827800,6.357827880859375,9.762716293334961,-6.842276573181152,0.3900300860404968
1772650975508705300,6.367705322265625,10.062417030334473,-6.664011001586914,0.1537388563156128
1772650975518582500,6.37758251953125,10.130014419555664,-6.4510498046875,-0.25363919138908386
1772650975528460000,6.3874599609375,9.998409271240234,-6.0640106201171875,-0.7076773047447205
1772650975538337300,6.397337158203125,10.268199920654297,-5.945566177368164,-0.6406782865524292
1772650975548214800,6.40721484375,10.330413818359375,-5.886343479156494,-0.39601215720176697
1772650975558092000,6.417092041015625,10.036096572875977,-5.726024627685547,-0.25363919138908386
1772650975567969500,6.426969482421875,9.250054359436035,-5.643472194671631,-0.28235307335853577
1772650975577846800,6.4368466796875,8.48734188079834,-5.460421085357666,-0.3433700501918793
1772650975587724300,6.446724365234375,8.1553373336792,-5.357530117034912,-0.15254244208335876
1772650975597601500,6.4566015625,7.902296543121338,-5.309075355529785,0.0526420995593071
1772650975607479000,6.46647900390625,7.606184959411621,-5.266602516174316,0.13220344483852386
1772650975617356500,6.4763564453125,7.350152969360352,-5.182255744934082,0.08195417374372482
1772650975627233800,6.48623388671875,7.148557662963867,-5.102096080780029,0.037088751792907715
1772650975637111000,6.496111083984375,7.105486869812012,-5.0703911781311035,0.129810631275177
1772650975646988500,6.505988525390625,7.067800045013428,-5.1050872802734375,0.24646073579788208
1772650975656866000,6.515865966796875,7.113861560821533,-5.142175674438477,0.3900300860404968
1772650975666743300,6.525743408203125,7.334001541137695,-5.175675392150879,0.5443671345710754
1772650975676620800,6.535620849609375,7.523034572601318,-5.123631477355957,0.6454638838768005
1772650975686498000,6.545498046875,7.599006652832031,-5.06082010269165,0.7256234884262085
1772650975696375600,6.55537548828125,7.6151580810546875,-4.95493745803833,0.784247636795044
1772650975706252800,6.565252685546875,7.51286506652832,-4.962714195251465,1.01814603805542
1772650975716130300,6.57513037109375,7.53559684753418,-5.007579803466797,1.2999008893966675
1772650975726007600,6.585007568359375,7.497311592102051,-5.019543647766113,1.583450436592102
1772650975735885000,6.594885009765625,7.5050883293151855,-4.951946258544922,1.8831514120101929
1772650975745762300,6.60476220703125,7.512266635894775,-4.873581409454346,2.100898265838623
1772650975755639800,6.614639892578125,7.469794273376465,-4.90827751159668,2.499901533126831
1772650975765517000,6.62451708984375,7.782655715942383,-4.810770034790039,2.867199659347534
1772650975775394600,6.63439453125,8.25105094909668,-4.625326156616211,3.1800613403320312
1772650975785271800,6.644271728515625,8.644669532775879,-4.494917392730713,3.1890344619750977
1772650975795149300,6.6541494140625,9.142376899719238,-4.337589263916016,2.668595552444458
1772650975805026600,6.664026611328125,9.302098274230957,-4.112663745880127,1.908276081085205
1772650975814904000,6.673904052734375,9.09691333770752,-4.277170658111572,1.2149556875228882
1772650975824781300,6.68378125,8.684151649475098,-4.665405750274658,0.7034898400306702
1772650975834658800,6.693658935546875,8.412566184997559,-5.024927616119385,0.39122650027275085
1772650975844536000,6.7035361328125,8.512466430664062,-5.434698581695557,0.37088751792907715
1772650975854413600,6.71341357421875,8.93539810180664,-6.003592014312744,0.5730810165405273
1772650975864290800,6.723290771484375,9.275178909301758,-6.477969169616699,0.981655478477478
1772650975874168300,6.733168212890625,9.520442962646484,-6.616154670715332,1.9591234922409058
1772650975884045600,6.743045654296875,9.662816047668457,-6.860820770263672,2.297109842300415
1772650975893909200,6.7529091796875,9.316454887390137,-8.298309326171875,1.445863127708435
1772650975903800300,6.76280029296875,10.156335830688477,-12.939188003540039,0.7441678643226624
1772650975913677800,6.772677734375,9.293723106384277,-12.836894989013672,5.385645389556885
1772650975923541500,6.78254150390625,8.904889106750488,-5.271388053894043,1.6163517236709595
1772650975933432600,6.7924326171875,11.505289077758789,0.061016976833343506,-8.74337387084961
1772650975943310000,6.80231005859375,14.006387710571289,-4.602594375610352,-5.665007591247559
1772650975953173500,6.812173583984375,15.830914497375488,-6.654439926147461,-0.8303094506263733
1772650975963064800,6.82206494140625,15.943377494812012,-2.667997360229492,3.479762315750122
1772650975972942000,6.831942138671875,12.959527015686035,1.200000524520874,8.123632431030273
1772650975982805800,6.8418056640625,9.951749801635742,3.3577284812927246,10.302896499633789
1772650975992696800,6.85169677734375,6.320641040802002,2.0105693340301514,7.9830546379089355
1772650976002574300,6.86157421875,3.747758388519287,0.04546362906694412,2.892324447631836
1772650976012437800,6.871437744140625,2.999403238296509,-1.4315061569213867,0.11964113265275955
1772650976022329000,6.8813291015625,3.198007345199585,-2.7553353309631348,-1.5212370157241821
1772650976032206300,6.891206298828125,4.210171222686768,-3.3924243450164795,-1.9094724655151367
1772650976042070000,6.901070068359375,4.849653244018555,-3.1280174255371094,-1.7168502807617188
1772650976051961000,6.910961181640625,5.043471813201904,-2.7014968395233154,-1.6002001762390137
1772650976061838600,6.920838623046875,4.8466620445251465,-3.0000014305114746,-1.7964116334915161
1772650976071702300,6.930702392578125,4.240679740905762,-3.9248273372650146,-2.2372891902923584
1772650976081593300,6.94059326171875,3.7507495880126953,-5.275575637817383,-2.8941190242767334
1772650976091470600,6.950470703125,3.7710886001586914,-6.845267295837402,-3.187838077545166
1772650976101334300,6.960334228515625,4.116851329803467,-7.716853141784668,-2.6392834186553955
1772650976111225300,6.970225341796875,4.617549419403076,-7.378268718719482,-1.0432707071304321
1772650976121102800,6.980102783203125,5.427519798278809,-6.667002201080322,0.9762716293334961
1772650976130966500,6.989966552734375,6.805187702178955,-6.231508255004883,3.0969107151031494
1772650976140857600,6.999857666015625,9.469595909118652,-5.8337016105651855,5.0943193435668945
1772650976150734800,7.00973486328125,12.226725578308105,-5.439484119415283,6.300302028656006
1772650976160598500,7.0195986328125,13.447065353393555,-5.371886730194092,6.416353702545166
1772650976170489600,7.029489501953125,12.990036010742188,-5.236692428588867,6.2428741455078125
1772650976180367000,7.0393671875,11.184651374816895,-5.087141036987305,5.638088226318359
1772650976190230800,7.049230712890625,9.10827922821045,-5.236692428588867,4.510470867156982
1772650976200121900,7.059121826171875,7.464410305023193,-5.4658050537109375,3.3924243450164795
1772650976209999000,7.0689990234375,6.5150580406188965,-5.553741455078125,2.7050859928131104
1772650976219862800,7.07886279296875,6.193821430206299,-5.449653625488281,2.2480568885803223
1772650976229753900,7.08875390625,6.481558322906494,-5.269593715667725,2.059023857116699
1772650976239631400,7.09863134765625,6.839883327484131,-5.225924491882324,1.9453648328781128
1772650976249508600,7.108508544921875,7.308278560638428,-5.401198863983154,1.6737794876098633
1772650976259386000,7.11838623046875,8.199007034301758,-5.458626747131348,1.506281852722168
1772650976269263600,7.128263671875,9.521040916442871,-5.285147190093994,1.466800332069397
1772650976279127000,7.138126953125,10.804790496826172,-4.96630334854126,1.3465609550476074
1772650976289018400,7.148018310546875,11.720643043518066,-4.635495662689209,1.1635099649429321
1772650976298895600,7.1578955078125,12.095718383789062,-4.225724697113037,0.9744769930839539
1772650976308759300,7.16775927734375,11.962916374206543,-3.871587038040161,0.828514814376831
1772650976318650400,7.177650390625,11.33360481262207,-3.769293785095215,0.5916253924369812
1772650976328528000,7.18752783203125,10.361519813537598,-3.762115478515625,0.45164528489112854
1772650976338405000,7.197405029296875,9.6466646194458,-3.556332588195801,0.5359922647476196
1772650976348282600,7.20728271484375,9.311071395874023,-3.270390272140503,0.6251249313354492
1772650976358160000,7.217159912109375,9.114261627197266,-3.081955671310425,0.7166503667831421
1772650976368037400,7.227037353515625,8.963513374328613,-2.906083106994629,0.7417750358581543
1772650976377914600,7.23691455078125,8.782855987548828,-2.750549554824829,0.5784648656845093
1772650976387792100,7.246792236328125,8.863015174865723,-2.513660192489624,0.3732803463935852
1772650976397655600,7.256655517578125,10.227521896362305,-1.098305583000183,-0.04187439754605293
1772650976407547000,7.266546875,10.1276216506958,-1.8490537405014038,1.0767701864242554
1772650976417424100,7.276424072265625,8.73200798034668,-2.5459632873535156,1.8041882514953613
1772650976427301600,7.286301513671875,8.094321250915527,-2.5495524406433105,1.734796404838562
1772650976437179000,7.296178955078125,7.77607536315918,-2.0440688133239746,1.2759727239608765
1772650976447056400,7.306056396484375,7.238886833190918,-1.794616937637329,0.641276478767395
1772650976456919800,7.315919921875,6.777669906616211,-1.8855443000793457,0.06041877344250679
1772650976466811100,7.32581103515625,6.813562393188477,-2.115255117416382,-0.3116651475429535
1772650976476688400,7.3356884765625,7.27956485748291,-2.386242389678955,-0.43489551544189453
1772650976486566000,7.34556591796875,7.832306861877441,-2.6452653408050537,-0.5078766345977783
1772650976496443100,7.355443115234375,8.3898344039917,-2.819343328475952,-0.6963114142417908
1772650976506320600,7.365320556640625,9.034700393676758,-2.943770170211792,-0.9978070259094238
1772650976516184000,7.37518408203125,9.80100154876709,-2.9186453819274902,-1.2083754539489746
1772650976526075400,7.385075439453125,10.710273742675781,-2.8079774379730225,-1.184447169303894
1772650976535952600,7.39495263671875,11.6123685836792,-2.5645077228546143,-1.0205388069152832
1772650976545816300,7.40481640625,12.187243461608887,-2.4113669395446777,-0.9314061999320984
1772650976555707400,7.414707275390625,12.378669738769531,-2.3359930515289307,-0.9092726111412048
1772650976565585000,7.4245849609375,12.297313690185547,-2.286940336227417,-0.7094719409942627
1772650976575462100,7.434462158203125,12.041281700134277,-2.0895323753356934,-0.44327038526535034
1772650976585339600,7.444339599609375,11.562119483947754,-1.716252088546753,-0.35533416271209717
1772650976595217000,7.454216796875,10.956734657287598,-1.4057832956314087,-0.5796613097190857
1772650976605094400,7.464094482421875,10.243673324584961,-1.2077772617340088,-0.8033902049064636
1772650976614971600,7.4739716796875,9.592227935791016,-1.4374881982803345,-1.1461620330810547
1772650976624849200,7.48384912109375,9.129216194152832,-1.7593228816986084,-1.4464613199234009
1772650976634712800,7.493712890625,8.790632247924805,-1.9680966138839722,-1.6713865995407104
1772650976644604000,7.50360400390625,8.680562019348145,-2.0243279933929443,-1.7922241687774658
1772650976654481200,7.513481201171875,8.82114028930664,-1.949552297592163,-1.7820546627044678
1772650976664358700,7.523358642578125,9.040681838989258,-1.7521443367004395,-1.648654818534851
1772650976674236000,7.53323583984375,9.276374816894531,-1.5798611640930176,-1.4817553758621216
1772650976684113400,7.543113525390625,9.472586631774902,-1.5158531665802002,-1.2999008893966675
1772650976693990700,7.55299072265625,9.69511890411377,-1.576271891593933,-1.2095718383789062
1772650976703868200,7.5628681640625,9.710074424743652,-1.677966833114624,-1.1467602252960205
1772650976713745400,7.572745361328125,9.32303524017334,-1.7156537771224976,-0.9565308690071106
1772650976723623000,7.582622802734375,9.179466247558594,-1.4865410327911377,-0.8703892230987549
1772650976733500200,7.592500244140625,9.107083320617676,-1.2664014101028442,-0.7411768436431885
1772650976743377700,7.602377685546875,9.235098838806152,-1.007378339767456,-0.6634100675582886
1772650976753255000,7.6122548828125,10.493125915527344,-0.2997010350227356,-0.486939400434494
1772650976763132400,7.62213232421875,8.754141807556152,-0.34217363595962524,-0.7304090857505798
1772650976773009700,7.632009765625,8.164310455322266,-1.2185449600219727,-1.3884353637695312
1772650976782887200,7.64188720703125,8.069794654846191,-2.1774685382843018,-1.8765711784362793
1772650976792764400,7.651764404296875,8.402995109558105,-2.620738983154297,-2.1876380443573
1772650976802642000,7.661641845703125,8.952147483825684,-2.485544443130493,-1.960319995880127
1772650976812505600,7.671505615234375,9.827920913696289,-1.4997016191482544,-1.5206388235092163
1772650976822396700,7.681396728515625,11.68714427947998,-0.6813562512397766,-0.2231307178735733
1772650976832274000,7.69127392578125,12.413365364074707,-0.33858439326286316,0.4570291340351105
1772650976842137600,7.7011376953125,12.042478561401367,-0.8159525394439697,0.33439695835113525
