time,seconds_elapsed,z,y,x
1772650969339158500,0.198158447265625,0.10002623498439789,-0.09055810421705246,0.12201674282550812
1772650969349036000,0.2080361328125,0.14003673195838928,-0.10796725004911423,0.13423368334770203
1772650969358913500,0.21791357421875,0.1782146841287613,-0.12308572232723236,0.15271180868148804
1772650969368790800,0.227790771484375,0.20585553348064423,-0.14202198386192322,0.15943112969398499
1772650969378668300,0.237668212890625,0.22662433981895447,-0.1579040139913559,0.14721418917179108
1772650969388545500,0.247545654296875,0.24479703605175018,-0.16630317270755768,0.11483928561210632
1772650969398423000,0.257423095703125,0.25716668367385864,-0.17118994891643524,0.06276455521583557
1772650969408300300,0.26730029296875,0.2583884000778198,-0.1707318127155304,-0.005955760832875967
1772650969418177800,0.277177734375,0.2516690790653229,-0.15484978258609772,-0.06612421572208405
1772650969428055000,0.287054931640625,0.24189551174640656,-0.1388150453567505,-0.10796725004911423
1772650969437932500,0.2969326171875,0.23319093883037567,-0.13774605095386505,-0.1250709742307663
1772650969447809800,0.306809814453125,0.22647161781787872,-0.1391204595565796,-0.12873606383800507
1772650969457687300,0.316687255859375,0.21791976690292358,-0.1372879147529602,-0.13117945194244385
1772650969467564800,0.326564697265625,0.21425467729568481,-0.1322484314441681,-0.1244601309299469
1772650969477442000,0.336442138671875,0.21181128919124603,-0.12110047042369843,-0.111632339656353
1772650969487319600,0.346319580078125,0.21181128919124603,-0.10674555599689484,-0.09208522737026215
1772650969497196800,0.35619677734375,0.21181128919124603,-0.08994726091623306,-0.07009471952915192
1772650969507074300,0.36607421875,0.21501824259757996,-0.08368607610464096,-0.04871506989002228
1772650969516951600,0.37595166015625,0.2286095917224884,-0.08353336155414581,-0.033443886786699295
1772650969526829000,0.3858291015625,0.25121092796325684,-0.0791047215461731,-0.02367033064365387
1772650969536706300,0.395706298828125,0.2748812735080719,-0.07727217674255371,-0.032222192734479904
1772650969546583800,0.405583740234375,0.2864873707294464,-0.09529217332601547,-0.061084724962711334
1772650969556461000,0.4154609375,0.28969430923461914,-0.12247487902641296,-0.07681404054164886
1772650969566338600,0.425338623046875,0.2985515892505646,-0.1301104724407196,-0.05405998229980469
1772650969576215800,0.4352158203125,0.32817769050598145,-0.13148486614227295,-0.012980503961443901
1772650969586093300,0.44509326171875,0.37475478649139404,-0.1322484314441681,0.01572931744158268
1772650969595970600,0.454970458984375,0.4211791753768921,-0.13347013294696808,0.018783552572131157
1772650969605848000,0.46484814453125,0.4637857675552368,-0.13774605095386505,0.005803049076348543
1772650969615725600,0.4747255859375,0.49799323081970215,-0.14095300436019897,-0.01511846948415041
1772650969625602800,0.484602783203125,0.5286883115768433,-0.12781979143619537,-0.037261683493852615
1772650969635480300,0.494480224609375,0.561826765537262,-0.09544488787651062,-0.054518118500709534
1772650969645357600,0.504357666015625,0.5845808386802673,-0.05635065957903862,-0.06765133142471313
1772650969655235000,0.514235107421875,0.5932853817939758,-0.01832541823387146,-0.0716218426823616
1772650969665112300,0.5241123046875,0.5911474227905273,0.008551862090826035,-0.07177454978227615
1772650969674989800,0.53398974609375,0.587940514087677,0.02076880633831024,-0.07314895838499069
1772650969684867000,0.5438671875,0.5891621708869934,0.011606098152697086,-0.0784938707947731
1772650969694744600,0.55374462890625,0.585038959980011,-0.0038177953101694584,-0.07543963938951492
1772650969704621800,0.563621826171875,0.5835118293762207,-0.021990500390529633,-0.06123743951320648
1772650969714499300,0.573499267578125,0.5864133834838867,-0.03817795217037201,-0.03588727489113808
1772650969724376600,0.58337646484375,0.5854970812797546,-0.053143709897994995,-0.008857285603880882
1772650969734254000,0.593254150390625,0.5891621708869934,-0.08047912269830704,0.01572931744158268
1772650969744131600,0.603131591796875,0.5993938446044922,-0.10705098509788513,0.04169032722711563
1772650969754008800,0.6130087890625,0.6181774139404297,-0.13423368334770203,0.07177454978227615
1772650969763886000,0.622885986328125,0.640626072883606,-0.1498102843761444,0.10185877978801727
1772650969773763600,0.632763671875,0.668419599533081,-0.14690876007080078,0.13560809195041656
1772650969783641000,0.64264111328125,0.695907711982727,-0.1250709742307663,0.1692046970129013
1772650969793518300,0.652518310546875,0.7171346545219421,-0.0922379344701767,0.19898349046707153
1772650969803395800,0.662395751953125,0.726908266544342,-0.06994201242923737,0.21898874640464783
1772650969813273000,0.672273193359375,0.7295043468475342,-0.072232685983181,0.23746687173843384
1772650969823150600,0.682150634765625,0.7232431769371033,-0.09941539168357849,0.26098448038101196
1772650969833027800,0.69202783203125,0.7207997441291809,-0.1378987729549408,0.2790044844150543
1772650969842905300,0.7019052734375,0.7130114436149597,-0.16172181069850922,0.2802261710166931
1772650969852782600,0.711782470703125,0.6963658928871155,-0.15210096538066864,0.26251161098480225
1772650969862660000,0.72166015625,0.6713211536407471,-0.11590826511383057,0.2304421216249466
1772650969872537300,0.731537353515625,0.6421532034873962,-0.0656660795211792,0.17622943222522736
1772650969882414800,0.741414794921875,0.6015318632125854,-0.01817270554602146,0.10735640674829483
1772650969892292000,0.7512919921875,0.543806791305542,0.006108472589403391,0.038636088371276855
1772650969902169600,0.761169677734375,0.4885250926017761,0.004123218823224306,-0.015271181240677834
1772650969912047000,0.771047119140625,0.4399627447128296,-0.04092676565051079,-0.03695625811815262
1772650969921924400,0.78092431640625,0.3987305462360382,-0.12110047042369843,-0.023059483617544174
1772650969931801900,0.7908017578125,0.35765108466148376,-0.1948602795600891,0.012369656935334206
1772650969941679000,0.80067919921875,0.3196258246898651,-0.24464432895183563,0.056961506605148315
1772650969951556600,0.810556640625,0.2910687327384949,-0.29320669174194336,0.09895725548267365
1772650969961433900,0.820433837890625,0.28037887811660767,-0.3361186981201172,0.14461809396743774
1772650969971311400,0.830311279296875,0.28221142292022705,-0.36696648597717285,0.18646112084388733
1772650969981188600,0.840188720703125,0.2901524603366852,-0.4014793634414673,0.21853061020374298
1772650969991066000,0.850066162109375,0.3095468580722809,-0.42637139558792114,0.24006296694278717
1772650970000943400,0.859943359375,0.3446705639362335,-0.4512633979320526,0.2492256760597229
1772650970010820900,0.86982080078125,0.3930802047252655,-0.4622586667537689,0.2510582208633423
1772650970020698000,0.879697998046875,0.4489727318286896,-0.4524851143360138,0.2429644912481308
1772650970030575600,0.88957568359375,0.5030327439308167,-0.4402681589126587,0.2238755226135254
1772650970040452900,0.899452880859375,0.5570927262306213,-0.43736663460731506,0.20539739727973938
1772650970050330400,0.909330322265625,0.6171084642410278,-0.45950984954833984,0.1913478970527649
1772650970060207600,0.91920751953125,0.6736118197441101,-0.5152496695518494,0.18111620843410492
1772650970070085000,0.929085205078125,0.7267554998397827,-0.5752654075622559,0.16783028841018677
1772650970079962600,0.938962646484375,0.7731798887252808,-0.6223006248474121,0.12018419802188873
1772650970089839900,0.94883984375,0.8119687438011169,-0.666128933429718,0.03527642786502838
1772650970099717400,0.95871728515625,0.8451071977615356,-0.7040014863014221,-0.06398624926805496
1772650970109594600,0.9685947265625,0.8588512539863586,-0.6957550048828125,-0.14675605297088623
1772650970119472000,0.97847216796875,0.8388460278511047,-0.6468872427940369,-0.2095206081867218
1772650970129335600,0.98833544921875,0.7846332788467407,-0.564117431640625,-0.24617144465446472
1772650970139227000,0.998226806640625,0.7065975666046143,-0.4674508571624756,-0.2545706033706665
1772650970149104000,1.008104248046875,0.6264238357543945,-0.3787252902984619,-0.24815669655799866
1772650970158981600,1.017981689453125,0.5630484819412231,-0.3365768492221832,-0.19745637476444244
1772650970168859000,1.02785888671875,0.5045598149299622,-0.314586341381073,-0.08948912471532822
1772650970178736400,1.037736328125,0.4593571424484253,-0.27029991149902344,0.03527642786502838
1772650970188613600,1.047613525390625,0.4695888161659241,-0.14660334587097168,0.08551861345767975
1772650970198491100,1.0574912109375,0.5502206683158875,0.08307522535324097,0.0198525357991457
1772650970208368400,1.067368408203125,0.6583406329154968,0.3736858069896698,-0.1388150453567505
1772650970218232000,1.077232177734375,0.7565343379974365,0.6691831946372986,-0.34909921884536743
1772650970228123100,1.087123046875,0.8154810667037964,0.8980981707572937,-0.5375455617904663
1772650970238000600,1.097000732421875,0.8110524415969849,0.982700526714325,-0.5864133834838867
1772650970247878000,1.1068779296875,0.7459971904754639,0.8890882134437561,-0.4556920528411865
1772650970257755400,1.11675537109375,0.6447492837905884,0.6922426819801331,-0.19455485045909882
1772650970267633000,1.1266328125,0.5430431962013245,0.42881476879119873,0.1510319858789444
1772650970277510100,1.13651025390625,0.455539345741272,0.11987877637147903,0.5225798487663269
1772650970287387400,1.146387451171875,0.3802524209022522,-0.21791976690292358,0.8800781965255737
1772650970297265000,1.156264892578125,0.33260634541511536,-0.5390726923942566,1.1928319931030273
1772650970307142400,1.166142333984375,0.35536038875579834,-0.7829535007476807,1.4075448513031006
1772650970317019600,1.17601953125,0.40789327025413513,-0.8716790676116943,1.4625210762023926
1772650970326897200,1.185897216796875,0.45111069083213806,-0.7760814428329468,1.3484452962875366
1772650970336774400,1.1957744140625,0.4819584786891937,-0.5363239049911499,1.1018157005310059
1772650970346652000,1.20565185546875,0.515707790851593,-0.2241809368133545,0.7947123050689697
1772650970356529200,1.215529052734375,0.5383091568946838,0.05405998229980469,0.48608171939849854
1772650970366406700,1.22540673828125,0.5376983284950256,0.19898349046707153,0.2492256760597229
1772650970376284000,1.235283935546875,0.5031854510307312,0.18157434463500977,0.12125317752361298
1772650970386161400,1.245161376953125,0.4456130862236023,-0.009009997360408306,0.07513421028852463
1772650970396038700,1.25503857421875,0.3965925872325897,-0.2852656841278076,0.08521319180727005
1772650970405916200,1.264916259765625,0.37139514088630676,-0.5421269536018372,0.1185043677687645
1772650970415793400,1.27479345703125,0.3458922505378723,-0.7041541934013367,0.15378080308437347
1772650970425671000,1.2846708984375,0.32909396290779114,-0.7595885396003723,0.19027891755104065
1772650970435548400,1.29454833984375,0.32726141810417175,-0.7375980615615845,0.22692975401878357
1772650970445425700,1.30442578125,0.3542914092540741,-0.6754443645477295,0.24678228795528412
1772650970455303000,1.314302978515625,0.4156815707683563,-0.5958815217018127,0.23884128034114838
1772650970465180400,1.324180419921875,0.5050179958343506,-0.5189147591590881,0.20585553348064423
1772650970475058000,1.334057861328125,0.6070294380187988,-0.4618005156517029,0.15026842057704926
1772650970484935200,1.34393505859375,0.7107207775115967,-0.44332239031791687,0.09239064902067184
1772650970494812700,1.353812744140625,0.8089144825935364,-0.48547086119651794,0.0390942245721817
1772650970504690000,1.36368994140625,0.8898517489433289,-0.5642701387405396,-0.011453386396169662
1772650970514567400,1.3735673828125,0.9422318935394287,-0.6597150564193726,-0.0587940476834774
1772650970524444700,1.383444580078125,0.9643751382827759,-0.7757760286331177,-0.09743013978004456
1772650970534322200,1.393322265625,0.9549070000648499,-0.8686248064041138,-0.12018419802188873
1772650970544199400,1.403199462890625,0.9087880253791809,-0.8968765139579773,-0.12308572232723236
1772650970554077000,1.413076904296875,0.8296833038330078,-0.8634325861930847,-0.12491826713085175
1772650970563954200,1.4229541015625,0.7404996156692505,-0.7788302302360535,-0.16401249170303345
1772650970573831700,1.432831787109375,0.6687250137329102,-0.6340594291687012,-0.24678228795528412
1772650970583709000,1.442708984375,0.5911474227905273,-0.46241137385368347,-0.3274141252040863
1772650970593586400,1.45258642578125,0.5202891230583191,-0.30633988976478577,-0.3820849657058716
1772650970603463700,1.462463623046875,0.4888305068016052,-0.18340688943862915,-0.3967452943325043
1772650970613341200,1.472341064453125,0.5125008225440979,-0.13896775245666504,-0.36757734417915344
1772650970623218400,1.482218505859375,0.5578562617301941,-0.1638597846031189,-0.30435463786125183
1772650970633096000,1.492095947265625,0.6076403260231018,-0.2429644912481308,-0.2176143378019333
1772650970642973200,1.50197314453125,0.6456655263900757,-0.3365768492221832,-0.10796725004911423
1772650970652850700,1.5118505859375,0.6725428104400635,-0.39140036702156067,-0.019394399598240852
1772650970662728200,1.521728271484375,0.6743753552436829,-0.37948885560035706,-0.0022906772792339325
1772650970672605400,1.53160546875,0.6465818285942078,-0.25319617986679077,-0.1053711548447609
1772650970682483000,1.54148291015625,0.6022953987121582,-0.043828289955854416,-0.32100024819374084
1772650970692346400,1.551346435546875,0.5393781065940857,0.1498102843761444,-0.5734328627586365
1772650970702237700,1.56123779296875,0.4421007037162781,0.2707580327987671,-0.7450809478759766
1772650970712115000,1.571114990234375,0.2930539846420288,0.3035911023616791,-0.7971556782722473
1772650970721978600,1.580978515625,0.08292251825332642,0.2964136302471161,-0.7582141757011414
1772650970731869700,1.59086962890625,-0.15775130689144135,0.2855710983276367,-0.648108959197998
1772650970741747200,1.600747314453125,-0.37887802720069885,0.2724378705024719,-0.4778352677822113
1772650970751624400,1.61062451171875,-0.5454866290092468,0.26403874158859253,-0.2782409191131592
1772650970761502000,1.620501953125,-0.6409314870834351,0.2652604281902313,-0.10216420143842697
1772650970771379200,1.630379150390625,-0.6601731777191162,0.2757975459098816,0.010689826682209969
1772650970781243000,1.640242919921875,-0.6166502833366394,0.28786176443099976,0.04856235533952713
1772650970791134000,1.650134033203125,-0.5363239049911499,0.2951919436454773,0.03802524134516716
1772650970801011500,1.660011474609375,-0.4512633979320526,0.2967190444469452,-0.004428642801940441
1772650970810888700,1.669888671875,-0.4002576768398285,0.3049654960632324,-0.09651386737823486
1772650970820766200,1.67976611328125,-0.4020902216434479,0.31947311758995056,-0.2217375487089157
1772650970830643700,1.689643798828125,-0.44820916652679443,0.3571929335594177,-0.3512371778488159
1772650970840521000,1.69952099609375,-0.5288410186767578,0.4333961308002472,-0.4772244095802307
1772650970850398500,1.7093984375,-0.6273401379585266,0.5346440672874451,-0.605960488319397
1772650970860275700,1.719275634765625,-0.7350019812583923,0.6236750483512878,-0.7244648337364197
1772650970870153200,1.7291533203125,-0.8182299137115479,0.6881194114685059,-0.8203678727149963
1772650970880030500,1.739030517578125,-0.8509102463722229,0.7140804529190063,-0.8959602117538452
1772650970889908000,1.748907958984375,-0.8438854813575745,0.6931589245796204,-0.9529217481613159
1772650970899771600,1.758771728515625,-0.8286142945289612,0.634364902973175,-0.9599464535713196
1772650970909662700,1.768662841796875,-0.8058602213859558,0.5914528369903564,-0.9095515608787537
1772650970919540000,1.7785400390625,-0.7689039707183838,0.5934380888938904,-0.7979192137718201
1772650970929403600,1.788403564453125,-0.7490514516830444,0.5867187976837158,-0.6366555690765381
1772650970939294700,1.798294677734375,-0.7637118101119995,0.6119162440299988,-0.465007483959198
1772650970949172200,1.808172119140625,-0.7385143637657166,0.7308787703514099,-0.3124483823776245
1772650970959036000,1.818035888671875,-0.6392516493797302,0.906191885471344,-0.2110477238893509
1772650970968927000,1.827927001953125,-0.48302745819091797,1.0147700309753418,-0.2229592502117157
1772650970978804200,1.83780419921875,-0.312142938375473,1.0265288352966309,-0.342074453830719
1772650970988668000,1.84766796875,-0.13805148005485535,0.844038188457489,-0.4040754735469818
1772650970998559000,1.85755908203125,-0.010231691412627697,0.5680879354476929,-0.34008920192718506
1772650971008436500,1.8674365234375,0.029167955741286278,0.2852656841278076,-0.22647161781787872
1772650971018314000,1.87731396484375,-0.002748812548816204,0.030542362481355667,-0.047798797488212585
1772650971028191200,1.887191162109375,-0.08338065445423126,-0.18111620843410492,0.2576248347759247
1772650971038068500,1.897068359375,-0.1716480851173401,-0.38788801431655884,0.6708629727363586
1772650971047932200,1.90693212890625,-0.21791976690292358,-0.6355865597724915,1.0941801071166992
1772650971057823500,1.916823486328125,-0.19562382996082306,-0.9055810570716858,1.4284663200378418
1772650971067700700,1.92670068359375,-0.11545012891292572,-1.1329689025878906,1.6117204427719116
1772650971077564400,1.936564453125,-0.020157959312200546,-1.2490298748016357,1.624548316001892
1772650971087455500,1.94645556640625,0.05894676223397255,-1.2478082180023193,1.4625210762023926
1772650971097333000,1.9563330078125,0.09834641218185425,-1.127929449081421,1.1601516008377075
1772650971107196400,1.966196533203125,0.08124268800020218,-0.903901219367981,0.7794411182403564
1772650971117087700,1.976087646484375,0.00916270911693573,-0.610541820526123,0.35917818546295166
1772650971126965000,1.985965087890625,-0.09804098308086395,-0.32252734899520874,-0.04199574887752533
1772650971136828700,1.99582861328125,-0.2217375487089157,-0.0781884491443634,-0.36757734417915344
1772650971146719700,2.0057197265625,-0.36101073026657104,0.13377554714679718,-0.6120689511299133
1772650971156597200,2.01559716796875,-0.5030327439308167,0.3318427801132202,-0.7846332788467407
1772650971166474500,2.025474609375,-0.631463348865509,0.5204418897628784,-0.8780929446220398
1772650971176352000,2.03535205078125,-0.7153021693229675,0.615428626537323,-0.8631271719932556
1772650971186229500,2.0452294921875,-0.7437065243721008,0.5888567566871643,-0.7200362086296082
1772650971196093000,2.055093017578125,-0.7223268747329712,0.49295374751091003,-0.48394373059272766
1772650971205984000,2.06498388671875,-0.6748335361480713,0.3643703758716583,-0.22341738641262054
1772650971215861500,2.074861572265625,-0.6003101468086243,0.21898874640464783,0.014049487188458443
1772650971225739000,2.084739013671875,-0.5037962794303894,0.08108997344970703,0.2107423096895218
1772650971235616300,2.0946162109375,-0.40819868445396423,-0.02367033064365387,0.3584146201610565
1772650971245493800,2.10449365234375,-0.3249707520008087,-0.07391251623630524,0.45233240723609924
1772650971255371000,2.11437109375,-0.24693500995635986,-0.09773556143045425,0.49524441361427307
1772650971265248500,2.12424853515625,-0.18081079423427582,-0.10185877978801727,0.5117372870445251
1772650971275125800,2.134125732421875,-0.12766708433628082,-0.09116895496845245,0.5196782946586609
1772650971285003300,2.144003173828125,-0.09834641218185425,-0.04214845970273018,0.5230379700660706
1772650971294880500,2.153880615234375,-0.10659284889698029,0.059557609260082245,0.5230379700660706
1772650971304758000,2.163758056640625,-0.14751961827278137,0.22601348161697388,0.5086830258369446
1772650971314635300,2.17363525390625,-0.1957765519618988,0.4355340898036957,0.47203221917152405
1772650971324512800,2.1835126953125,-0.22723518311977386,0.6658235192298889,0.4199574887752533
1772650971334390000,2.19339013671875,-0.24433889985084534,0.9008470177650452,0.342074453830719
1772650971344267500,2.203267578125,-0.23181653022766113,1.120751976966858,0.22189027070999146
1772650971354144800,2.213144775390625,-0.17180079221725464,1.3124053478240967,0.04718795046210289
1772650971364022300,2.223022216796875,-0.06765133142471313,1.4386980533599854,-0.1656923145055771
1772650971373899500,2.2328994140625,0.0462716780602932,1.50421142578125,-0.40972578525543213
1772650971383777000,2.242777099609375,0.14339639246463776,1.5179554224014282,-0.6632274389266968
1772650971393654500,2.252654541015625,0.2214321345090866,1.4808465242385864,-0.9138274788856506
1772650971403518000,2.26251806640625,0.28007346391677856,1.397007703781128,-1.1305255889892578
1772650971413409300,2.2724091796875,0.31947311758995056,1.3382136821746826,-1.2400199174880981
1772650971423286500,2.28228662109375,0.3361186981201172,1.3238587379455566,-1.170077919960022
1772650971433150200,2.292150146484375,0.3252761662006378,1.2873605489730835,-0.9258917570114136
1772650971443041300,2.302041259765625,0.27946263551712036,1.1824475526809692,-0.5548020005226135
1772650971452918800,2.311918701171875,0.208298921585083,0.9762866497039795,-0.1501157134771347
1772650971462796000,2.321796142578125,0.12308572232723236,0.7950177192687988,0.3005368411540985
1772650971472673500,2.331673583984375,0.05467082932591438,0.5511369109153748,0.6875085830688477
1772650971482550800,2.34155078125,0.028404397889971733,0.2770192325115204,0.9263498783111572
1772650971492414500,2.35141455078125,0.02489202655851841,0.1122431829571724,1.0413419008255005
1772650971502305500,2.361305419921875,0.01588202826678753,0.027029991149902344,1.031415581703186
1772650971512183000,2.37118310546875,-0.02504473738372326,-0.00992626789957285,0.9083298444747925
1772650971522046700,2.381046630859375,-0.09361234307289124,0.014660334214568138,0.7163711190223694
1772650971531937800,2.390937744140625,-0.18111620843410492,0.09147437661886215,0.49112120270729065
1772650971541815000,2.40081494140625,-0.27197974920272827,0.15347537398338318,0.29656633734703064
1772650971551692500,2.410692626953125,-0.3570402264595032,0.18615570664405823,0.16584503650665283
1772650971561569800,2.42056982421875,-0.41705596446990967,0.19867807626724243,0.09666658192873001
1772650971571447300,2.430447265625,-0.4225535988807678,0.21898874640464783,0.04993676394224167
1772650971581324800,2.44032470703125,-0.38254308700561523,0.21623992919921875,0.012369656935334206
1772650971591202000,2.4502021484375,-0.342074453830719,0.19180603325366974,0.011300674639642239
1772650971601079600,2.46007958984375,-0.3258870244026184,0.14202198386192322,0.05741964280605316
1772650971610956800,2.469956787109375,-0.34131091833114624,0.0528382882475853,0.13347013294696808
1772650971620834300,2.479834228515625,-0.3802524209022522,-0.0719272643327713,0.20768806338310242
1772650971630711600,2.489711669921875,-0.435075968503952,-0.17271706461906433,0.24449162185192108
1772650971640575200,2.4995751953125,-0.4953971207141876,-0.19027891755104065,0.16691401600837708
1772650971650466300,2.50946630859375,-0.5958815217018127,-0.001985253533348441,-0.0713164210319519
1772650971660343800,2.51934375,-0.7588250041007996,0.43141087889671326,-0.39414918422698975
1772650971670207500,2.52920751953125,-0.9232956171035767,0.9371923804283142,-0.6094728708267212
1772650971680098600,2.5390986328125,-0.9898779988288879,1.2473500967025757,-0.5355603098869324
1772650971689975800,2.548975830078125,-1.012784719467163,1.345085620880127,-0.18661384284496307
1772650971699839500,2.558839599609375,-1.1057862043380737,1.3582189083099365,0.2721324563026428
1772650971709730800,2.568730712890625,-1.157250165939331,1.2024527788162231,0.7052231431007385
1772650971719608000,2.578608154296875,-1.1288456916809082,0.8861866593360901,1.0650122165679932
1772650971729471700,2.5884716796875,-1.0561549663543701,0.5248705148696899,1.2809467315673828
1772650971739362800,2.59836279296875,-0.9655967950820923,0.21837788820266724,1.30644953250885
1772650971749240300,2.608240234375,-0.8779402375221252,0.01969982497394085,1.1209046840667725
1772650971759103700,2.618103759765625,-0.7931851744651794,-0.10613471269607544,0.7585195899009705
1772650971768995000,2.6279951171875,-0.7411104440689087,-0.12613995373249054,0.3446705639362335
1772650971778872300,2.637872314453125,-0.744928240776062,-0.030695075169205666,0.01175880990922451
1772650971788749800,2.647749755859375,-0.8023478984832764,0.1178935244679451,-0.16859383881092072
1772650971798627000,2.657626953125,-0.856407880783081,0.22066856920719147,-0.21685077250003815
1772650971808504600,2.667504638671875,-0.859767496585846,0.2217375487089157,-0.188599094748497
1772650971818381800,2.6773818359375,-0.7954758405685425,0.13560809195041656,-0.12140589207410812
1772650971828259300,2.68725927734375,-0.6659762263298035,-0.005650337319821119,-0.057114217430353165
1772650971838136600,2.697136474609375,-0.4940227270126343,-0.1423274129629135,-0.03512371703982353
1772650971848014000,2.70701416015625,-0.33031564950942993,-0.22189027070999146,-0.10735640674829483
1772650971857891600,2.7168916015625,-0.217308908700943,-0.19302773475646973,-0.27808821201324463
1772650971867768800,2.726768798828125,-0.1776038408279419,-0.03008422814309597,-0.4990622103214264
1772650971877646300,2.736646240234375,-0.19913621246814728,0.20555010437965393,-0.7291989326477051
1772650971887523600,2.746523681640625,-0.2486148327589035,0.4074351191520691,-0.906802773475647
1772650971897401000,2.756401123046875,-0.2976353168487549,0.5212054252624512,-1.0201148986816406
1772650971907278300,2.7662783203125,-0.3118375241756439,0.5358657836914062,-1.0772291421890259
1772650971917155800,2.77615576171875,-0.29717719554901123,0.48073679208755493,-1.0787562131881714
1772650971927033000,2.786033203125,-0.27854636311531067,0.43919917941093445,-1.0190459489822388
1772650971936896800,2.795896728515625,-0.27946263551712036,0.4521796703338623,-0.8941276669502258
1772650971946787800,2.805787841796875,-0.2945810854434967,0.4634803533554077,-0.7218687534332275
1772650971956665300,2.815665283203125,-0.32374903559684753,0.44484952092170715,-0.5260922312736511
1772650971966542600,2.82554248046875,-0.35383328795433044,0.4324798583984375,-0.363454133272171
1772650971976420000,2.835420166015625,-0.35597124695777893,0.4095730781555176,-0.2786990702152252
1772650971986297300,2.84529736328125,-0.3312319219112396,0.349251925945282,-0.25441789627075195
1772650971996174800,2.8551748046875,-0.29656633734703064,0.23975755274295807,-0.2441861927509308
1772650972006052000,2.865052001953125,-0.24525517225265503,0.10796725004911423,-0.26312246918678284
1772650972015929600,2.8749296875,-0.17653486132621765,-0.034665580838918686,-0.314586341381073
1772650972025807000,2.88480712890625,-0.09804098308086395,-0.19394400715827942,-0.37689274549484253
1772650972035684400,2.894684326171875,-0.03802524134516716,-0.3226800560951233,-0.4431696832180023
1772650972045561900,2.904561767578125,-0.001985253533348441,-0.39323291182518005,-0.5065450668334961
1772650972055439000,2.914439208984375,0.012675080448389053,-0.42102646827697754,-0.5407525300979614
1772650972065316600,2.924316650390625,0.007177455350756645,-0.4199574887752533,-0.5543438792228699
1772650972075193900,2.93419384765625,-0.012216945178806782,-0.4043808877468109,-0.5777087807655334
1772650972085071400,2.9440712890625,-0.04016320779919624,-0.3901786804199219,-0.6200099587440491
1772650972094948600,2.953948486328125,-0.08780929446220398,-0.41201648116111755,-0.6407787799835205
1772650972104826000,2.963826171875,-0.1238492801785469,-0.4815003573894501,-0.5998520255088806
1772650972114703400,2.973703369140625,-0.10811996459960938,-0.5679352283477783,-0.5036435723304749
1772650972124580900,2.983580810546875,-0.047646086663007736,-0.6453601121902466,-0.38009971380233765
1772650972134458400,2.993458251953125,0.03405473381280899,-0.7018635272979736,-0.24556060135364532
1772650972144335600,3.003335693359375,0.12232216447591782,-0.7055285573005676,-0.14400723576545715
1772650972154212900,3.013212890625,0.2435753494501114,-0.6558972597122192,-0.10934165865182877
1772650972164090400,3.02309033203125,0.3793361485004425,-0.583053708076477,-0.12781979143619537
1772650972173968000,3.0329677734375,0.49051034450531006,-0.5071559548377991,-0.15836215019226074
1772650972183845000,3.04284521484375,0.5685460567474365,-0.4614951014518738,-0.19119518995285034
1772650972193722600,3.05272265625,0.6048914790153503,-0.45676103234291077,-0.22127941250801086
1772650972203586000,3.0625859375,0.5903838872909546,-0.4468347728252411,-0.25380703806877136
1772650972213477400,3.072477294921875,0.499673068523407,-0.38697174191474915,-0.31473904848098755
1772650972223354600,3.082354736328125,0.3274141252040863,-0.2761029601097107,-0.3918585181236267
1772650972233218300,3.09221826171875,0.09422318637371063,-0.14935214817523956,-0.46454933285713196
1772650972243109400,3.102109375,-0.1626380831003189,-0.023059483617544174,-0.5236487984657288
1772650972252987000,3.11198681640625,-0.3892624080181122,0.0716218426823616,-0.5686988234519958
1772650972262864100,3.121864013671875,-0.548082709312439,0.13056860864162445,-0.5883986353874207
1772650972272741600,3.13174169921875,-0.6531484127044678,0.15454435348510742,-0.5657972693443298
1772650972282619000,3.141618896484375,-0.7215633392333984,0.16630317270755768,-0.49585527181625366
1772650972292482600,3.151482666015625,-0.7554653286933899,0.1785201132297516,-0.3915531039237976
1772650972302374000,3.161373779296875,-0.7771504521369934,0.1835595965385437,-0.2683146595954895
1772650972312251100,3.171251220703125,-0.7992936372756958,0.1979145109653473,-0.13652436435222626
1772650972322114800,3.18111474609375,-0.8182299137115479,0.26373329758644104,-0.001374406274408102
1772650972332006000,3.191005859375,-0.832584798336029,0.40102121233940125,0.12491826713085175
1772650972341883400,3.20088330078125,-0.8073873519897461,0.5896202921867371,0.2163926362991333
1772650972351746800,3.210746826171875,-0.6584933400154114,0.7620319724082947,0.20784078538417816
1772650972361638100,3.22063818359375,-0.3501681983470917,0.7896727919578552,0.06200099736452103
1772650972371515400,3.230515380859375,0.018630841746926308,0.587940514087677,-0.16615045070648193
1772650972381393000,3.240392822265625,0.2898470163345337,0.1772984117269516,-0.33230090141296387
1772650972391270100,3.250270263671875,0.37261682748794556,-0.342074453830719,-0.33382803201675415
1772650972401147600,3.260147705078125,0.3083251416683197,-0.8674030900001526,-0.13835690915584564
1772650972411011300,3.27001123046875,0.15316994488239288,-1.3217207193374634,0.23105297982692719
1772650972420902400,3.27990234375,-0.031153209507465363,-1.6804407835006714,0.7072083950042725
1772650972430779600,3.289779541015625,-0.17622943222522736,-1.917602300643921,1.1537377834320068
1772650972440643300,3.299643310546875,-0.24159009754657745,-1.9554747343063354,1.4423631429672241
1772650972450534700,3.30953466796875,-0.17882554233074188,-1.8246008157730103,1.524827480316162
1772650972460412000,3.319411865234375,-0.07971556484699249,-1.6071391105651855,1.4542746543884277
1772650972470275600,3.329275634765625,-0.030389651656150818,-1.352568507194519,1.3117945194244385
1772650972480166700,3.339166748046875,-0.03268032893538475,-1.1688562631607056,1.2009257078170776
1772650972490044200,3.349044189453125,-0.11774080991744995,-0.9584193229675293,1.071884274482727
1772650972499907800,3.358907958984375,-0.29030516743659973,-0.6366555690765381,0.8403730988502502
1772650972509799000,3.368798828125,-0.4897467792034149,-0.2967190444469452,0.5476245880126953
1772650972519676200,3.37867626953125,-0.6442911624908447,-0.020005248486995697,0.2930539846420288
1772650972529553700,3.3885537109375,-0.737750768661499,0.23624517023563385,0.09987352788448334
1772650972539431000,3.398430908203125,-0.7803573608398438,0.418430358171463,-0.026724567636847496
1772650972549308400,3.408308349609375,-0.7977665066719055,0.45889899134635925,-0.07421794533729553
1772650972559172000,3.418172119140625,-0.8034168481826782,0.39323291182518005,-0.028404397889971733
1772650972569063200,3.428063232421875,-0.7675296068191528,0.2761029601097107,0.10216420143842697
1772650972578940400,3.4379404296875,-0.6856760382652283,0.1719534993171692,0.265718549489975
1772650972588818000,3.44781787109375,-0.5870242118835449,0.0925433561205864,0.42606595158576965
1772650972598695400,3.4576953125,-0.4918847680091858,0.026724567636847496,0.5488462448120117
1772650972608572700,3.46757275390625,-0.42484426498413086,-0.008399149402976036,0.6274928450584412
1772650972618450200,3.4774501953125,-0.3897205591201782,0.003970507066696882,0.6824691295623779
1772650972628327400,3.487327392578125,-0.3643703758716583,0.0459662564098835,0.7081246972084045
1772650972638205000,3.497204833984375,-0.3405473530292511,0.09116895496845245,0.6887302994728088
1772650972648082200,3.507082275390625,-0.30985227227211,0.0978882759809494,0.6358919739723206
1772650972657959700,3.516959716796875,-0.27717193961143494,0.06963659077882767,0.5752654075622559
1772650972667837000,3.5268369140625,-0.25533416867256165,0.037261683493852615,0.5215108394622803
1772650972677714400,3.53671435546875,-0.24250635504722595,0.028557108715176582,0.4553866386413574
1772650972687591700,3.546591796875,-0.2414373755455017,0.008399149402976036,0.40758782625198364
1772650972697469200,3.55646923828125,-0.23502348363399506,-0.029778804630041122,0.39857783913612366
1772650972707346700,3.5663466796875,-0.19883078336715698,-0.04352286830544472,0.4133908748626709
1772650972717224000,3.576223876953125,-0.12934690713882446,-0.016798298805952072,0.4321744441986084
1772650972727101400,3.586101318359375,-0.046729814261198044,0.08429691940546036,0.4277457892894745
1772650972736978700,3.595978759765625,0.04367557913064957,0.24159009754657745,0.4040754735469818
1772650972746856200,3.605856201171875,0.13026317954063416,0.3833066523075104,0.35352784395217896
1772650972756733400,3.6157333984375,0.19455485045909882,0.48363831639289856,0.27503398060798645
1772650972766611000,3.62561083984375,0.2429644912481308,0.529451847076416,0.2098260372877121
1772650972776488200,3.63548828125,0.27350685000419617,0.5369347333908081,0.1582094430923462
1772650972786365700,3.64536572265625,0.26602399349212646,0.5100574493408203,0.11911521852016449
1772650972796243000,3.655242919921875,0.2495311051607132,0.45049986243247986,0.10598199814558029
1772650972806120400,3.665120361328125,0.20875705778598785,0.35352784395217896,0.14767232537269592
1772650972815997700,3.674997802734375,0.15087927877902985,0.23196925222873688,0.23960483074188232
1772650972825875200,3.684875244140625,0.07727217674255371,0.059710320085287094,0.34192174673080444
1772650972835752400,3.69475244140625,0.03023693896830082,-0.16752485930919647,0.4187358021736145
1772650972845630000,3.7046298828125,-0.00015271181473508477,-0.3900259733200073,0.4590517282485962
1772650972855507500,3.714507568359375,0.010078979656100273,-0.5635066032409668,0.4459185004234314
1772650972865384700,3.724384765625,0.049020491540431976,-0.6707102656364441,0.3833066523075104
1772650972875262200,3.73426220703125,0.11865708231925964,-0.746913492679596,0.3020639717578888
1772650972885139500,3.744139404296875,0.2020377367734909,-0.7832589149475098,0.22372281551361084
1772650972895017000,3.754016845703125,0.2686200737953186,-0.7769976854324341,0.16660858690738678
1772650972904894200,3.763894287109375,0.29534465074539185,-0.7345438003540039,0.13560809195041656
1772650972914758000,3.7737578125,0.2848075330257416,-0.6667397618293762,0.12171131372451782
1772650972924649000,3.78364892578125,0.2476985603570938,-0.5725166201591492,0.1053711548447609
1772650972934526500,3.7935263671875,0.18004722893238068,-0.4450022280216217,0.0716218426823616
1772650972944403700,3.80340380859375,0.09468132257461548,-0.2985515892505646,0.04092676565051079
1772650972954281200,3.81328125,0.008857285603880882,-0.14553436636924744,0.03771981969475746
1772650972964158700,3.82315869140625,-0.057114217430353165,-0.04718795046210289,0.07773031294345856
1772650972974036000,3.833035888671875,-0.10017894953489304,-0.007788302376866341,0.15378080308437347
1772650972983913500,3.84291357421875,-0.13805148005485535,-0.036192700266838074,0.24342262744903564
1772650972993790700,3.852790771484375,-0.18432316184043884,-0.15591876208782196,0.3312319219112396
1772650973003668200,3.862668212890625,-0.23380178213119507,-0.3662029206752777,0.429883748292923
1772650973013545500,3.87254541015625,-0.30878329277038574,-0.5882459282875061,0.5268557667732239
1772650973023423000,3.882423095703125,-0.3578037917613983,-0.7223268747329712,0.5515950918197632
1772650973033286400,3.892286376953125,-0.28343313932418823,-0.7398887276649475,0.4515688419342041
1772650973043177700,3.902177734375,-0.055892523378133774,-0.610541820526123,0.2586938142776489
1772650973053055000,3.912054931640625,0.14889401197433472,-0.14202198386192322,-0.15378080308437347
1772650973062918700,3.921918701171875,0.31565532088279724,0.7626428008079529,-0.89107346534729
1772650973072809700,3.931809814453125,0.4822639226913452,1.9027892351150513,-1.71846604347229
1772650973082687200,3.941687255859375,0.4220954477787018,2.4539260864257812,-1.890114188194275
1772650973092551000,3.951551025390625,0.0038177953101694584,2.1822519302368164,-1.3269129991531372
1772650973102442000,3.96144189453125,-0.518609344959259,1.612789511680603,-0.5836645364761353
1772650973112319500,3.971319580078125,-0.9124531149864197,1.1595407724380493,-0.02993151545524597
1772650973122183000,3.981182861328125,-1.1175450086593628,0.8861866593360901,0.19989976286888123
1772650973132074200,3.99107421875,-1.181836724281311,0.7441646456718445,0.22158484160900116
1772650973141951500,4.000951416015625,-1.0958600044250488,0.5677825212478638,0.164165198802948
1772650973151815200,4.010815185546875,-0.8730534315109253,0.4040754735469818,0.11331216990947723
1772650973161706200,4.020706298828125,-0.5829010009765625,0.35138988494873047,0.07391251623630524
1772650973171583700,4.030583740234375,-0.27747735381126404,0.4225535988807678,0.049173206090927124
1772650973181461000,4.0404609375,0.004428642801940441,0.5882459282875061,0.025197450071573257
1772650973191338500,4.05033837890625,0.1979145109653473,0.7928797602653503,-0.00992626789957285
1772650973201215700,4.0602158203125,0.27808821201324463,1.0059127807617188,-0.08658760040998459
1772650973211079400,4.070079345703125,0.26037365198135376,1.2513206005096436,-0.21226942539215088
1772650973220970800,4.079970703125,0.20875705778598785,1.3762388229370117,-0.31657159328460693
1772650973230848000,4.089847900390625,0.12018419802188873,1.3751698732376099,-0.4034646153450012
1772650973240711700,4.099711669921875,0.031916771084070206,1.2568182945251465,-0.4456130862236023
1772650973250602800,4.109602783203125,-0.06276455521583557,1.1074661016464233,-0.48394373059272766
1772650973260480300,4.119480224609375,-0.16431790590286255,1.038593053817749,-0.5963396430015564
1772650973270344000,4.129343994140625,-0.25060009956359863,1.0668447017669678,-0.7876875400543213
1772650973280235000,4.139235107421875,-0.30817243456840515,1.1192249059677124,-0.966971218585968
1772650973290112300,4.1491123046875,-0.41171106696128845,1.2705622911453247,-1.1141854524612427
1772650973299976000,4.158975830078125,-0.5367820262908936,1.4402251243591309,-1.1964970827102661
1772650973309867000,4.168866943359375,-0.6931589245796204,1.5526210069656372,-1.1546540260314941
1772650973319744500,4.17874462890625,-0.8455653190612793,1.5543009042739868,-0.9820896983146667
1772650973329608200,4.188608154296875,-0.9521581530570984,1.4498459100723267,-0.7262973785400391
1772650973339499300,4.198499267578125,-1.025765299797058,1.3873867988586426,-0.5025745630264282
1772650973349376800,4.208376708984375,-0.9420791864395142,1.171452283859253,-0.2692309319972992
1772650973359240200,4.218240234375,-0.8356390595436096,1.061499834060669,-0.15897299349308014
1772650973369131500,4.228131591796875,-0.7756233215332031,1.0622633695602417,-0.2583884000778198
1772650973379008800,4.2380087890625,-0.7513421177864075,1.1209046840667725,-0.4309527277946472
1772650973388886300,4.24788623046875,-0.7478297352790833,1.1503781080245972,-0.5415160655975342
1772650973398763500,4.257763427734375,-0.7391251921653748,1.0763128995895386,-0.5325061082839966
1772650973408641000,4.26764111328125,-0.7304205894470215,0.9684983491897583,-0.43202173709869385
1772650973418504700,4.277504638671875,-0.867250382900238,1.0955545902252197,-0.22708246111869812
1772650973428395800,4.287395751953125,-1.4309097528457642,1.993499994277954,0.06245913356542587
1772650973438273000,4.29727294921875,-1.767181158065796,3.372487783432007,0.004581354558467865
1772650973448136700,4.30713671875,-1.233758807182312,3.4693069458007812,0.03512371703982353
1772650973458028000,4.317028076171875,-0.5167768001556396,2.146669864654541,0.028404397889971733
1772650973467905300,4.3269052734375,-0.15866757929325104,1.2019946575164795,-0.17775654792785645
1772650973477769000,4.33676904296875,-0.2667875289916992,0.710262656211853,-0.6158867478370667
1772650973487660000,4.346659912109375,-0.5259394645690918,0.45737189054489136,-0.8889354467391968
1772650973497537500,4.35653759765625,-0.7444701194763184,0.35474956035614014,-0.9468132257461548
1772650973507401200,4.366401123046875,-0.839762270450592,0.4155288338661194,-0.8084563612937927
1772650973517292300,4.376292236328125,-0.8814526200294495,0.6090146899223328,-0.5445703268051147
1772650973527169500,4.38616943359375,-0.8336538076400757,0.7901309132575989,-0.3058817684650421
1772650973537033200,4.396033203125,-0.7148439884185791,0.8441908955574036,-0.2026485800743103
1772650973546924300,4.40592431640625,-0.5456393361091614,0.7511894106864929,-0.21898874640464783
1772650973556801800,4.4158017578125,-0.399952232837677,0.4859289824962616,-0.3434488773345947
1772650973566679300,4.42567919921875,-0.35261157155036926,0.2845021188259125,-0.4005630910396576
1772650973576556500,4.435556640625,-0.35230615735054016,0.12705622613430023,-0.3384093940258026
1772650973586433800,4.445433837890625,-0.3205420970916748,-0.10033166408538818,-0.251974493265152
1772650973596311300,4.455311279296875,-0.30908870697021484,-0.32130566239356995,-0.1772984117269516
1772650973606188800,4.465188720703125,-0.2689255177974701,-0.34818294644355774,-0.07360709458589554
1772650973616066000,4.475066162109375,-0.1647760421037674,-0.296108216047287,0.018019994720816612
1772650973625943600,4.484943603515625,-0.18340688943862915,-0.3545968234539032,-0.004275931045413017
1772650973635820800,4.49482080078125,-0.24785128235816956,-0.4039227366447449,-0.029778804630041122
1772650973645698300,4.5046982421875,-0.34314343333244324,-0.36223241686820984,-0.05986303091049194
1772650973655575600,4.514575439453125,-0.43415969610214233,-0.28282228112220764,-0.11667182296514511
1772650973665453000,4.524453125,-0.44011545181274414,-0.3277195692062378,-0.07711946964263916
1772650973675330300,4.534330322265625,-0.4756973087787628,-0.29778802394866943,-0.08093725889921188
1772650973685207800,4.544207763671875,-0.49677154421806335,-0.22524993121623993,-0.16095824539661407
1772650973695085000,4.5540849609375,-0.5173876285552979,-0.13621893525123596,-0.2516690790653229
1772650973704962600,4.563962646484375,-0.5412106513977051,-0.06902574002742767,-0.3199312388896942
1772650973714840000,4.573840087890625,-0.5644228458404541,-0.037108972668647766,-0.3593308925628662
1772650973724717300,4.58371728515625,-0.5767925381660461,-0.0390942245721817,-0.36788275837898254
1772650973734594800,4.5935947265625,-0.5741963982582092,-0.040010496973991394,-0.3507790267467499
1772650973744472000,4.60347216796875,-0.5711421966552734,-0.017714571207761765,-0.3190149664878845
1772650973754349600,4.613349609375,-0.5711421966552734,0.021379653364419937,-0.27747735381126404
1772650973764226800,4.623226806640625,-0.5864133834838867,0.07024743407964706,-0.23303823173046112
1772650973774104300,4.633104248046875,-0.5990884304046631,0.09407047927379608,-0.18340688943862915
1772650973783981600,4.642981689453125,-0.6051968932151794,0.08811471611261368,-0.12262758612632751
1772650973793859000,4.652859130859375,-0.5967977643013,0.042453885078430176,-0.047646086663007736
1772650973803736300,4.662736328125,-0.566408097743988,-0.030542362481355667,0.046577103435993195
1772650973813613800,4.67261376953125,-0.5296045541763306,-0.08307522535324097,0.1620272397994995
1772650973823491300,4.6824912109375,-0.48760882019996643,-0.029778804630041122,0.2658712565898895
1772650973833354800,4.692354736328125,-0.4092676639556885,0.15943112969398499,0.29794076085090637
1772650973843246000,4.70224609375,-0.26632940769195557,0.4294256269931793,0.21288026869297028
1772650973853123300,4.712123291015625,-0.05085303261876106,0.7040014863014221,-0.023823043331503868
1772650973862987000,4.721987060546875,0.18019993603229523,0.8568660020828247,-0.3518480062484741
1772650973872878000,4.731878173828125,0.3564293682575226,0.7979192137718201,-0.6491779088973999
1772650973882755600,4.741755615234375,0.47081053256988525,0.5554128885269165,-0.8263236284255981
1772650973892619000,4.751618896484375,0.5390726923942566,0.17592400312423706,-0.8611419200897217
1772650973902510300,4.76151025390625,0.5656445622444153,-0.284654825925827,-0.7417212724685669
1772650973912387600,4.7713876953125,0.5656445622444153,-0.7246175408363342,-0.4938700199127197
1772650973922251300,4.781251220703125,0.5485408306121826,-1.0424108505249023,-0.1560714691877365
1772650973932142300,4.791142333984375,0.5073086619377136,-1.2158914804458618,0.2238755226135254
1772650973942019800,4.801019775390625,0.4190412163734436,-1.2264286279678345,0.5986303091049194
1772650973951883500,4.810883544921875,0.28664007782936096,-1.0766183137893677,0.9057337641716003
1772650973961774600,4.820774658203125,0.13896775245666504,-0.8411366939544678,1.1143381595611572
1772650973971652000,4.830652099609375,-0.003970507066696882,-0.6061131954193115,1.2285665273666382
1772650973981515500,4.840515625,-0.11865708231925964,-0.411863774061203,1.2504043579101562
1772650973991406800,4.85040673828125,-0.19821994006633759,-0.26632940769195557,1.1780189275741577
1772650974001284000,4.8602841796875,-0.2295258641242981,-0.14996300637722015,1.0216420888900757
1772650974011147800,4.870147705078125,-0.2017323076725006,-0.06658235192298889,0.811357855796814
1772650974021038800,4.880038818359375,-0.11300674080848694,-0.037567105144262314,0.6003101468086243
1772650974030916400,4.889916259765625,0.009315420873463154,-0.034665580838918686,0.4149180054664612
1772650974040780000,4.899780029296875,0.13331741094589233,-0.051922015845775604,0.2725905776023865
1772650974050671000,4.909671142578125,0.24052110314369202,-0.10124793648719788,0.18432316184043884
1772650974060548400,4.91954833984375,0.33443886041641235,-0.17913095653057098,0.1620272397994995
1772650974070425900,4.92942578125,0.41384902596473694,-0.26846736669540405,0.2101314514875412
1772650974080303400,4.939303466796875,0.48424917459487915,-0.35887277126312256,0.3289412558078766
1772650974090180600,4.9491806640625,0.5424323678016663,-0.4268295168876648,0.4813476502895355
1772650974100058000,4.95905810546875,0.5868715047836304,-0.46867257356643677,0.6206207871437073
1772650974109935400,4.968935302734375,0.6325323581695557,-0.5042544007301331,0.71453857421875
1772650974119812900,4.978812744140625,0.6810947060585022,-0.5544965863227844,0.7638645172119141
1772650974129690000,4.988690185546875,0.7262973785400391,-0.612527072429657,0.7684458494186401
1772650974139567600,4.998567626953125,0.7637118101119995,-0.6502469182014465,0.7391251921653748
1772650974149444900,5.00844482421875,0.7725690603256226,-0.6604785919189453,0.6998782753944397
1772650974159308500,5.01830859375,0.7398887276649475,-0.660936713218689,0.6612421870231628
1772650974169199600,5.02819970703125,0.674680769443512,-0.6438329815864563,0.6195518374443054
1772650974179077000,5.0380771484375,0.59023118019104,-0.6126797795295715,0.5668662786483765
1772650974188954400,5.047954345703125,0.4975350797176361,-0.5700731873512268,0.49677154421806335
1772650974198831900,5.057831787109375,0.41323816776275635,-0.5129590034484863,0.41507071256637573
1772650974208709000,5.067709228515625,0.32817769050598145,-0.4431696832180023,0.31916770339012146
1772650974218586600,5.077586669921875,0.2432699203491211,-0.3524588644504547,0.21944688260555267
1772650974228464000,5.087464111328125,0.15927842259407043,-0.2599155008792877,0.13377554714679718
1772650974238341400,5.09734130859375,0.0859767496585846,-0.18722468614578247,0.07895200699567795
1772650974248219000,5.107218994140625,0.033596597611904144,-0.13392825424671173,0.08124268800020218
1772650974258096000,5.11709619140625,0.016798298805952072,-0.07177454978227615,0.10979979485273361
1772650974267973600,5.1269736328125,0.037261683493852615,-0.019394399598240852,0.1382041871547699
1772650974277851000,5.136850830078125,0.08551861345767975,-0.006108472589403391,0.1632489264011383
1772650974287728400,5.146728271484375,0.14202198386192322,-0.03527642786502838,0.17500774562358856
1772650974297605600,5.156605712890625,0.19363857805728912,-0.07513421028852463,0.1701209545135498
1772650974307483100,5.166483154296875,0.2339545041322708,-0.09727742522954941,0.15057384967803955
1772650974317360400,5.1763603515625,0.2576248347759247,-0.10124793648719788,0.12064233422279358
1772650974327238000,5.18623779296875,0.2683146595954895,-0.09361234307289124,0.09483403712511063
1772650974337115400,5.196115478515625,0.26877278089523315,-0.08750387281179428,0.09529217332601547
1772650974346992600,5.20599267578125,0.2635805904865265,-0.09452861547470093,0.12048961967229843
1772650974356870000,5.215869873046875,0.252432644367218,-0.10216420143842697,0.15500248968601227
1772650974366747400,5.225747314453125,0.24250635504722595,-0.10582929104566574,0.20341213047504425
1772650974376625000,5.235625,0.23624517023563385,-0.10903623700141907,0.2548760175704956
1772650974386502100,5.245502197265625,0.2354816198348999,-0.10598199814558029,0.29778802394866943
1772650974396379600,5.255379638671875,0.24540787935256958,-0.0975828468799591,0.3339807391166687
1772650974406257000,5.2652568359375,0.25212720036506653,-0.08811471611261368,0.35536038875579834
1772650974416134400,5.275134521484375,0.2545706033706665,-0.08750387281179428,0.3571929335594177
1772650974426011600,5.28501171875,0.2588465213775635,-0.09636115282773972,0.33764582872390747
1772650974435889200,5.29488916015625,0.26907822489738464,-0.10659284889698029,0.3014531135559082
1772650974445766400,5.304766357421875,0.28373855352401733,-0.11025793105363846,0.24815669655799866
1772650974455644000,5.314643798828125,0.2970244884490967,-0.09636115282773972,0.1695101112127304
1772650974465521200,5.324521240234375,0.30572906136512756,-0.06612421572208405,0.07986827939748764
1772650974475398700,5.334398681640625,0.3174878656864166,-0.0456608310341835,-0.00916270911693573
1772650974485276200,5.344276123046875,0.33260634541511536,-0.0528382882475853,-0.09743013978004456
1772650974495153400,5.3541533203125,0.34375429153442383,-0.08139539510011673,-0.18493400514125824
1772650974505031000,5.364031005859375,0.34512871503829956,-0.10674555599689484,-0.2713688910007477
1772650974514894300,5.373894287109375,0.3042019307613373,-0.09651386737823486,-0.3264978528022766
1772650974524785700,5.38378564453125,0.21165858209133148,-0.033443886786699295,-0.31321191787719727
1772650974534663000,5.393662841796875,0.08338065445423126,0.054518118500709534,-0.21914145350456238
1772650974544526600,5.403526611328125,-0.04413371533155441,0.130721315741539,-0.06306997686624527
1772650974554417700,5.413417724609375,-0.15423893928527832,0.19150061905384064,0.1244601309299469
1772650974564295200,5.423295166015625,-0.23991025984287262,0.26098448038101196,0.31916770339012146
1772650974574172400,5.43317236328125,-0.29778802394866943,0.3414636254310608,0.4978405237197876
1772650974584050000,5.4430498046875,-0.30847787857055664,0.43354883790016174,0.6336013078689575
1772650974593927200,5.45292724609375,-0.2617480456829071,0.6018372774124146,0.6601731777191162
1772650974603790800,5.462790771484375,-0.17485502362251282,0.9298622608184814,0.5044071078300476
1772650974613682000,5.472681884765625,-0.08964183181524277,1.3919682502746582,0.18966807425022125
1772650974623559400,5.482559326171875,0.009620844386518002,1.776038408279419,-0.09407047927379608
1772650974633423000,5.492423095703125,0.14186927676200867,1.8317781686782837,-0.11911521852016449
1772650974643314200,5.502314208984375,0.22647161781787872,1.5575077533721924,0.10308047384023666
1772650974653191700,5.512191650390625,0.1901262104511261,1.1925265789031982,0.32939937710762024
1772650974663069000,5.52206884765625,0.0853659063577652,0.8985562920570374,0.3668137788772583
1772650974672946400,5.531946533203125,0.0018325417768210173,0.6989619731903076,0.21776704490184784
1772650974682823700,5.54182373046875,-0.0010689827613532543,0.5561764240264893,0.06032116711139679
1772650974692687400,5.551687255859375,0.08017370104789734,0.38819342851638794,0.09116895496845245
1772650974702578400,5.561578369140625,0.22540263831615448,0.08643488585948944,0.3611634373664856
1772650974712456000,5.5714560546875,0.3955236077308655,-0.2832804024219513,0.7388197779655457
1772650974722333200,5.581333251953125,0.5551074743270874,-0.6079457402229309,1.0866972208023071
1772650974732210700,5.591210693359375,0.6997255086898804,-0.8275453448295593,1.310420036315918
1772650974742088000,5.601087890625,0.7852441668510437,-0.8909206986427307,1.3792930841445923
1772650974751951600,5.61095166015625,0.7759287357330322,-0.7644753456115723,1.297592282295227
1772650974761842700,5.6208427734375,0.6688777208328247,-0.4217900335788727,1.0599727630615234
1772650974771720200,5.63072021484375,0.5705313682556152,-0.08429691940546036,0.8000571727752686
1772650974781597400,5.640597412109375,0.4724903404712677,0.17943638563156128,0.5816792845726013
1772650974791475000,5.650474853515625,0.367730051279068,0.3640649616718292,0.40728241205215454
1772650974801352400,5.6603525390625,0.2919849753379822,0.41797223687171936,0.2513636350631714
1772650974811229700,5.670229736328125,0.24601873755455017,0.37536564469337463,0.12232216447591782
1772650974821107200,5.680107177734375,0.22967857122421265,0.23212195932865143,0.03176405653357506
1772650974830984400,5.689984375,0.23471805453300476,0.019241688773036003,-0.05482354015111923
1772650974840862000,5.699862060546875,0.256708562374115,-0.21944688260555267,-0.18966807425022125
1772650974850739200,5.7097392578125,0.27152159810066223,-0.4140017330646515,-0.38849884271621704
1772650974860616700,5.71961669921875,0.27564483880996704,-0.5335750579833984,-0.610541820526123
1772650974870480400,5.72948046875,0.26968905329704285,-0.5709894895553589,-0.7869240045547485
1772650974880371500,5.739371337890625,0.2507528066635132,-0.5607577562332153,-0.8426637649536133
1772650974890248700,5.749248779296875,0.22280654311180115,-0.5219689607620239,-0.7201889157295227
1772650974900112400,5.7591123046875,0.1979145109653473,-0.46546560525894165,-0.42667680978775024
1772650974910003500,5.76900341796875,0.19348587095737457,-0.4136963188648224,-0.030389651656150818
1772650974919881000,5.778880859375,0.22036315500736237,-0.35138988494873047,0.37704548239707947
1772650974929758500,5.788758544921875,0.2516690790653229,-0.27533939480781555,0.6966713070869446
1772650974939635700,5.7986357421875,0.2623589038848877,-0.21089501678943634,0.8759549856185913
1772650974949513000,5.808512939453125,0.25350162386894226,-0.1498102843761444,0.9118422269821167
1772650974959376600,5.818376708984375,0.2208212912082672,-0.07360709458589554,0.8263236284255981
1772650974969268000,5.82826806640625,0.16721943020820618,0.003359660040587187,0.6572716236114502
1772650974979145200,5.838145263671875,0.09697200357913971,0.06444438546895981,0.4405735731124878
1772650974989009000,5.8480087890625,0.020157959312200546,0.09727742522954941,0.20692451298236847
1772650974998900000,5.85789990234375,-0.051463883370161057,0.10063708573579788,-0.016798298805952072
1772650975008777500,5.867777587890625,-0.1104106456041336,0.08521319180727005,-0.2238755226135254
1772650975018654700,5.87765478515625,-0.15500248968601227,0.05757235363125801,-0.39292749762535095
1772650975028532200,5.8875322265625,-0.1707318127155304,0.011606098152697086,-0.4981459379196167
1772650975038409500,5.897409423828125,-0.1716480851173401,-0.04886778071522713,-0.5302154421806335
1772650975048273200,5.907273193359375,-0.16706672310829163,-0.11331216990947723,-0.5012001991271973
1772650975058164200,5.917164306640625,-0.17393875122070312,-0.16538690030574799,-0.43583953380584717
1772650975068041700,5.927041748046875,-0.19119518995285034,-0.1882936656475067,-0.3486410677433014
1772650975077905400,5.936905517578125,-0.22524993121623993,-0.17684027552604675,-0.24678228795528412
1772650975087796500,5.94679638671875,-0.2635805904865265,-0.14675605297088623,-0.13652436435222626
1772650975097674000,5.956674072265625,-0.30221667885780334,-0.09727742522954941,-0.03695625811815262
1772650975107551200,5.96655126953125,-0.3480302393436432,-0.03771981969475746,0.03955236077308655
1772650975117428500,5.976428466796875,-0.4109475016593933,0.01969982497394085,0.08154810965061188
1772650975127306000,5.986305908203125,-0.4802786707878113,0.06459710001945496,0.10659284889698029
1772650975137183500,5.99618359375,-0.5331169366836548,0.0981936976313591,0.10705098509788513
1772650975147060700,6.006060791015625,-0.5726693272590637,0.12781979143619537,0.07513421028852463
1772650975156938200,6.015938232421875,-0.5974085927009583,0.16309621930122375,0.012369656935334206
1772650975166815500,6.0258154296875,-0.6132906675338745,0.20997874438762665,-0.06887302547693253
1772650975176693000,6.03569287109375,-0.6261184215545654,0.2591519355773926,-0.16095824539661407
1772650975186570200,6.0455703125,-0.6424586176872253,0.29320669174194336,-0.23655059933662415
1772650975196447700,6.05544775390625,-0.6571189165115356,0.3115321099758148,-0.28877803683280945
1772650975206325000,6.065324951171875,-0.668419599533081,0.3092414140701294,-0.32374903559684753
1772650975216202500,6.075202392578125,-0.6771242022514343,0.3071034550666809,-0.34635040163993835
1772650975226079700,6.085079833984375,-0.6754443645477295,0.3077143132686615,-0.3568875193595886
1772650975235957200,6.094957275390625,-0.6705575585365295,0.3020639717578888,-0.36482852697372437
1772650975245834500,6.10483447265625,-0.6687250137329102,0.2945810854434967,-0.3695625960826874
1772650975255712000,6.1147119140625,-0.6752916574478149,0.2811424434185028,-0.37139514088630676
1772650975265589200,6.12458935546875,-0.6901046633720398,0.254265159368515,-0.3643703758716583
1772650975275466800,6.134466796875,-0.7018635272979736,0.21959958970546722,-0.3365768492221832
1772650975285344000,6.144343994140625,-0.7082774043083191,0.18585027754306793,-0.2886253297328949
1772650975295221500,6.154221435546875,-0.7046123147010803,0.1626380831003189,-0.23212195932865143
1772650975305098800,6.1640986328125,-0.6884248852729797,0.12461283802986145,-0.18157434463500977
1772650975314976300,6.173976318359375,-0.6731536984443665,0.08093725889921188,-0.14889401197433472
1772650975324853800,6.183853759765625,-0.6597150564193726,0.043828289955854416,-0.12232216447591782
1772650975334731000,6.19373095703125,-0.648108959197998,0.008551862090826035,-0.10628741979598999
1772650975344608500,6.2036083984375,-0.6300889253616333,-0.02993151545524597,-0.10170606523752213
1772650975354485800,6.21348583984375,-0.6045860648155212,-0.07543963938951492,-0.11560284346342087
1772650975364363300,6.22336328125,-0.5810684561729431,-0.1375933438539505,-0.1447708010673523
1772650975374240500,6.233240478515625,-0.5740436911582947,-0.2017323076725006,-0.1769929975271225
1772650975384118000,6.243117919921875,-0.5908420085906982,-0.25655585527420044,-0.20539739727973938
1772650975393995300,6.252995361328125,-0.6180247068405151,-0.2910687327384949,-0.21929416060447693
1772650975403872800,6.262872802734375,-0.6412369012832642,-0.28602921962738037,-0.20524467527866364
1772650975413750000,6.27275,-0.6716265678405762,-0.26724568009376526,-0.17027367651462555
1772650975423627500,6.28262744140625,-0.7324058413505554,-0.2533488869667053,-0.12369657307863235
1772650975433504800,6.2925048828125,-0.8310576677322388,-0.2357870489358902,-0.07711946964263916
1772650975443382300,6.30238232421875,-0.9491039514541626,-0.17378604412078857,-0.045355409383773804
1772650975453259500,6.312259521484375,-1.0456178188323975,-0.0522274412214756,-0.05329642444849014
1772650975463137000,6.322136962890625,-1.111131191253662,0.09208522737026215,-0.12201674282550812
1772650975473014300,6.33201416015625,-1.145491361618042,0.19562382996082306,-0.22555534541606903
1772650975482891800,6.341891845703125,-1.1415208578109741,0.2545706033706665,-0.3264978528022766
1772650975492769000,6.35176904296875,-1.1039537191390991,0.2811424434185028,-0.4130854606628418
1772650975502646500,6.361646484375,-1.0450069904327393,0.3155026137828827,-0.469741553068161
1772650975512524000,6.37152392578125,-0.9599464535713196,0.33199548721313477,-0.4865398406982422
1772650975522401300,6.3814013671875,-0.8173136115074158,0.2530434727668762,-0.4581354558467865
1772650975532278800,6.39127880859375,-0.6233696341514587,0.07696675509214401,-0.39414918422698975
1772650975542156000,6.401156005859375,-0.49921491742134094,0.02229592576622963,-0.22066856920719147
1772650975552033300,6.411033203125,-0.4294256269931793,0.062306419014930725,0.054365407675504684
1772650975561910800,6.420910888671875,-0.39292749762535095,0.10873081535100937,0.3686463236808777
1772650975571788300,6.430788330078125,-0.3374931216239929,0.04993676394224167,0.6282563805580139
1772650975581651700,6.440651611328125,-0.2480039894580841,-0.09330692142248154,0.7895200848579407
1772650975591543000,6.45054296875,-0.1698155403137207,-0.20096874237060547,0.8900044560432434
1772650975601420300,6.460420166015625,-0.1175880953669548,-0.23838314414024353,0.9373451471328735
1772650975611297800,6.4702978515625,-0.08826743066310883,-0.256708562374115,0.9336800575256348
1772650975621175000,6.480175048828125,-0.05482354015111923,-0.27503398060798645,0.8840487003326416
1772650975631052500,6.490052490234375,-0.003970507066696882,-0.3124483823776245,0.80937260389328
1772650975640929800,6.4999296875,0.04321744292974472,-0.33291175961494446,0.7304205894470215
1772650975650807300,6.509807373046875,0.08842013776302338,-0.34482327103614807,0.6519267559051514
1772650975660684500,6.5196845703125,0.13484452664852142,-0.34726667404174805,0.5923691391944885
1772650975670562000,6.52956201171875,0.17378604412078857,-0.30847787857055664,0.5528167486190796
1772650975680439300,6.539439208984375,0.20768806338310242,-0.24128466844558716,0.5254813432693481
1772650975690316800,6.54931689453125,0.24403348565101624,-0.17286977171897888,0.5066977739334106
1772650975700194000,6.559194091796875,0.2901524603366852,-0.09743013978004456,0.4969242513179779
1772650975710071600,6.569071533203125,0.32573428750038147,-0.06261184066534042,0.4888305068016052
1772650975719948800,6.57894873046875,0.33718767762184143,-0.042453885078430176,0.48806697130203247
1772650975729826300,6.588826416015625,0.3310792148113251,-0.0331384651362896,0.4978405237197876
1772650975739703600,6.59870361328125,0.2976353168487549,-0.04031591862440109,0.5126535892486572
1772650975749581000,6.6085810546875,0.24433889985084534,-0.07467607408761978,0.5202891230583191
1772650975759458300,6.618458251953125,0.1579040139913559,-0.17241163551807404,0.4993676245212555
1772650975769335800,6.628335693359375,0.04428642615675926,-0.21623992919921875,0.44103172421455383
1772650975779213300,6.63821337890625,-0.07498150318861008,-0.12094775587320328,0.3173351585865021
1772650975789090600,6.648090576171875,-0.1682884246110916,0.04550812020897865,0.16080553829669952
1772650975798967800,6.6579677734375,-0.19623468816280365,0.2722851634025574,0.018630841746926308
1772650975808845300,6.66784521484375,-0.15622419118881226,0.4453076422214508,-0.07681404054164886
1772650975818709000,6.677708984375,-0.046729814261198044,0.4243861436843872,-0.14858859777450562
1772650975828600000,6.68760009765625,0.11285403370857239,0.16126367449760437,-0.2098260372877121
1772650975838477600,6.6974775390625,0.2907632887363434,-0.26663482189178467,-0.25441789627075195
1772650975848354800,6.707354736328125,0.48012593388557434,-0.7069029808044434,-0.2695363461971283
1772650975858232300,6.717232421875,0.7223268747329712,-1.0308047533035278,-0.23807771503925323
1772650975868109600,6.727109619140625,1.0344698429107666,-1.1690089702606201,-0.15057384967803955
1772650975877973200,6.73697314453125,1.3684505224227905,-1.0158389806747437,-0.03176405653357506
1772650975887864300,6.7468642578125,1.9099667072296143,-0.39918869733810425,0.07574506103992462
1772650975897741800,6.756741943359375,3.077754020690918,0.6189410090446472,0.1710372269153595
1772650975907605200,6.766605224609375,4.2394328117370605,1.9012620449066162,0.21883602440357208
1772650975917496600,6.77649658203125,2.8273065090179443,2.841508626937866,-0.07070557028055191
1772650975927373800,6.786373779296875,1.8088713884353638,2.8796865940093994,-0.5514423847198486
1772650975937237500,6.796237548828125,2.184084415435791,1.7716097831726074,-0.3232909142971039
1772650975947128600,6.806128662109375,2.637943983078003,0.42881476879119873,0.5344913601875305
1772650975957006000,6.816006103515625,2.782562017440796,-0.5978667736053467,1.4858859777450562
1772650975966869800,6.825869873046875,2.739191770553589,-0.568393349647522,2.0727574825286865
1772650975976760800,6.8357607421875,2.1370491981506348,-0.062306419014930725,2.125901222229004
1772650975986638000,6.84563818359375,1.163205862045288,0.3536805510520935,1.9373021125793457
1772650975996501800,6.855501708984375,0.28541839122772217,0.28938889503479004,1.7108304500579834
1772650976006392800,6.865392822265625,-0.13209572434425354,-0.1966928243637085,1.4222050905227661
1772650976016270300,6.875270263671875,-0.2973299026489258,-0.7351546883583069,1.1763391494750977
1772650976026134000,6.885134033203125,-0.2987042963504791,-1.1085350513458252,0.9367342591285706
1772650976036025000,6.895025146484375,-0.21837788820266724,-1.2070342302322388,0.7214106321334839
1772650976045902300,6.90490234375,-0.20875705778598785,-1.215127944946289,0.5534276366233826
1772650976055766000,6.91476611328125,-0.2793098986148834,-1.2931636571884155,0.4312581717967987
1772650976065657000,6.924656982421875,-0.3568875193595886,-1.544832706451416,0.3978142738342285
1772650976075534600,6.93453466796875,-0.36131614446640015,-1.9473810195922852,0.402395635843277
1772650976085398300,6.944398193359375,-0.2101314514875412,-2.2663960456848145,0.2930539846420288
1772650976095289300,6.954289306640625,0.1244601309299469,-2.3412249088287354,0.01832541823387146
1772650976105166800,6.964166748046875,0.5273138880729675,-2.1941633224487305,-0.3570402264595032
1772650976115030300,6.9740302734375,0.8215895891189575,-1.9854062795639038,-0.7272136807441711
1772650976124921300,6.98392138671875,0.9280297160148621,-1.8062753677368164,-0.9907942414283752
1772650976134798800,6.993798828125,0.869846522808075,-1.65310537815094,-1.1031901836395264
1772650976144662500,7.00366259765625,0.6781931519508362,-1.3617312908172607,-0.9793408513069153
1772650976154553600,7.0135537109375,0.4062134325504303,-0.885881245136261,-0.5344913601875305
1772650976164431000,7.02343115234375,0.15836215019226074,-0.41507071256637573,0.12675081193447113
1772650976174294500,7.03329443359375,-0.07727217674255371,-0.009620844386518002,0.7398887276649475
1772650976184185900,7.043185791015625,-0.33764582872390747,0.3130592107772827,1.12655508518219
1772650976194063000,7.05306298828125,-0.5517477989196777,0.5760289430618286,1.235133171081543
1772650976203926800,7.0629267578125,-0.6949914693832397,0.7583668828010559,1.1288456916809082
1772650976213817900,7.07281787109375,-0.8009734749794006,0.8709154725074768,0.9181034564971924
1772650976223695400,7.0826953125,-0.903901219367981,0.9181034564971924,0.6635328531265259
1772650976233572600,7.092572509765625,-1.012479305267334,0.940857470035553,0.41766682267189026
1772650976243450000,7.1024501953125,-1.1216683387756348,0.9289459586143494,0.19470755755901337
1772650976253327400,7.112327392578125,-1.1939009428024292,0.8852704167366028,-0.012216945178806782
1772650976263191000,7.12219091796875,-1.223374366760254,0.869235634803772,-0.18676654994487762
1772650976273082000,7.13208203125,-1.236507534980774,0.9359707236289978,-0.29259583353996277
1772650976282959600,7.141959716796875,-1.233758807182312,1.0763128995895386,-0.2927485406398773
1772650976292823300,7.1518232421875,-1.2045907974243164,1.2398672103881836,-0.1948602795600891
1772650976302714400,7.16171435546875,-1.1708414554595947,1.356844425201416,-0.03802524134516716
1772650976312591600,7.171591552734375,-1.1503781080245972,1.3609676361083984,0.1507265567779541
1772650976322469000,7.18146923828125,-1.1381611824035645,1.2339115142822266,0.342074453830719
1772650976332346400,7.191346435546875,-1.1235008239746094,0.9854493141174316,0.4752391576766968
1772650976342224000,7.201223876953125,-1.1158652305603027,0.7036960124969482,0.5338805317878723
1772650976352101000,7.21110107421875,-1.1120474338531494,0.497229665517807,0.5263976454734802
1772650976361978600,7.220978515625,-1.1117420196533203,0.3765873312950134,0.4853181540966034
1772650976371856000,7.23085595703125,-1.1216683387756348,0.3002314269542694,0.45508119463920593
1772650976381733400,7.2407333984375,-1.1332744359970093,0.24021568894386292,0.4566083252429962
1772650976391610600,7.250610595703125,-1.135412335395813,0.2554868757724762,0.5080721974372864
1772650976401488100,7.260488037109375,-1.1257915496826172,0.7185090780258179,0.8151756525039673
1772650976411365400,7.270365478515625,-1.2152806520462036,1.1531269550323486,1.061805248260498
1772650976421243000,7.280242919921875,-1.4153331518173218,1.1653438806533813,1.0885298252105713
1772650976431120100,7.2901201171875,-1.5825525522232056,1.0610417127609253,1.0366077423095703
1772650976440983800,7.29998388671875,-1.6570758819580078,1.0190459489822388,0.9761339426040649
1772650976450875100,7.309875244140625,-1.6418046951293945,0.8951966762542725,0.9118422269821167
1772650976460752400,7.31975244140625,-1.569419264793396,0.6390989422798157,0.7911999225616455
1772650976470629600,7.329629638671875,-1.480999231338501,0.34848836064338684,0.5926745533943176
1772650976480507100,7.339507080078125,-1.390135645866394,0.15530791878700256,0.3501681983470917
1772650976490384400,7.34938427734375,-1.2896512746810913,0.06673506647348404,0.09666658192873001
1772650976500262000,7.359261962890625,-1.1592353582382202,0.0456608310341835,-0.1572931706905365
1772650976510139100,7.36913916015625,-0.9914051294326782,0.0719272643327713,-0.4059080183506012
1772650976520016600,7.3790166015625,-0.8147175312042236,0.15423893928527832,-0.624896764755249
1772650976529880300,7.38888037109375,-0.6809419989585876,0.3083251416683197,-0.7756233215332031
1772650976539771400,7.398771484375,-0.5992411375045776,0.517998456954956,-0.8246437907218933
1772650976549648600,7.408648681640625,-0.5351021885871887,0.7356128096580505,-0.7751652002334595
1772650976559512300,7.41851220703125,-0.4566083252429962,0.9295567870140076,-0.6474980711936951
1772650976569403400,7.4284033203125,-0.3683409094810486,1.1019684076309204,-0.4853181540966034
1772650976579281000,7.438281005859375,-0.2898470163345337,1.258345365524292,-0.31947311758995056
1772650976589158400,7.448158447265625,-0.26724568009376526,1.3337849378585815,-0.1588202863931656
1772650976599035600,7.45803564453125,-0.29534465074539185,1.29331636428833,-0.0021379655227065086
1772650976608913200,7.4679130859375,-0.35383328795433044,1.1677871942520142,0.12675081193447113
1772650976618776600,7.477776611328125,-0.38132140040397644,0.9933903813362122,0.20875705778598785
1772650976628667600,7.487667724609375,-0.36605021357536316,0.8287670016288757,0.22433365881443024
1772650976638545200,7.497545166015625,-0.3061871826648712,0.6644490957260132,0.1913478970527649
1772650976648422400,7.50742236328125,-0.22555534541606903,0.503948986530304,0.1363716572523117
1772650976658300000,7.5172998046875,-0.14858859777450562,0.38040512800216675,0.08292251825332642
1772650976668177400,7.527177490234375,-0.09407047927379608,0.319320410490036,0.0390942245721817
1772650976678054700,7.5370546875,-0.057114217430353165,0.30969956517219543,-0.001374406274408102
1772650976687932200,7.54693212890625,-0.029473381116986275,0.33077380061149597,-0.03649812191724777
1772650976697809400,7.556809326171875,-0.00015271181473508477,0.40758782625198364,-0.07375980913639069
1772650976707686700,7.566686767578125,0.03695625811815262,0.511431872844696,-0.11483928561210632
1772650976717564200,7.576564208984375,0.07605048269033432,0.5644228458404541,-0.1966928243637085
1772650976727441400,7.58644140625,0.10002623498439789,0.6418477296829224,-0.2829749882221222
1772650976737319000,7.59631884765625,0.10979979485273361,0.7000309824943542,-0.3477247953414917
1772650976747196400,7.606196533203125,0.0841442123055458,0.7941014170646667,-0.3046600818634033
1772650976757073700,7.61607373046875,-0.08292251825332642,1.0005677938461304,0.1426328420639038
1772650976766951200,7.625951171875,-0.323596328496933,0.5589252710342407,0.446529358625412
1772650976776828400,7.635828369140625,-0.5112791657447815,-0.13591352105140686,0.635739266872406
1772650976786706000,7.645705810546875,-0.5404471158981323,-0.7476770281791687,0.717440128326416
1772650976796583200,7.655583251953125,-0.48424917459487915,-1.217876672744751,0.7310314774513245
1772650976806460400,7.66546044921875,-0.4277457892894745,-1.4489296674728394,0.6482616662979126
1772650976816338000,7.675337890625,-0.43141087889671326,-1.5509412288665771,0.5254813432693481
1772650976826201600,7.68520166015625,-0.6713211536407471,-1.33912992477417,0.4897467792034149
1772650976836092700,7.6950927734375,-0.996749997138977,-1.088987946510315,0.5537330508232117
1772650976845970200,7.70497021484375,-1.2097829580307007,-0.8119687438011169,0.6525375843048096
