time,seconds_elapsed,z,y,x
1772656058807817700,0.080817626953125,0.048531098935008045,0.012828666309732943,-0.016800172889744863
1772656058817800700,0.09080078125,0.010526070189476013,0.0016554025242105125,-0.000031290187407284976
1772656058827782700,0.10078271484375,-0.03601297814548016,-0.006883622033894062,0.009026081989263184
1772656058837765600,0.110765625,0.00812719235420227,-0.0002408230185508728,-0.0070179935698630284
1772656058847747800,0.120747802734375,0.03132043641507625,0.0035920696752145885,-0.01151393958250992
1772656058857729500,0.1307294921875,-0.004293313279747963,-0.0029066264280118046,0.0014840097463689743
1772656058867712500,0.14071240234375,-0.007138765838742255,0.0018820508869364858,0.006887868950748816
1772656058877694500,0.150694580078125,0.0009416647642850875,0.007648341062385588,0.0013871891752351075
1772656058887677400,0.160677490234375,0.012612228813767433,0.011880389141570776,-0.008591640661330894
1772656058897659600,0.17065966796875,-0.014323124384880065,0.0018862886706367133,0.006166052915644832
1772656058907642400,0.180642333984375,-0.0011526771664619444,0.003145348821021616,-0.0006003039807081222
1772656058917624600,0.19062451171875,0.013060557103157042,0.005932513587828725,-0.0025994099426316095
1772656058927607600,0.200607666015625,0.003032499563694,0.0022439795345067974,0.006984465759596787
1772656058937589500,0.210589599609375,0.005126841494441032,-0.003050893736910075,0.0006100673228967934
1772656058947572500,0.220572509765625,0.011861702707409858,-0.008559738552570343,-0.0028723040333017706
1772656058957554400,0.230554443359375,0.004679682248830795,-0.00045755277546122666,-0.0052288451307686045
1772656058967537400,0.240537353515625,0.0007885200291872024,0.002767108359467238,0.0028585084033897145
1772656058977519600,0.25051953125,0.00737082102894783,0.002860303068254143,0.004088831083057448
1772656058987502300,0.26050244140625,0.009316109877824783,-0.00020613529765978455,0.006313306766073219
1772656058997484500,0.270484619140625,0.00018938509225845335,0.005101670520566403,-0.010064046734874136
1772656059007467500,0.280467529296875,0.0024351181924343107,0.006303337927907705,-0.00215697710448876
1772656059017449500,0.290449462890625,0.007672434324026108,-0.006189794550836086,0.006982625428959727
1772656059027432400,0.300432373046875,0.005278817185759544,-0.0065672860937193035,-0.005617291892506182
1772656059037414700,0.31041455078125,-0.0016050971090793608,-0.001470510943979025,-0.0035311789339873938
1772656059047397400,0.3203974609375,0.002285480588674545,0.003899016732536256,0.006559933904325589
1772656059057379600,0.330379638671875,0.009466332003474236,0.0008972228343598544,0.004867455339315347
1772656059067362600,0.340362548828125,0.0031809681236743925,0.0036710349292494353,-0.004240235952218063
1772656059077344500,0.350344482421875,-0.0028068741142749784,0.006163746794126928,0.002785767394164577
1772656059087327500,0.360327392578125,0.0024245967984199523,-0.00041385976420715446,0.00226109049951192
1772656059097309400,0.370309326171875,-0.0011702128231525421,0.003692863168567419,-0.005967402238119393
1772656059107292400,0.38029248046875,0.0018219547301530836,0.005850753588508814,0.0007207748554879799
1772656059117274600,0.390274658203125,0.007207739421725273,0.0012545483720488846,-0.010177923472085968
1772656059127257300,0.40025732421875,0.004365209472179413,0.0048036191557534035,-0.004894274847581983
1772656059137239600,0.410239501953125,0.012743746238946915,0.0005093925605528057,-0.0029339208603138102
1772656059147222500,0.420222412109375,0.0006236848562955855,0.005134403746388853,0.0010663277569925413
1772656059157204500,0.43020458984375,0.01469020413160324,0.0030126623520627615,0.006335783459362573
1772656059167187500,0.4401875,0.006908464214205741,0.0079970997011289,0.00555778482418973
1772656059177169700,0.450169677734375,0.011097732597589493,0.0023151085419580338,0.006519213734869845
1772656059187152400,0.46015234375,0.006910217779874802,0.0033540596682578323,0.009264818082004784
1772656059197134600,0.470134521484375,0.00017418752312660217,0.003716152712609619,-0.003604098039725795
1772656059207117600,0.48011767578125,0.00720832394361496,0.002656158798281103,-0.009115016081463544
1772656059217099500,0.490099609375,0.0119949736982584,0.000504716385435313,0.005440017363149673
1772656059227082500,0.50008251953125,0.006904957082867622,0.008844820837955921,0.006371909652091562
1772656059237064400,0.510064453125,0.006606266397237777,-0.003278528480324894,0.010086929853539914
1772656059247047400,0.52004736328125,0.004059504523873329,-0.0007161854453384876,0.005265217918669804
1772656059257029600,0.530029541015625,0.005108136793971062,-0.003568798397481441,0.006500933726085349
1772656059267012400,0.540012451171875,-0.006565934386849403,0.0026530535257421432,0.0010511712870560587
1772656059276994600,0.54999462890625,-0.0020773907959461212,0.0028487770272418857,0.002100552475824952
1772656059286977500,0.5599775390625,0.0036088381469249723,0.002447630614135414,0.004690760765271261
1772656059296959500,0.56995947265625,-0.007612228569388389,0.010176343436352908,-0.005147135363798588
1772656059306942500,0.5799423828125,0.00480710802078247,0.0021364640394225714,-0.005131019912636838
1772656059316924400,0.58992431640625,0.003610591712594032,0.0019535817531868816,0.0025003289157524704
1772656059326907400,0.599907470703125,0.001367196699976921,0.0017554105662740767,-0.004875702577852643
1772656059336889600,0.6098896484375,0.0028647417813539504,0.00198563912557438,0.0029934598946711045
1772656059346872300,0.619872314453125,-0.004167056551575661,-0.0005187631770968437,0.0034165943772997706
1772656059356854500,0.6298544921875,0.00002104278802871704,0.010222191872075199,-0.007561589794117025
1772656059366837500,0.63983740234375,0.0028606501281261444,0.006610778175573795,-0.00020993012336548416
1772656059376819500,0.6498193359375,-0.00042903906702995297,0.004054298625793307,0.007198647366394288
1772656059386802400,0.659802490234375,0.0030108722537755964,0.007147533667087555,-0.0004542511400999501
1772656059396784600,0.66978466796875,0.008098550781607627,-0.0008033522721379994,-0.006862017556861974
1772656059406767400,0.679767333984375,0.0015144962161779403,0.0016908939626999197,-0.003322965843672864
1772656059416749600,0.68974951171875,0.0006195932030677795,0.0031733876054175197,-0.004683267011982389
1772656059426732500,0.699732666015625,0.004510755422711372,0.008526128543913363,0.0019307351671392096
1772656059436714500,0.709714599609375,0.0025678046613931654,0.0006389189580455422,-0.004278805263782852
1772656059446697500,0.719697509765625,0.0004763853400945663,-0.0018140819509513675,0.0009401258277473971
1772656059456679400,0.729679443359375,0.002573065358400345,0.004518116745259613,-0.0031075649607460944
1772656059466662400,0.739662353515625,-0.00101999069750309,0.0017690554991364477,0.0026029855726286766
1772656059476644600,0.74964453125,-0.0011713818669319151,0.0017818967144005,-0.001827914113481529
1772656059486627300,0.75962744140625,-0.006408697998523712,0.009877397022396326,0.005576220096601173
1772656059496609500,0.769609619140625,0.004062427133321762,0.0032357305182144046,-0.001654352211439982
1772656059506592500,0.779592529296875,0.0037631519258022306,-0.0013256225805729626,0.006712343420484103
1772656059516574500,0.789574462890625,0.013637480208277701,0.0048687568138353525,0.002015888133365661
1772656059526556400,0.799556396484375,0.004957330146431922,0.0043626521889120334,0.003524918156559579
1772656059536539600,0.80953955078125,-0.0026712650358676907,-0.0035647067442536352,0.0014935812923125922
1772656059546522400,0.8195224609375,-0.0008738602250814438,0.0027796390474773944,-0.0023155058341799302
1772656059556504600,0.829504638671875,-0.002967617633938789,-0.001127816719841212,0.002078144281194545
1772656059566486300,0.839486328125,-0.0032668928414583205,0.006807013133727014,-0.007961873124120757
1772656059576469500,0.849469482421875,-0.010598550903797148,-0.002084496390167624,-0.0010399923059158027
1772656059586451500,0.859451416015625,0.0003232406049966812,0.0035319552521221338,0.003513373849238269
1772656059596434400,0.869434326171875,0.003616436931490898,-0.0023542349759489295,0.0033318798024905842
1772656059606416400,0.87941650390625,0.008407178339362144,0.00015226795226335526,0.00599185169278644
1772656059616399600,0.889399658203125,0.009906476986408234,-0.003310932912584394,0.0033829204365611073
1772656059626381300,0.89938134765625,-0.005206336471438407,0.00013672332325950263,-0.0032814145571552216
1772656059636364500,0.909364501953125,0.003322422420978546,-0.0014838636158965527,-0.001273070409428328
1772656059646346200,0.91934619140625,0.0030219781696796417,-0.003211673789191991,-0.004885653149709106
1772656059656329500,0.92932958984375,0.005716624081134796,-0.002254573993757367,-0.0027679805757245047
1772656059666311400,0.9393115234375,0.0097597619920969,-0.0007447356863878667,-0.005050145829305984
1772656059676294700,0.949294677734375,-0.00041442601978778834,0.003438559613935649,-0.0006039207099005579
1772656059686276400,0.9592763671875,-0.006845920372009277,0.0014925218463875353,0.009872328121634199
1772656059696259600,0.969259521484375,0.004227846828103066,-0.013060100445430725,0.006244616310880519
1772656059706241300,0.9792412109375,0.0021329203754663468,0.002803860173281282,-0.0034350707489065823
1772656059716224500,0.989224609375,0.0004857376903295517,0.003142700206208974,0.001653448029141873
1772656059726206500,0.99920654296875,-0.0011596914291381836,-0.005296772967558354,0.004117682718206197
1772656059736189400,1.009189453125,-0.0029547581523656843,-0.00010351517340168356,-0.0009494188124779612
1772656059746171400,1.01917138671875,0.003777180451154709,0.0023988961015827953,0.002525892615271732
1772656059756154600,1.029154541015625,0.0007844283759593963,0.003016662673745304,0.004720347619359381
1772656059766136300,1.03913623046875,0.00258066414296627,0.0062420727273449295,0.0007494529607007279
1772656059776119600,1.04911962890625,0.00003974748849868774,0.000847081816010177,0.005144194488041103
1772656059786101200,1.059101318359375,0.007222936990857124,-0.006908354616351425,0.009381393666379153
1772656059796084500,1.06908447265625,0.0078209028840065,-0.0032475122875533996,-0.008319047964760101
1772656059806066400,1.07906640625,0.013207272097468376,0.005572174109145999,-0.006633624761621468
1772656059816049400,1.08904931640625,0.00003974748849868774,-0.0007577778310514986,-0.00046212848587892945
1772656059826031400,1.09903125,-0.0005547112733125686,-0.0005124430341646075,-0.004166426363913342
1772656059836014600,1.1090146484375,-0.006389408776164054,-0.0026927827479317785,0.008033965679374522
1772656059845996300,1.118996337890625,-0.0007043488770723343,0.00441116750575602,0.0004157137945760041
1772656059855979800,1.128979736328125,-0.00040390462577342983,0.006318170170858502,0.0027022081634029745
1772656059865961700,1.138961669921875,0.0018424129962921142,-0.001850925096310675,0.004331681661913171
1772656059875945000,1.148945068359375,0.007231120297312736,-0.004076473924983293,-0.0014513176197418942
1772656059885926700,1.1589267578125,0.010372925454378127,0.0038235586098395286,-0.0007506311376346275
1772656059895910000,1.168909912109375,0.0061836570709943766,0.006705635118484497,0.0012503379878122359
1772656059905891600,1.1788916015625,0.0013958382725715636,-0.005486249391362071,0.0015660346071701497
1772656059915874800,1.188874755859375,-0.0050385786890983575,-0.0018556926029734313,-0.002389694448397495
1772656059925856800,1.198856689453125,0.014264672195911406,-0.0010436090351082384,-0.003836459190608002
1772656059935839700,1.20883984375,0.002288403198122978,-0.002476071257330477,-0.006499760115728713
1772656059945821700,1.21882177734375,0.0006423895567655563,0.004386361858062446,-0.008562652028864248
1772656059955805000,1.228804931640625,0.004236030134558678,0.006042568099871278,0.0017784626482985912
1772656059965786600,1.23878662109375,0.005433715486526489,0.0032026502325199543,0.0018505004046251996
1772656059975768800,1.248768798828125,0.009326631271839142,-0.003497979917284101,0.005712148835416883
1772656059985751600,1.25875146484375,-0.0029448212802410125,0.009339929144829512,0.0008086540683405473
1772656059995733800,1.268733642578125,0.0012444471031427384,0.005467033234238625,0.00790696003253106
1772656060005716700,1.278716796875,-0.0023451018214225767,0.0007354381350800394,0.0036866206574486565
1772656060015698700,1.28869873046875,0.0008013795107603073,0.00029803309850394725,-0.00975582103591878
1772656060025681700,1.298681640625,0.0012514613658189773,0.008471238285209983,-0.005298161207046359
1772656060035664000,1.308663818359375,-0.003233575093746185,-0.004486936155706644,0.0007137788591207936
1772656060045646600,1.318646484375,0.001404021579027176,-0.013372308199759571,0.0036737520427210252
1772656060055628800,1.32862890625,0.015469956332445144,0.005929938038252294,0.0036405484594404696
1772656060065611800,1.33861181640625,-0.0054763855844736095,-0.005115278920810669,0.0013046482912031933
1772656060075593700,1.34859375,-0.013856091395020484,-0.00312991378987208,0.003281761617027223
1772656060085576700,1.35857666015625,0.007542670464515686,-0.0011811178096570074,-0.004907202827814035
1772656060095558700,1.36855859375,-0.003977671459317207,-0.0036168387902900576,-0.006246269411849789
1772656060105541600,1.378541748046875,0.006197101074457168,-0.0000773212862201035,0.00251352632404305
1772656060115523800,1.38852392578125,0.005298690930008888,0.0008537124861963093,0.003417247397848405
1772656060125506600,1.398506591796875,0.011133388432860374,-0.00005205898080021143,0.008620190902380273
1772656060135488800,1.40848876953125,-0.005173018723726272,0.002872979886736721,-0.003870749619277194
1772656060145471700,1.4184716796875,0.008292612048983574,-0.0028873920045793056,-0.000053739481233060354
1772656060155453700,1.42845361328125,0.011433832684159278,0.0041932687050662935,0.004366332850186154
1772656060165436700,1.438436767578125,0.00919160671532154,0.008081873641442507,-0.008190644945274106
1772656060175419000,1.4484189453125,-0.0060714288681745525,-0.0022395225550979375,-0.003390852581267245
1772656060185401600,1.458401611328125,0.004852116206288337,-0.006538023466616869,0.0074295106799341735
1772656060195383800,1.4683837890625,0.008445172262191773,0.003170245800260454,0.0036412654120707884
1772656060205366800,1.47836669921875,-0.001880406919121742,0.0014906038839370011,-0.010253883918281644
1772656060215348700,1.4883486328125,0.0011129296779632568,-0.006558335602283478,-0.004145328776957467
1772656060225331700,1.498331787109375,-0.0006803834795951843,-0.00446834105309099,-0.003679711426049471
1772656060235313700,1.508313720703125,-0.0063648588567972175,-0.002763619494438171,-0.004698583312123083
1772656060245296600,1.518296630859375,0.0015665186643600464,0.000020896657556295395,-0.0006781778227770701
1772656060255278800,1.52827880859375,0.0029138416200876235,-0.005393054682575166,0.0014291240542428567
1772656060265260800,1.5382607421875,-0.0005295768320560455,-0.006633245735708624,0.005662656271038576
1772656060275243800,1.548243896484375,0.00006605097353458404,-0.0009874401347711682,-0.00391841555275023
1772656060285226800,1.558226806640625,-0.005320902761816978,0.0026484869484789666,-0.0007636413162574172
1772656060295208700,1.568208740234375,0.0024596681118011473,-0.00344106209827587,-0.0010489610636606813
1772656060305191000,1.57819091796875,0.004102759143710136,0.0010319185973145066,-0.004112531619053334
1772656060315173600,1.588173583984375,-0.0011316343784332275,0.0006067154551856219,0.004613284215424209
1772656060325155800,1.59815576171875,-0.009661562314629554,0.00936119112856686,-0.0017396650078706443
1772656060335138800,1.608138916015625,0.005749357306957244,0.0046808330263011155,-0.0020199249876663087
1772656060345120800,1.618120849609375,0.011283026036620139,-0.005213003674242645,-0.00016872589671984315
1772656060355103700,1.628103759765625,0.003200841867923736,0.005851849567051977,0.003239054986461997
1772656060365086000,1.6380859375,0.0008078092515468597,0.001699826187826693,0.01197829655809328
1772656060375068700,1.648068603515625,-0.006371873119473457,-0.006223605488892644,0.001761995570687577
1772656060385051000,1.65805078125,0.009493804532289504,-0.0031193741295486685,0.0028116964198648927
1772656060395033900,1.668033935546875,0.012338088047504425,-0.0033545528586022555,-0.004079049474559724
1772656060405015800,1.678015869140625,0.012039981883764267,-0.00027399463579058647,0.0030980938795022663
1772656060414998800,1.687998779296875,0.004111526972055435,0.0027163645529188216,0.0017369341946672648
1772656060424980700,1.697980712890625,0.0038128362864255903,0.0032862003301270303,-0.00441224521799013
1772656060434963700,1.707963623046875,-0.007558452555537223,-0.004163311958219856,0.0021278971404768525
1772656060444946000,1.71794580078125,0.007855974197387695,0.0016274733376689255,0.006043011057865806
1772656060454928600,1.7279287109375,-0.009053659549355506,0.0016429083688184619,0.00006393208168447018
1772656060464910800,1.737910888671875,0.006209376034140586,0.004076985381636768,-0.005553442009212449
1772656060474893800,1.747893798828125,0.005613748228549957,0.0007196743103675544,0.0055972217854345216
1772656060484875800,1.757875732421875,-0.0009685527712106704,0.004363547238055617,0.006349789151828736
1772656060494858800,1.767858642578125,0.0023228899896144866,0.005317030304297804,0.0025739193083485585
1772656060504841000,1.777841064453125,0.01144727668762207,-0.0013466836349107325,0.003297781170066446
1772656060514823700,1.78782373046875,-0.0008224222987890243,-0.0037624760723672804,0.006565116969519294
1772656060524806000,1.797805908203125,0.010101122775673866,-0.0017859883676283061,-0.002616470675286837
1772656060534787600,1.80778759765625,-0.0020189386069774627,-0.0033940811513923108,-0.005143509501451626
1772656060544770800,1.817770751953125,0.003218377524614334,-0.00116425800640136,-0.004105202262545935
1772656060554752800,1.827752685546875,0.004415478354692459,-0.0029649142201989887,0.0029662841933779417
1772656060564735700,1.83773583984375,0.008307225096225739,-0.01047211151253432,-0.0008775180534692481
1772656060574717700,1.8477177734375,0.005165419939160347,0.00013202888183295726,-0.014089050767524166
1772656060584701000,1.857700927734375,0.0032207156121730803,0.002815112219657749,-0.007421309107169509
1772656060594682600,1.8676826171875,-0.0005196399599313736,0.0008593933083117008,-0.004464107835968025
1772656060604665900,1.877665771484375,-0.002765373060107231,-0.01363092260332778,-0.0013818782458780332
1772656060614647600,1.8876474609375,0.003817512461543083,-0.0022989793910644946,0.00018182740688789636
1772656060624630800,1.897630859375,-0.003515314644575119,0.004749404750484973,0.002014102601655759
1772656060634612700,1.90761279296875,0.0038151743739843367,0.0014488105688244103,-0.005488308917707763
1772656060644595700,1.917595703125,-0.0035147301226854323,0.003032682226784527,-0.009274316562712192
1772656060654577700,1.92757763671875,0.0014256488889455795,-0.009701656863000244,-0.00220936487885192
1772656060664561000,1.937560791015625,0.0060632455617189406,-0.0014038206496275961,-0.004864240468922071
1772656060674542600,1.94754248046875,0.002023614782094955,-0.004515321999974549,0.008123269664333202
1772656060684525800,1.95752587890625,0.0017249240964651107,-0.007428725228644907,-0.0010697252904763445
1772656060694507800,1.9675078125,-0.003661445116996765,-0.0071485200477764,-0.0007575312358792871
1772656060704490800,1.97749072265625,0.0006774608701467514,-0.0059537938378751275,0.005600212893541902
1772656060714472700,1.98747265625,0.005317395630478858,-0.005144596346840262,0.005736570890620351
1772656060724456000,1.9974560546875,0.0008265139520168304,-0.0011211495170369743,0.004370027211192064
1772656060734437600,2.007437744140625,0.00785831228494644,0.00451654584268108,-0.002105109919933602
1772656060744420900,2.0174208984375,0.005764554876089096,-0.0030186719677411018,0.0006729582249652594
1772656060754402600,2.027402587890625,0.012345102310180663,0.0028892003691755232,0.0027403116840869187
1772656060764385800,2.0373857421875,0.015639467680454253,-0.007676452912017703,0.010141737913852557
1772656060774367700,2.04736767578125,0.005462357059121132,-0.0036416809706017374,0.005136769233411178
1772656060784349700,2.057349609375,0.005762801310420036,-0.00017632468128576874,0.005218392235413194
1772656060794332700,2.067332763671875,0.007256839260458945,0.005170297043677419,-0.005029838260216638
1772656060804315000,2.07731494140625,0.005012859725952148,0.0015563260639086364,-0.004898882524040527
1772656060814297600,2.087297607421875,0.0045674540460109705,-0.009575126140192151,0.004019633737788535
1772656060824279800,2.09727978515625,0.005917115089297294,-0.007465257846750319,0.0036540061626350504
1772656060834262800,2.1072626953125,0.010704933887720107,-0.011642013808432966,0.001875045757414773
1772656060844244700,2.11724462890625,0.003972995284199714,-0.006033416679035872,-0.0020256606087088584
1772656060854227200,2.127227294921875,0.00966039327085018,0.005917060290370136,0.0011748113664565606
1772656060864209400,2.13720947265625,0.005319149196147919,-0.0021914638959802685,0.006662019739043899
1772656060874192100,2.147192138671875,0.0033761984348297117,-0.0031098756488412618,0.0031126932270126415
1772656060884174300,2.15717431640625,0.0008329436928033829,-0.004994593416899442,-0.000393917521298863
1772656060894157300,2.1671572265625,-0.0000678045392036438,-0.009044489862211048,0.0013776632950641215
1772656060904139300,2.17713916015625,0.011004209095239638,-0.0037713534985668955,0.001400738209974952
1772656060914122200,2.187122314453125,0.0035229134291410442,0.00042635391959920524,0.004516623474494554
1772656060924104200,2.197104248046875,0.003073416095972061,-0.0011994206513278186,0.0019528008684748784
1772656060934087200,2.207087158203125,0.008310732227563858,-0.004651077208854258,0.003460803411784582
1772656060944069400,2.2170693359375,0.01803951455950737,-0.006099540717806667,-0.0027119349729735403
1772656060954052000,2.227052001953125,0.011308160477876663,-0.0012043890873901545,-0.005786433347756974
1772656060964034300,2.237034423828125,0.0012847791135311127,-0.001460007816273719,0.00027298085563816127
1772656060974017300,2.247017333984375,0.004875497081875801,-0.007849818451236933,-0.005552377996710128
1772656060983999200,2.256999267578125,0.005473462975025177,-0.008516429133806376,-0.0001355862455209717
1772656060993982200,2.266982177734375,-0.0008119009047746658,0.000055511313211172816,-0.0013068265485577284
1772656061003964400,2.27696435546875,0.003229483440518379,-0.0024214184606447813,-0.004598931463086046
1772656061013946400,2.2869462890625,0.005173603245615959,-0.0007322780636139214,-0.004707182177109644
1772656061023929300,2.296929443359375,0.0005342530071735382,0.0006843838012777269,0.005114045944949612
1772656061033911300,2.306911376953125,-0.0027548516660928723,-0.003961524042114615,-0.0042289382400689645
1772656061043894300,2.316894287109375,0.012512275570631027,0.007125760226696729,-0.0013396419727709143
1772656061053876500,2.32687646484375,-0.005744096609950065,-0.002732548502739519,0.0008105172318639233
1772656061063859200,2.336859130859375,0.001589315018057823,-0.003959514748118818,0.0013014653868507592
1772656061073841400,2.34684130859375,0.004884264910221099,-0.0015197021142579613,-0.004203242109809071
1772656061083824400,2.356824462890625,0.00802607006728649,0.0014851057249121366,-0.0020553844601148737
1772656061093806300,2.366806396484375,0.008024901023507117,0.00019873744249343872,0.006587214636895805
1772656061103789300,2.376789306640625,0.013411270236968994,0.004278261841088533,-0.0023666606326820327
1772656061113771500,2.386771484375,0.00622749621272087,0.0002805887733586132,0.0024867159489309412
1772656061123754200,2.396754150390625,0.00158814597427845,-0.0034219007400795817,0.009951517137954943
1772656061133736400,2.406736328125,-0.011581132200360297,0.0017198095299303532,-0.005110041056689806
1772656061143719400,2.416719482421875,-0.006793897923827171,-0.0055599539483897386,0.004051832674071192
1772656061153701400,2.426701416015625,0.006371873119473457,0.0012822948954999446,-0.0006260229438543319
1772656061163684400,2.436684326171875,-0.002155132207274437,0.0003024170126765966,-0.007351353710074908
1772656061173666300,2.446666259765625,-0.0014081132322549819,-0.0064543272385373706,-0.00027996771885082126
1772656061183649300,2.456649169921875,-0.0005108721315860748,-0.0004996931504458188,-0.00014652776464354247
1772656061193631500,2.466631591796875,-0.0030558804392814636,-0.0037238610950298605,0.009417017535609192
1772656061203613200,2.47661328125,-0.00006312836408615112,-0.0035990291389636692,0.0005235443834913894
1772656061213596400,2.486596435546875,-0.005898410388827323,0.0018311426836065947,0.0014261466458672656
1772656061223578000,2.496578125,0.015053776746988295,0.0007142674828879535,-0.0024476854130625722
1772656061233561300,2.506561279296875,0.009520108017325401,-0.003203764477372169,-0.005547245163866318
1772656061243543300,2.516543212890625,-0.005744096609950065,-0.006727189363166689,0.007614032367407344
1772656061253526300,2.5265263671875,0.009218494722247124,0.001262275020778179,0.004516582375299185
1772656061263508200,2.53650830078125,-0.0009562778115272521,-0.0036487500322051345,0.001940708571881987
1772656061273491500,2.546491455078125,0.005029810860753059,-0.0023030345116741954,-0.0018253111644415184
1772656061283473200,2.55647314453125,0.013857260438799857,0.004356258980743587,0.00041747649339959024
1772656061293456400,2.566456298828125,0.0027846622824668882,-0.003480973983556032,-0.0013396008735755457
1772656061303438300,2.576438232421875,-0.0008078092515468597,-0.002373268469981849,-0.0006175793424947187
1772656061313421300,2.58642138671875,0.006073182433843612,-0.00288667961852625,-0.007044004793954082
1772656061323403300,2.5964033203125,0.00696866996884346,-0.009485621225833893,-0.0010173923150403425
1772656061333386500,2.606386474609375,0.0015805471897125244,-0.0035980244919657707,0.003369499265984632
1772656061343368200,2.6163681640625,0.012801613906025886,0.006153846454620361,0.0011098381051560862
1772656061353351400,2.626351318359375,0.004424830704927444,0.0007725187424570322,-0.003916588921844959
1772656061363333000,2.6363330078125,0.006669394761323929,0.006887403159867972,0.00003619469138793647
1772656061373316400,2.64631640625,-0.0020125088661909103,-0.0008739880892448126,0.004522888818499632
1772656061383298300,2.65629833984375,-0.0009638765960931778,-0.00003267842689529061,-0.0020321634147316215
1772656061393281300,2.66628125,0.007714519900083541,-0.0035963987904600796,-0.0021859200711827724
1772656061403263200,2.67626318359375,0.008910451686382293,-0.0038814993421547113,-0.0016386066530365497
1772656061413245400,2.686245361328125,-0.003211363261938095,-0.0012333229209296405,-0.010246481496538035
1772656061423228200,2.696228271484375,-0.0050052609413862225,0.0015963840796612203,-0.0006874297083122655
1772656061433210400,2.70621044921875,0.009961422044038772,-0.0013882577543146907,-0.0006289729527663439
1772656061443193300,2.716193359375,0.00412438645362854,0.0024901911142282186,-0.0007683905566111207
1772656061453175300,2.72617529296875,0.006519172635674476,0.004736380872130394,0.0015411010953132061
1772656061463158300,2.736158203125,0.0075695584714412685,-0.002977317044045776,0.0006195475372951477
1772656061473140200,2.74614013671875,-0.00215805481672287,-0.0015838899242691694,0.0006309320144122466
1772656061483123200,2.756123291015625,0.0021796821266412735,-0.0010156615822575986,0.0005278826318914071
1772656061493105400,2.76610546875,0.00891629690527916,-0.003067771806474775,-0.001907888581091538
1772656061503088000,2.776088134765625,0.009818214181065559,-0.00037955563580617307,-0.00406898017169442
1772656061513070300,2.7860703125,0.018796470406651496,-0.0010868819212540984,-0.004711767020681872
1772656061523053300,2.79605322265625,0.006079027652740478,-0.0031201230482198294,-0.007355052637658082
1772656061533035300,2.80603515625,0.0029372224956750867,-0.0065303698831237844,-0.005341297095874324
1772656061543018200,2.816018310546875,0.005779752445220947,-0.0005115845176391303,-0.003415872858092189
1772656061553000200,2.826000244140625,0.0027881694138050077,0.004043685900233685,0.004820195831218734
1772656061562983200,2.835983154296875,0.008922142124176025,-0.0029018589213490485,-0.0016014712467323988
1772656061572965400,2.84596533203125,0.003833294552564621,0.004458312849421054,-0.0009436740582808851
1772656061582947300,2.855947265625,-0.004544073170423508,0.002402129238285124,-0.005666674859030172
1772656061592930300,2.865930419921875,0.005932897180318832,0.003963588135037571,-0.0017363405396230518
1772656061602912500,2.87591259765625,0.01012450365126133,-0.004587327790260315,-0.0024942005690652878
1772656061612895200,2.885895263671875,0.0048871875196695325,0.0015686740888282656,-0.005850269531318918
1772656061622877400,2.89587744140625,0.00009469254612922667,0.0002689166018739343,-0.00047348556353244927
1772656061632860400,2.9058603515625,0.0021907880425453183,-0.0031689488923177123,0.0017392677156487478
1772656061642842400,2.91584228515625,0.011918401330709457,0.0011621025819331407,0.011662773468671365
1772656061652825300,2.925825439453125,0.013116086682677268,-0.008127174087893218,0.001713827313715592
1772656061662807300,2.935807373046875,0.00338671982884407,-0.0016740158931352197,0.0002062631618231535
1772656061672790300,2.945790283203125,0.008923311167955398,0.0014587839735671878,-0.0034713613384170458
1772656061682772500,2.9557724609375,0.004584405180811882,-0.004603420408535748,-0.006850062257586978
1772656061692755200,2.965755126953125,0.00024549919366836546,-0.004347545951325446,0.004367113734898157
1772656061702737400,2.9757373046875,0.004288052582740783,-0.006800619925558566,0.007635029489663429
1772656061712720400,2.985720458984375,0.0015939911931753157,0.0061118522101081905,-0.00018021997169125823
1772656061722702300,2.995702392578125,0.00009527706801891326,0.0018031952307559548,0.0008036947654327377
1772656061732685300,3.005685302734375,0.006376549294590949,-0.0008524338445626199,0.0017940392433432862
1772656061742667500,3.01566748046875,0.008771335476636886,-0.00020874737985432146,0.003557372821168974
1772656061752650200,3.025650146484375,0.0030839374899864196,0.0010344758805818856,0.0016941773317521436
1772656061762632400,3.035632568359375,0.005328501546382904,-0.011955207943450659,-0.0038710555799538267
1772656061772614100,3.0456142578125,0.0017354454904794693,0.0028847068571485578,-0.0025632289509754627
1772656061782597400,3.055597412109375,-0.003499532553553581,-0.0012474062452092767,-0.00039256581442896274
1772656061792579300,3.065579345703125,-0.0018541034340858458,0.00291111994003877,-0.0011444527608109637
1772656061802562300,3.075562255859375,0.000989011037349701,0.0027173874662257728,0.00370583224799484
1772656061812544300,3.085544189453125,0.0029342998862266537,-0.003204348999261856,0.005708326610247604
1772656061822527500,3.095527587890625,0.0017395371437072752,-0.0025110512391664087,-0.0064394310635048895
1772656061832509200,3.10550927734375,0.017002572727203367,-0.001289911946374923,-0.007440908856783062
1772656061842492400,3.115492431640625,0.0012917933762073516,0.0063181884371675545,-0.0030645341031951827
1772656061852474000,3.12547412109375,0.003237666746973991,0.0016559870461001992,-0.0028950547212269156
1772656061862457000,3.13545703125,0.003686579558253288,-0.005210994380246848,0.0018710408691549672
1772656061872439000,3.14543896484375,-0.00020516718327999114,0.0029178054091520606,0.0005761285206768662
1772656061882422000,3.155422119140625,0.0030868600994348526,-0.002456069648917764,0.0032333741643466056
1772656061892404000,3.165404052734375,0.001143324816226959,-0.0018378464190289376,0.00012652158965356647
1772656061902387200,3.17538720703125,0.004136076891422272,-0.0007832775984890759,-0.0007965526385931297
1772656061912369000,3.185368896484375,0.007426350608468055,-0.0027120902366004882,0.0004439032760215923
1772656061922352000,3.19535205078125,-0.0020019874721765515,0.005901241666730493,0.0059620410764124245
1772656061932334000,3.205333984375,-0.0014034370571374892,0.001536306189186871,-0.002119499204889871
1772656061942316000,3.21531591796875,-0.00365033920109272,0.000928531288076192,0.0066014121256070205
1772656061952299000,3.225299072265625,0.0074216744333505625,-0.003000898849032819,0.0076148315184284
1772656061962281000,3.235281005859375,0.008171031495928764,-0.0005898373856209218,0.000364490497414954
1772656061972264000,3.245263916015625,-0.006043956339359283,-0.0007607369731180369,0.004273540000198408
1772656061982246100,3.25524609375,-0.004996493113040924,0.001012775505427271,-0.0028914882243843746
1772656061992228900,3.265228759765625,0.01206160919368267,0.0016140110678970812,-0.008093093721778131
1772656062002211000,3.275211181640625,0.004878419691324234,0.003460479184798896,0.00009796678202692419
1772656062012194000,3.285194091796875,0.006524433332681655,0.004185651654191315,-0.004754450818360783
1772656062022176000,3.295176025390625,0.0030839374899864196,-0.001268923957273364,-0.00043621772648766633
1772656062032159000,3.305158935546875,0.014605448457598685,-0.002108260858245194,-0.000036372787901200355
1772656062042141000,3.315140869140625,0.0038292028993368145,0.003258709535002708,-0.004161800421145744
1772656062052124000,3.3251240234375,0.0023316578179597854,0.001798665186110884,-0.006383056667190976
1772656062062106000,3.335106201171875,0.00023731588721275328,0.0010720862109214067,-0.0032924154417822136
1772656062072088800,3.3450888671875,-0.0021574702948331833,-0.0071600278224796055,-0.006408305272879078
1772656062082071000,3.355071044921875,0.005771569138765335,-0.0012495434033684431,0.0032792134669143705
1772656062092054000,3.365053955078125,0.00786532654762268,0.0022422990340739486,-0.0008858885895926505
1772656062102036000,3.375035888671875,0.0018827450066804885,-0.0009957513053901494,0.0007643674020422622
1772656062112019000,3.38501904296875,-0.00455050291121006,-0.0013715806141495705,0.0004550091919256374
1772656062122001200,3.395001220703125,-0.001558335357904434,-0.0030020496265031394,0.00122450942681171
1772656062131983000,3.404983154296875,0.0017360300123691558,-0.009548347731120883,0.004488534457748755
1772656062141966000,3.414966064453125,0.010114566779136656,-0.001344418612588197,0.007175864712428301
1772656062151948000,3.424947998046875,0.008467384093999861,-0.0008699877675622702,0.005315454835142008
1772656062161931000,3.434930908203125,-0.009040215545892715,-0.0014114924994297325,-0.002280635450198315
1772656062171913200,3.444913330078125,-0.006645429363846779,-0.0047220418195240196,0.00006605554011184722
1772656062181896000,3.45489599609375,0.009366378760337829,-0.005312755987979471,0.003475599122117273
1772656062191878100,3.464878173828125,0.007419920867681503,0.004262224021740257,0.00033073892486281694
1772656062201861000,3.474861083984375,0.0017313538372516631,0.0071183989041484885,-0.006749063268257305
1772656062211843000,3.484843017578125,-0.0023100305080413818,-0.00003673354750499129,-0.0011080845394870265
1772656062221826000,3.494825927734375,0.005023381119966507,-0.00746182378064841,-0.0015161812831880523
1772656062231808300,3.504808349609375,0.0018809914410114288,-0.0069285936867818235,-0.005021467724093236
1772656062241791000,3.514791015625,0.0027776480197906493,-0.006320197731163353,0.008284903666563332
1772656062251773200,3.524773193359375,0.001433247673511505,-0.002493095457367599,-0.001471734786685556
1772656062261756200,3.534756103515625,-0.0005108721315860748,-0.003164619777072221,-0.009647383092227391
1772656062271738000,3.544738037109375,0.00397884050309658,-0.003980575802456587,-0.002089327828912064
1772656062281721000,3.55472119140625,0.0054787236720323556,-0.0016129881545901299,-0.0005755759648280218
1772656062291703000,3.564703125,0.0008428805649280548,-0.00518657232504338,-0.0016944513263879343
1772656062301685000,3.57468505859375,0.003685410514473915,0.0021464739767834543,0.0009020862391451374
1772656062311668200,3.584668212890625,0.007426935130357742,0.0025973595494404433,-0.0009389202513499185
1772656062321650000,3.59464990234375,-0.0006523264288902282,-0.0013318879245780408,-0.001157243743725121
1772656062331633200,3.604633056640625,-0.0037958851516246795,0.00013418430630117654,0.010535098312725312
1772656062341614800,3.61461474609375,0.0002449146717786789,-0.0032989502138458192,0.0016517355626681819
1772656062351598000,3.62459814453125,0.003240589356422424,-0.006539886630140245,-0.004498927987599745
1772656062361580000,3.634580078125,0.0018950199663639068,0.001305803635250777,0.0004096630797022953
1772656062371563000,3.64456298828125,-0.0033422961652278898,-0.008275222522765397,-0.0035856901667779308
1772656062381545000,3.654544921875,0.005634791016578674,-0.006552983573731035,0.006986575518292374
1772656062391528200,3.664528076171875,0.008628127613663673,-0.0010730177926830946,0.0037471506390720603
1772656062401510000,3.674510009765625,0.0009977788656949996,-0.0016143215951509773,0.0004972911308053881
1772656062411493000,3.6844931640625,0.0006967500925064087,-1.6439678147435188e-7,-0.00515376603398472
1772656062421475000,3.69447509765625,0.006233341431617736,0.00361530442032963,-0.008997750943922437
1772656062431458000,3.7044580078125,0.0015945757150650024,0.006195712834969162,-0.009222116018016821
1772656062441440000,3.71443994140625,0.01476210032403469,0.006527063681185245,-0.0016942777964519336
1772656062451422000,3.724421875,-0.0042407063096761705,0.0010951930918730794,0.006905263043544255
1772656062461405000,3.734405029296875,0.0011497545570135115,0.003032937955111265,0.003655599898099899
1772656062471387100,3.74438720703125,0.002350362518429756,0.003441920614801347,-0.005855900121084414
1772656062481369900,3.754369873046875,-0.0016880992174148558,0.007723196396883576,-0.0018147167051909491
1772656062491352000,3.76435205078125,-0.0003419453054666519,-0.003633588995691389,-0.0025200884955702348
1772656062501335000,3.7743349609375,0.006840659675002097,-0.00279615179086104,-0.003982215203694068
1772656062511317000,3.78431689453125,0.01222936697602272,0.00020858298307284713,0.008616674637887626
1772656062521300000,3.794300048828125,0.011781038686633109,-0.0031583361667580903,0.0009580450769281014
1772656062531282200,3.8042822265625,0.006991466322541237,-0.0020771898665465412,-0.0010504223683848977
1772656062541265000,3.814264892578125,-0.0009375731110572815,-0.0008963643178343773,-0.005582741168932989
1772656062551247000,3.8242470703125,0.001309329032897949,-0.004201945201866329,0.005966498055821284
1772656062561230000,3.83422998046875,0.004302665629982948,-0.006784874367155134,0.0012981591849122196
1772656062571212000,3.8442119140625,-0.00033668460845947266,-0.005376596738118678,-0.0002687156724743545
1772656062581195000,3.854195068359375,0.006546645164489746,-0.004346267309691757,0.007594907541829161
1772656062591177000,3.864177001953125,0.010732990938425063,0.0017128500661812722,-0.003670715268841013
1772656062601160000,3.874159912109375,0.003997545203566551,-0.005895049387961626,0.01177257225238718
1772656062611142100,3.88414208984375,0.007737900775671005,-0.0005053191736340523,-0.009944228880642912
1772656062621124000,3.8941240234375,0.006391746863722801,0.000038450580555945636,0.0028071937746834007
1772656062631107000,3.904107177734375,-0.0022878186762332916,0.005291311341151595,0.0036965255635324863
1772656062641089000,3.914089111328125,0.005793196448683738,-0.0033524887656792997,-0.0035656200597062706
1772656062651072000,3.924072021484375,0.008187982630729675,-0.002971106498967856,0.004251405800203793
1772656062661054200,3.93405419921875,0.005346037203073501,-0.0061863787510432295,-0.00006295483415015041
1772656062671037000,3.944036865234375,0.012227613410353659,0.0016852131405845283,-0.005607921275962144
1772656062681019100,3.95401904296875,0.009531213933229445,0.003824234463274479,-0.00953717331655789
1772656062691002000,3.964002197265625,0.01387070444226265,-0.0003514803187921643,0.0009570815291255712
1772656062700984000,3.973984130859375,0.0008522329151630402,-0.00768933065989986,0.010647180385072714
1772656062710964000,3.9839638671875,0.0008528174370527267,-0.007781940846797078,0.010784935754793695
1772656062720947000,3.993947021484375,0.013270984983444213,-0.0060875397527590394,0.005498469552118331
1772656062730929200,4.00392919921875,0.009980711266398429,-0.00958794908914715,0.0004560549381189048
1772656062740911900,4.013911865234375,-0.001992635121941566,-0.012059417236596346,-0.005211309474078007
1772656062750894000,4.02389404296875,0.012820903128385543,-0.0013597623121924698,0.00012681841717567294
1772656062760877000,4.033876953125,0.0001017068088054657,0.0030506380085833368,0.002799074400309473
1772656062770859000,4.04385888671875,0.007585925084352493,0.0015910503174178302,-0.004437585155223496
1772656062780842000,4.053842041015625,0.009082885643839836,0.0017039543736726045,0.003032737025711685
1772656062790824200,4.06382421875,0.012223521757125854,-0.003414046227186918,-0.0011714412324363365
1772656062800806100,4.07380615234375,0.0035439562171697614,-0.0022854623223654926,0.0010033774894196539
1772656062810789000,4.0837890625,-0.0010959785431623459,-0.0014477511228993534,-0.004275699991243891
1772656062820771000,4.09377099609375,0.0030909517526626585,-0.002300513761024922,0.000017394092795439064
1772656062830754000,4.103754150390625,0.006831891846656799,0.0034188137338496743,0.004097598911402747
1772656062840736300,4.113736328125,0.0048883565634489055,-0.00683514324966818,-0.0028493935151724143
1772656062850719000,4.123718994140625,0.009079963034391403,0.00015672493167221546,0.0006427868489874526
1772656062860701200,4.133701171875,-0.0007967033356428146,0.0035254524460993707,-0.004115408562729135
1772656062870684200,4.14368408203125,0.0032458500534296034,0.0025040004438720643,-0.005497337040957063
1772656062880666400,4.153666259765625,-0.007677695021033286,-0.007293682405818253,0.003031389885419048
1772656062890649000,4.163649169921875,0.008631634745001792,-0.0034762978084385394,0.0030473957387264815
1772656062900631300,4.17363134765625,0.005638298147916793,0.00792655521556735,0.005769094053888693
1772656062910614300,4.1836142578125,-0.001544306832551956,0.0011268120728433132,-0.0026599992897594345
1772656062920596200,4.19359619140625,0.007884615769982338,-0.00826207078024745,-0.0005179137937258929
1772656062930579200,4.2035791015625,-0.00019639935493469238,0.007416285872180015,0.0004621924179606139
1772656062940561400,4.2135615234375,-0.005733575215935707,0.0007144684122875332,0.006626085342559963
1772656062950543000,4.223543212890625,0.001297054073214531,-0.005739511766377836,-0.00020547771053388712
1772656062960526300,4.2335263671875,0.0008487257838249206,-0.007722630141302943,-0.0024567318026209248
1772656062970508000,4.243508056640625,-0.0006494038194417953,-0.0051296179734170435,0.0011302050397498532
1772656062980491300,4.2534912109375,0.011619710645079611,-0.002198752153292298,-0.006960459262924269
1772656062990473200,4.26347314453125,0.00713116705417633,-0.008650576907489448,0.0006148485292913391
1772656063000456200,4.273456298828125,0.0023415946900844573,0.0006567468756809831,0.004694907217426225
1772656063010438100,4.283438232421875,0.008326514318585396,0.0011498824211768806,0.0015798393702367319
1772656063020421400,4.29342138671875,0.0096726682305336,-0.001950622611120343,-0.006217646105564199
1772656063030403000,4.303403076171875,0.007127659922838211,-0.00043046383913606404,-0.00328059257324785
1772656063040386300,4.31338623046875,-0.002150456032156944,-0.005334091036953032,-0.0008679693404119461
1772656063050368300,4.3233681640625,-0.005144377151131629,-0.003657152534369379,-0.0013631096133263781
1772656063060351200,4.333351318359375,-0.00035538930892944334,0.0005876636948436498,0.0022992533857002853
1772656063070333200,4.343333251953125,0.0000935235023498535,-0.006048522916622459,0.0057030841795494775
1772656063080316400,4.35331640625,0.008922726646065712,0.0020554529587738213,-0.000852904202020727
1772656063090298000,4.363298095703125,0.00248830968439579,-0.0015238485664129256,-0.005241416917974129
1772656063100281300,4.37328125,-0.0036450785040855406,-0.0014610124632716177,-0.00600087981603574
1772656063110263000,4.383262939453125,-0.004244797962903976,-0.0029071926835924386,0.004937031710497104
1772656063120245200,4.393245361328125,0.006530863073468208,-0.007782781097013503,0.0010560164255322888
1772656063130230300,4.403230224609375,0.00907528685927391,0.0008444697338156401,0.00836471830396913
1772656063140213200,4.413213134765625,0.00578442862033844,-0.001577149656228721,-0.007679549051402136
1772656063150195200,4.4231953125,0.0012964695513248442,-0.003973433675616979,-0.0033626357003580776
1772656063160178200,4.43317822265625,0.009675590839982031,0.0017148045612499117,0.0002643134919926524
1772656063170160400,4.443160400390625,0.002942483192682266,0.00348413405502215,0.004295281474548392
1772656063180143000,4.45314306640625,-0.002291325807571411,-0.0008536759535782038,-0.00029810616374015806
1772656063190125300,4.463125244140625,0.009231354203820229,0.0023853607665747403,0.005420947336498647
1772656063200108300,4.4731083984375,0.0010036240845918655,-0.0004096219805069268,-0.0033752303204499182
1772656063210090200,4.48309033203125,-0.009618892216682433,0.00027505408171564337,-0.00467392379490193
1772656063220073200,4.4930732421875,0.0007072714865207671,0.00214806314567104,0.004036991297965869
1772656063230055200,4.50305517578125,0.005194646033644676,-0.008431125470530241,0.0024932963867671785
1772656063240038100,4.5130380859375,-0.002437456279993057,0.0006278130421414971,-0.0029572926027467473
1772656063250020400,4.523020263671875,0.010281155517697333,-0.00669195365300402,-0.0108297658437863
1772656063260002000,4.533001953125,0.007288403442502022,0.003569693446625024,-0.008176027331454679
1772656063269985300,4.5429853515625,0.002951251021027565,-0.0021082243256270883,0.0024770165388239545
1772656063279967200,4.55296728515625,-0.001388239488005638,0.0022093283462338146,0.0011592530377209187
1772656063289950200,4.5629501953125,0.0007066869646310806,-0.005773724563233554,-0.0030687673203181475
1772656063299932200,4.57293212890625,-0.001835398733615875,-0.00529580485317856,-0.004882219083607197
1772656063309915400,4.582915283203125,0.010881459498405455,0.0006646561875008046,-0.0016959400305757298
1772656063319897000,4.59289697265625,0.007141688448190689,-0.002541811703611165,0.0037284733380656687
1772656063329880300,4.60288037109375,0.0011561842978000641,0.0007018646590411662,-0.004303277551336214
1772656063339862000,4.612862060546875,-0.0021335048973560333,-0.0031705928601324556,-0.010279904275527224
1772656063349845200,4.62284521484375,0.001457213070988655,0.0022067527966573835,-0.0034667856279993426
1772656063359827200,4.6328271484375,0.01073708259165287,0.00006995996367186308,0.00021809059693478046
1772656063369810200,4.64281005859375,0.006548983252048492,-0.0001530534035526216,0.00867900385095272
1772656063379792100,4.652792236328125,0.010140870264172553,-0.00023309636982157825,-0.0063790061131585385
1772656063389775400,4.662775390625,0.016125789892673492,-0.001875383684132248,0.0028656596633838487
1772656063399757000,4.672757080078125,0.007298340314626693,-0.0063283993039280175,-0.0010043730032630264
1772656063409739300,4.6827392578125,0.0010135609567165373,-0.007626366692595183,-0.0033434606424299997
1772656063419722000,4.692721923828125,0.00924304464161396,-0.00006674509327858687,0.002752582077193074
1772656063429704200,4.7027041015625,0.009390344157814978,0.003064337740372866,-0.012055709175858647
1772656063439687200,4.712687255859375,0.004303250151872635,-0.004538575011398643,0.003818809369485825
1772656063449669000,4.722669189453125,0.006099485918879509,0.003398702527582645,-0.006928022864623926
1772656063459652000,4.732652099609375,0.007147533667087555,-0.0009515833701007068,-0.0009449709662236273
1772656063469634300,4.74263427734375,0.01058978307545185,-0.00320829452201724,0.002435880810837261
1772656063479617000,4.752616943359375,0.00789630620777607,-0.0024519231967628,0.0003535900774877518
1772656063489599200,4.76259912109375,0.001463058289885521,-0.0014850509259849785,-0.0014745203988160936
1772656063499582200,4.772582275390625,-0.0015291092634201048,-0.01298729093754664,0.011313005616352893
1772656063509564200,4.782564208984375,0.011788637471199036,-0.00021176132084801792,0.000117657863185741
1772656063519547100,4.792547119140625,0.011337971094250679,0.000326418942771852,-0.0010203468905296176
1772656063529529000,4.802529052734375,-0.007668927192687988,0.0011883512680418789,-0.0010320007957052438
1772656063539512000,4.812511962890625,0.0025058453410863875,-0.007642623707652092,0.0033236462636850772
1772656063549494300,4.822494384765625,0.006249708044528961,-0.005116521029826253,-0.0035643277183407917
1772656063559476200,4.832476318359375,0.012534487402439117,-0.0015214374136179685,-0.00012411957001313566
1772656063569459200,4.842459228515625,0.004002221378684044,-0.000019344021286815402,0.00499282158492133
1772656063579441400,4.85244140625,0.005348959812521934,-0.004666676636785268,0.0020475619132630527
1772656063589424000,4.862424072265625,0.012680617874860764,-0.0022354126355610786,0.00009212612970732152
1772656063599406300,4.87240625,0.01178454581797123,0.0032552024036645887,-0.005983371558808721
1772656063609389300,4.882389404296875,0.006249123522639274,-0.0019297442198731004,0.004535072446637787
1772656063619371300,4.892371337890625,-0.00048690673410892486,-0.005001808608975261,-0.003598371551837772
1772656063629354200,4.902354248046875,0.0034036709636449812,-0.007357596221193671,0.0029123848819406703
1772656063639336200,4.912336181640625,0.005348375290632247,-0.0011818484620191156,0.0031020987677620724
1772656063649319200,4.922319091796875,0.004302665629982948,-0.00007695596003904938,0.009341673577344044
1772656063659301400,4.93230126953125,-0.0006336217284202575,-0.009738664405141026,0.008675154226319863
1772656063669284000,4.9422841796875,0.005949263793230056,-0.003681373660173267,0.0058679558850592
1772656063679266300,4.952266357421875,0.009238368466496467,-0.007749518148228525,0.0011647694630548358
1772656063689249300,4.962249267578125,-0.000789104551076889,-0.0061769898681901395,0.0018321199311409145
1772656063699231200,4.972231201171875,0.004897124391794205,-0.00516909146727994,-0.008814507898082956
1772656063709213200,4.982213134765625,0.002205401089787483,-0.0017080642932094632,0.005103593049594201
1772656063719196200,4.992196044921875,0.0034054245293140407,0.0010140724133700131,0.0012568225275259464
1772656063729178000,5.00217822265625,0.010886720195412635,0.0009210969002917408,0.0008980630845762789
1772656063739161300,5.012161376953125,0.007741992428898811,-0.0026709362423047423,0.002427122115646489
1772656063749143000,5.02214306640625,0.001005962172150612,-0.0055909153422340745,0.001502582016098313
1772656063759126300,5.032126220703125,-0.0007908581167459487,-0.0006905943463556468,0.0044384528049035
1772656063769108200,5.042108154296875,0.005042670342326164,0.0037991730872541664,-0.005146244881232269
1772656063779091200,5.05209130859375,0.005491583153605461,0.003659527154546231,-0.01010496783372946
1772656063789073200,5.0620732421875,0.005493921241164207,0.000054871992394328115,-0.001233829811005853
1772656063799056400,5.072056396484375,0.012077391284704208,-0.009115637135971338,0.008920246994611806
1772656063809038000,5.0820380859375,0.0034001638323068618,-0.00867138223350048,0.0033379487836733457
1772656063819021300,5.092021240234375,0.009088146340847016,-0.007128975097090005,0.003119141234108247
1772656063829003000,5.1020029296875,0.00864215613901615,-0.005006265588384121,-0.006222267481754534
1772656063838986200,5.111986328125,0.00355272404551506,0.0031307357737794515,-0.0025638637052150443
1772656063848968200,5.12196826171875,0.005795534536242485,-0.0030635157564654946,-0.006546667997376062
1772656063858950700,5.13195068359375,0.009235445857048033,-0.0022142054507508875,-0.003996376159787178
1772656063868933600,5.14193359375,0.014919921234250068,-0.003288593216612935,-0.001440805358882062
1772656063878915800,5.151915771484375,0.002947159367799759,-0.00453835581569001,-0.009501143021951429
1772656063888898600,5.161898681640625,-0.0009445873737335205,-0.0025846461983397603,-0.0035881926511181516
1772656063898880800,5.171880859375,0.008631634745001792,-0.0029588680719025433,-0.002722205205238424
1772656063908863700,5.18186376953125,0.00818038384616375,-0.0010754106791689992,0.0015476495671086013
1772656063918845700,5.191845703125,0.00953062941133976,0.0014757899072952569,-0.00021727317960467188
1772656063928828700,5.20182861328125,0.0033960721790790554,0.0008402136838063598,-0.005629703849507495
1772656063938810600,5.211810546875,0.009981880310177802,-0.0005754435340873897,-0.0016899852138245477
1772656063948793600,5.221793701171875,0.007138765838742255,0.004527286432404071,0.001894791637500748
1772656063958775800,5.23177587890625,0.003848492121696472,0.00045265740463510155,0.003510268576699309
1772656063968758500,5.241758544921875,0.00025952771902084347,-0.005157291431631893,0.005813394419918768
1772656063978740700,5.25174072265625,-0.0037830256700515743,-0.0045635633221827445,-0.0015664638654328883
1772656063988723700,5.2617236328125,-0.007373743638396262,-0.004741897297464311,0.002467787486175075
1772656063998705700,5.27170556640625,0.0011532616883516312,0.0001485781578347087,0.0018188220581505446
1772656064008687600,5.2816875,-0.0021399346381425857,-0.01114787361593917,0.0022541264691855758
1772656064018670800,5.2916708984375,0.005491583153605461,-0.0009322393488138914,0.0009864354877732694
1772656064028652500,5.301652587890625,0.008186229065060615,0.0001597754052840173,-0.008948797235661186
1772656064038635800,5.3116357421875,0.00893324804008007,-0.0025159466099925337,0.0005536746602738276
1772656064048617700,5.32161767578125,0.012674188134074211,-0.007280713326390832,0.004435831589554436
1772656064058600700,5.3316005859375,0.008485504272580146,0.0026394999244250357,0.0058006171367364
1772656064068582700,5.341582763671875,0.009978957700729369,0.0038620639893226323,-0.0007532203869428485
1772656064078565600,5.351565673828125,0.006835398977994918,-0.0052610258007422086,-0.004520199104491621
1772656064088547600,5.361547607421875,0.005488660544157028,-0.0004442183698527515,0.0062150340233696625
1772656064098530800,5.37153076171875,-0.006784545573592185,-0.008639014333859085,0.00026647348303813486
1772656064108512500,5.381512451171875,0.007881693160533904,-0.00033257468892261387,0.000009247318957932292
1772656064118495700,5.391495849609375,0.011323942568898201,-0.003205043119005859,0.0033012883014045652
1772656064128477700,5.401477783203125,0.014615969851613043,-0.0005459617112763225,0.00039636977328918874
1772656064138459600,5.411459716796875,0.003093289840221405,-0.00559999369783327,-0.00025687910420820116
1772656064148442600,5.421442626953125,0.00563888266980648,-0.0029989626202732325,-0.004636121668317355
1772656064158424600,5.431424560546875,0.0021966332614421842,0.0024274828752502797,0.003176739473128691
1772656064168407600,5.441407470703125,0.005039163210988044,-0.007006846554763615,0.003086695702653378
1772656064178389800,5.4513896484375,0.01132569613456726,0.0004866692720912397,0.0004798605053918436
1772656064188372700,5.461372802734375,0.000702010789513588,-0.0010255619217641651,0.004170152690960094
1772656064198354700,5.471354736328125,0.010730652850866317,-0.0037369763049297034,0.005898506286949851
1772656064208337700,5.481337646484375,0.00923427681326866,-0.00716444826927036,-0.005754668236314319
1772656064218319600,5.491319580078125,0.0017488894939422606,-0.00549421350210905,-0.007628238989273086
1772656064228302600,5.501302490234375,0.00653729281425476,-0.0007064495026133954,-0.0029772028796141966
1772656064238284500,5.511284423828125,0.00758650960624218,-0.0003410319900140166,-0.003670587404677644
1772656064248267800,5.521267822265625,0.00040390462577342983,-0.002354600302129984,-0.004729371176031418
1772656064258249700,5.531249755859375,-0.011863456273078919,-0.008626593243703245,0.0017891119064763188
1772656064268232700,5.541232666015625,0.010135025045275688,-0.003493194144312292,0.0009116121193161234
1772656064278214700,5.551214599609375,0.00460018727183342,-0.007127659922838211,0.0025136633213609454
1772656064288196900,5.56119677734375,-0.007818564796447753,-0.00341601898856461,-0.0015717154292855411
1772656064298179600,5.5711796875,-0.0027308862686157226,-0.0048977454463019965,0.009181468913797288
1772656064308161800,5.581161865234375,0.0025058453410863875,0.0017607991274446247,0.009179340888792648
1772656064318144800,5.591144775390625,0.014774375283718109,-0.0057580703363753856,-0.004559581266809254
1772656064328126700,5.601126708984375,-0.001983867293596268,-0.006129369600489735,0.002056626569130458
1772656064338109700,5.611109619140625,0.010140870264172553,0.0030049357033334672,0.004170303388009779
1772656064348091600,5.621091552734375,0.0016121113717555999,-0.0069058155993930994,-0.0016157463672570884
1772656064358074600,5.63107470703125,-0.0003349310427904129,-0.0017909933363087474,-0.0008796963108237832
1772656064368056800,5.641056884765625,0.0034048400074243542,-0.0056486186125315726,-0.00411130320976954
1772656064378039600,5.65103955078125,0.002357376781105995,-0.005517959703877568,-0.004314246469922364
1772656064388021800,5.661021728515625,0.004003390422463417,0.0013366919638589023,0.006049057206162251
1772656064398004700,5.671004638671875,0.006247954478859901,-0.0033324323583394286,0.002042164218937978
1772656064407986700,5.680986572265625,0.008043605723977089,-0.01154556769663468,-0.004377352001122199
1772656064417968600,5.69096875,-0.0027332243561744686,-0.003809694481268525,-0.000041747649339959025
1772656064427951900,5.700951904296875,-0.002284311544895172,0.00004818652328103781,0.0029880713335005563
1772656064437933600,5.71093359375,0.006392915907502174,0.0008655673207715153,0.004708045260212384
1772656064447916800,5.720916748046875,0.004898877957463264,-0.006315375425573438,-0.006497385495551861
1772656064457898500,5.7308984375,-0.0019826982498168944,-0.0037194589145481583,-0.001850564336706884
1772656064467881700,5.7408818359375,0.00490121604502201,-0.003678396251797676,-0.004005842674453743
1772656064477863700,5.75086376953125,0.007744330516457557,0.0014137392554432152,-0.005026253497065045
1772656064487846700,5.7608466796875,0.013879472270607948,0.0009263210646808147,-0.006880749656795524
1772656064497828600,5.77082861328125,-0.00018529343903064726,-0.0021521365325897933,-0.006289496632223017
1772656064507811800,5.780811767578125,0.005651742151379585,-0.0073141589382663364,0.0005840104330331087
1772656064517793500,5.79079345703125,0.008493687579035758,-0.007962923436891287,0.004868916644039564
1772656064527776800,5.80077685546875,0.0099906481385231,0.0002408778174780309,0.004767218968388624
1772656064537758500,5.810758544921875,0.00041501054167747495,0.0036381373066455124,-0.002973608983308077
1772656064547741700,5.82074169921875,0.0028086276799440383,-0.00275375568754971,-0.0004073295587208122
1772656064557723600,5.8307236328125,0.0041547815918922424,-0.008448752458766102,-0.005871988172782585
1772656064567706600,5.84070654296875,-0.0009346505016088485,-0.0068273800683207805,-0.00008573748811613767
1772656064577688600,5.8506884765625,0.0029576807618141173,-0.0018291333896107971,0.00016088051698170603
1772656064587670800,5.8606708984375,-0.003324760508537292,0.010922978818882255,0.0013352215259801595
1772656064597653500,5.870653564453125,0.0008680150061845779,-0.003402428854629397,-0.008850099801272153
1772656064607635700,5.8806357421875,0.008201426634192465,-0.0023811229828745125,-0.00508188354128506
1772656064617618700,5.89061865234375,0.0031172552376985546,-0.00888774666422978,0.0026855949553195387
1772656064627600600,5.9006005859375,0.005811316627264022,-0.0017081190921366214,-0.001383654644433409
1772656064637583600,5.91058349609375,-0.0033171617239713667,-0.001554682096093893,0.0019935210379306225
1772656064647565600,5.920565673828125,-0.0025678046613931654,-0.0014554960379377006,-0.002534660443617031
1772656064657548500,5.930548583984375,0.00940378816127777,-0.0015296389863826334,-0.0075620601515751324
1772656064667530800,5.94053076171875,0.00850537801682949,-0.002891830717679113,0.00018997418072540313
1772656064677513500,5.950513427734375,0.012247487154603004,-0.003009904139395803,-0.0017231111652916296
1772656064687495700,5.96049560546875,-0.0018178630769252776,-0.00917081965561956,-0.0026556701745139434
1772656064697477600,5.9704775390625,0.007760112607479095,-0.0013055113743059336,-0.008601609499496407
1772656064707460600,5.980460693359375,-0.0021200608938932415,-0.004838653936516493,-0.0005991806027013808
1772656064717442800,5.99044287109375,0.01733399663865566,0.0027847170813940464,0.005743735850346274
1772656064727425800,6.00042578125,0.004617722928524017,-0.00021753347450867295,-0.0009316365606151521
1772656064737407700,6.01040771484375,0.0026759412109851836,-0.006017214462906122,-0.013677236829930916
1772656064747390700,6.020390625,-0.0016629647761583328,-0.000126457657571882,-0.0007049607984255999
1772656064757372700,6.03037255859375,-0.0019616554617881772,-0.005631539613567292,0.0007606958739226683
1772656064767355600,6.040355712890625,-0.0025590368330478666,-0.0036106465115211903,-0.0013097582911606876
1772656064777337900,6.050337890625,-0.003156418204307556,-0.00007284604050219059,-0.0031245891607832163
1772656064787320600,6.060320556640625,0.001630231550335884,-0.008383870529010892,-0.0017366921660723165
1772656064797302800,6.070302734375,0.006718494600057602,0.0015360869934782386,-0.0030397832544287666
1772656064807285800,6.08028564453125,-0.0010614917516708372,-0.002426368630398065,-0.007263734792126342
1772656064817267700,6.090267822265625,-0.005849895071983337,-0.0034889015616849065,-0.006967642488959245
1772656064827250700,6.100250732421875,0.0005862754553556442,-0.009724434950388968,-0.0014503312390530482
1772656064837232600,6.110232666015625,-0.005847556984424591,-0.009137648038379848,-0.0011581159599823876
1772656064847215600,6.120215576171875,-0.0007592939347028732,-0.002114014745596796,-0.005125978411338291
1772656064857198000,6.130197998046875,0.014054828837513923,0.0002583221426233649,-0.002397699658339843
1772656064867180000,6.140179931640625,0.01031447326540947,-0.004422273421660065,-0.006301123137935064
1772656064877163300,6.150163330078125,-0.0012076222240924835,-0.007998707136325538,-0.0011836294271517543
1772656064887145000,6.16014501953125,0.002682370951771736,-0.004996529645659029,-0.0012659922146704048
1772656064897128200,6.170128173828125,-0.005996025544404983,-0.006252374925650656,-0.005580818639905192
1772656064907110000,6.18010986328125,0.0022340426623821256,0.0034656485502608117,-0.005717016806779429
1772656064917093000,6.190093017578125,-0.0007563713252544403,-0.005054141584411263,0.005611980963149107
1772656064927075000,6.200074951171875,0.0025339023917913435,-0.0065976446993649,-0.0025797325612045823
1772656064937058000,6.21005810546875,0.005078910699486732,-0.008919456976745278,0.004273307104757987
1772656064947040000,6.2200400390625,0.0031336218506097793,-0.015499803481437265,0.0017430716745089737
1772656064957023200,6.230023193359375,0.007173252630233764,-0.0069838675379753105,-0.0011725235112477093
1772656064967005000,6.2400048828125,0.0010381108760833739,-0.0008631561679765581,-0.0028910406998125834
1772656064976987100,6.249987060546875,-0.006148585757613182,-0.001260101330000907,0.006063003533123992
1772656064986970000,6.25997021484375,0.0005821838021278381,-0.009971541579253972,-0.0026155071274843065
1772656064996952000,6.2699521484375,0.002675356689095497,-0.008530457659158856,-0.005272592940949835
1772656065006935000,6.27993505859375,0.005817161846160888,-0.0010664236551150678,0.004074487463873811
1772656065016917000,6.2899169921875,0.008959551525115966,-0.004586231811717152,-0.0031273291071411222
1772656065026900000,6.29989990234375,-0.0018114333361387252,-0.005194773897808045,-0.004958599654911086
1772656065036882200,6.309882080078125,-0.007644377273321151,-0.007264438045024872,-0.00028099519873503594
1772656065046865000,6.319864990234375,0.00013736264407634735,-0.003599248334672302,-0.0026145846788771447
1772656065056847000,6.32984716796875,0.0065735331714153284,-0.0030772337545640766,0.001836563210817985
1772656065066830000,6.339830078125,0.009115618869662284,-0.004058792137820274,0.0012980358873261137
1772656065076812000,6.34981201171875,0.008367430850863456,-0.004690075778681785,0.00017002737123984844
1772656065086795000,6.359794921875,0.0037280806124210357,-0.00005492679132148623,0.00432561268073041
1772656065096777000,6.36977685546875,0.011359598404169082,-0.002877729127090424,0.0032394888113019987
1772656065106760000,6.379760009765625,0.011958148819208144,-0.0033350444405339658,-0.0012648414372000844
1772656065116742100,6.3897421875,-0.0004611877709627151,-0.005975622077193111,-0.0035293112038867545
1772656065126724000,6.39972412109375,-0.00689502021074295,-0.006403492100443691,-0.004660196663648821
1772656065136707000,6.40970703125,-0.0016588731229305266,-0.003947696446161717,-0.0007723452125210315
1772656065146689300,6.419689208984375,0.00537350973188877,-0.002591605662088841,0.0017039543736726045
1772656065156672000,6.429672119140625,0.0028296704679727554,0.0020143537634052335,0.0008157094302121549
1772656065166654200,6.439654296875,0.011212298887968063,-0.0071074208524078124,0.003152335684234276
1772656065176637200,6.44963720703125,0.004033785560727119,-0.011171729415562003,-0.005069330020388588
1772656065186619100,6.459619140625,-0.0032990415453910825,-0.0011007277835160493,0.0022010126090375704
1772656065196602000,6.46960205078125,0.009269348126649856,0.00047112464308738706,-0.0018437099042348563
1772656065206584000,6.479583984375,-0.003897591960430145,-0.005419833091646432,-0.009676065764017402
1772656065216567000,6.489567138671875,0.0040320319950580595,0.002501333562750369,0.0011620477830059826
1772656065226549200,6.49954931640625,0.0014887772530317305,-0.001736322273313999,0.0006930328986141831
1772656065236532000,6.509531982421875,0.006129881057143211,-0.004099964398425072,0.0075605440479237585
1772656065246514200,6.51951416015625,-0.0023977087914943693,-0.0046298334914259606,0.00042174167656339705
1772656065256497200,6.5294970703125,0.0001467149943113327,-0.004016925757471472,0.0015360276279738172
1772656065266479000,6.53947900390625,0.01645604476034641,-0.0007681530945934354,0.00610584259442985
1772656065276461000,6.5494609375,0.00014788403809070586,-0.006788399764802306,-0.001326070105144754
1772656065286444300,6.5594443359375,0.006582300999760628,-0.007925221775006503,0.00172319793025963
1772656065296426000,6.569426025390625,0.004932195705175399,0.0028681393148377535,0.003995572442188859
1772656065306409200,6.5794091796875,0.009869652107357978,-0.0002706336349248886,0.006040353309898637
1772656065316391000,6.589390869140625,0.0002928454667329788,-0.0006638159372843802,0.0011233962730504573
1772656065326374100,6.5993740234375,0.008521744629740714,-0.0045196328489109875,0.005390511099039577
1772656065336356000,6.609356201171875,-0.000009352350234985351,-0.0037579460277222094,0.0009157996706664562
1772656065346339000,6.619339111328125,-0.004048983129858971,-0.0009153978118672967,-0.0018066658294759689
1772656065356321000,6.629321044921875,-0.0012035305708646773,-0.0015470102462917564,0.0025620827400824053
1772656065366304300,6.63930419921875,0.009273439779877662,0.0037270211664959785,0.0020450228963047267
1772656065376286000,6.649285888671875,-0.0007505261063575744,0.0011885521974414586,0.0025935327576939015
1772656065386269200,6.659269287109375,5.845218896865844e-7,-0.004523614904284477,-0.009255232836329378
1772656065396251000,6.6692509765625,-0.003737432962656021,-0.005591865190304816,-0.006589813019358553
1772656065406234000,6.679234130859375,0.006139233407378196,-0.0019010661146603523,-0.006123839475424029
1772656065416216000,6.689216064453125,0.0025496844828128812,-0.005244613522058353,-0.005791707744495942
1772656065426198000,6.699197998046875,-0.0040378772139549254,-0.010037446422316134,-0.014346925385575741
1772656065436181000,6.709180908203125,0.006735445734858512,-0.006993274687137454,0.0031660080165602264
1772656065446163200,6.7191630859375,0.000004091653227806091,-0.003463547924719751,-0.004662137458985671
1772656065456146000,6.72914599609375,0.004645195457339287,-0.007811714930552989,-0.0023911329202353955
1772656065466128100,6.739128173828125,0.00269873756468296,-0.007264255381934344,0.002219452448026277
1772656065476111000,6.749111083984375,0.010179448708891868,-0.007963654089253395,0.009119573525572196
1772656065486093000,6.759093017578125,0.007785247048735618,-0.012701843325980008,0.0032064313584938644
1772656065496076000,6.769075927734375,-0.0013397241711616515,-0.007475724441837519,0.0071498534883372485
1772656065506058000,6.77905810546875,0.008087444865703583,-0.0029433965081349014,0.00857357984825503
1772656065516041000,6.789041015625,0.0019534721553325653,-0.007190313362888992,0.001664394114841707
1772656065526023200,6.799023193359375,0.0068944356888532635,-0.008529781805723904,0.004390581375453621
1772656065536006000,6.809005859375,0.018567337825894356,-0.00839283928675577,0.0038787867952603844
1772656065545988000,6.818988037109375,0.007190788286924362,-0.007790005422243848,-0.01121353186382912
1772656065555970300,6.82897021484375,0.008089782953262329,-0.008718573242938146,-0.0012359304365469142
1772656065565953000,6.838953125,0.007941314393281936,-0.0033642066029366106,0.008867539559840223
1772656065575935200,6.848935302734375,-0.006873977422714233,-0.003712572516035288,-0.0017095803968608379
1772656065585918200,6.858918212890625,-0.0061240358382463455,-0.0009518938973546027,-0.0035537286925129592
1772656065595900200,6.868900146484375,0.01063771387040615,-0.003207463404955342,0.004994218957563862
1772656065605883100,6.878883056640625,0.003157587248086929,-0.0034444687649141997,-0.000703024569666013
1772656065615865000,6.888864990234375,-0.0013332944303750991,-0.006972140567563474,-0.001990036739478819
1772656065625848000,6.89884814453125,0.007346271109580993,-0.009696880223182961,0.0039578753468813375
1772656065635830300,6.908830322265625,0.0028600656062364575,-0.00041908392859622834,-0.000848191494285129
1772656065645813000,6.91881298828125,0.001662380254268646,0.007858029157156124,-0.007457101939758286
1772656065655795200,6.928795166015625,-0.0035749358773231503,-0.0014022223475854843,-0.002720981362531893
1772656065665778200,6.938778076171875,0.0034580314993858333,-0.01177755895475857,0.005342648802744225
1772656065675760000,6.948760009765625,0.0033078093737363813,-0.0017946374649647622,-0.005170831333217211
1772656065685743000,6.9587431640625,-0.001633154159784317,-0.00597905614329502,-0.007632207344914786
1772656065695725000,6.96872509765625,0.003603577449917793,-0.015387657477008179,-0.00011929726442322135
1772656065705707000,6.97870703125,-0.002831424033641815,-0.0007063581710681319,-0.001397194546018727
1772656065715690200,6.988690185546875,0.004200958821177482,-0.00637411987548694,-0.011395902693411335
1772656065725672000,6.998671875,0.0028571429967880245,-0.005926832765713334,0.0024330677992431445
1772656065735655200,7.0086552734375,0.006297638839483261,-0.006884718012437224,-0.005240558401448651
1772656065745637000,7.01863720703125,0.00016191256344318388,-0.0055324448869563635,0.0018716436573537065
1772656065755620000,7.0286201171875,0.0037537995755672453,-0.013756613075919449,0.009279207366961055
1772656065765602000,7.03860205078125,0.013932663762569427,-0.012056640757620333,-0.0038829880463425066
1772656065775585300,7.048585205078125,0.0045043256819248196,-0.004383174387132749,-0.003650887190364301
1772656065785567000,7.05856689453125,0.005998363631963729,-0.01581051339842379,0.008563684075325727
1772656065795550200,7.06855029296875,-0.002830254989862442,-0.011928356469143182,0.005764153017289936
1772656065805532000,7.078531982421875,0.009139584267139435,-0.006266558714630082,-0.000013786496757529674
1772656065815515100,7.08851513671875,0.0034556934118270873,-0.010427057661255821,0.0023113228494068606
1772656065825497000,7.0984970703125,0.006748305216431617,-0.0011868442975450305,0.0011158933866070582
1772656065835479000,7.10847900390625,0.0033078093737363813,0.0030814441388007253,0.00008259568295907229
1772656065845462000,7.1184619140625,0.0028588965624570845,-0.0035550895325373857,-0.004796604893077165
1772656065855444000,7.12844384765625,0.003906359788775444,-0.010737137390580027,-0.0013264445644803344
1772656065865426700,7.1384267578125,0.006302315014600753,-0.00609139394396916,-0.009941132741258478
1772656065875409000,7.148408935546875,0.003158171769976616,-0.00484514760938473,0.0006203466883162036
1772656065885392000,7.158391845703125,0.005403904870152473,-0.009291322496440262,0.008320198742230422
1772656065895373800,7.168373779296875,0.0036094226688146588,-0.007877583240997046,-0.00047307913815602655
1772656065905356800,7.178356689453125,0.007650807014107704,-0.005089514291891828,0.0023636512582655995
1772656065915338800,7.1883388671875,0.008398410511016845,-0.0025448987098410725,0.0044697795249288895
1772656065925321700,7.19832177734375,0.006902618995308875,-0.005407265871018171,0.012282366671739145
1772656065935304000,7.208303955078125,0.004057750958204269,-0.0016077548570465295,0.002152593190316111
1772656065945286700,7.21828662109375,-0.00596738397181034,-0.0028302458567079154,0.004526405082992278
1772656065955268900,7.228268798828125,0.004658054938912391,-0.00544260204588063,0.005869800782273523
1772656065965251800,7.238251953125,0.01438391466140747,-0.008164008100097998,0.0012596538054291159
1772656065975233800,7.24823388671875,-0.0016273089408874511,-0.006859017315600067,-0.0020137053094338624
1772656065985216000,7.258216064453125,0.004655132329463958,-0.00032724092667922377,0.007368825434683822
1772656065995199000,7.268198974609375,0.0030067806005477904,-0.006241122879274189,0.0035507969499099998
1772656066005181000,7.278180908203125,0.011534954971075057,-0.015461078906245528,-0.008096194427739829
1772656066015164000,7.288163818359375,0.004504910203814506,-0.005642097540199756,-0.0025544428563211113
1772656066025145900,7.298145751953125,0.005554126995801926,-0.002343476119916886,0.002159790116082877
1772656066035128800,7.30812890625,-0.003273322582244873,-0.015331662106607108,-0.00012896470848936586
1772656066045111000,7.318111083984375,0.006154430976510048,-0.007456837078277021,0.007224690556526183
1772656066055093800,7.32809375,0.004957914668321609,-0.007791411928040906,0.004939287599665112
1772656066065076000,7.338075927734375,-0.00281856455206871,-0.010392306008283048,0.00045955750287976114
1772656066075059000,7.348058837890625,0.01035012910068035,-0.012983929936680943,-0.0011763274701079352
1772656066085041000,7.358041015625,0.001373041918873787,-0.013063653242541476,-0.0005957100039813667
1772656066095023900,7.36802392578125,-0.0002747252881526947,-0.011266157100209966,0.007895648620650172
1772656066105006000,7.378006103515625,-0.012695815443992614,-0.003253887229412794,-0.00023058018574956802
1772656066114988800,7.38798876953125,-0.0025222119539976117,-0.007139112898614257,-0.00661212074928917
1772656066124971000,7.397970947265625,-0.000879120922088623,0.0017004655086435376,-0.012218233660655095
1772656066134952700,7.40795263671875,-0.004022095122933387,0.002301911133667454,-0.004371515915379859
1772656066144936000,7.41793603515625,-0.0019265841484069823,-0.009897060704091564,-0.0008448259268421679
1772656066154918000,7.42791796875,0.0007645546317100524,-0.009058618852263316,-0.004023223067517392
1772656066164900900,7.43790087890625,-0.002977554506063461,-0.011283336563874036,-0.00930542408702895
1772656066174882800,7.4478828125,0.008994038316607474,-0.01654412490259856,-0.0016574483508244157
1772656066184866000,7.457865966796875,0.01243628772497177,-0.008355009760707617,0.003530818174383603
1772656066194847700,7.46784765625,0.005102291575074196,0.0023603085237089544,0.0055242341810371725
1772656066204831000,7.4778310546875,0.004953823015093803,-0.0023448643594048916,-0.005704691614746116
1772656066214812700,7.487812744140625,0.0036100071907043457,-0.006718101874412968,0.0040096694662002845
1772656066224796000,7.4977958984375,-0.0025239655196666716,-0.0006191365453414618,0.0006439193601487204
1772656066234777900,7.50777783203125,-0.005817746368050575,-0.00785270452806726,0.0009578852467238902
1772656066244760800,7.5177607421875,0.002112462109327316,-0.0031894802236929532,0.0023256116696633395
1772656066254742800,7.52774267578125,0.0016635492980480193,-0.0027330690925475207,-0.0008210340593010186
1772656066264726000,7.53772607421875,-0.0017781155884265898,0.0001237816432956606,-0.005049643505807035
1772656066274707700,7.547707763671875,-0.0013286182552576064,0.0015098383073695004,0.006227747374470345
1772656066284690000,7.55768994140625,-0.0005810147583484649,-0.006095503863506019,-0.004436388711980543
1772656066294673000,7.5676728515625,0.004656885895133018,-0.007372912521334364,0.004629500131285749
1772656066304654800,7.57765478515625,-0.007763035216927528,-0.002227576388977468,-0.0029211755431722847
1772656066314637800,7.587637939453125,-0.009109189128875731,-0.006289081073692068,-0.0004520957156317308
1772656066324619800,7.597619873046875,0.004359364253282547,0.0003679199969395995,0.004972664712881669
1772656066334602800,7.607602783203125,0.007202478724718094,-0.005332903726864606,0.007050110307754948
1772656066344585000,7.6175849609375,-0.0038677813440561293,-0.0011460190968122332,-0.003301562296040356
1772656066354567700,7.627567626953125,0.0043634559065103525,0.0006989785822108387,0.000639585678325966
1772656066364550000,7.6375498046875,0.006008885025978088,-0.0035006285320967434,-0.0033500593465752896
1772656066374532900,7.647532958984375,-0.005514964029192924,-0.0002547510792035609,0.002235910392482765
1772656066384514800,7.657514892578125,-0.006116437053680419,-0.002056475872080773,0.0011156696243211626
1772656066394497800,7.667497802734375,0.005256020832061767,-0.007420277060708031,0.00957811724829953
1772656066404480000,7.67747998046875,0.005407996523380279,-0.008441811261326074,-0.0012226553964428603
1772656066414462000,7.6874619140625,-0.006259644916653633,-0.01362443806361407,-0.0014393440541578457
1772656066424445000,7.69744482421875,0.0028711715221405028,-0.005525777684152126,-0.004343289901316166
1772656066434427000,7.707427001953125,0.009158288967609405,-0.0050213352933526035,-0.005655180784058756
1772656066444409900,7.717409912109375,-0.0025128596037626264,0.000028659838903695342,0.007613297148467972
1772656066454392000,7.72739208984375,0.0025783260554075238,-0.00542504812288098,0.0014728444649605079
1772656066464374800,7.737374755859375,0.009312602746486664,-0.007159973023552447,-0.0014163559042150154
1772656066474357000,7.74735693359375,0.0033241759866476056,-0.0053924153617583214,-0.00458056468933355
1772656066484340000,7.757340087890625,0.004072364005446433,-0.01300146559337154,0.0003152308284770697
1772656066494322000,7.767322021484375,-0.0029600188493728637,0.0014679353944025933,-0.00028186741499230266
1772656066504305000,7.777304931640625,0.0024286884516477583,-0.004303999070543796,-0.0033287471304880452
1772656066514286800,7.787286865234375,0.0022796353697776793,-0.0038797914422582834,-0.006597914127423428
1772656066524269800,7.797269775390625,0.004075871136784553,-0.00535585534418933,-0.0035654099971521645
1772656066534252000,7.807251953125,0.003026654344797134,-0.004544456762913614,-0.0011230766126420347
1772656066544234800,7.81723486328125,-0.0013140052080154417,-0.005211898562544956,0.004168759884894825
1772656066554217000,7.827217041015625,-0.004905307698249817,-0.007857453768420964,0.011408200485981068
1772656066564199000,7.837198974609375,-0.0053548050314188,-0.0055458066920284176,0.0032221951832063496
1772656066574182000,7.847181884765625,0.006617372313141822,-0.016099815201200542,-0.0021759557995945215
1772656066584163800,7.857163818359375,0.005872106903791427,-0.005629612517962232,0.00213127184107434
1772656066594147000,7.86714697265625,0.00362637380361557,-0.00828415474789217,0.001734947733557783
1772656066604128800,7.877128662109375,0.005571078130602836,-0.0073188807791564605,-0.0002725378976436332
1772656066614112000,7.887112060546875,0.0054214405268430705,-0.011448911522282286,0.0007010335419792681
1772656066624093700,7.89709375,0.00123217214345932,-0.007324324139254167,0.002098223521420732
1772656066634077000,7.907076904296875,0.00033317747712135315,-0.010068964938586578,0.0014040033127181231
1772656066644059000,7.917058837890625,0.006167874979972839,-0.008649599659955128,-0.0037812127388780936
1772656066654041900,7.927041748046875,0.002277297282218933,-0.010335251191956921,-0.00911781082674861
1772656066664023800,7.93702392578125,0.005869184294342994,-0.0028758659635670482,-0.0063072103854268785
1772656066674007000,7.947007080078125,0.003774257841706276,-0.013644631468271835,-0.0010643960948102176
1772656066683988700,7.95698876953125,0.0030272388666868206,-0.0101236268684268,0.0020836744062602518
1772656066693972000,7.966971923828125,0.0030249007791280746,-0.008616108382306992,-0.007815290560550057
1772656066703954000,7.976953857421875,0.00003214870393276214,-0.007583797059347853,-0.0010851557550486176
1772656066713933800,7.986933837890625,0.000032733225822448726,-0.00763015695172362,-0.0010304938252083957
1772656066723915800,7.996915771484375,0.008407762861251831,-0.007377250769734382,0.000719094355055131
1772656066733898800,8.006898681640624,0.009900631767511367,-0.006199630958260968,0.006679619327816181
1772656066743880700,8.016880615234374,0.010946925950050354,-0.005801087494194507,-0.0019982520119752735
1772656066753864000,8.026864013671876,0.015585691666603087,-0.011948458542255683,0.0029362863473361357
1772656066763846000,8.036845947265626,0.010348960056900978,-0.012852832636609673,0.007690673233615234
1772656066773828900,8.046828857421875,0.002865326303243637,-0.01200388765707612,-0.0073907084729289635
1772656066783810800,8.056810791015625,-0.003269230929017067,-0.008003794303396716,-0.005189974425104446
1772656066793793800,8.066793701171875,-0.00281856455206871,-0.009593273718236013,-0.0016031152145471422
1772656066803775700,8.076775634765625,0.0003267477363348007,-0.0053084451390430325,0.0036795744287315755
1772656066813759000,8.086759033203125,-0.0005722469300031662,-0.003489075091620907,0.0025398983077378943
1772656066823741000,8.096740966796874,0.00376841262280941,0.004858463748684152,0.00009948288567829876
1772656066833724000,8.106723876953126,0.0031681086421012877,-0.000251517942501232,-0.0011371782032307237
1772656066843705900,8.116705810546875,0.016036358043551444,-0.008319280860200524,-0.0036348767704796046
1772656066853688800,8.126688720703125,-0.00042202480435371396,-0.0026059081820771096,-0.004816483203903771
1772656066863674400,8.13667431640625,-0.0013180968612432479,-0.011913569891965016,-0.00944447179811541
1772656066873656300,8.14665625,0.0030196400821208952,-0.011345688609825447,0.00038762477783020583
1772656066883639300,8.156639404296875,0.0036211131066083905,-0.011712065103650093,0.0004195725523633882
1772656066893621500,8.16662158203125,0.0006289455533027648,-0.005680018397793174,-0.0006074780735885724
1772656066903604200,8.176604248046875,0.0009276362389326095,-0.0036164917304180562,-0.004527711124089546
1772656066913586400,8.18658642578125,0.003469721937179565,-0.011151956136012449,0.013194380649854428
1772656066923569400,8.1965693359375,0.0027215339183807373,-0.009801756236609071,0.009140794410114176
1772656066933551400,8.20655126953125,0.0004752162963151931,-0.008203801254369317,-0.0001402989532565698
1772656066943534300,8.216534423828126,0.011098901641368866,-0.005778455537278205,-0.0038522184487432237
1772656066953516500,8.2265166015625,0.000028057050704956055,-0.0030214119140990077,-0.00008134900736622511
1772656066963499300,8.236499267578125,0.00466682276725769,-0.002853553667059168,-0.008063899593334645
1772656066973481500,8.2464814453125,0.0028717560440301893,-0.006598905074689537,-0.006902504830877296
1772656066983464400,8.25646435546875,0.006615034225583076,-0.008267815534444525,0.002834456240944564
1772656066993446400,8.2664462890625,0.003025485301017761,-0.0017922902442514895,0.002997318652458489
1772656067003429400,8.276429443359374,0.0051221653193235395,-0.001946476158965379,-0.00516494958170224
1772656067013411300,8.286411376953126,0.002279050847887993,-0.006798638031026348,-0.0017162567328196019
1772656067023393300,8.296393310546875,0.01260404550731182,-0.005444720937730744,0.0042595251745777205
1772656067033376500,8.30637646484375,0.004522445860505104,-0.007140765999583527,-0.0011740898472489788
1772656067043358200,8.316358154296875,0.004671498942375183,-0.00460842537721619,0.001992183030792512
1772656067053341400,8.326341552734375,0.010510288098454475,-0.0023286164775025097,-0.007072591567621566
1772656067063323100,8.3363232421875,0.005423778614401817,0.0022071729217655956,0.004793732515978626
1772656067073306400,8.346306396484374,0.007369651985168457,-0.00820003839470446,-0.0010043684366857633
1772656067083288300,8.356288330078126,-0.0016097732841968534,-0.0069332789950538425,-0.007721219068928621
1772656067093271300,8.366271240234376,0.0006336217284202575,-0.009234249413805082,-0.002456297977780923
1772656067103253200,8.376253173828125,0.014101006066799163,-0.0012806143950670956,-0.005811864616535604
1772656067113236500,8.386236572265625,0.01110474686026573,-0.017690143999410792,-0.00231503091014456
1772656067123218200,8.39621826171875,0.0060170683324337,-0.009222449378157034,0.008877604296128265
1772656067133203200,8.406203125,0.013049451187252998,-0.00952812692699954,-0.007658067871956154
1772656067143185400,8.416185302734375,0.00047989247143268585,-0.004284335388848558,-0.002910074193845503
1772656067153168400,8.42616845703125,0.005866261684894561,-0.0025381949744187294,-0.002990824979590252
1772656067163150300,8.436150390625,0.014994155514240264,-0.005887660665949806,-0.0032023123058024794
1772656067173133300,8.44613330078125,0.008110241219401359,-0.007180942746344954,-0.010567027820949442
1772656067183115500,8.456115478515626,0.0031739538609981536,-0.0063162613415624945,-0.00456437617293559
1772656067193098200,8.46609814453125,0.0006289455533027648,-0.008955405072961001,-0.004101311538717709
1772656067203080400,8.47608056640625,-0.0013175123393535614,-0.0006793057673610747,0.002410746369580738
1772656067213063400,8.4860634765625,0.006612696138024329,-0.006208882843796164,0.0012971682376461103
1772656067223045400,8.49604541015625,-0.0010205752193927764,-0.00415098219960928,-0.011300735223246738
1772656067233028400,8.5060283203125,0.004514847075939178,0.0025143117753323166,-0.0010145975697552784
1772656067243010300,8.51601025390625,0.009303250396251678,-0.004612891489779576,0.0023595093726878984
1772656067252993300,8.5259931640625,0.009003975188732147,-0.009334905909840017,-0.001206448613735847
1772656067262975500,8.5359755859375,0.0003267477363348007,-0.007007878601225093,0.005889752158336341
1772656067272958200,8.545958251953126,0.0019698387682437896,-0.0014188994877506046,0.00048067792272195217
1772656067282940400,8.5559404296875,0.0007715688943862914,-0.004494005217310041,-0.00010856124127749353
1772656067292922400,8.56592236328125,0.007802782705426216,-0.016818493997724726,-0.00037157325875014066
1772656067302905300,8.5759052734375,0.00481236871778965,0.001301766780950129,-0.005396908873785287
1772656067312887600,8.585887451171875,0.006908464214205741,-0.00008418028526939452,-0.0012437529833987354
1772656067322870300,8.595870361328124,0.0030167174726724623,-0.010416262272605671,0.004566568130021914
1772656067332852500,8.6058525390625,0.008704115459322929,-0.009109426590893418,-0.00474035836092662
1772656067342835500,8.61583544921875,0.011996142742037773,-0.006892426394857465,-0.0023248627509921786
1772656067352817400,8.6258173828125,0.0015232640445232391,-0.00724265547147952,0.00099204324465245
1772656067362800400,8.63580029296875,-0.0028150574207305907,-0.008383158142957836,-0.00271330037957523
1772656067372782600,8.645782470703125,0.004965513452887535,-0.004412619677325711,0.0002547921783989295
1772656067382765300,8.655765380859375,-0.000872106659412384,-0.0013876823655795305,0.004556672357092611
1772656067392747500,8.66574755859375,0.004962590843439102,-0.0011546133952215314,-0.001008661019313149
1772656067402730500,8.67573046875,0.011397007805109024,-0.002067992779938504,-0.0010744562645209953
1772656067412712400,8.68571240234375,0.012595277678966522,-0.004081204899027943,0.0030995962834218516
1772656067422695400,8.6956953125,0.006460135924816131,-0.008133064972562715,0.001022630179161206
1772656067432677400,8.705677490234375,-0.006857026287913322,-0.005905452050967141,-0.002151615942781791
1772656067442659300,8.715659423828125,0.012594693157076835,-0.0030565288932528343,0.010992559756641276
1772656067452642600,8.725642578125,0.0063087447553873055,-0.009756044798204674,-0.0018411297880811615
1772656067462624300,8.735624267578125,-0.0028220716834068296,-0.006159655140899121,0.008423334889719263
1772656067472607500,8.745607421875,-0.005364741903543472,-0.00838112144949846,0.004620805368176661
1772656067482589400,8.75558935546875,-0.0028220716834068296,-0.006851820389833301,0.00608518339889124
1772656067492572400,8.765572509765626,0.008400748598575591,-0.002487067575380206,0.002874774551601149
1772656067502554400,8.775554443359376,0.007501753932237625,-0.005263683548709377,0.0031716020737076176
1772656067512537600,8.78553759765625,0.002564297530055046,-0.003667244670120999,0.0033699330908246337
1772656067522519300,8.795519287109375,0.00001987374424934387,-0.009324366249516606,0.0016027316220570355
1772656067532502500,8.80550244140625,0.007801613661646842,-0.00472231581415981,-0.0019704369898652656
1772656067542484200,8.815484130859375,0.004358195209503174,-0.004519422786356881,0.001862204542150721
1772656067552467500,8.825467529296875,0.00824877290725708,-0.005955803131870925,-0.0009747359168250113
1772656067562449400,8.835449462890624,0.010496259573101997,-0.008645042215846478,-0.00015374295671936124
1772656067572432400,8.845432373046876,0.0033130700707435607,-0.0005497428372502327,-0.0025004613464931023
1772656067582414300,8.855414306640625,0.0025660510957241055,-0.006279217266803607,0.007321474595041945
1772656067592396300,8.865396240234375,0.0025666356176137924,-0.006322700215503573,0.0005783524438040331
1772656067602379300,8.875379150390625,0.005410334610939025,-0.005266469160839915,0.008444975899369456
1772656067612361500,8.885361572265625,-0.0031207623690366745,-0.014463437037868425,0.007639061777386814
1772656067622344200,8.89534423828125,-0.004616553884744644,-0.009192958422191441,0.009233144302107393
1772656067632326400,8.905326416015624,0.0037619828820228576,-0.005923325634375214,0.005424427068373188
1772656067642309400,8.915309326171876,0.011241524982452391,-0.007771382920164614,0.008513287328649312
1772656067652291300,8.925291259765626,0.0024129063606262205,-0.009567856149189173,0.0025483601754065603
1772656067662274300,8.9352744140625,0.0009165303230285644,-0.00762492365418002,0.0035553361277095973
1772656067672256500,8.945256591796875,0.005257774397730827,-0.0054559912504162636,-0.0024511925444006917
1772656067682239200,8.9552392578125,-0.005365910947322845,-0.0009494370787870138,0.006416630143229849
1772656067692221400,8.965221435546875,0.006752396869659423,-0.004207909151772037,-0.0012824501591268925
1772656067702204400,8.975204345703125,0.010790858605504034,-0.010419531941926106,0.004315278516383842
1772656067712186400,8.985186279296874,0.016174889731407165,-0.009237372952653094,0.0045545306323561815
1772656067722169300,8.99516943359375,0.006447860965132713,-0.008947660157922655,0.0010467736731516197
1772656067732151300,9.0051513671875,0.001810264292359352,-0.011965437076520175,0.00021559267917182294
1772656067742133500,9.015133544921875,0.011086626681685446,-0.0031625648173037916,0.006859729701653123
1772656067752116500,9.025116455078125,0.01542611719071865,-0.007194085355708375,-0.005568758309353143
1772656067762098400,9.035098388671875,0.012433365115523337,-0.004080017588939518,0.010786502090794965
1772656067772081400,9.045081298828125,0.004205634996294975,-0.006180040341801941,0.006136297098197974
1772656067782063400,9.0550634765625,0.003158171769976616,-0.009631249374756588,-0.0010189540844643488
1772656067792046300,9.06504638671875,0.00405599739253521,-0.003889417787129059,0.0012994195602368563
1772656067802028500,9.075028564453126,0.0036047464936971663,-0.01216085005076602,0.005550172339892015
1772656067812011500,9.085011474609376,0.003155249160528183,-0.008989791399752721,-0.0002763966554310173
1772656067821993500,9.094993408203125,0.007196633505821228,-0.006370557945221662,0.003062259947718121
1772656067831976400,9.1049765625,0.003307224851846695,0.003446523724682629,0.0060094467149814585
1772656067841958400,9.11495849609375,0.014680267259478567,-0.0017875592702068387,-0.006221792557719163
1772656067851941400,9.12494140625,0.007500584888458252,-0.010941363858943804,-0.004573623491893522
1772656067861920000,9.134919921875,-0.004769698619842529,-0.004658520729793236,-0.007433268973021768
1772656067871903000,9.144903076171875,0.008700023806095122,-0.006121916946396231,0.0007624814056325704
1772656067881885000,9.154885009765625,0.004659223982691764,-0.0034658494796603917,0.006120387143013067
1772656067891867000,9.164866943359375,-0.004019172513484955,-0.0024933694520033896,-0.0015921051967656239
1772656067901849900,9.174849853515624,-0.00132628016769886,-0.0060886905302293595,-0.0003396254842169583
1772656067911831800,9.184831787109376,-0.011650105783343315,-0.00428553183209151,-0.002111690357769839
1772656067921815000,9.19481494140625,0.0004693710774183273,-0.007970531354611739,-0.000292461874242872
1772656067931796700,9.204796630859375,0.004358195209503174,-0.0023023129924666136,-0.005108529519615695
1772656067941780000,9.214780029296875,0.007795768442749976,-0.0018170502261724323,-0.002427405243436806
1772656067951762000,9.224761962890625,0.004799509236216545,-0.010149199701100587,-0.006228610457573086
1772656067961745000,9.234744873046875,0.005846972462534904,-0.008613688096357508,0.0034075114551233125
1772656067971726800,9.244726806640625,0.0006114098966121674,-0.003965022040298209,0.0034872941264882684
1772656067981710000,9.2547099609375,0.006296469795703887,-0.004354843341792002,0.011100107217766345
1772656067991691800,9.26469189453125,-0.0061240358382463455,-0.0029276600828859953,0.0033765637610107656
1772656068001675000,9.274675048828126,-0.0068710548132658,-0.003259896845091134,0.004074510296760127
1772656068011656700,9.28465673828125,-0.0011842413485050201,-0.005005014346214011,0.0038519216212211174
1772656068021640000,9.294639892578125,0.003606500059366226,-0.0042438298485241825,0.0056772008196217935
1772656068031622000,9.304621826171875,0.000015197569131851195,0.0008637224235571921,0.007089195642550476
1772656068041603800,9.314603759765625,0.0070458268582820885,-0.00494218737622723,0.0013830564228119327
1772656068051586800,9.3245869140625,0.0009071779727935791,-0.009849148175446316,0.010253367895050904
1772656068061569000,9.334569091796874,0.005695581293106078,-0.0039276491719763724,0.0003971049922285601
1772656068071551700,9.3445517578125,0.010032733714580536,0.0009917418505530804,-0.0046321852787164965
1772656068081534000,9.354533935546876,0.01153086331784725,-0.011978524886956438,-0.0017043242664309217
1772656068091517000,9.364516845703125,0.014524784436821937,-0.004365949257696047,0.0009163750594016164
1772656068101499000,9.374498779296875,0.006445522877573967,-0.005384871376119553,0.012181376815563999
1772656068111481900,9.38448193359375,-0.002533317869901657,-0.007974842203548178,0.002787342863320373
1772656068121463800,9.3944638671875,-0.006720832687616348,-0.010351709136413409,0.00048364619794301686
1772656068131446800,9.40444677734375,-0.0004348842859268188,-0.008444222414121032,0.005548505539190955
1772656068141429000,9.414428955078124,0.0009147767573595046,-0.004167312279902398,-0.0025325278520351275
1772656068151411700,9.42441162109375,0.005405073913931847,-0.0012111384885851292,0.010429263318073935
1772656068161394000,9.434393798828125,0.002114215674996376,-0.005028879278991371,-0.006799692910374142
1772656068171377000,9.444376953125,-0.0026712650358676907,-0.011153517905436455,-0.0014647250905865802
1772656068181358800,9.45435888671875,0.00765489866733551,-0.0007898078039754182,0.002302920347242616
1772656068191340800,9.4643408203125,-0.004313187023997306,-0.001402889067865908,0.004093361127702519
1772656068201323800,9.47432373046875,0.006309329277276993,-0.009533771216496824,0.004878214195347391
1772656068211306000,9.484305908203124,0.007806289836764335,-0.013562981066806241,0.007609351625712588
1772656068221289000,9.4942890625,0.009601941081881523,-0.010119023758545518,0.0044290045565459875
1772656068231271000,9.50427099609375,-0.0026689269483089447,-0.005565369909023865,-0.0017534241051645949
1772656068241254000,9.51425390625,-0.0013239420801401138,-0.0008337291440926491,0.0008591193136759102
1772656068251235800,9.52423583984375,0.007505845585465431,0.0018076796096283942,0.003637169192265719
1772656068261218800,9.53421875,0.002119476372003555,-0.006133232924854383,0.003594106368673965
1772656068271200800,9.54420068359375,0.008854337584972382,-0.005257619134103879,0.000013033011509105562
1772656068281184000,9.55418408203125,0.0039174657046794886,-0.0020332685264293103,-0.0023345301950583233
1772656068291166000,9.564166015625,0.004516600641608238,-0.00647305933847092,0.003723719531134702
1772656068301149000,9.57414892578125,0.002426350364089012,-0.00011972652268595993,0.0018231968391686677
1772656068311131000,9.584130859375,0.0055681555211544035,-0.0012402001862879843,-0.002308847764530219
1772656068321113900,9.59411376953125,0.005864508119225502,-0.005418581849476322,0.0037011058405274524
1772656068331095800,9.604095703125,0.013497779476642607,-0.0051462037820369,0.0023719076299574225
1772656068341077800,9.614077880859375,0.0033230069428682326,-0.002783283176133409,-0.0001652461648453027
1772656068351061000,9.62406103515625,0.004371054691076279,-0.006731125752767547,-0.00003758749745320529
1772656068361043000,9.63404296875,0.012152794608473776,-0.0072364905921742315,0.0001543548780726269
1772656068371026000,9.64402587890625,0.003324760508537292,-0.0075212714834604405,0.00378073324826546
1772656068381008000,9.6540078125,0.00033200843334198,-0.0005951985473278909,-0.0019464487595018
1772656068390990800,9.663990966796876,0.0022767127603292464,0.001664060754701495,-0.011819717596052213
1772656068400972800,9.673972900390625,0.006767009916901588,-0.004710141319176182,0.00407664288834203
1772656068410956000,9.6839560546875,0.0051221653193235395,-0.006253690099902451,0.001190735021373257
1772656068420937700,9.693937744140625,0.002877601262927055,-0.005925344061525538,0.0002503123661037534
1772656068430921000,9.7039208984375,0.0009346505016088485,0.0002109302037861198,0.0042802985345479095
1772656068440903000,9.71390283203125,0.014700141003727912,-0.013480508681433275,0.008291954461857676
1772656068450886000,9.723885986328124,0.0016816694766283035,-0.002537354724202305,0.0028735415757400913
1772656068460867800,9.733867919921876,0.004080547311902046,-0.005618205207958817,0.0015816203353693709
1772656068470851000,9.74385107421875,0.003186228820681572,-0.009433306516706944,0.0020002841388573867
1772656068480832800,9.753832763671875,-0.00040390462577342983,-0.00807883230098523,-0.010719784396979957
1772656068490815000,9.76381494140625,0.00393792397081852,-0.002018034424679354,-0.004306254959711805
1772656068500797700,9.773797607421875,0.006928922480344772,-0.00754894494167529,0.0006819635153282434
1772656068510780000,9.78377978515625,0.0037882863670587537,-0.005349151608766987,0.00312302739135921
1772656068520763000,9.793762939453124,-0.0005517886638641358,-0.0033941268171649424,-0.013459657689649612
1772656068530744800,9.803744873046876,-0.005789689317345619,-0.008110268618864939,-0.002730310879880562
1772656068540727800,9.813727783203126,0.0013929156631231306,-0.006201996445283293,-0.0027041991910897196
1772656068550710000,9.8237099609375,0.0058820437759161,-0.01082973844432272,-0.004775941130961291
1772656068560692700,9.833692626953125,-0.004440612795948982,-0.0015231635798234491,0.004400440615764819
1772656068570675000,9.843675048828125,0.0019967267751693726,-0.008233502272889017,0.003224126845388673
1772656068580658000,9.853657958984375,0.007384265032410621,-0.019149256766540928,-0.0063884406617842615
1772656068590639900,9.863639892578124,0.011124620604515075,-0.016686392050655557,0.004747011863999068
1772656068600622800,9.873622802734374,0.009482114094495772,-0.010263227135362103,0.000455854008719325
1772656068610604800,9.883604736328126,-0.0027899229794740676,-0.005318391144322231,0.006133520619221963
1772656068620587800,9.893587890625,-0.0038385552495718,-0.004205717194685712,0.004217512663756497
1772656068630570000,9.903570068359375,0.00843172825872898,-0.008817686235858126,0.00002951378885190934
1772656068640551700,9.9135517578125,0.007233458384871483,-0.010688265880709513,-0.0004425104699563235
1772656068650535000,9.923534912109375,0.010077157378196715,-0.00211225204677321,-0.0004334503806661814
1772656068660516900,9.933516845703124,0.0009469254612922668,0.0024457035185303537,-0.0015121489954646676
1772656068670499800,9.943499755859374,-0.0008510638713836669,-0.002767291022557765,-0.00037213494775351134
1772656068680481800,9.953481689453126,0.009774375039339065,-0.008945075475191697,-0.004323799749556928
1772656068690465000,9.963465087890626,0.012914426630735396,-0.0010446958804968744,-0.0026079996744636444
1772656068700446700,9.97344677734375,-0.0032446810096502304,-0.01355349171925336,-0.006949988101259805
1772656068710430000,9.983429931640625,0.002141688203811645,-0.010181951193232088,0.004929990048357286
1772656068720412000,9.993411865234375,0.003487257593870163,-0.0011771905532106757,0.0030826360154664143
1772656068730395000,10.003394775390625,-0.002049333745241165,-0.005793260380765423,-0.004320594012318179
1772656068740376800,10.013376953125,0.00528466240465641,-0.003346415217919275,-0.0075242899910314
1772656068750359800,10.02335986328125,0.0018435820400714872,-0.002874797384487465,0.0026796355719910935
1772656068760341800,10.033341796875,0.012168576699495314,-0.0092713391543366,0.0003773180129472166
1772656068770325000,10.043324951171876,-0.003990530940890312,-0.011212810344621538,0.005981754990457557
1772656068780307000,10.053306884765625,-0.0036906712114810943,-0.01241570159466937,-0.005790753329847939
1772656068790289000,10.063288818359375,0.002146364378929138,-0.004218476211559027,-0.010038715930795297
1772656068800272000,10.07327197265625,-0.00009527706801891326,-0.005871513248747215,-0.0037903184939408674
1772656068810253800,10.08325390625,0.011575871503353118,-0.013382747395383194,-0.0018573502705199643
1772656068820236800,10.09323681640625,0.0031926585614681243,-0.009977094537205994,-0.004491854359419085
1772656068830218800,10.10321875,0.003940262058377266,-0.011897322010062635,0.001188278202805668
1772656068840201700,10.11320166015625,0.0060369420766830445,-0.01422304327758029,0.0001254073448013514
1772656068850184000,10.123183837890625,0.005287585014104843,-0.010284753980580716,-0.003759357100096531
1772656068860167000,10.1331669921875,0.006933598655462264,-0.01356095350650139,-0.005067777384119108
1772656068870147800,10.14314794921875,0.013816928428411483,-0.016016740027628838,-0.0015359271632740274
1772656068880131000,10.153131103515625,0.011122867038846015,-0.004875533614493906,0.005099935221206397
1772656068890112800,10.16311279296875,-0.0007002572238445281,-0.01113264864734374,0.0017280522018903865
1772656068900096000,10.173095947265624,0.0009440028518438339,-0.011186926984693854,0.006065478618000633
1772656068910078000,10.183077880859376,0.004085223487019538,-0.010059557789424434,-0.00501990595466923
1772656068920061000,10.19306103515625,0.002289572241902351,-0.0020682119756471364,-0.005689484912459738
1772656068930043000,10.20304296875,0.0003419453054666519,-0.007754797111544758,0.005988161898357793
1772656068940025000,10.213025146484375,0.014257657933235168,-0.011498796812305227,0.003080950948456302
1772656068950007800,10.2230078125,0.008573182556033133,-0.00967068633600138,-0.00011124638870824128
1772656068959990000,10.232989990234374,0.0028869536131620405,-0.0036878764661960302,-0.0021364914388861504
1772656068969973000,10.242972900390624,0.0004956745624542236,-0.001155745906382799,0.0025982728648930786
1772656068979955000,10.252954833984376,0.01186813244819641,-0.009500005944212898,0.002804974418133497
1772656068989938000,10.26293798828125,0.0051315176695585244,-0.00274551758216694,0.0004635943571804091
1772656068999919900,10.272919921875,0.002139350116252899,-0.009412583389086649,-0.006693346459069289
1772656069009902800,10.28290283203125,0.008576689687371254,-0.009459847463760525,-0.00466518336602021
1772656069019885000,10.292885009765625,0.007976970228552817,-0.011826558328792453,0.0008175817268900573
1772656069029867800,10.30286767578125,0.007226444122195244,-0.00583779364223592,-0.002345051589072682
1772656069039850000,10.31285009765625,0.00543020835518837,-0.013452981353690847,0.002318880534777418
1772656069049833000,10.3228330078125,-0.0013058219015598296,-0.013910963387414812,0.005004717518691904
1772656069059815000,10.33281494140625,0.005128010538220405,0.00008244498590938747,-0.0022089584534754976
1772656069069798000,10.3427978515625,0.012308861953020096,-0.0013366462980862707,0.006191794711677357
1772656069079780000,10.352780029296875,0.005879121166467666,-0.011629601851431652,0.004826579906232655
1772656069089762800,10.3627626953125,0.000043839141726493834,-0.009233966286014765,0.0020508452823152765
1772656069099745000,10.3727451171875,0.0033358664244413374,-0.013121475243847816,-0.003237666746973991
1772656069109727000,10.38272705078125,0.0019879589468240737,-0.006776691060699522,-0.003625542686553672
1772656069119710000,10.3927099609375,0.007371990072727203,-0.008555418570479378,-0.005665012624906375
1772656069129692200,10.402692138671876,0.014554010531306266,-0.008807977692596614,-0.007913412606203929
1772656069139675000,10.4126748046875,0.005575169783830642,-0.011762434450862929,-0.014856240314315072
1772656069149657000,10.422656982421875,0.004229015871882439,-0.016083585585607216,-0.007432396756764501
1772656069159640000,10.43264013671875,0.00976677625477314,-0.007944118271721527,-0.0035072044033557176
1772656069169622000,10.4426220703125,0.0006388824254274368,-0.002434140944899991,-0.003316915128799155
1772656069179605000,10.45260498046875,-0.00310439575612545,-0.008464644147641956,-0.009082785179140046
1772656069189587000,10.4625869140625,-0.0037041152149438856,0.00013655892647802828,-0.0011586274166358634
1772656069199570000,10.47256982421875,0.0010819500178098679,-0.0019836480978876352,0.000733666303101927
1772656069209552100,10.48255224609375,-0.010443068081140518,-0.005720259076636284,-0.0026359242944279685
1772656069219534800,10.492534912109376,0.01304886666536331,-0.007751728371623903,0.0027967317461734635
1772656069229517000,10.50251708984375,0.011253215420246123,-0.0018898232014384119,-0.0035538474235218016
1772656069239500000,10.5125,0.009607786300778388,-0.011606485837325453,0.00021694438604172317
1772656069249482000,10.52248193359375,-0.0014671499431133269,-0.0025367062702309337,0.000731282549770549
1772656069259464000,10.5324638671875,-0.002217091527581215,0.002392420695023611,-0.0031090947641292583
1772656069269447200,10.542447265625,0.009305003961920738,-0.008379194353893398,-0.006678107790742069
1772656069279428900,10.552428955078126,0.010349544578790663,-0.008081572247343138,0.001343514430290088
1772656069289412000,10.562412109375,0.002118307328224182,-0.0008552833887748419,-0.0017615526126930489
1772656069299393800,10.572393798828125,-0.004468085324764251,-0.002287955673551187,0.0008457118428312242
1772656069309377000,10.582376953125,-0.0004284545451402664,-0.0020779479183722287,-0.0012113302848301827
1772656069319359000,10.59235888671875,0.0019669161587953566,-0.013498071737587452,0.007133103282935917
1772656069329342000,10.602342041015625,0.002714519655704498,-0.005329442261299118,0.004167444710643031
1772656069339324000,10.612323974609374,0.00017126491367816925,-0.006852395778568461,-0.003326952465623617
1772656069349307100,10.62230712890625,0.003163432466983795,-0.004429406415345147,-0.00269923988818191
1772656069359288800,10.632288818359376,0.0013660276561975478,-0.000871978795249015,-0.012417605857388115
1772656069369272000,10.64227197265625,0.0003162263423204422,0.003945248760748654,-0.001838499439577572
1772656069379254000,10.65225390625,0.00869534763097763,-0.012549593640025704,-0.0008318066150648518
1772656069389237000,10.662237060546875,-0.008362170153856277,-0.012146237003523856,-0.00027723233907017854
1772656069399219000,10.672218994140625,0.009595511341094971,-0.012489040825515985,-0.001535379174002446
1772656069409201000,10.682200927734375,0.007201309680938721,-0.004436813403666019,-0.00030508846037555486
1772656069419183900,10.692183837890624,0.010940496209263802,-0.0015091441876254974,-0.004550712973764166
1772656069429166000,10.702166015625,0.00719955611526966,-0.004508691329788417,0.0020381136649055406
1772656069439148800,10.712148681640626,0.007798106530308723,-0.0003486855735071003,-0.0031396816986380143
1772656069449131000,10.722131103515625,-0.0014782558590173721,-0.007162238045874982,-0.009095525929704308
1772656069459114000,10.732114013671875,0.005552957952022552,0.00000874956203624606,-0.0038110050889430566
1772656069469096000,10.742095947265625,0.005402151304483413,-0.007698171553481369,0.002466769139445387
1772656069479079000,10.752078857421875,0.0031587562918663024,-0.004606854474637657,-0.010099172847182489
1772656069489060900,10.762060791015625,-0.0038753801286220547,-0.004693254116456955,-0.004733608959731646
1772656069499043800,10.7720439453125,-0.003729834178090095,-0.009738993198703975,-0.0020528682760428637
1772656069509026000,10.782026123046874,0.0016565350353717804,-0.010456786079239099,-0.007692422232707031
1772656069519008800,10.7920087890625,0.008537526720762252,-0.006357387936394661,0.0017835315490607171
1772656069528991000,10.801990966796875,0.008985270488262176,-0.0035788996663875874,0.003236858462798409
1772656069538974000,10.811973876953125,0.0015039748221635817,-0.003575903991702944,0.0013764759849756955
1772656069548956000,10.821955810546875,0.007038228073716163,-0.00020489318864420054,-0.0034293990599457173
1772656069558938000,10.831938232421875,0.0028460370808839797,-0.0036692082983441647,-0.001774832219374366
1772656069568921000,10.841921142578125,0.010026888495683669,-0.0025142113106325268,-0.00265567930766847
1772656069578903000,10.851903076171874,0.004490881678462028,0.0009782704476267098,-0.006132849332364276
1772656069588886000,10.861885986328126,-0.0038888241320848465,-0.012740567901171743,0.00017512367146555334
1772656069598868000,10.871867919921876,0.009428922602534294,-0.000542892971355468,0.0037823543831938876
1772656069608851000,10.881850830078125,0.00852934341430664,-0.005684164849948137,-0.00458135470720008
1772656069618833200,10.891833251953125,0.008978840747475623,-0.0016969949099235235,-0.005714523455593735
1772656069628816000,10.90181591796875,0.006285948401689529,-0.0033097090698778627,-0.002443899720511399
1772656069638798000,10.911798095703125,0.01197451543211937,0.0074004855148494236,-0.0008084485723637044
1772656069648781000,10.921781005859375,-0.0005967968493700027,-0.003123283119685948,0.007395279616769403
1772656069658763000,10.931762939453124,0.003143558722734451,-0.0006511573851108551,0.0006217075283406302
1772656069668746000,10.94174609375,0.020949849048256874,-0.0016079649196006356,-0.001860761503735557
1772656069678728200,10.951728271484376,0.2189233214318752,0.02247749700695276,-0.04114685216890648
1772656069688711000,10.9617109375,-0.08184300142824649,-0.0023012261470779774,-0.018673652311158365
1772656069698693000,10.971693115234375,-0.09680559276044368,-0.03820517269382253,0.031180744816595687
1772656069708676000,10.981676025390625,-0.0749585026115179,0.005150514630973339,0.011716896542394533
1772656069718658000,10.991657958984375,0.11403437545895576,0.0034878055831417437,-0.02615095222215168
1772656069728640000,11.001639892578124,-0.06837269448041916,-0.009513513879757374,0.007017034588637761
1772656069738623000,11.011623046875,-0.07884732674360274,-0.018758640880603344,0.022110517724929377
1772656069748605000,11.02160498046875,-0.05894669448733329,-0.007810381489992141,0.002317624726030044
1772656069758588200,11.031588134765625,0.008684241715073584,0.006220956874080002,0.002103315255069174
1772656069768569900,11.04156982421875,0.06868658273518086,-0.01180345144784078,-0.011549650216707959
1772656069778553000,11.051552978515625,0.12719605484902857,0.01512751783663407,-0.042431855044723486
1772656069788534800,11.06153466796875,-0.02632920399904251,-0.005400160276796668,0.007846690345811657
