time,seconds_elapsed,z,y,x
1772656058807817700,0.080817626953125,0.0006167937535792589,0.006613554898649454,0.00449166726320982
1772656058817800700,0.09080078125,0.00019335118122398853,0.004671843722462654,0.0016801680903881788
1772656058827782700,0.10078271484375,-0.00018509873189032078,-0.005657016299664974,-0.0027171066030859947
1772656058837765600,0.110765625,0.0007539319340139627,-0.0031629654113203287,-0.0009463708847761154
1772656058847747800,0.120747802734375,-0.0015329928137362003,0.0031735103111714125,0.001301460899412632
1772656058857729500,0.1307294921875,-0.0008594791870564222,-0.0003607707330957055,-0.00025861896574497223
1772656058867712500,0.14071240234375,-0.0007549738511443138,-0.004642927087843418,-0.001128277275711298
1772656058877694500,0.150694580078125,0.00078007229603827,0.0003614189336076379,0.0007122335955500603
1772656058887677400,0.160677490234375,-0.00028579914942383766,0.002629293128848076,0.001426792237907648
1772656058897659600,0.17065966796875,-0.0034602871164679527,-0.0014362885849550366,-0.0020499643869698048
1772656058907642400,0.180642333984375,0.0005102187860757113,-0.0022878237068653107,0.0008594859391450882
1772656058917624600,0.19062451171875,-0.00033853063359856606,0.0006895902915857732,0.0020650988444685936
1772656058927607600,0.200607666015625,-0.0021422363352030516,-0.000794065766967833,-0.0016956026665866375
1772656058937589500,0.210589599609375,0.0010082832304760814,-0.0020769103430211544,0.00004663737490773201
1772656058947572500,0.220572509765625,-0.0008432280737906694,-0.00005476316437125206,-0.0013389536179602146
1772656058957554400,0.230554443359375,0.000511788297444582,0.000450704712420702,0.00046081049367785454
1772656058967537400,0.240537353515625,-0.0005727179814130068,0.0030759512446820736,0.0018835938535630703
1772656058977519600,0.25051953125,-0.00102785206399858,-0.0009440901922062039,-0.0016842428594827652
1772656058987502300,0.26050244140625,-0.0023685693740844727,-0.0018837063107639551,0.0002202470786869526
1772656058997484500,0.270484619140625,0.00009245774708688259,0.00048384396359324455,-0.0016176002100110054
1772656059007467500,0.280467529296875,0.001649965881370008,-0.0003898144932463765,-0.0007822522893548012
1772656059017449500,0.290449462890625,0.0005250466056168079,-0.0022572227753698826,-0.0002895672805607319
1772656059027432400,0.300432373046875,-0.000504498602822423,0.0003573889844119549,-0.0019146595150232315
1772656059037414700,0.31041455078125,0.001690745004452765,-0.001011209562420845,0.00165956886485219
1772656059047397400,0.3203974609375,0.00012632482685148716,-0.00006957224104553461,-0.0015203743241727352
1772656059057379600,0.330379638671875,-0.0007615729700773954,0.0004164546262472868,0.0016394660342484713
1772656059067362600,0.340362548828125,-0.0006397138349711895,-0.0030143754556775093,-0.0006065987981855869
1772656059077344500,0.350344482421875,0.0010860145557671785,-0.001032184693031013,0.0019226055592298508
1772656059087327500,0.360327392578125,0.00006356555968523026,-0.00086643872782588,0.0033358223736286163
1772656059097309400,0.370309326171875,-0.0024134404957294464,0.0014475820353254676,0.0018167553935199976
1772656059107292400,0.38029248046875,0.0028757809195667505,0.0026395427994430065,0.00024950550869107246
1772656059117274600,0.390274658203125,-0.0015487950295209885,-0.0008518614340573549,0.0010170284658670425
1772656059127257300,0.40025732421875,0.0009289160370826721,-0.0009423387236893177,-0.001867994200438261
1772656059137239600,0.410239501953125,-0.002156622475013137,0.0013509092386811972,0.001080391462892294
1772656059147222500,0.420222412109375,0.0008345674723386765,0.0018239027122035623,0.0010897577740252018
1772656059157204500,0.43020458984375,-0.0017841188237071037,-0.0014390021096915007,0.00014353683218359947
1772656059167187500,0.4401875,-0.0008297774475067854,0.0002931732451543212,0.00037463242188096046
1772656059177169700,0.450169677734375,-0.0017389804124832153,0.0030079996213316917,-0.0014791940338909626
1772656059187152400,0.46015234375,-0.0001896461471915245,-0.0020044774282723665,-0.001200585626065731
1772656059197134600,0.470134521484375,0.0023488791193813086,-0.0006832832004874945,0.0003046328201889992
1772656059207117600,0.48011767578125,0.0003785379230976105,0.0024650716222822666,-0.001154464203864336
1772656059217099500,0.490099609375,-0.0002497017849236727,-0.0031816286500543356,0.00047405902296304703
1772656059227082500,0.50008251953125,0.0011999488342553377,-0.001427173032425344,0.0017653957474976778
1772656059237064400,0.510064453125,-0.0004149919841438532,0.0009009624482132494,0.00035605113953351974
1772656059247047400,0.52004736328125,0.0024475855752825737,-0.0021210680715739727,0.0017508589662611485
1772656059257029600,0.530029541015625,-0.0012728504370898008,-0.000500268186442554,0.0006331303156912327
1772656059267012400,0.540012451171875,0.001096922205761075,0.00033160531893372536,0.0016596359200775623
1772656059276994600,0.54999462890625,-0.00037713744677603245,0.000154771376401186,0.0002867765724658966
1772656059286977500,0.5599775390625,-0.002748416271060705,-0.0002628122456371784,-0.0007888744585216045
1772656059296959500,0.56995947265625,0.000524608651176095,0.0011609136126935482,0.0005632126703858376
1772656059306942500,0.5799423828125,-0.0012726772110909224,-0.0005344961537048221,0.00019008992239832878
1772656059316924400,0.58992431640625,0.0016235103830695152,-0.0011424956610426307,-0.00198464747518301
1772656059326907400,0.599907470703125,-0.0003699797671288252,-0.0008543269941583276,-0.001634129323065281
1772656059336889600,0.6098896484375,-0.0020565595477819443,0.0006442337180487812,0.00040185730904340744
1772656059346872300,0.619872314453125,-0.00006402609869837761,0.00032281677704304457,-0.0015257708728313446
1772656059356854500,0.6298544921875,0.0002832501195371151,0.00014971138443797827,0.002271896693855524
1772656059366837500,0.63983740234375,-0.00020260922610759735,-0.00012108997907489538,0.0007911042775958776
1772656059376819500,0.6498193359375,-0.00036293151788413525,0.0005979635752737522,-0.0024896436370909214
1772656059386802400,0.659802490234375,-0.00017021666280925274,-0.001064142445102334,-0.0005554622039198875
1772656059396784600,0.66978466796875,-0.00047807791270315647,0.0001971307210624218,-0.0010385597124695778
1772656059406767400,0.679767333984375,0.000462912255898118,-0.0016548049170523882,-0.0042389086447656155
1772656059416749600,0.68974951171875,-0.001004755962640047,0.00015561189502477646,-0.0019922656938433647
1772656059426732500,0.699732666015625,-0.000486662145704031,0.0019372751703485847,-0.00008157920092344284
1772656059436714500,0.709714599609375,0.0023554633371531963,-0.0006683615501970053,0.0006316150538623333
1772656059446697500,0.719697509765625,0.00018136575818061829,0.001093935570679605,-0.001512298360466957
1772656059456679400,0.729679443359375,-0.00015392620116472244,0.000662503472995013,0.0019130592700093985
1772656059466662400,0.739662353515625,-0.0018134766723960638,0.000011420343071222305,0.0020667153876274824
1772656059476644600,0.74964453125,0.0013452987186610699,0.0020354227162897587,0.002508267294615507
1772656059486627300,0.75962744140625,0.000004825415089726448,0.0018692106241360307,0.0026353485882282257
1772656059496609500,0.769609619140625,-0.0017294248100370169,-0.0007529378635808825,0.0013905870728194714
1772656059506592500,0.779592529296875,-0.0001070790458470583,-0.0019033151911571622,0.00019482988864183426
1772656059516574500,0.789574462890625,0.00014325790107250214,-0.0007096863118931651,0.0013021721970289946
1772656059526556400,0.799556396484375,-0.0010143453255295753,0.0020060723181813955,-0.002324364148080349
1772656059536539600,0.80953955078125,-0.0023400671780109406,0.0005884715355932713,-0.0008958447724580765
1772656059546522400,0.8195224609375,0.0005899958778172731,0.0020624869503080845,-0.0026373486034572124
1772656059556504600,0.829504638671875,0.0024078695569187403,-0.0011056094663217664,0.003987264819443226
1772656059566486300,0.839486328125,0.0013795095728710294,-0.0003126685041934252,0.0008800383657217026
1772656059576469500,0.849469482421875,-0.0002985482569783926,-0.0030661108903586864,-0.0015972340479493141
1772656059586451500,0.859451416015625,-0.0006812952924519777,-0.0005277484888210893,0.0005690762773156166
1772656059596434400,0.869434326171875,0.000697955721989274,-0.0010902081849053502,-0.0012503955513238907
1772656059606416400,0.87941650390625,0.0002255390863865614,0.0002582726301625371,-0.0026287436485290527
1772656059616399600,0.889399658203125,0.0022167847491800785,-0.0008024644339457154,-0.000999688170850277
1772656059626381300,0.89938134765625,0.00018268171697854996,0.0003606755053624511,-0.002336944919079542
1772656059636364500,0.909364501953125,-0.0007986929267644882,-0.00016449985560029745,0.0009150411933660507
1772656059646346200,0.91934619140625,0.0007273941300809383,0.00035381224006414413,-0.0011226730421185493
1772656059656329500,0.92932958984375,-0.0009786270093172789,-0.0021176012232899666,-0.0034558679908514023
1772656059666311400,0.9393115234375,0.0005163808818906546,0.0019009624375030398,0.000029134564101696014
1772656059676294700,0.949294677734375,0.0009976141154766083,0.00022689939942210913,-0.0010310695506632328
1772656059686276400,0.9592763671875,-0.00032749888487160206,0.0006617075414396822,-0.0009584887884557247
1772656059696259600,0.969259521484375,-0.00029900320805609226,0.00026463030371814966,-0.0005747275426983833
1772656059706241300,0.9792412109375,-0.0006106244400143623,0.0007302822778001428,0.0004870840348303318
1772656059716224500,0.989224609375,-0.001510772854089737,-0.0006167445098981261,0.0007150503806769848
1772656059726206500,0.99920654296875,-0.0005551576614379883,-0.0001364655327051878,-0.0010302504524588585
1772656059736189400,1.009189453125,-0.0010744743049144745,-0.0016579295042902231,0.00035379454493522644
1772656059746171400,1.01917138671875,-0.00037167384289205074,-0.0006881359731778502,0.0019715134985744953
1772656059756154600,1.029154541015625,-0.0021434747613966465,0.0005422444082796574,-0.001419223379343748
1772656059766136300,1.03913623046875,-0.00012458325363695621,-0.0002490648766979575,-0.0015421006828546524
1772656059776119600,1.04911962890625,-0.002099317265674472,0.002096381038427353,-0.001132772769778967
1772656059786101200,1.059101318359375,-0.0004761144518852234,0.0003683919785544276,0.0016186223365366459
1772656059796084500,1.06908447265625,0.0008416175842285156,0.0007289840141311288,-0.001375037245452404
1772656059806066400,1.07906640625,0.0012121571926400065,0.0010172126349061728,-0.000172389205545187
1772656059816049400,1.08904931640625,-0.001142876222729683,-0.0004126385319977999,-0.0009569567628204823
1772656059826031400,1.09903125,-0.00031853397376835346,0.0017688554944470525,0.00016786763444542885
1772656059836014600,1.1090146484375,-0.00025568343698978424,0.0003581790952011943,0.0007289955392479897
1772656059845996300,1.118996337890625,-0.0015318398363888264,0.000155177665874362,-0.0010132580064237118
1772656059855979800,1.128979736328125,-0.0011190497316420078,0.0010489346459507942,-0.00018128659576177597
1772656059865961700,1.138961669921875,0.0002389713190495968,-0.0014207380590960383,-0.0017002355307340622
1772656059875945000,1.148945068359375,0.0002722607459872961,-0.00021698919590562582,0.00004040636122226715
1772656059885926700,1.1589267578125,0.00042456737719476223,-0.0030317544005811214,-0.001154579222202301
1772656059895910000,1.168909912109375,0.0006211088038980961,-0.002863708883523941,-0.0008459188975393772
1772656059905891600,1.1788916015625,0.0024638923350721598,-0.0002876509679481387,0.002551381243392825
1772656059915874800,1.188874755859375,-0.001715939026325941,0.0006806744495406747,0.0015417770482599735
1772656059925856800,1.198856689453125,0.0007135085761547089,-0.00008490297477692366,-0.001008358784019947
1772656059935839700,1.20883984375,-0.000003414461389183998,-0.002932887524366379,0.003329664468765259
1772656059945821700,1.21882177734375,-0.00010024430230259895,-0.0009420654969289899,-0.001858595758676529
1772656059955805000,1.228804931640625,0.00043079000897705555,-0.000660569523461163,-0.0005784141831099987
1772656059965786600,1.23878662109375,0.0001560659147799015,-0.001962583977729082,-0.0004187696613371372
1772656059975768800,1.248768798828125,0.0010018858592957258,-0.0008730849949643016,-0.0004054540768265724
1772656059985751600,1.25875146484375,-0.0015071048401296139,0.0006428200285881758,-0.0017540249973535538
1772656059995733800,1.268733642578125,0.0018500761361792684,-0.0012597421882674098,-0.00021098973229527473
1772656060005716700,1.278716796875,-0.000008272938430309296,-0.0009239513892680407,-0.003833118360489607
1772656060015698700,1.28869873046875,0.000468965619802475,0.002008721698075533,-0.00024344353005290031
1772656060025681700,1.298681640625,-0.0013744102325290442,0.0002798378700390458,-0.00287960609421134
1772656060035664000,1.308663818359375,-0.0015616307500749826,0.0002971483627334237,0.00010366691276431084
1772656060045646600,1.318646484375,0.0021839383989572525,-0.0008082567946985364,0.00019930163398385048
1772656060055628800,1.32862890625,-0.001427574548870325,0.002120954217389226,0.00033139437437057495
1772656060065611800,1.33861181640625,-0.001278863986954093,0.0021622630301862955,0.0011709409300237894
1772656060075593700,1.34859375,0.0017424924299120903,0.0002320037456229329,0.002282278146594763
1772656060085576700,1.35857666015625,0.00016096793115139008,0.0033115041442215443,0.00043880799785256386
1772656060095558700,1.36855859375,0.0007457982283085585,0.003381278831511736,0.0025879789609462023
1772656060105541600,1.378541748046875,0.0009511737152934074,0.0016263449797406793,0.0016466900706291199
1772656060115523800,1.38852392578125,-0.0017692453693598509,-0.0012852889485657215,0.00035931821912527084
1772656060125506600,1.398506591796875,-0.000826758099719882,-0.0008899904787540436,-0.00004023592919111252
1772656060135488800,1.40848876953125,0.0025330858770757914,0.0018951434176415205,-0.0019103074446320534
1772656060145471700,1.4184716796875,0.0009807709138840437,-0.0013734014937654138,0.0021801795810461044
1772656060155453700,1.42845361328125,-0.0003987464588135481,0.0005499334074556828,-0.001143711619079113
1772656060165436700,1.438436767578125,-0.0002777152694761753,-0.0014617908746004105,-0.002056655939668417
1772656060175419000,1.4484189453125,0.0018525471678003669,0.0019726217724382877,0.002305069472640753
1772656060185401600,1.458401611328125,-0.00035680620931088924,0.0009082032484002411,-0.0013316310942173004
1772656060195383800,1.4683837890625,0.0001441342756152153,-0.0029669625218957663,-0.0034206146374344826
1772656060205366800,1.47836669921875,0.0034584435634315014,-0.0010037972824648023,0.003413303755223751
1772656060215348700,1.4883486328125,-0.00037411157973110676,-0.0026107486337423325,-0.00215749628841877
1772656060225331700,1.498331787109375,0.0011793122394010425,-0.0013883888022974133,-0.0005671069957315922
1772656060235313700,1.508313720703125,-0.0006452193483710289,0.0005413377657532692,-0.0012414194643497467
1772656060245296600,1.518296630859375,-0.0020363035146147013,-0.00023505196440964937,0.00023072445765137672
1772656060255278800,1.52827880859375,-0.001024302328005433,-0.0008465137798339128,0.00012233341112732887
1772656060265260800,1.5382607421875,-0.0015846346504986286,-0.0025155246257781982,0.002214794047176838
1772656060275243800,1.548243896484375,0.0025304818991571665,-0.0009570429101586342,0.0010589819867163897
1772656060285226800,1.558226806640625,0.002073599025607109,-0.0009534725686535239,-0.0010798219591379166
1772656060295208700,1.568208740234375,0.0004983390681445599,-0.0005822278326377273,-0.00027128634974360466
1772656060305191000,1.57819091796875,0.0011475912760943174,0.0010557548375800252,0.0007754229009151459
1772656060315173600,1.588173583984375,0.0010224226862192154,0.00009621796198189259,0.0006350744515657425
1772656060325155800,1.59815576171875,0.00045556831173598766,-0.0003500268794596195,0.0003070696257054806
1772656060335138800,1.608138916015625,-0.0023772362619638443,-0.00026320794131606817,0.002965703373774886
1772656060345120800,1.618120849609375,0.002055599121376872,-0.0018627220997586846,0.0005715643055737019
1772656060355103700,1.628103759765625,-0.001277080737054348,-0.0013181056128814816,-0.0002723913639783859
1772656060365086000,1.6380859375,0.0008516809903085232,0.00040641357190907,-0.0019095861352980137
1772656060375068700,1.648068603515625,0.001053282292559743,0.0014791348949074745,-0.00100038293749094
1772656060385051000,1.65805078125,0.0016756930854171515,0.0005266285734251142,-0.001922539435327053
1772656060395033900,1.668033935546875,0.0012826105812564492,0.0019109396962448955,0.00212040520273149
1772656060405015800,1.678015869140625,0.0011943532153964043,0.0006553955608978868,-0.0002625272609293461
1772656060414998800,1.687998779296875,0.00237120408564806,-0.00041705952025949955,-0.0013999636285007
1772656060424980700,1.697980712890625,-0.0004108911380171776,0.0018094792030751705,-0.0010320097208023071
1772656060434963700,1.707963623046875,0.0005004424601793289,0.0015841758577153087,-0.00012493692338466644
1772656060444946000,1.71794580078125,-0.0012034091632813215,0.0010800836607813835,-0.0014465022832155228
1772656060454928600,1.7279287109375,-0.0016761205624789,0.000418021809309721,0.0022643464617431164
1772656060464910800,1.737910888671875,-0.0016430448740720749,-0.0012226103572174907,-0.00032992614433169365
1772656060474893800,1.747893798828125,-0.0008411670569330454,0.00023041036911308765,-0.003533442970365286
1772656060484875800,1.757875732421875,0.0004989290609955788,-0.0002892246702685952,-0.0014030537568032742
1772656060494858800,1.767858642578125,-0.00045847753062844276,-0.0002034708159044385,0.00011947518214583397
1772656060504841000,1.777841064453125,0.0024941961746662855,0.00010106386616826057,0.0015945250634104013
1772656060514823700,1.78782373046875,0.0012473042588680983,-0.0018177437596023083,0.0017058451194316149
1772656060524806000,1.797805908203125,0.0011780052445828915,0.001792654162272811,-0.0012094355188310146
1772656060534787600,1.80778759765625,0.0025276951491832733,-0.0005426718853414059,-0.0011593680828809738
1772656060544770800,1.817770751953125,0.000012880656868219376,-0.00044742610771209,-0.000758814625442028
1772656060554752800,1.827752685546875,-0.0008768816478550434,-0.000873798388056457,-0.0007383082993328571
1772656060564735700,1.83773583984375,-0.0014183109160512686,0.0009187377290800214,0.0006755958311259747
1772656060574717700,1.8477177734375,-0.0004499854985624552,0.00030141696333885193,0.0008297928143292665
1772656060584701000,1.857700927734375,0.00032035005278885365,-0.0003350295592099428,-0.00044088345021009445
1772656060594682600,1.8676826171875,-0.0006035005208104849,-0.0014306539669632912,0.001057943794876337
1772656060604665900,1.877665771484375,0.00015487452037632465,-0.002446836791932583,0.00018882006406784058
1772656060614647600,1.8876474609375,0.0011538261314854026,-0.00008487922605127096,0.0008362343069165945
1772656060624630800,1.897630859375,0.0003771786577999592,-0.001546041457913816,-0.000534676481038332
1772656060634612700,1.90761279296875,-0.0006697101052850485,0.0023381789214909077,0.0011132874060422182
1772656060644595700,1.917595703125,0.0007633320055902004,0.001113029895350337,-0.0019917204044759274
1772656060654577700,1.92757763671875,0.00031059468165040016,-0.0008864713599905372,-0.0017349915578961372
1772656060664561000,1.937560791015625,-0.0005243271589279175,-0.0016710648778825998,-0.0009665712714195251
1772656060674542600,1.94754248046875,0.0011990044731646776,0.0005822357488796115,-0.0032246652990579605
1772656060684525800,1.95752587890625,0.0004640368279069662,-0.00013758940622210503,-0.00046914536505937576
1772656060694507800,1.9675078125,0.0007226297166198492,-0.0009623703081160784,0.002751681488007307
1772656060704490800,1.97749072265625,-0.00021719420328736305,-0.0010199276730418205,-0.0010374970734119415
1772656060714472700,1.98747265625,-0.0008347812108695507,0.002025397028774023,0.0007497502956539392
1772656060724456000,1.9974560546875,-0.00023340759798884392,0.0014516194351017475,0.0024172216653823853
1772656060734437600,2.007437744140625,0.0005429037846624851,0.0011741179041564465,-0.0017202654853463173
1772656060744420900,2.0174208984375,0.0000320938415825367,0.00041109160520136356,0.0021440614946186543
1772656060754402600,2.027402587890625,0.0006286418065428734,0.001920837676152587,0.001690791454166174
1772656060764385800,2.0373857421875,-0.0009395710658282042,0.0014337929897010326,-0.00017500529065728188
1772656060774367700,2.04736767578125,0.0012338347733020782,0.0009054219117388129,-0.0007238825783133507
1772656060784349700,2.057349609375,-0.0033899685367941856,-0.0018402134301140904,-0.001135504338890314
1772656060794332700,2.067332763671875,0.000590125797316432,0.000568083138205111,0.0014972968492656946
1772656060804315000,2.07731494140625,-0.0000866907648742199,0.0006295890780165792,-0.00041113514453172684
1772656060814297600,2.087297607421875,0.0013665962032973766,-0.0003352740313857794,-0.0012345844879746437
1772656060824279800,2.09727978515625,-0.0008917208760976791,0.0008310569101013243,-0.0005582799203693867
1772656060834262800,2.1072626953125,-0.0006629554554820061,-0.0008624473121017218,0.0014369604177772999
1772656060844244700,2.11724462890625,0.002221727278083563,0.001219261670485139,-0.001167702954262495
1772656060854227200,2.127227294921875,0.00010824250057339668,0.001736713806167245,0.0026360899209976196
1772656060864209400,2.13720947265625,0.0014282383490353823,-0.0005657462170347571,-0.0014182105660438538
1772656060874192100,2.147192138671875,0.00010145152918994427,-0.0006850558565929532,-0.0009992956183850765
1772656060884174300,2.15717431640625,-0.001365753123536706,-0.0005301537457853556,-0.002721871715039015
1772656060894157300,2.1671572265625,0.0005706315860152245,-0.0009956744033843279,0.001059284433722496
1772656060904139300,2.17713916015625,0.001962358830496669,0.000876384787261486,0.0005725990049540997
1772656060914122200,2.187122314453125,0.0011663399636745453,0.000700616161338985,0.0006216010078787804
1772656060924104200,2.197104248046875,0.0007222676649689674,0.0010339906439185143,0.0007636630907654762
1772656060934087200,2.207087158203125,-0.0018029415514320135,-0.0006323492852970958,-0.003161037340760231
1772656060944069400,2.2170693359375,-0.001849401742219925,0.001240406185388565,-0.0008987411856651306
1772656060954052000,2.227052001953125,-0.00022620521485805511,-0.00021714193280786276,-0.00209876149892807
1772656060964034300,2.237034423828125,0.000588238937780261,-0.001062055118381977,-0.0015902514569461346
1772656060974017300,2.247017333984375,0.0012095543788746,0.0002671285765245557,0.0016287111211568117
1772656060983999200,2.256999267578125,-0.002543051028624177,0.001718806684948504,0.0014192285016179085
1772656060993982200,2.266982177734375,0.0002101247664541006,-0.0005557991098612547,-0.001141134649515152
1772656061003964400,2.27696435546875,-0.00035894662141799927,-0.0008506916929036379,-0.0013885353691875935
1772656061013946400,2.2869462890625,-0.00038877385668456554,0.0003932708641514182,0.0011132380459457636
1772656061023929300,2.296929443359375,-0.000019434839487075806,0.00033428508322685957,0.00048522232100367546
1772656061033911300,2.306911376953125,0.00003542611375451088,0.0009832973591983318,-0.0024738158099353313
1772656061043894300,2.316894287109375,-0.0004375788848847151,-0.0009586917003616691,-0.0008667754009366035
1772656061053876500,2.32687646484375,0.0010777597781270742,-0.001500112353824079,-0.0004052496515214443
1772656061063859200,2.336859130859375,0.0002231209073215723,0.00172715587541461,0.00019435491412878036
1772656061073841400,2.34684130859375,0.0009128795936703682,0.0002895814832299948,-0.00012256111949682236
1772656061083824400,2.356824462890625,0.000537659740075469,-0.0016502478392794728,0.0016660597175359726
1772656061093806300,2.366806396484375,0.000802111579105258,0.0027445005252957344,0.0008681765757501125
1772656061103789300,2.376789306640625,-0.0006196028552949429,-0.0007421558257192373,0.0011890814639627934
1772656061113771500,2.386771484375,0.0012352886842563748,0.0005595972761511803,0.0026314493734389544
1772656061123754200,2.396754150390625,-0.0006566655356436968,-0.0008188462816178799,-0.0020437357015907764
1772656061133736400,2.406736328125,-0.0005690476391464472,-0.0016750525683164597,0.00297339353710413
1772656061143719400,2.416719482421875,-0.0021186170633882284,-0.0004954749019816518,-0.001547458115965128
1772656061153701400,2.426701416015625,0.0001501298975199461,-0.0007684488082304597,0.0006195562891662121
1772656061163684400,2.436684326171875,-0.000941108213737607,0.0008793772431090474,-0.00026319269090890884
1772656061173666300,2.446666259765625,-0.00006466172635555267,0.002341718878597021,0.0025629536248743534
1772656061183649300,2.456649169921875,0.0006414668168872595,0.00043809914495795965,-0.0004398282617330551
1772656061193631500,2.466631591796875,0.0006057806313037872,-0.0006119853351265192,-0.001007614191621542
1772656061203613200,2.47661328125,0.000643774401396513,-0.0008584465831518173,-0.0017597177065908909
1772656061213596400,2.486596435546875,0.0037298453971743584,-0.0013460712507367134,-0.0015437351539731026
1772656061223578000,2.496578125,0.0006399147678166628,-0.0012456062249839306,-0.0032529830932617188
1772656061233561300,2.506561279296875,-0.0010320176370441914,-0.001869318773970008,-0.001836713869124651
1772656061243543300,2.516543212890625,0.0010130812879651785,-0.0017997728427872062,0.0037380775902420282
1772656061253526300,2.5265263671875,0.0002346392720937729,-0.0006948272930458188,-0.0020361882634460926
1772656061263508200,2.53650830078125,-0.0006705906707793474,-0.0017193641979247332,-0.00007405318319797516
1772656061273491500,2.546491455078125,-0.0011827165726572275,0.0019608582369983196,0.0026032228488475084
1772656061283473200,2.55647314453125,0.0011778287589550018,0.0004970208974555135,-0.0023692953400313854
1772656061293456400,2.566456298828125,0.002799693960696459,-0.00020232528913766146,0.00007495377212762833
1772656061303438300,2.576438232421875,0.001011132961139083,-0.00031031330581754446,0.001748284325003624
1772656061313421300,2.58642138671875,0.0006939505692571402,-0.0001766227651387453,-0.0004893033765256405
1772656061323403300,2.5964033203125,-0.00022802525199949741,-0.00017921044491231441,0.0012926582712680101
1772656061333386500,2.606386474609375,-0.0005100539419800043,-0.0010671083582565188,0.0004942426458001137
1772656061343368200,2.6163681640625,-0.001072476850822568,0.0015737037174403667,0.00011747097596526146
1772656061353351400,2.626351318359375,-0.0007267983164638281,0.000744395365472883,-0.0022064032964408398
1772656061363333000,2.6363330078125,0.0002400851808488369,0.00005683582276105881,0.0007653043139725924
1772656061373316400,2.64631640625,0.00018202816136181355,-0.001293386798352003,0.0006342767737805843
1772656061383298300,2.65629833984375,-0.0002600732259452343,0.0014902969123795629,0.0000523407943546772
1772656061393281300,2.66628125,-0.00017831404693424702,0.00014167209155857563,0.0006161322817206383
1772656061403263200,2.67626318359375,-0.000029754824936389923,0.0004109723959118128,-0.00016738101840019226
1772656061413245400,2.686245361328125,-0.0015275166369974613,0.0014059293316677213,0.0016824505291879177
1772656061423228200,2.696228271484375,-0.0003715367056429386,0.0030157531145960093,-0.0006468179635703564
1772656061433210400,2.70621044921875,0.0005128991324454546,0.00157205353025347,0.0006818328984081745
1772656061443193300,2.716193359375,-0.0002339326310902834,0.002085173036903143,0.0027208493556827307
1772656061453175300,2.72617529296875,-0.0007846741937100887,0.0027610831893980503,-0.0008376664482057095
1772656061463158300,2.736158203125,0.0004790322855114937,0.0022603790275752544,-0.0008135358802974224
1772656061473140200,2.74614013671875,-0.00025972863659262657,0.0009104225900955498,0.0023319239262491465
1772656061483123200,2.756123291015625,-0.0004527003038674593,-0.000940759782679379,-0.001077751163393259
1772656061493105400,2.76610546875,-0.0013959917705506086,0.0012025521136820316,-0.0028250510804355145
1772656061503088000,2.776088134765625,0.00010044989176094532,0.0027434080839157104,0.0004674200899899006
1772656061513070300,2.7860703125,-0.0006857153493911028,0.00015881017316132784,0.00022081099450588226
1772656061523053300,2.79605322265625,0.001941676833666861,0.0012384387664496899,-0.0018653986044228077
1772656061533035300,2.80603515625,-0.0002186794299632311,-0.0005922182463109493,0.00030507752671837807
1772656061543018200,2.816018310546875,0.0020112921483814716,0.000905021617654711,0.0005801841616630554
1772656061553000200,2.826000244140625,0.0010427003726363182,0.00041659793350845575,-0.000896005891263485
1772656061562983200,2.835983154296875,-0.0008454935159534216,-0.0028795842081308365,-0.0005061277188360691
1772656061572965400,2.84596533203125,-0.00006705150008201599,0.001607575686648488,0.00291789835318923
1772656061582947300,2.855947265625,-0.0004609555471688509,-0.0013090659631416202,-0.0016121217049658298
1772656061592930300,2.865930419921875,-0.001675623469054699,0.0017804672243073583,-0.00041769398376345634
1772656061602912500,2.87591259765625,0.0012414043303579092,0.001442044973373413,0.0009506100323051214
1772656061612895200,2.885895263671875,0.0022241107653826475,-0.002732726512476802,-0.001445435918867588
1772656061622877400,2.89587744140625,-0.0003235209733247757,-0.0010072231525555253,0.001365352887660265
1772656061632860400,2.9058603515625,-0.00046440213918685913,0.0008434074115939438,-0.0008155098184943199
1772656061642842400,2.91584228515625,-0.00020166276954114437,0.0007863846840336919,-0.0007469444535672665
1772656061652825300,2.925825439453125,-0.000289547024294734,0.0010231396881863475,0.0029647033661603928
1772656061662807300,2.935807373046875,0.00015981891192495823,0.00010900222696363926,0.002821151865646243
1772656061672790300,2.945790283203125,0.0017015228513628244,0.0005606743507087231,-0.00122152641415596
1772656061682772500,2.9557724609375,-0.0006613731384277344,-0.00007337355054914951,0.00035061314702033997
1772656061692755200,2.965755126953125,-0.0013109180144965649,0.0023242703173309565,-0.0007556639611721039
1772656061702737400,2.9757373046875,0.002385067753493786,0.002420885721221566,0.0015767451841384172
1772656061712720400,2.985720458984375,0.0016569594154134393,0.0009396355017088354,0.0025453369598835707
1772656061722702300,2.995702392578125,-0.0027077177073806524,0.00047602818813174963,0.0027799559757113457
1772656061732685300,3.005685302734375,-0.0003593422006815672,-0.0012086875503882766,0.0025804853066802025
1772656061742667500,3.01566748046875,0.0004911657888442278,-0.00046464207116514444,-0.0005573360249400139
1772656061752650200,3.025650146484375,-0.0006148451939225197,-0.0009016668191179633,0.00012203631922602654
1772656061762632400,3.035632568359375,0.0008705018553882837,-0.0003733462654054165,0.0008173894602805376
1772656061772614100,3.0456142578125,0.0017552039353176951,0.0013097714399918914,-0.0010577421635389328
1772656061782597400,3.055597412109375,-0.0018043119926005602,0.00007472780998796225,0.0006531039252877235
1772656061792579300,3.065579345703125,0.0001443231012672186,-0.0002922557760030031,-0.000009756535291671753
1772656061802562300,3.075562255859375,0.0005794118624180555,0.0017902367981150746,-0.0005782605148851871
1772656061812544300,3.085544189453125,0.00041935592889785767,0.002574005164206028,0.0011461360845714808
1772656061822527500,3.095527587890625,0.00421646423637867,0.0017198731657117605,-0.00035687536001205444
1772656061832509200,3.10550927734375,-0.0001561800017952919,0.0007534120231866837,-0.00026126764714717865
1772656061842492400,3.115492431640625,0.0014967034803703427,0.0013299412094056606,-0.0015714392066001892
1772656061852474000,3.12547412109375,0.0008508868049830198,-0.001650136080570519,-0.0006651654839515686
1772656061862457000,3.13545703125,-0.0008180951699614525,0.0002478295937180519,-0.0006417487747967243
1772656061872439000,3.14543896484375,-0.0025632644537836313,0.0006603532820008695,-0.0019450997933745384
1772656061882422000,3.155422119140625,0.0007260038983076811,-0.0008539317641407251,0.0017921903636306524
1772656061892404000,3.165404052734375,0.0018338788067921996,-0.0006792284548282623,-0.0005228957161307335
1772656061902387200,3.17538720703125,-0.00034951954148709774,0.0005885009886696935,0.0023222730960696936
1772656061912369000,3.185368896484375,0.000756224850192666,-0.001739368075504899,0.0010463525541126728
1772656061922352000,3.19535205078125,0.0008882621768862009,-0.00023880554363131523,-0.0003909268416464329
1772656061932334000,3.205333984375,0.0022494038566946983,-0.0028082234784960747,-0.00020770123228430748
1772656061942316000,3.21531591796875,-0.0007131821475923061,-0.0006637577898800373,-0.00003901403397321701
1772656061952299000,3.225299072265625,-0.0016535441391170025,-0.002272040816023946,0.00016152206808328629
1772656061962281000,3.235281005859375,0.000056242337450385094,-0.0019307119073346257,-0.0009125848300755024
1772656061972264000,3.245263916015625,0.00002108863554894924,-0.0006766292499378324,-0.000756523571908474
1772656061982246100,3.25524609375,-0.00017426698468625546,-0.0004112902097404003,0.0003293105401098728
1772656061992228900,3.265228759765625,0.00026302412152290344,0.0004928531125187874,0.0012212032452225685
1772656062002211000,3.275211181640625,0.000007430091500282288,0.0001333220861852169,0.0009033328387886286
1772656062012194000,3.285194091796875,0.001215440104715526,-0.00011222134344279766,-0.0008266563527286053
1772656062022176000,3.295176025390625,0.001286119339056313,-0.0014359235065057874,0.0005670869722962379
1772656062032159000,3.305158935546875,-0.0002915372606366873,0.0015835685189813375,-0.0008409260772168636
1772656062042141000,3.315140869140625,-0.0016173366457223892,0.0010179418604820967,0.0008773654699325562
1772656062052124000,3.3251240234375,0.0006551388651132584,0.000855222693644464,-0.0003458242863416672
1772656062062106000,3.335106201171875,0.0017110001062974334,0.000003902241587638855,0.00037963734939694405
1772656062072088800,3.3450888671875,-0.0012730718590319157,0.0002688867971301079,0.002851317171007395
1772656062082071000,3.355071044921875,0.0009869966888800263,-0.000811323057860136,0.0007369434460997581
1772656062092054000,3.365053955078125,0.0008202828466892242,0.002946930006146431,0.00045811058953404427
1772656062102036000,3.375035888671875,-0.0016174651682376862,0.0007302876911126077,0.00009749224409461021
1772656062112019000,3.38501904296875,0.0011572822695598006,0.00026529980823397636,0.0006450382061302662
1772656062122001200,3.395001220703125,-0.00032594846561551094,0.0007823305204510689,0.00008258828893303871
1772656062131983000,3.404983154296875,-0.001278561307117343,0.00288090156391263,0.00023545371368527412
1772656062141966000,3.414966064453125,0.0003982572816312313,-0.0016678631072863936,-0.00045354245230555534
1772656062151948000,3.424947998046875,0.0003782834392040968,0.00027224980294704437,0.002482060110196471
1772656062161931000,3.434930908203125,0.00025476329028606415,0.0004957927158102393,0.00026408350095152855
1772656062171913200,3.444913330078125,-0.0005508428439497948,-0.00156016752589494,0.00039537763223052025
1772656062181896000,3.45489599609375,0.0002839865628629923,-0.00046094576828181744,-0.0006748726591467857
1772656062191878100,3.464878173828125,0.0008469787426292896,-0.0020266182254999876,0.0014226329512894154
1772656062201861000,3.474861083984375,0.002336628269404173,0.0008916861261241138,0.0017259025480598211
1772656062211843000,3.484843017578125,-0.00044344551861286163,-0.0026902654208242893,0.00035117845982313156
1772656062221826000,3.494825927734375,0.001954286126419902,-0.001954843755811453,-0.0021019894629716873
1772656062231808300,3.504808349609375,0.0022869149688631296,-0.001955376472324133,0.00000909809023141861
1772656062241791000,3.514791015625,-0.0007210059557110071,-0.0000884360633790493,-0.0007957746274769306
1772656062251773200,3.524773193359375,-0.001255502225831151,-0.00012092664837837219,-0.000111341942101717
1772656062261756200,3.534756103515625,0.00006167381070554256,-0.0018432223005220294,-0.0010575181804597378
1772656062271738000,3.544738037109375,-0.0005340753123164177,-0.0005691660335287452,-0.0010910741984844208
1772656062281721000,3.55472119140625,0.00003662589006125927,-0.0010542712407186627,0.0007373273838311434
1772656062291703000,3.564703125,-0.0009093289263546467,-0.0007426814408972859,-0.002548747230321169
1772656062301685000,3.57468505859375,-0.000979851232841611,0.0008528804173693061,-0.0012619919143617153
1772656062311668200,3.584668212890625,0.0007115222979336977,0.000522382091730833,0.00037292251363396645
1772656062321650000,3.59464990234375,0.0008963977452367544,-0.0006817388348281384,-0.000851163174957037
1772656062331633200,3.604633056640625,0.0000164892990142107,0.000026395777240395546,-0.0012232065200805664
1772656062341614800,3.61461474609375,-0.0005075091030448675,0.0019182376563549042,0.0008018624503165483
1772656062351598000,3.62459814453125,-0.0005913986824452877,-0.0010623722337186337,-0.0004199957475066185
1772656062361580000,3.634580078125,-0.0007631781045347452,0.001251870533451438,0.0010447718668729067
1772656062371563000,3.64456298828125,-0.0012835599482059479,0.0016329687787219882,0.0003653997555375099
1772656062381545000,3.654544921875,0.0007842702325433493,0.0019170537125319242,-0.000012702308595180511
1772656062391528200,3.664528076171875,-0.0016045854426920414,-0.00012612342834472656,-0.0006875474937260151
1772656062401510000,3.674510009765625,-0.0000933066476136446,-0.00007919524796307087,0.0004764627665281296
1772656062411493000,3.6844931640625,0.003197295358404517,0.00025130307767540216,0.0010296013206243515
1772656062421475000,3.69447509765625,0.0008821357041597366,0.0027413007337599993,0.00010171113535761833
1772656062431458000,3.7044580078125,0.0012067749630659819,0.0023761813063174486,0.0019613965414464474
1772656062441440000,3.71443994140625,-0.0007831328548491001,0.0003262029495090246,-0.00014941906556487083
1772656062451422000,3.724421875,-0.0018720992375165224,0.0005235432181507349,0.0002561802975833416
1772656062461405000,3.734405029296875,0.0006301624234765768,-0.0005157499108463526,-0.0021788794547319412
1772656062471387100,3.74438720703125,-0.0029621755238622427,0.0028305118903517723,-0.0009788591414690018
1772656062481369900,3.754369873046875,0.00022685970179736614,0.00010244885925203562,0.0003364831209182739
1772656062491352000,3.76435205078125,0.0028018702287226915,-0.002907455898821354,0.00036737602204084396
1772656062501335000,3.7743349609375,-0.0013022343628108501,-0.0020740581676363945,-0.0010502818040549755
1772656062511317000,3.78431689453125,0.0004229610785841942,-0.0013629940804094076,-0.0018478981219232082
1772656062521300000,3.794300048828125,0.0021051382645964622,-0.000866981572471559,-0.0005204961635172367
1772656062531282200,3.8042822265625,-0.003582308767363429,-0.0017700594617053866,0.000359412282705307
1772656062541265000,3.814264892578125,0.001297340844757855,-0.0006280482048168778,-0.00006829015910625458
1772656062551247000,3.8242470703125,-0.00028857169672846794,-0.0011987636098638177,-0.0016693826764822006
1772656062561230000,3.83422998046875,-0.0010041736532002687,0.0002622632309794426,0.00027564819902181625
1772656062571212000,3.8442119140625,-0.0009098977316170931,-0.0008655854035168886,-0.001016517635434866
1772656062581195000,3.854195068359375,-0.0007323033642023802,-0.002028542570769787,0.000065595842897892
1772656062591177000,3.864177001953125,0.00205789040774107,-0.0026698317378759384,0.0009516293648630381
1772656062601160000,3.874159912109375,0.00011536269448697567,-0.0030710091814398766,0.0007321934681385756
1772656062611142100,3.88414208984375,-0.001826880732551217,-0.00037482508923858404,-0.0009602457284927368
1772656062621124000,3.8941240234375,-0.0012080986052751541,-0.0007077946793287992,-0.0003991397097706795
1772656062631107000,3.904107177734375,0.0005967256147414446,-0.0003317564260214567,0.0015601480845361948
1772656062641089000,3.914089111328125,-0.0008236691355705261,0.0010724128223955631,0.0011927331797778606
1772656062651072000,3.924072021484375,0.002335372380912304,-0.001522304955869913,-0.0021364842541515827
1772656062661054200,3.93405419921875,-0.0014307217206805944,-0.0010694848606362939,0.0018043131567537785
1772656062671037000,3.944036865234375,0.0013232533819973469,0.0009606427047401667,0.0006708716973662376
1772656062681019100,3.95401904296875,0.00007049203850328922,0.0005292363930493593,-0.0010043950751423836
1772656062691002000,3.964002197265625,0.0019829077646136284,0.0009529453818686306,0.0006164051592350006
1772656062700984000,3.973984130859375,-0.00019570603035390377,0.001123184454627335,-0.0008791834115982056
1772656062710964000,3.9839638671875,0.00007194164209067822,-0.00089655676856637,-0.0010890406556427479
1772656062720947000,3.993947021484375,-0.00003335322253406048,0.0002721145283430815,0.0009156151209026575
1772656062730929200,4.00392919921875,0.0017941078403964639,0.0022207493893802166,0.0004184027202427387
1772656062740911900,4.013911865234375,0.0005651183892041445,0.001124108792282641,0.003047339152544737
1772656062750894000,4.02389404296875,0.0007725786417722702,0.0014599334681406617,0.00009149685502052307
1772656062760877000,4.033876953125,0.001472204690799117,0.0018777307122945786,0.0007417642045766115
1772656062770859000,4.04385888671875,0.0015113531844690442,0.0007355008856393397,-0.0019954326562583447
1772656062780842000,4.053842041015625,-0.000551882665604353,-0.000005595269612967968,0.0012448139023035765
1772656062790824200,4.06382421875,-0.0013510973658412695,-0.0006942886393517256,0.0027582882903516293
1772656062800806100,4.07380615234375,-0.00012119999155402184,0.0014180428115651011,-0.0005909358151257038
1772656062810789000,4.0837890625,-0.0015752860344946384,0.0012108489172533154,-0.00017574941739439964
1772656062820771000,4.09377099609375,-0.0017854098696261644,0.0010383022017776966,0.0008790437132120132
1772656062830754000,4.103754150390625,-0.0031619977671653032,0.00019940640777349472,-0.0009265793487429619
1772656062840736300,4.113736328125,0.0006140696350485086,0.0017355778254568577,-0.0005660625174641609
1772656062850719000,4.123718994140625,-0.0012464148458093405,0.000808265118394047,0.00041504576802253723
1772656062860701200,4.133701171875,-0.00036754109896719456,0.002322058193385601,-0.002929219976067543
1772656062870684200,4.14368408203125,0.00010836590081453323,-0.004743307828903198,-0.0009523555636405945
1772656062880666400,4.153666259765625,0.00022817403078079224,-0.0010776298586279154,-0.0005240277387201786
1772656062890649000,4.163649169921875,-0.0012626636307686567,-0.0010778959840536118,0.002246458549052477
1772656062900631300,4.17363134765625,-0.00039182696491479874,-0.0015150547260418534,-0.002274042461067438
1772656062910614300,4.1836142578125,0.003065222641453147,-0.0007587169529870152,-0.000018611084669828415
1772656062920596200,4.19359619140625,0.0012535593705251813,-0.0013691274216398597,-0.0029043303802609444
1772656062930579200,4.2035791015625,0.0010596811771392822,-0.000053792260587215424,-0.00020281970500946045
1772656062940561400,4.2135615234375,-0.0001496423501521349,-0.0000563404755666852,0.00033564725890755653
1772656062950543000,4.223543212890625,0.0005262678023427725,0.00040838110726326704,-0.0006385371088981628
1772656062960526300,4.2335263671875,0.00031986692920327187,0.00002186570782214403,0.001195499673485756
1772656062970508000,4.243508056640625,-0.0011291590053588152,-0.001968847122043371,0.0017821940127760172
1772656062980491300,4.2534912109375,-0.000667504733428359,0.0012987410882487893,-0.0003165584057569504
1772656062990473200,4.26347314453125,-0.0014443488325923681,-0.001305564190261066,0.0015420615673065186
1772656063000456200,4.273456298828125,-0.0013658644165843725,0.000002029002644121647,-0.0010364358313381672
1772656063010438100,4.283438232421875,0.0001667847391217947,-0.0017838868079707026,0.000024035107344388962
1772656063020421400,4.29342138671875,0.0006475367117673159,-0.000046594650484621525,0.0028937349561601877
1772656063030403000,4.303403076171875,-0.0006526184733957052,-0.00035685289185494184,-0.00182378850877285
1772656063040386300,4.31338623046875,-0.0018325529526919127,-0.0005496668163686991,0.0006914697587490082
1772656063050368300,4.3233681640625,0.00048492965288460255,-0.000006115646101534367,-0.002245730720460415
1772656063060351200,4.333351318359375,0.0008437300566583872,-0.0015508043579757214,-0.0003566620871424675
1772656063070333200,4.343333251953125,0.0016059267800301313,0.004884724505245686,0.002452173735946417
1772656063080316400,4.35331640625,0.000624730484560132,0.0007467751274816692,-0.0021546492353081703
1772656063090298000,4.363298095703125,-0.0006376078817993402,0.0009696817141957581,0.0005335458554327488
1772656063100281300,4.37328125,0.00037931720726192,-0.0013710150960832834,-0.002281470689922571
1772656063110263000,4.383262939453125,-0.0014689164236187935,0.0004476576577872038,-0.00017224717885255814
1772656063120245200,4.393245361328125,-0.0008950072806328535,-0.0013322773156687617,-0.002102553378790617
1772656063130230300,4.403230224609375,-0.001542155398055911,-0.00008724955841898918,-0.0008521992713212967
1772656063140213200,4.413213134765625,0.0006994938012212515,-0.0019519227789714932,0.0005333283916115761
1772656063150195200,4.4231953125,-0.0007375478744506836,-0.0016307454789057374,0.00013518566265702248
1772656063160178200,4.43317822265625,0.0012158689787611365,0.00048753072042018175,-0.00048081716522574425
1772656063170160400,4.443160400390625,0.0006717850919812918,-0.0010483142687007785,-0.0019535450264811516
1772656063180143000,4.45314306640625,-0.0005728281103074551,0.001496157143265009,-0.0010089874267578125
1772656063190125300,4.463125244140625,0.00004449277184903622,-0.0026290793903172016,-0.0010167104192078114
1772656063200108300,4.4731083984375,0.0007052223663777113,0.002824326977133751,-0.0008050990290939808
1772656063210090200,4.48309033203125,-0.000055110082030296326,-0.00047453073784708977,-0.00005222298204898834
1772656063220073200,4.4930732421875,-0.0005709568504244089,-0.0009220817591995001,-0.0011742385104298592
1772656063230055200,4.50305517578125,-0.0007504539098590612,-0.001960182096809149,-0.0007398766465485096
1772656063240038100,4.5130380859375,-0.000030768103897571564,-0.0017985753947868943,-0.0010214326903223991
1772656063250020400,4.523020263671875,-0.0007753879763185978,-0.001079788082279265,-0.0007516546174883842
1772656063260002000,4.533001953125,-0.00010875752195715904,-0.0017253125552088022,-0.0017084144055843353
1772656063269985300,4.5429853515625,-0.002566056326031685,-0.001789228292182088,0.00030440278351306915
1772656063279967200,4.55296728515625,-0.00009258044883608818,-0.0011761394562199712,-0.00012785382568836212
1772656063289950200,4.5629501953125,0.00018998095765709877,-0.000839782296679914,-0.002288476563990116
1772656063299932200,4.57293212890625,-0.001111388672143221,-0.001307126134634018,0.0014251871034502983
1772656063309915400,4.582915283203125,-0.002973470836877823,0.0006257961504161358,-0.0010550147853791714
1772656063319897000,4.59289697265625,0.0021538869477808475,-0.00028871302492916584,0.0006241919472813606
1772656063329880300,4.60288037109375,-0.00008689681999385357,0.00038746348582208157,-0.0006141779012978077
1772656063339862000,4.612862060546875,0.0012576464796438813,0.0002633520634844899,-0.0020142914727330208
1772656063349845200,4.62284521484375,0.0012768212473019958,-0.001946272561326623,-0.001200429629534483
1772656063359827200,4.6328271484375,0.0013193024788051844,0.0010272767394781113,-0.0020384173840284348
1772656063369810200,4.64281005859375,-0.0015886030159890652,0.0018025229219347239,-0.0011443942785263062
1772656063379792100,4.652792236328125,0.00020363228395581245,-0.00037553964648395777,-0.0020903488621115685
1772656063389775400,4.662775390625,0.0011437282664701343,0.0011413968168199062,0.0003813309594988823
1772656063399757000,4.672757080078125,-0.0014805076643824577,0.0018810818437486887,-0.0024073468521237373
1772656063409739300,4.6827392578125,0.0013887820532545447,0.0018477924168109894,0.0013410523533821106
1772656063419722000,4.692721923828125,-0.0005690981633961201,0.0007667071186006069,0.0009919693693518639
1772656063429704200,4.7027041015625,0.0012082954635843635,-0.0013177491491660476,0.00004921061918139458
1772656063439687200,4.712687255859375,-0.0008392389863729477,0.00029404822271317244,0.0010445022489875555
1772656063449669000,4.722669189453125,0.0010590623132884502,0.002822187030687928,0.0007054819725453854
1772656063459652000,4.732652099609375,0.00013363827019929886,-0.0009780775289982557,-0.0008892272599041462
1772656063469634300,4.74263427734375,0.0012399153783917427,0.0006499129813164473,0.0010341075249016285
1772656063479617000,4.752616943359375,0.001230714493431151,-0.00006716698408126831,-0.0016820100136101246
1772656063489599200,4.76259912109375,-0.000601806677877903,-0.0019039490725845098,0.0006692949682474136
1772656063499582200,4.772582275390625,-0.0017347820103168488,0.0013015934964641929,-0.0004183235578238964
1772656063509564200,4.782564208984375,0.00001571374014019966,0.00041529349982738495,0.0002469336614012718
1772656063519547100,4.792547119140625,0.0001860933844000101,-0.0028025272767990828,0.0014871330931782722
1772656063529529000,4.802529052734375,0.0012143399799242616,-0.0007361804600805044,0.00008923979476094246
1772656063539512000,4.812511962890625,-0.0021082833409309387,-0.0007617617957293987,-0.0010682130232453346
1772656063549494300,4.822494384765625,-0.0016283821314573288,0.0021722428500652313,-0.0034751775674521923
1772656063559476200,4.832476318359375,0.0013018932659178972,-0.002732995431870222,0.0011206772178411484
1772656063569459200,4.842459228515625,0.0019636887591332197,-0.0020885104313492775,0.0011550318449735641
1772656063579441400,4.85244140625,0.0009758226806297898,0.0007555755437351763,0.00004619592800736427
1772656063589424000,4.862424072265625,-0.0016489890404045582,-0.0008508432656526566,0.0013434214051812887
1772656063599406300,4.87240625,-0.00007150950841605663,0.00036743818782269955,0.0010883191134780645
1772656063609389300,4.882389404296875,-0.0016552913002669811,-0.0005220575258135796,0.000335177406668663
1772656063619371300,4.892371337890625,-0.0008637113496661186,-0.001520083169452846,0.0015999739989638329
1772656063629354200,4.902354248046875,0.001816227682866156,0.0011484043207019567,0.0011317902244627476
1772656063639336200,4.912336181640625,0.0011698458110913634,0.0021810729522258043,0.0011211910750716925
1772656063649319200,4.922319091796875,-0.00029036542400717735,0.0007373732514679432,-0.002307895105332136
1772656063659301400,4.93230126953125,-0.0006072360556572676,-0.0004992454778403044,-0.0009548291563987732
1772656063669284000,4.9422841796875,-0.00005489634349942207,0.0007015739101916552,0.002468664199113846
1772656063679266300,4.952266357421875,-0.0006614429876208305,-0.0007618414238095284,-0.00022454094141721725
1772656063689249300,4.962249267578125,-0.0006912702228873968,-0.0023690592497587204,-0.00261872261762619
1772656063699231200,4.972231201171875,-0.0006202063523232937,-0.0005968108307570219,-0.0003300691023468971
1772656063709213200,4.982213134765625,0.0019992790184915066,-0.0008721814956516027,-0.004014286212623119
1772656063719196200,4.992196044921875,0.00132902676705271,0.0006711712339892983,-0.0008488534949719906
1772656063729178000,5.00217822265625,-0.0004302572924643755,-0.0006545502692461014,0.0017133739311248064
1772656063739161300,5.012161376953125,0.0008723470382392406,0.0007073712768033147,0.0005917474627494812
1772656063749143000,5.02214306640625,-0.0003103627823293209,-0.0019278264371678233,0.003173682140186429
1772656063759126300,5.032126220703125,0.00041353190317749977,0.00023316952865570784,0.00095525779761374
1772656063769108200,5.042108154296875,-0.0015324396081268787,0.0001314367400482297,0.0013731077779084444
1772656063779091200,5.05209130859375,-0.0001031048595905304,-0.0017118975520133972,0.0008548323530703783
1772656063789073200,5.0620732421875,0.001096649095416069,0.001525441068224609,-0.00046076904982328415
1772656063799056400,5.072056396484375,-0.0014571261126548052,0.002032004063948989,-0.0006559495814144611
1772656063809038000,5.0820380859375,-0.00015324237756431103,0.001621610950678587,0.0008039954118430614
1772656063819021300,5.092021240234375,-0.0011479970999062061,-0.0007737366249784827,-0.0019508623518049717
1772656063829003000,5.1020029296875,-0.0015133824199438095,-0.0003566854866221547,0.001204983564093709
1772656063838986200,5.111986328125,-0.0008383993990719318,-0.0010840167524293065,-0.0002695671282708645
1772656063848968200,5.12196826171875,-0.001475693890824914,-0.0002834704937413335,0.002979755401611328
1772656063858950700,5.13195068359375,-0.00034380308352410793,-0.0014489245368167758,-0.001677649561315775
1772656063868933600,5.14193359375,-0.0014322367496788502,-0.0003639525966718793,-0.0000022551976144313812
1772656063878915800,5.151915771484375,-0.0014547004830092192,-0.00145904126111418,0.0006252177990972996
1772656063888898600,5.161898681640625,-0.0007279238197952509,-0.0008361280197277665,0.0003016437403857708
1772656063898880800,5.171880859375,-0.0009868445340543985,-0.00032525998540222645,0.0012169037945568562
1772656063908863700,5.18186376953125,-0.0007399697788059711,0.0008798203198239207,0.0016912126448005438
1772656063918845700,5.191845703125,0.0003878858406096697,0.00020085147116333246,-0.004023748449981213
1772656063928828700,5.20182861328125,-0.0014885775744915009,0.0009071218082681298,0.0013957845512777567
1772656063938810600,5.211810546875,0.0012202736688777804,0.00015682843513786793,0.00011313334107398987
1772656063948793600,5.221793701171875,0.0011848536087200046,-0.00008338876068592072,0.0006899740546941757
1772656063958775800,5.23177587890625,0.0003987110685557127,-0.00046891404781490564,-0.00041764089837670326
1772656063968758500,5.241758544921875,-0.0006793364882469177,0.00164856540504843,0.0018050333019345999
1772656063978740700,5.25174072265625,-0.001089845784008503,0.002113628899678588,0.004049685783684254
1772656063988723700,5.2617236328125,0.0008505336008965969,-0.001661135582253337,0.0013969107531011105
1772656063998705700,5.27170556640625,0.001065127202309668,-0.0007383970078080893,0.0005534365773200989
1772656064008687600,5.2816875,0.0005918834358453751,0.000023000873625278473,0.0020882165990769863
1772656064018670800,5.2916708984375,0.0002938816323876381,-0.00044069706927984953,-0.0031626783311367035
1772656064028652500,5.301652587890625,0.0007261126302182674,-0.0011608157074078918,-0.0013320213183760643
1772656064038635800,5.3116357421875,0.0006576390005648136,0.0001795833231881261,0.0001930934377014637
1772656064048617700,5.32161767578125,0.0025343685410916805,0.0018443252192810178,0.000375519972294569
1772656064058600700,5.3316005859375,0.0011934638023376465,-0.00006550305988639593,-0.0011647879146039486
1772656064068582700,5.341582763671875,0.00015722797252237797,-0.0007203742861747742,0.002667766995728016
1772656064078565600,5.351565673828125,0.0021260862704366446,-0.0013125109253451228,0.0006547779776155949
1772656064088547600,5.361547607421875,0.000915679382160306,0.0007620916003361344,0.002596754813566804
1772656064098530800,5.37153076171875,-0.000269067008048296,-0.00046564731746912,0.0016588270664215088
1772656064108512500,5.381512451171875,0.0003133662976324558,0.00269499234855175,-0.0028251372277736664
1772656064118495700,5.391495849609375,-0.0002269900869578123,-0.002236491534858942,-0.0008002696558833122
1772656064128477700,5.401477783203125,-0.001751916017383337,-0.0004601633409038186,0.0008293185383081436
1772656064138459600,5.411459716796875,-0.0001865734811872244,0.0008491113549098372,-0.0001365477219223976
1772656064148442600,5.421442626953125,-0.0028239020612090826,0.0005465762224048376,-0.0014982218854129314
1772656064158424600,5.431424560546875,-0.0015467444900423288,-0.0004948046989738941,0.0015820777043700218
1772656064168407600,5.441407470703125,-0.00046443589963018894,-0.0008924147114157677,-0.002184963785111904
1772656064178389800,5.4513896484375,0.0014102207496762276,0.0008958354592323303,-0.0004778234288096428
1772656064188372700,5.461372802734375,-0.0003333508502691984,-0.0005459999665617943,0.0006609444972127676
1772656064198354700,5.471354736328125,-0.0017478049267083406,-0.0010278220288455486,-0.0001406138762831688
1772656064208337700,5.481337646484375,0.00008817831985652447,-0.00022594421170651913,0.0009124001953750849
1772656064218319600,5.491319580078125,-0.003921607509255409,-0.0016848243540152907,0.001296554459258914
1772656064228302600,5.501302490234375,-0.00026215799152851105,0.0005477035883814096,-0.0018779337406158447
1772656064238284500,5.511284423828125,0.0004152387846261263,0.0019730415660887957,0.000648535555228591
1772656064248267800,5.521267822265625,0.0021652018185704947,-0.0007830639369785786,-0.0010260599665343761
1772656064258249700,5.531249755859375,0.0011040196986868978,0.00003910367377102375,-0.0016517150215804577
1772656064268232700,5.541232666015625,-0.001045950222760439,0.0009046309860423207,-0.00012039719149470329
1772656064278214700,5.551214599609375,0.0020668157376348972,0.001812776317819953,-0.000767973717302084
1772656064288196900,5.56119677734375,0.0020026336424052715,-0.0009001858998090029,-0.0006281575188040733
1772656064298179600,5.5711796875,0.0009931816020980477,0.0016217408701777458,0.0011356789618730545
1772656064308161800,5.581161865234375,-0.0007985932752490044,0.0012576868757605553,0.0006166291423141956
1772656064318144800,5.591144775390625,0.00041977851651608944,-0.0008305518422275782,0.00028571998700499535
1772656064328126700,5.601126708984375,-0.0005416227504611015,0.00047865824308246374,-0.0021984768100082874
1772656064338109700,5.611109619140625,-0.00010271510109305382,-0.00034651753958314657,-0.0012514041736721992
1772656064348091600,5.621091552734375,0.0004632065538316965,-0.0018906182376667857,-0.00023088091984391212
1772656064358074600,5.63107470703125,0.0029768908862024546,-0.0007041163044050336,-0.0006575947627425194
1772656064368056800,5.641056884765625,-0.0016466232482343912,0.001954783918336034,0.0009962283074855804
1772656064378039600,5.65103955078125,0.000029259128496050835,-0.00021033338271081448,-0.0014699292369186878
1772656064388021800,5.661021728515625,-0.0006818047259002924,0.0012123272754251957,0.0012377065140753984
1772656064398004700,5.671004638671875,-0.0004665197338908911,0.0011292567942291498,-0.0004945765249431133
1772656064407986700,5.680986572265625,-0.0011863720137625933,-0.0029863922391086817,0.00040637096390128136
1772656064417968600,5.69096875,0.0008663763292133808,0.00211677816696465,-0.002127482555806637
1772656064427951900,5.700951904296875,-0.0020524482242763042,-0.0005418554646894336,0.0026180041022598743
1772656064437933600,5.71093359375,0.0008049590978771448,0.0006972966948524117,0.0010226634331047535
1772656064447916800,5.720916748046875,0.0017623654566705227,-0.0006121796322986484,-0.0024756649509072304
1772656064457898500,5.7308984375,0.0008708587847650051,-0.0027872775681316853,0.0007722782902419567
1772656064467881700,5.7408818359375,-0.0006538007874041796,-0.00019815214909613132,-0.0004639611579477787
1772656064477863700,5.75086376953125,0.0011393456952646375,-0.002111770212650299,-0.0016225171275436878
1772656064487846700,5.7608466796875,0.0008708990644663572,0.00004565680865198374,-0.0029610218480229378
1772656064497828600,5.77082861328125,0.0007315620314329863,-0.001973307691514492,0.0005426201969385147
1772656064507811800,5.780811767578125,0.0005193082615733147,0.0006278015207499266,-0.0015229275450110435
1772656064517793500,5.79079345703125,-0.00016729230992496014,0.0007109299767762423,0.0005695689469575882
1772656064527776800,5.80077685546875,0.000056413235142827034,0.0008384954417124391,0.0022489584516733885
1772656064537758500,5.810758544921875,-0.00039601605385541916,-0.0002722161589190364,0.0006921356543898582
1772656064547741700,5.82074169921875,-0.0007968218997120857,0.002383221872150898,0.000494795385748148
1772656064557723600,5.8307236328125,0.0008611376397311687,0.0017196224071085453,0.00020662043243646622
1772656064567706600,5.84070654296875,0.0006190564017742872,-0.0001555092167109251,0.00016427645459771156
1772656064577688600,5.8506884765625,-0.00047456170432269573,-0.0003619700437411666,-0.0022084414958953857
1772656064587670800,5.8606708984375,-0.0017089368775486946,0.00021833274513483047,-0.0017895265482366085
1772656064597653500,5.870653564453125,0.0016179342055693269,0.0025447001680731773,-0.001245780847966671
1772656064607635700,5.8806357421875,-0.0005096651148051023,-0.0008697386365383863,-0.0022178348153829575
1772656064617618700,5.89061865234375,-0.0016940974164754152,0.000557816936634481,0.0003834357485175133
1772656064627600600,5.9006005859375,0.0008063444402068853,-0.0005710971308872104,-0.000857863575220108
1772656064637583600,5.91058349609375,0.004941479302942753,-0.0002654213458299637,0.0012557748705148697
1772656064647565600,5.920565673828125,0.0005816181655973196,0.0009159568580798805,-0.0039621563628315926
1772656064657548500,5.930548583984375,0.0006169346161186695,-0.0012361290864646435,0.0013619039673358202
1772656064667530800,5.94053076171875,-0.00018627475947141647,0.00007627671584486961,-0.0006386628374457359
1772656064677513500,5.950513427734375,-0.0005180996377021074,-0.0003257538191974163,-0.0011910158209502697
1772656064687495700,5.96049560546875,-0.000055242329835891724,0.0008183401077985764,-0.0009683757089078426
1772656064697477600,5.9704775390625,0.0004030461423099041,-0.0008478786330670118,0.000007143709808588028
1772656064707460600,5.980460693359375,-0.0014196215197443962,0.00007943401578813791,0.0013541707303375006
1772656064717442800,5.99044287109375,0.002351169940084219,0.002150573767721653,-0.00017754873260855675
1772656064727425800,6.00042578125,-0.0003063986077904701,-0.000940557336434722,-0.002280646935105324
1772656064737407700,6.01040771484375,0.0009516191203147173,-0.00037728133611381054,0.0006864017341285944
1772656064747390700,6.020390625,-0.0014548131730407476,-0.003533925861120224,-0.0015762196853756905
1772656064757372700,6.03037255859375,0.000942126614972949,0.0014502890408039093,0.0023105372674763203
1772656064767355600,6.040355712890625,0.00014211307279765606,0.0014814480673521757,-0.0009427801705896854
1772656064777337900,6.050337890625,0.0009665838442742825,-0.00042608112562447786,-0.0002751098945736885
1772656064787320600,6.060320556640625,0.0013857653830200434,-0.0007232899079099298,0.002110017230734229
1772656064797302800,6.070302734375,-0.0013128125574439764,0.0017305942019447684,-0.0007271040230989456
1772656064807285800,6.08028564453125,0.00022755982354283333,0.0013676054077222943,-0.0010472158901393414
1772656064817267700,6.090267822265625,-0.00036048702895641327,-0.0004986242856830359,-0.000745587982237339
1772656064827250700,6.100250732421875,-0.0011852679308503866,-0.001121271401643753,-0.0023160544224083424
1772656064837232600,6.110232666015625,-0.0002689564134925604,-0.0008932049386203289,0.0034570880234241486
1772656064847215600,6.120215576171875,0.0008114881347864866,-0.0013435455039143562,0.000005098525434732437
1772656064857198000,6.130197998046875,0.0029908614233136177,-0.0013181741815060377,-0.0005315882153809071
1772656064867180000,6.140179931640625,-0.0013620753306895494,-0.0002896615769714117,-0.0010740738362073898
1772656064877163300,6.150163330078125,0.00027489173226058483,-0.0013882858911529183,0.0018699131906032562
1772656064887145000,6.16014501953125,0.0013955498579889536,-0.0013739048736169934,-0.0008433153852820396
1772656064897128200,6.170128173828125,-0.0016528652049601078,-0.0016859082970768213,0.0003099343739449978
1772656064907110000,6.18010986328125,-0.002114923670887947,0.0014933734200894833,-0.0007247040048241615
1772656064917093000,6.190093017578125,0.0004040428902953863,0.0008214485715143383,0.00021805474534630775
1772656064927075000,6.200074951171875,0.0018967445939779282,-0.0008744524093344808,0.0039952159859240055
1772656064937058000,6.21005810546875,0.000016291625797748566,-0.0011966750025749207,-0.0009832908399403095
1772656064947040000,6.2200400390625,-0.0013943850062787533,0.000750628300011158,-0.0011044647544622421
1772656064957023200,6.230023193359375,0.0020753482822328806,-0.0035629516933113337,-0.000015964731574058533
1772656064967005000,6.2400048828125,-0.00026983139105141163,-0.001989556010812521,0.00010840455070137978
1772656064976987100,6.249987060546875,-0.00156466756016016,-0.0012635237071663141,-0.000039185862988233566
1772656064986970000,6.25997021484375,-0.0006160493940114975,-0.0010600583627820015,0.0012950575910508633
1772656064996952000,6.2699521484375,-0.000456265639513731,-0.0009064507903531194,-0.00017095962539315224
1772656065006935000,6.27993505859375,0.0008177906274795532,0.0021987948566675186,0.0008482320699840784
1772656065016917000,6.2899169921875,0.0012656941544264555,0.0005470556207001209,0.0007252132054418325
1772656065026900000,6.29989990234375,0.00022786017507314682,0.0010669046314433217,-0.0010449900291860104
1772656065036882200,6.309882080078125,-0.0006697629578411579,-0.0014615958789363503,-0.00010497262701392174
1772656065046865000,6.319864990234375,-0.00010650441981852055,-0.0009555952856317163,-0.0027968958020210266
1772656065056847000,6.32984716796875,-0.0010794890113174915,0.001561020384542644,0.00026363926008343697
1772656065066830000,6.339830078125,0.0014265455538406968,0.0004036105237901211,0.000522764865309
1772656065076812000,6.34981201171875,-0.00010141474194824696,-0.0024735780898481607,-0.0021871007047593594
1772656065086795000,6.359794921875,0.002240569330751896,0.0005459139356389642,0.000024920795112848282
1772656065096777000,6.36977685546875,0.0016852756962180138,-0.00006937666330486536,-0.0006305328570306301
1772656065106760000,6.379760009765625,-0.0015970703680068254,0.00214877026155591,-0.0005437140353024006
1772656065116742100,6.3897421875,-0.0020311311818659306,0.0011182832531630993,0.0023688559886068106
1772656065126724000,6.39972412109375,0.0020293903071433306,-0.0018958824221044779,0.0015185086522251368
1772656065136707000,6.40970703125,-0.00022394792176783085,0.0016051570419222116,-0.0005978075787425041
1772656065146689300,6.419689208984375,0.0017465249402448535,-0.00024627242237329483,-0.0012979526072740555
1772656065156672000,6.429672119140625,-0.0024820147082209587,0.0003557055024430156,-0.0007945862598717213
1772656065166654200,6.439654296875,-0.0013056965544819832,0.001618576468899846,-0.0020507993176579475
1772656065176637200,6.44963720703125,0.0004294896498322487,0.0025570783764123917,0.00018661143258213997
1772656065186619100,6.459619140625,0.0005418749060481787,0.00008859450463205576,0.0006452077068388462
1772656065196602000,6.46960205078125,0.0011075176298618317,-0.0004276222316548228,-0.0013685449957847595
1772656065206584000,6.479583984375,0.0008420003578066826,-0.0015112623805180192,0.0004946026019752026
1772656065216567000,6.489567138671875,0.0010006909724324942,0.0008349986164830625,-0.00042131170630455017
1772656065226549200,6.49954931640625,0.0013548914575949311,0.00021874322555959225,0.0005515408702194691
1772656065236532000,6.509531982421875,-0.00019810558296740055,0.00006247335113584995,-0.0033631869591772556
1772656065246514200,6.51951416015625,0.0008005797863006592,0.002127488609403372,0.0018571410328149796
1772656065256497200,6.5294970703125,0.0004304081667214632,-0.001579366740770638,-0.0020257150754332542
1772656065266479000,6.53947900390625,-0.001658575376495719,0.0002936343662440777,-0.001088548917323351
1772656065276461000,6.5494609375,0.0021298148203641176,-0.0019423045450821519,-0.0012033856473863125
1772656065286444300,6.5594443359375,0.00012099253945052624,-0.0008898234227672219,-0.0002627572976052761
1772656065296426000,6.569426025390625,-0.0005116895772516727,-0.0035234889946877956,0.0008036596700549126
1772656065306409200,6.5794091796875,0.002728045918047428,-0.0004179765237495303,-0.001404633279889822
1772656065316391000,6.589390869140625,-0.0005839094519615173,0.00011237745638936758,-0.0011773095466196537
1772656065326374100,6.5993740234375,-0.0005918990354984999,-0.00014914502389729023,0.0013383121695369482
1772656065336356000,6.609356201171875,-0.00021852785721421242,0.0014438057551160455,0.0035630231723189354
1772656065346339000,6.619339111328125,0.00015910831280052662,-0.00019590253941714764,-0.0023326827213168144
1772656065356321000,6.629321044921875,0.00017525535076856613,-0.00030767987482249737,-0.0021609715186059475
1772656065366304300,6.63930419921875,0.0002687321975827217,0.0010460049379616976,-0.00017212284728884697
1772656065376286000,6.649285888671875,0.0014671464450657368,0.0009265271364711225,-0.0032423692755401134
1772656065386269200,6.659269287109375,0.002265029586851597,0.00212361803278327,-0.0021049329079687595
1772656065396251000,6.6692509765625,0.0024489096831530333,-0.0002163308672606945,-0.0005209892988204956
1772656065406234000,6.679234130859375,0.0012795156799256802,0.00005797471385449171,-0.002784410025924444
1772656065416216000,6.689216064453125,0.0008447463624179363,0.0006957788718864322,0.001969940960407257
1772656065426198000,6.699197998046875,0.00046604499220848083,0.0005053627537563443,0.0003877570852637291
1772656065436181000,6.709180908203125,-0.00021857861429452896,0.000774236919824034,0.00019682850688695908
1772656065446163200,6.7191630859375,0.0012070115189999342,0.002905564848333597,-0.0005608410574495792
1772656065456146000,6.72914599609375,-0.002634666860103607,-0.0006518258014693856,0.0004281005822122097
1772656065466128100,6.739128173828125,0.00217633368447423,-0.0005801866063848138,0.003751192707568407
1772656065476111000,6.749111083984375,-0.0005106646567583084,0.0003272902686148882,-0.00011965027078986168
1772656065486093000,6.759093017578125,0.00006005074828863144,0.0007504665991291404,-0.0012198020704090595
1772656065496076000,6.769075927734375,-0.00008886703290045261,-0.0007515959441661835,-0.002119122538715601
1772656065506058000,6.77905810546875,0.0005598790012300014,-0.0003659701906144619,0.0002486938610672951
1772656065516041000,6.789041015625,-0.00024328078143298626,0.0009409752674400806,-0.0007918463088572025
1772656065526023200,6.799023193359375,0.0008800404611974955,0.0004917000187560916,-0.0021937345154583454
1772656065536006000,6.809005859375,0.0005060650873929262,-0.001487626344896853,0.0004055616445839405
1772656065545988000,6.818988037109375,-0.0009405640885233879,-0.000796802225522697,0.0018263580277562141
1772656065555970300,6.82897021484375,-0.0004406697116792202,0.0013862247578799725,-0.0021029100753366947
1772656065565953000,6.838953125,0.0016789400251582265,0.0005622428143396974,-0.0009287223219871521
1772656065575935200,6.848935302734375,-0.001437642378732562,-0.000063727842643857,0.0009460584260523319
1772656065585918200,6.858918212890625,-0.0009726544376462698,-0.0016805330524221063,-0.0037719979882240295
1772656065595900200,6.868900146484375,0.0012089707888662815,-0.0008552138460800052,-0.0027133976109325886
1772656065605883100,6.878883056640625,0.000008950475603342056,0.0007381555042229593,0.0007625604048371315
1772656065615865000,6.888864990234375,-0.00043837656266987324,-0.0003700903616845608,0.0011956414673477411
1772656065625848000,6.89884814453125,0.00014405674301087856,0.0019164996920153499,-0.00016922829672694206
1772656065635830300,6.908830322265625,-0.000910888658836484,-0.000712547218427062,-0.0006562205962836742
1772656065645813000,6.91881298828125,0.00009232410229742527,0.0004312803503125906,0.0013387533836066723
1772656065655795200,6.928795166015625,0.00007833517156541348,0.002013251418247819,0.0005347039550542831
1772656065665778200,6.938778076171875,0.0012866113102063537,-0.0010421931510791183,-0.0009380243718624115
1772656065675760000,6.948760009765625,0.0002552515361458063,-0.00039013102650642395,-0.0015921052545309067
1772656065685743000,6.9587431640625,0.00011037546209990978,-0.0020277085714042187,0.0020020969677716494
1772656065695725000,6.96872509765625,-0.001182102831080556,-0.000444481847807765,0.0020428260322660208
1772656065705707000,6.97870703125,0.00021259463392198086,0.0005086635937914252,0.0005192314274609089
1772656065715690200,6.988690185546875,-0.0009586804080754519,0.0024993368424475193,-0.0010361988097429276
1772656065725672000,6.998671875,0.00008527864702045918,0.001478813705034554,0.00032334448769688606
1772656065735655200,7.0086552734375,-0.0002621046733111143,0.00014450517483055592,0.0017558983527123928
1772656065745637000,7.01863720703125,0.0008135461248457432,-0.0005385954864323139,0.0013332548551261425
1772656065755620000,7.0286201171875,-0.0005759433843195438,-0.0004905180539935827,-0.002667030319571495
1772656065765602000,7.03860205078125,-0.00025077140890061855,0.0012453303206712008,-0.0030907392501831055
1772656065775585300,7.048585205078125,-0.0006877949927002192,-0.0023549669422209263,0.0011891019530594349
1772656065785567000,7.05856689453125,-0.0025813025422394276,-0.0015642744256183505,-0.0009728521108627319
1772656065795550200,7.06855029296875,0.0010233231587335467,0.0009068989893421531,0.00012358464300632477
1772656065805532000,7.078531982421875,-0.00013355398550629616,0.0012629636330530047,0.0008676720317453146
1772656065815515100,7.08851513671875,-0.0005704176146537066,0.0009655995527282357,-0.0023172455839812756
1772656065825497000,7.0984970703125,-0.001481484854593873,-0.001901026931591332,0.001011173240840435
1772656065835479000,7.10847900390625,0.001167253591120243,0.0005631542298942804,0.00022825459018349648
1772656065845462000,7.1184619140625,-0.0000823016744107008,-0.0031881744507700205,0.001185394823551178
1772656065855444000,7.12844384765625,0.000542536610737443,-0.0011521205306053162,-0.0016429782845079899
1772656065865426700,7.1384267578125,-0.0023938645608723164,-0.0006509136874228716,0.0021589503157883883
1772656065875409000,7.148408935546875,0.0008322170469909906,-0.0018173408461734653,-0.0014227819629013538
1772656065885392000,7.158391845703125,0.00042475340887904167,0.0007084010285325348,-0.0005798917263746262
1772656065895373800,7.168373779296875,-0.00186214130371809,-0.00027144583873450756,-0.00046370411291718483
1772656065905356800,7.178356689453125,-0.0018099434673786163,-0.001418202999047935,0.0018963890615850687
1772656065915338800,7.1883388671875,-0.0006992635317146778,-0.0004746934864670038,-0.00007727788761258125
1772656065925321700,7.19832177734375,-0.0010313596576452255,0.000045421882532536983,0.0007435083389282227
1772656065935304000,7.208303955078125,-0.0017765825614333153,-0.00008659763261675835,-0.00026492634788155556
1772656065945286700,7.21828662109375,-0.0028141499496996403,0.0004465671954676509,0.0007007359527051449
1772656065955268900,7.228268798828125,0.0001294352114200592,0.0008501284755766392,0.0006129820831120014
1772656065965251800,7.238251953125,-0.00038695172406733036,0.003061883617192507,-0.0005044802092015743
1772656065975233800,7.24823388671875,0.00025854120030999184,-0.0006854064995422959,-0.00011167488992214203
1772656065985216000,7.258216064453125,0.0002409643493592739,0.0003955706488341093,0.0029480308294296265
1772656065995199000,7.268198974609375,-0.00007757917046546936,0.0008736028103157878,0.0004793955013155937
1772656066005181000,7.278180908203125,-0.0016429850365966558,-0.000013762502931058407,0.0006695454940199852
1772656066015164000,7.288163818359375,-0.0016272396314889193,0.0011570772621780634,-0.0005375430919229984
1772656066025145900,7.298145751953125,0.0019262160640209913,-0.0018208693945780396,-0.0010115858167409897
1772656066035128800,7.30812890625,0.0005057386588305235,-0.0008586293552070856,-0.0003736247308552265
1772656066045111000,7.318111083984375,0.0009741885587573051,0.001204255037009716,0.001356897410005331
1772656066055093800,7.32809375,0.00026248511858284473,0.0021451711654663086,-0.00284010311588645
1772656066065076000,7.338075927734375,-0.0004232788924127817,0.0010218499228358269,-0.000035528093576431274
1772656066075059000,7.348058837890625,-0.0025658458471298218,-0.001491024624556303,-0.0032884255051612854
1772656066085041000,7.358041015625,0.00008533080108463764,0.0010475004091858864,0.0014496040530502796
1772656066095023900,7.36802392578125,-0.002006346359848976,-0.0000724100973457098,0.001048422884196043
1772656066105006000,7.378006103515625,0.002168691251426935,0.0018099121516570449,0.001434048404917121
1772656066114988800,7.38798876953125,-0.00022213836200535297,-0.00016634014900773764,0.001682378351688385
1772656066124971000,7.397970947265625,-0.00017739715985953808,-0.0014161616563796997,0.0016581437084823847
1772656066134952700,7.40795263671875,-0.00020308210514485836,-0.0019568800926208496,-0.0017923787236213684
1772656066144936000,7.41793603515625,-0.0010283957235515118,-0.0009374219225719571,-0.0016043595969676971
1772656066154918000,7.42791796875,-0.0006205006502568722,-0.0020976043306291103,-0.000778361689299345
1772656066164900900,7.43790087890625,0.0010889825643971562,-0.0010384650668129325,-0.0014843656681478024
1772656066174882800,7.4478828125,0.0012320518726482987,-0.00015580770559608936,-0.001410050317645073
1772656066184866000,7.457865966796875,0.003084014169871807,-0.00007644551806151867,-0.002453476656228304
1772656066194847700,7.46784765625,-0.00023766234517097473,-0.0004961880622431636,0.0026645383331924677
1772656066204831000,7.4778310546875,0.0011112288339063525,0.0007163490517996252,-0.0013578999787569046
1772656066214812700,7.487812744140625,0.00037311925552785397,-0.0018472166266292334,-0.002096019219607115
1772656066224796000,7.4977958984375,0.00007031788118183613,0.001886801328510046,0.0008041632827371359
1772656066234777900,7.50777783203125,-0.0017592066433280706,-0.0001755326520651579,0.0019241494592279196
1772656066244760800,7.5177607421875,-0.00034799776040017605,-0.0007734122918918729,-0.00028014881536364555
1772656066254742800,7.52774267578125,0.001560850883834064,0.00035739096347242594,-0.0008607185445725918
1772656066264726000,7.53772607421875,0.0027733880560845137,0.0008551357313990593,-0.0002854759804904461
1772656066274707700,7.547707763671875,0.00006692693568766117,0.0030065891332924366,0.0010060861241072416
1772656066284690000,7.55768994140625,0.001179329352453351,0.001437721075490117,0.0024300783406943083
1772656066294673000,7.5676728515625,-0.0016743936575949192,0.0024425406008958817,0.001538403332233429
1772656066304654800,7.57765478515625,-0.00013615167699754238,0.00040362461004406214,-0.0006733518093824387
1772656066314637800,7.587637939453125,-0.0004503699019551277,-0.0009188385447487235,-0.000052055343985557556
1772656066324619800,7.597619873046875,0.0015107819344848394,0.0029272986575961113,-0.0034387968480587006
1772656066334602800,7.607602783203125,0.0012538902228698134,-0.0014989367919042706,0.00036819418892264366
1772656066344585000,7.6175849609375,-0.001427113777026534,0.0006856543477624655,-0.002927201334387064
1772656066354567700,7.627567626953125,-0.0001458190381526947,0.00031103682704269886,-0.001869809813797474
1772656066364550000,7.6375498046875,0.0013394257985055447,-0.0006554241990670562,0.0012871015351265669
1772656066374532900,7.647532958984375,-0.0007657750975340605,0.0003833476221188903,0.0018123912159353495
1772656066384514800,7.657514892578125,0.0018944565672427416,0.00261987023986876,0.0005612382665276527
1772656066394497800,7.667497802734375,-0.00011385907419025898,-0.0001748870126903057,-0.0001774495467543602
1772656066404480000,7.67747998046875,-0.00035141315311193466,0.0008456363575533032,-0.003010520711541176
1772656066414462000,7.6874619140625,0.0022347501944750547,0.0009005853207781911,-0.0029140901751816273
1772656066424445000,7.69744482421875,0.00023578153923153877,0.00009657698683440685,0.0017499036621302366
1772656066434427000,7.707427001953125,0.0023884871043264866,0.0010316233383491635,-0.0008540605194866657
1772656066444409900,7.717409912109375,0.00022520124912261963,-0.00027146132197231054,-0.0013845623470842838
1772656066454392000,7.72739208984375,-0.0019118746276944876,-0.0009663400705903769,-0.0009557218290865421
1772656066464374800,7.737374755859375,0.00023063854314386845,-0.00018150662072002888,0.0018826753366738558
1772656066474357000,7.74735693359375,0.0021269258577376604,-0.0018102695466950536,0.0015990056563168764
1772656066484340000,7.757340087890625,-0.002624685876071453,-0.0022001564502716064,0.0006256205961108208
1772656066494322000,7.767322021484375,-0.0005035768263041973,0.0010623936541378498,0.00018970435485243797
1772656066504305000,7.777304931640625,0.0007403858471661806,-0.001013540313579142,-0.0018345643766224384
1772656066514286800,7.787286865234375,-0.002808232791721821,-0.0009644345846027136,-0.0023404345847666264
1772656066524269800,7.797269775390625,-0.0006300334352999926,-0.000736468005925417,-0.000815242063254118
1772656066534252000,7.807251953125,-0.0006494512781500816,-0.00039468053728342056,-0.00035502342507243156
1772656066544234800,7.81723486328125,-0.002155202440917492,-0.00038242992013692856,0.000553647056221962
1772656066554217000,7.827217041015625,0.0012786476872861385,0.0009917691349983215,0.0013113112654536963
1772656066564199000,7.837198974609375,0.00005678948946297169,-0.0012751135509461164,0.000006095971912145615
1772656066574182000,7.847181884765625,0.00030406960286200047,0.00007251894567161798,0.0002275765873491764
1772656066584163800,7.857163818359375,-0.000123101519420743,-0.00008673814591020346,-0.0009308983571827412
1772656066594147000,7.86714697265625,-0.0015607133973389864,0.00046652054879814386,0.0001847054809331894
1772656066604128800,7.877128662109375,0.0039283279329538345,0.0017594852251932025,0.0006603458896279335
1772656066614112000,7.887112060546875,0.0009023488964885473,0.003205286804586649,0.0005534295924007893
1772656066624093700,7.89709375,-0.0004172474145889282,0.0005799424834549427,0.00005435338243842125
1772656066634077000,7.907076904296875,-0.001834305701777339,0.0029728105291724205,0.001138394931331277
1772656066644059000,7.917058837890625,-0.0011171165388077497,0.0007967415731400251,-0.0023271762765944004
1772656066654041900,7.927041748046875,-0.00208286102861166,-0.000013074255548417568,-0.0002624071203172207
1772656066664023800,7.93702392578125,-0.00020240293815732002,0.0001999785890802741,0.0008569192141294479
1772656066674007000,7.947007080078125,0.000811329111456871,0.00009284180123358965,-0.0006912034004926682
1772656066683988700,7.95698876953125,-0.0014483632985502481,0.0006078971782699227,-0.00007947534322738647
1772656066693972000,7.966971923828125,0.00004363013431429863,0.0021020551212131977,-0.0008659129962325096
1772656066703954000,7.976953857421875,-0.001816055504605174,0.0008429125300608575,0.0006686006672680378
1772656066713933800,7.986933837890625,0.0019413932459428906,-0.0007463840302079916,-0.0003663324750959873
1772656066723915800,7.996915771484375,0.0012289976002648473,0.00037214369513094425,0.002449960447847843
1772656066733898800,8.006898681640624,0.0006798533722758293,0.0008884905837476254,0.0023097041994333267
1772656066743880700,8.016880615234374,-0.0005382765084505081,-0.001040170667693019,0.0006814473308622837
1772656066753864000,8.026864013671876,0.0006921046879142523,0.0003607050748541951,-0.0015569091774523258
1772656066763846000,8.036845947265626,0.0012521676253527403,0.0004278166452422738,0.0017587265465408564
1772656066773828900,8.046828857421875,-0.0005025120917707682,0.00011800078209489584,-0.0000688931904733181
1772656066783810800,8.056810791015625,0.00016860454343259335,0.0007622194825671613,-0.0012547988444566727
1772656066793793800,8.066793701171875,0.0006818531546741724,-0.001309988903813064,0.001443237066268921
1772656066803775700,8.076775634765625,0.0011372537119314075,-0.001193076022900641,-0.0027496437542140484
1772656066813759000,8.086759033203125,-0.003405276220291853,-0.001804553670808673,-0.00015410874038934708
1772656066823741000,8.096740966796874,-0.0005708737298846245,0.0007422271301038563,-0.0007623746059834957
1772656066833724000,8.106723876953126,-0.0002713669091463089,0.0002778699854388833,0.0006818333640694618
1772656066843705900,8.116705810546875,-0.0007427465170621872,-0.0042015668004751205,0.0007071336731314659
1772656066853688800,8.126688720703125,0.0004130129236727953,0.002392445458099246,-0.0022136694751679897
1772656066863674400,8.13667431640625,0.0005453720223158598,-0.0003673883620649576,0.0018841363489627838
1772656066873656300,8.14665625,0.00004647020250558853,-0.0016368133947253227,-0.00031187478452920914
1772656066883639300,8.156639404296875,0.001600691000930965,-0.0018296262715011835,-0.0029500019736588
1772656066893621500,8.16662158203125,0.004162222146987915,-0.0005832058377563953,-0.0003342372365295887
1772656066903604200,8.176604248046875,0.0012303482508286834,-0.0003424561582505703,-0.0007672673091292381
1772656066913586400,8.18658642578125,-0.002957061165943742,-0.0005792416632175446,0.00006629899144172668
1772656066923569400,8.1965693359375,0.0009766940493136644,-0.0007313082460314035,-0.0010303906165063381
1772656066933551400,8.20655126953125,0.000995759735815227,-0.000539622618816793,0.0013401536270976067
1772656066943534300,8.216534423828126,-0.001367263263091445,0.0027789424639195204,0.0006807548925280571
1772656066953516500,8.2265166015625,-0.0017702295444905758,0.0019127107225358486,0.001358667854219675
1772656066963499300,8.236499267578125,-0.00013291812501847744,0.00010682118590921164,0.0018281831871718168
1772656066973481500,8.2464814453125,-0.0024490433279424906,0.0006054347613826394,-0.0010465122759342194
1772656066983464400,8.25646435546875,-0.0014250578824430704,0.0011452574981376529,-0.005247382912784815
1772656066993446400,8.2664462890625,-0.000017715618014335632,0.0011192795354872942,-0.0006302460096776485
1772656067003429400,8.276429443359374,0.0006605915259569883,-0.001407261355780065,-0.002093653194606304
1772656067013411300,8.286411376953126,-0.0006635142490267754,0.000005627283826470375,-0.0011722519993782043
1772656067023393300,8.296393310546875,-0.0016179911326617002,0.0006631617434322834,-0.00002789171412587166
1772656067033376500,8.30637646484375,0.0007285114843398333,0.0010174000635743141,0.0006985156796872616
1772656067043358200,8.316358154296875,-0.0015426324680447578,0.0004080687649548054,-0.002607265952974558
1772656067053341400,8.326341552734375,-0.001128774369135499,0.00006520259194076061,-0.0009676339104771614
1772656067063323100,8.3363232421875,0.001513347844593227,0.00036347657442092896,-0.0028800498694181442
1772656067073306400,8.346306396484374,-0.00038538617081940174,0.000133287045173347,0.00018274132162332535
1772656067083288300,8.356288330078126,0.0008303467184305191,0.0009266426786780357,0.0007811533287167549
1772656067093271300,8.366271240234376,0.0005703959614038467,-0.00003166426904499531,-0.000742367934435606
1772656067103253200,8.376253173828125,-0.0003904725890606642,-0.001616511377505958,0.0015114652924239635
1772656067113236500,8.386236572265625,-0.00379417953081429,-0.0022186071146279573,-0.0004737027920782566
1772656067123218200,8.39621826171875,-0.0008039823733270168,0.000545753980986774,0.00005413545295596123
1772656067133203200,8.406203125,-0.0010660537518560886,-0.002122491132467985,-0.0007367157377302647
1772656067143185400,8.416185302734375,-0.0007091902662068605,0.0006935353158041835,0.00043747201561927795
1772656067153168400,8.42616845703125,-0.00001925160177052021,-0.002994033508002758,0.0007555154152214527
1772656067163150300,8.436150390625,-0.0006759872194379568,-0.0016062604263424873,-0.0021262913942337036
1772656067173133300,8.44613330078125,0.001371776103042066,0.00031922978814691305,0.0018048195634037256
1772656067183115500,8.456115478515626,0.00046656769700348377,0.0010635833023115993,0.001443428685888648
1772656067193098200,8.46609814453125,0.0001401121262460947,-0.0008334831800311804,0.0005145510658621788
1772656067203080400,8.47608056640625,0.00009084376506507397,-0.0007501263171434402,-0.0010220929980278015
1772656067213063400,8.4860634765625,-0.001325500663369894,0.0008361011859960854,0.0010010162368416786
1772656067223045400,8.49604541015625,-0.000518562737852335,0.0019210729515179992,0.0005818349309265614
1772656067233028400,8.5060283203125,0.0006807742174714804,-0.0011971640633419156,0.0023657926358282566
1772656067243010300,8.51601025390625,0.00013669044710695744,0.001568262348882854,0.0005633654072880745
1772656067252993300,8.5259931640625,-0.001118551241233945,-0.0004700307035818696,0.0005951914936304092
1772656067262975500,8.5359755859375,-0.00035741948522627354,0.0017300067702308297,-0.0010895244777202606
1772656067272958200,8.545958251953126,-0.0013828836381435394,-0.0008053681813180447,0.0006434000097215176
1772656067282940400,8.5559404296875,-0.00024784449487924576,0.0009208926931023598,0.001891890075057745
1772656067292922400,8.56592236328125,-0.0009294606279581785,0.0029052041936665773,0.0016988790594041348
1772656067302905300,8.5759052734375,-0.00014036614447832108,-0.00015157205052673817,-0.0010969075374305248
1772656067312887600,8.585887451171875,-0.000534681836143136,-0.0004619669634848833,-0.0013038041070103645
1772656067322870300,8.595870361328124,-0.0005131103098392487,-0.0009692993480712175,0.001329795690253377
1772656067332852500,8.6058525390625,-0.0014810794964432716,0.0027687055990099907,-0.0011636107228696346
1772656067342835500,8.61583544921875,-0.00010102917440235615,0.00046933244448155165,-0.0015516332350671291
1772656067352817400,8.6258173828125,-0.0004515524487942457,-0.00044933962635695934,-0.0021811681799590588
1772656067362800400,8.63580029296875,-0.0012417123652994633,0.0020391179714351892,0.002455927664414048
1772656067372782600,8.645782470703125,-0.0005375486798584461,0.00012861320283263922,0.000898540485650301
1772656067382765300,8.655765380859375,0.0012371819466352463,-0.0005667380755767226,0.0006330232135951519
1772656067392747500,8.66574755859375,-0.00005912897177040577,0.00020471459720283747,-0.0011718240566551685
1772656067402730500,8.67573046875,0.0024759338703006506,-0.0008245971985161304,0.0010242185089737177
1772656067412712400,8.68571240234375,-0.001648544566705823,0.00014440366066992283,-0.0008044391870498657
1772656067422695400,8.6956953125,-0.00009645428508520126,0.0004900820786133409,0.0007564392872154713
1772656067432677400,8.705677490234375,-0.0007970305159687996,-0.0017498309025540948,-0.0013009142130613327
1772656067442659300,8.715659423828125,0.002204618416726589,-0.0008568729972466826,0.000336396973580122
1772656067452642600,8.725642578125,-0.001410891069099307,-0.0017910755705088377,-0.00005742022767663002
1772656067462624300,8.735624267578125,0.0008309581317007542,-0.001334077212959528,0.0005095666274428368
1772656067472607500,8.745607421875,-0.00001612585037946701,-0.0004042347427457571,-0.0006832345388829708
1772656067482589400,8.75558935546875,0.0008893487975001335,-0.002396811731159687,-0.0003854935057461262
1772656067492572400,8.765572509765626,0.0043839565478265285,0.0007327122730202973,0.001156599959358573
1772656067502554400,8.775554443359376,0.0011346337851136923,-0.0013685217127203941,-0.0003054752014577389
1772656067512537600,8.78553759765625,0.001006554695777595,-0.00011130818165838718,-0.0002285577356815338
1772656067522519300,8.795519287109375,-0.0004805545322597027,-0.0008026646682992578,-0.0021042218431830406
1772656067532502500,8.80550244140625,-0.0002303116489201784,-0.0018510151421651244,-0.000025171320885419846
1772656067542484200,8.815484130859375,-0.00047319196164608,-0.0029010996222496033,0.000774043146520853
1772656067552467500,8.825467529296875,-0.0009175420273095369,-0.0005900041433051229,-0.002923790365457535
1772656067562449400,8.835449462890624,0.001274239388294518,0.002039867453277111,0.0008706813678145409
1772656067572432400,8.845432373046876,0.0006122549530118704,-0.0006221645744517446,0.0009362860582768917
1772656067582414300,8.855414306640625,0.0008628582581877708,-0.0008714365540072322,-0.0009042248129844666
1772656067592396300,8.865396240234375,-0.003292378969490528,0.00045189016964286566,0.0008684080094099045
1772656067602379300,8.875379150390625,0.00211144145578146,-0.0014109910698607564,-0.0006258916109800339
1772656067612361500,8.885361572265625,-0.001164752058684826,-0.001294480636715889,-0.0007770052179694176
1772656067622344200,8.89534423828125,-0.0006712684407830238,-0.0017429569270461798,-0.0006206776015460491
1772656067632326400,8.905326416015624,0.000417123781517148,0.0004527439596131444,0.001967907650396228
1772656067642309400,8.915309326171876,0.00012071384117007256,-0.0010426209773868322,-0.00003212643787264824
1772656067652291300,8.925291259765626,0.0012304807314649224,0.004144157748669386,-0.0004403432831168175
1772656067662274300,8.9352744140625,-0.00047713820822536945,0.0010056223254650831,0.0012718031648546457
1772656067672256500,8.945256591796875,0.00002294708974659443,-0.00032416009344160557,-0.0011523510329425335
1772656067682239200,8.9552392578125,0.00027035479433834553,0.0030175745487213135,0.0014860425144433975
1772656067692221400,8.965221435546875,-0.0009094879496842623,-0.0009251164738088846,0.001921138959005475
1772656067702204400,8.975204345703125,-0.0007859172765165567,-0.0012076778803020716,0.0018612176645547152
1772656067712186400,8.985186279296874,-0.002675676718354225,-0.0022469456307590008,0.0002546343021094799
1772656067722169300,8.99516943359375,-0.0004540677182376385,-0.00015742925461381674,-0.0008636270649731159
1772656067732151300,9.0051513671875,0.0005776933394372463,-0.00038957432843744755,0.001838003983721137
1772656067742133500,9.015133544921875,0.00033001950941979885,0.0013571931049227715,-0.0007820138707756996
1772656067752116500,9.025116455078125,-0.001575529109686613,-0.0005726127419620752,0.002101094229146838
1772656067762098400,9.035098388671875,-0.0007747167255729437,0.00042367575224488974,0.00036631105467677116
1772656067772081400,9.045081298828125,0.0018082524184137583,-0.0010998520301654935,-0.0025870706886053085
1772656067782063400,9.0550634765625,-0.0002610236406326294,-0.0017512611811980605,0.000034810975193977356
1772656067792046300,9.06504638671875,-0.001839375589042902,-0.001196626340970397,-0.00014340132474899292
1772656067802028500,9.075028564453126,-0.0003171125426888466,-0.0018917112611234188,0.0023823408409953117
1772656067812011500,9.085011474609376,0.0005819345824420452,0.0003181422362104058,-0.00025848811492323875
1772656067821993500,9.094993408203125,-0.0028703210409730673,-0.0009394024964421988,0.0013796223793178797
1772656067831976400,9.1049765625,-0.0015239319764077663,-0.001749961287714541,-0.002468676771968603
1772656067841958400,9.11495849609375,-0.001595837064087391,-0.0018120129825547338,-0.00027263443917036057
1772656067851941400,9.12494140625,0.00012057251296937466,0.00045495969243347645,-0.0019912589341402054
1772656067861920000,9.134919921875,-0.0021788005251437426,-0.0021754445042461157,0.00027562351897358894
1772656067871903000,9.144903076171875,-0.0016716455575078726,0.0000765679869800806,-0.0017998702824115753
1772656067881885000,9.154885009765625,0.0016573057509958744,-0.0019287923350930214,-0.000799320638179779
1772656067891867000,9.164866943359375,0.00010702619329094887,0.0015924228355288506,-0.0009240545332431793
1772656067901849900,9.174849853515624,-0.0014645049814134836,-0.0007064177189022303,0.0013561437372118235
1772656067911831800,9.184831787109376,0.0012103747576475143,-0.0003483991604298353,-0.00177296856418252
1772656067921815000,9.19481494140625,0.0008298091124743223,0.0009128740057349205,0.0000965707004070282
1772656067931796700,9.204796630859375,0.0003873170353472233,-0.001309699728153646,0.0007186774164438248
1772656067941780000,9.214780029296875,0.0011969179613515735,-0.00045748811680823565,-0.00047974521294236183
1772656067951762000,9.224761962890625,-0.0024563688784837723,-0.0006938617443665862,0.004401594400405884
1772656067961745000,9.234744873046875,0.0022984386887401342,-0.00014977797400206327,-0.0010203351266682148
1772656067971726800,9.244726806640625,-0.0007904190570116043,0.00047468498814851046,-0.0005737720057368279
1772656067981710000,9.2547099609375,-0.0018455635290592909,0.0009460645378567278,0.001512015936896205
1772656067991691800,9.26469189453125,0.00036102929152548313,0.0014715094584971666,-0.00018982728943228722
1772656068001675000,9.274675048828126,-0.00021075131371617317,0.0005223589250817895,-0.0013070236891508102
1772656068011656700,9.28465673828125,-0.0008450702298432589,0.00084639189299196,-0.0006217276677489281
1772656068021640000,9.294639892578125,0.0009634824236854911,0.0005893968045711517,-0.0035027354024350643
1772656068031622000,9.304621826171875,-0.0007067807018756866,0.001415861421264708,0.002640028949826956
1772656068041603800,9.314603759765625,-0.001845015911385417,0.00012156518641859293,0.0009827439207583666
1772656068051586800,9.3245869140625,0.0021628879476338625,0.00048337189946323633,0.0007841931656002998
1772656068061569000,9.334569091796874,-0.00019374326802790165,0.002008830662816763,-0.00023047113791108131
1772656068071551700,9.3445517578125,0.0017717537702992558,-0.0004577412037178874,0.0014782925136387348
1772656068081534000,9.354533935546876,0.0032852282747626305,0.0017348394030705094,-0.0013073738664388657
1772656068091517000,9.364516845703125,-0.0005967374891042709,-0.0005936321103945374,-0.0008669015951454639
1772656068101499000,9.374498779296875,-0.00011710217222571373,-0.0006479608127847314,0.0002830512821674347
1772656068111481900,9.38448193359375,-0.0005283979699015617,-0.0011847377754747868,0.0010428486857563257
1772656068121463800,9.3944638671875,-0.0018685006070882082,0.0012680335203185678,-0.0024147331714630127
1772656068131446800,9.40444677734375,-0.0003375215455889702,0.00042696145828813314,-0.0011399313807487488
1772656068141429000,9.414428955078124,-0.002514122985303402,-0.002513701096177101,-0.0030214544385671616
1772656068151411700,9.42441162109375,0.0012458544224500656,0.00189944077283144,-0.0008864970877766609
1772656068161394000,9.434393798828125,-0.0016716383397579193,0.00032151781488209963,-0.0009200531058013439
1772656068171377000,9.444376953125,-0.000109504209831357,-0.0017670574598014355,-0.000554919708520174
1772656068181358800,9.45435888671875,-0.0006256247870624065,0.00018157740123569965,-0.0020979554392397404
1772656068191340800,9.4643408203125,-0.0012449747882783413,0.0013215173967182636,-0.00046742381528019905
1772656068201323800,9.47432373046875,0.0007076547481119633,-0.0017126218881458044,0.0015097069554030895
1772656068211306000,9.484305908203124,0.0007610635366290808,0.000839361862745136,-0.0004140282981097698
1772656068221289000,9.4942890625,-0.00012843217700719833,0.0002566622570157051,-0.0011021890677511692
1772656068231271000,9.50427099609375,0.002223437884822488,-0.0017752725398167968,0.00024870550259947777
1772656068241254000,9.51425390625,0.001117427134886384,-0.00023037288337945938,-0.0005110944621264935
1772656068251235800,9.52423583984375,-0.0003312628250569105,0.0003510515671223402,-0.0003036842681467533
1772656068261218800,9.53421875,-0.00008199107833206654,0.0014906182186678052,0.0013741070870310068
1772656068271200800,9.54420068359375,0.00018014549277722836,0.0003082375042140484,-0.0017108418978750706
1772656068281184000,9.55418408203125,0.0007402081973850727,-0.0008630206575617194,-0.0011244136840105057
1772656068291166000,9.564166015625,-0.0005122250877320766,0.0006524166092276573,0.0008848863653838634
1772656068301149000,9.57414892578125,-0.0026845657266676426,0.001573870307765901,-0.002215565647929907
1772656068311131000,9.584130859375,0.0030962410382926464,0.0011533057549968362,0.0037839931901544333
1772656068321113900,9.59411376953125,-0.00006599631160497665,0.0008923159912228584,0.001084613148123026
1772656068331095800,9.604095703125,0.0008035055361688137,0.000944657891523093,-0.00001279544085264206
1772656068341077800,9.614077880859375,0.00037420401349663734,0.00009457685519009829,0.0004471326246857643
1772656068351061000,9.62406103515625,-0.0010590979363769293,0.0014543187571689487,-0.0014726030640304089
1772656068361043000,9.63404296875,-0.00013338332064449787,0.0007254115771502256,-0.0007926984690129757
1772656068371026000,9.64402587890625,0.0010164978448301554,0.002422754419967532,-0.0004217280074954033
1772656068381008000,9.6540078125,0.0009192924480885267,-0.0004356163553893566,-0.0006664725951850414
1772656068390990800,9.663990966796876,0.000046544941142201424,0.0028443983756005764,0.0011857007630169392
1772656068400972800,9.673972900390625,0.0012782569974660873,0.0038745091296732426,-0.003101190086454153
1772656068410956000,9.6839560546875,0.0005833390168845654,0.0018326016142964363,0.00047333259135484695
1772656068420937700,9.693937744140625,-0.0014968561008572578,-0.0027701398357748985,-0.0005991221405565739
1772656068430921000,9.7039208984375,-0.0007294178940355778,0.000868495786562562,0.00038394052535295486
1772656068440903000,9.71390283203125,0.00012785382568836212,0.0009883380262181163,0.0018167211674153805
1772656068450886000,9.723885986328124,-0.0004976980853825808,0.0020151690114289522,0.0008546723984181881
1772656068460867800,9.733867919921876,-0.0018524483311921358,-0.0014293633867055178,-0.0020439117215573788
1772656068470851000,9.74385107421875,-0.001853238558396697,-0.0007641068659722805,-0.0022502345964312553
1772656068480832800,9.753832763671875,-0.0002723860088735819,0.0006020948057994246,-0.0003529987297952175
1772656068490815000,9.76381494140625,-0.0013179185334593058,0.0021441145800054073,-0.0015002228319644928
1772656068500797700,9.773797607421875,-0.001512595685198903,0.00022131239529699087,0.001522731501609087
1772656068510780000,9.78377978515625,0.0015988770173862576,-0.0004990430315956473,-0.00256960466504097
1772656068520763000,9.793762939453124,-0.00024216622114181519,0.000846385897602886,0.0009015596006065607
1772656068530744800,9.803744873046876,0.0006886397022753954,0.0010380956809967756,-0.0017735585570335388
1772656068540727800,9.813727783203126,-0.001185692846775055,-0.0003483459586277604,-0.0002462356351315975
1772656068550710000,9.8237099609375,-0.0008241431787610054,0.0004546495620161295,0.00042048050090670586
1772656068560692700,9.833692626953125,-0.0015256195329129696,0.0008812880259938538,-0.002906074281781912
1772656068570675000,9.843675048828125,-0.00016277143731713295,0.0011205491609871387,-0.0010563642717897892
1772656068580658000,9.853657958984375,0.0014007703866809607,-0.001692547812126577,0.000771363265812397
1772656068590639900,9.863639892578124,-0.0007283969316631556,0.0008059870451688766,-0.0005981768481433392
1772656068600622800,9.873622802734374,0.0011560559505596757,0.00024406006559729576,-0.0004967101849615574
1772656068610604800,9.883604736328126,-0.001535182585939765,0.0005326091777533293,0.002605197951197624
1772656068620587800,9.893587890625,-0.0005247793160378933,0.0014471387257799506,0.0007172832265496254
1772656068630570000,9.903570068359375,0.0008221485186368227,0.000030193128623068333,0.0015549990348517895
1772656068640551700,9.9135517578125,0.00017952779307961464,0.00001368147786706686,-0.00047566136345267296
1772656068650535000,9.923534912109375,-0.00013782293535768986,-0.0007413992425426841,0.001902792602777481
1772656068660516900,9.933516845703124,0.0004169135354459286,0.0010304019087925553,0.000901444349437952
1772656068670499800,9.943499755859374,0.00019660010002553463,0.00011846574489027262,0.0014296327717602253
1772656068680481800,9.953481689453126,0.0011287066154181957,0.003192818956449628,-0.00031713442876935005
1772656068690465000,9.963465087890626,0.0007876127492636442,-0.0017906429711729288,0.0017839986830949783
1772656068700446700,9.97344677734375,0.00008720136247575283,0.0028848026413470507,0.0005717277526855469
1772656068710430000,9.983429931640625,0.0008698077872395515,0.001187175395898521,0.0011754098813980818
1772656068720412000,9.993411865234375,0.002370232716202736,0.00010699720587581396,0.0010057666804641485
1772656068730395000,10.003394775390625,-0.0017664199694991112,0.0029320227913558483,-0.0007402529008686543
1772656068740376800,10.013376953125,0.00009939074516296387,0.0014755399897694588,-0.0024723727256059647
1772656068750359800,10.02335986328125,-0.00026391749270260334,0.0021130270324647427,0.000157100148499012
1772656068760341800,10.033341796875,0.0010263841832056642,0.0005225873319432139,0.0005227518267929554
1772656068770325000,10.043324951171876,-0.000120226526632905,0.0012256779009476304,-0.003746715374290943
1772656068780307000,10.053306884765625,0.0010441074846312404,0.0019838798325508833,0.0008014305494725704
1772656068790289000,10.063288818359375,-0.0016300715506076813,0.0006058233557268977,-0.0017539132386446
1772656068800272000,10.07327197265625,-0.00042525772005319595,0.00118426198605448,-0.0020529860630631447
1772656068810253800,10.08325390625,-0.0006130242254585028,-0.002869428601115942,0.0013146810233592987
1772656068820236800,10.09323681640625,-0.0014295491855591536,-0.0016646143049001694,0.0002933586947619915
1772656068830218800,10.10321875,-0.0002245169598609209,0.0018668522825464606,0.0001869681291282177
1772656068840201700,10.11320166015625,0.0005557893309742212,-0.0017569109331816435,-0.0009014657698571682
1772656068850184000,10.123183837890625,-0.0007996696513146162,-0.0012394811492413282,-0.0003347550518810749
1772656068860167000,10.1331669921875,0.0011684064520522952,-0.0008623774629086256,-0.001940375193953514
1772656068870147800,10.14314794921875,-0.0020114965736865997,-0.0007339428411796689,-0.00040046870708465576
1772656068880131000,10.153131103515625,0.0010154523188248277,0.001029868726618588,-0.001607945654541254
1772656068890112800,10.16311279296875,-0.0008172101806849241,-0.0015944651095196605,0.003122165333479643
1772656068900096000,10.173095947265624,0.001221439684741199,-0.0010791433742269874,0.0004230514168739319
1772656068910078000,10.183077880859376,0.00003184471279382706,-0.000029589165933430195,0.0006163786165416241
1772656068920061000,10.19306103515625,0.00002252357080578804,0.00036056386306881905,0.00003820611163973808
1772656068930043000,10.20304296875,-0.0010023536160588264,-0.0004257091786712408,-0.000891237985342741
1772656068940025000,10.213025146484375,-0.0023104981519281864,-0.0008249171078205109,-0.0012755324132740498
1772656068950007800,10.2230078125,0.00010354863479733467,-0.000260041793808341,0.00002626189962029457
1772656068959990000,10.232989990234374,-0.0016155217308551073,-0.00015564588829874992,-0.0017093201167881489
1772656068969973000,10.242972900390624,0.0006145467050373554,0.0016337208217009902,0.000009967479854822159
1772656068979955000,10.252954833984376,0.00044303922913968563,0.0008640672313049436,0.0019516781903803349
1772656068989938000,10.26293798828125,-0.0017854284960776567,-0.001034528948366642,-0.00009187543764710426
1772656068999919900,10.272919921875,-0.00016542780213057995,0.0001367292134091258,-0.0016008228994905949
1772656069009902800,10.28290283203125,0.0021617228630930185,-0.0012691643787547946,-0.0015174001455307007
1772656069019885000,10.292885009765625,-0.00032780016772449017,0.00010609196033328772,0.000010455027222633362
1772656069029867800,10.30286767578125,-0.0014160689897835255,0.001837403979152441,0.000049587804824113846
1772656069039850000,10.31285009765625,-0.0014496245421469212,-0.0013791619567200541,0.000550528522580862
1772656069049833000,10.3228330078125,-0.0003682738170027733,0.0014380618231371045,0.0010020744521170855
1772656069059815000,10.33281494140625,-0.0011491123586893082,-0.0001238820841535926,0.0000633099116384983
1772656069069798000,10.3427978515625,0.000810645055025816,-0.0008131456561386585,-0.0008672880940139294
1772656069079780000,10.352780029296875,0.0011110496707260609,0.0003621074138209224,-0.002082222141325474
1772656069089762800,10.3627626953125,-0.000270867720246315,0.0012908116914331913,0.001208689296618104
1772656069099745000,10.3727451171875,0.0007443292997777462,-0.00011320679914206266,-0.0012544682249426842
1772656069109727000,10.38272705078125,-0.0018826154991984367,-0.0008776502218097448,0.0012620072811841965
1772656069119710000,10.3927099609375,-0.0008112259674817324,-0.0008816448971629143,0.0006026085466146469
1772656069129692200,10.402692138671876,0.000931356567889452,0.00019864249043166637,0.0007760715670883656
1772656069139675000,10.4126748046875,-0.0006910411175340414,0.0012194321025162935,0.002300198655575514
1772656069149657000,10.422656982421875,-0.00167111586779356,0.0016738006379455328,-0.0017762393690645695
1772656069159640000,10.43264013671875,-0.001095872838050127,-0.0014514189679175615,-0.0022566732950508595
1772656069169622000,10.4426220703125,0.00015848479233682156,-0.0017942669801414013,-0.001672692596912384
1772656069179605000,10.45260498046875,0.00023278710432350636,-0.0022105190437287092,0.00023812521249055862
1772656069189587000,10.4625869140625,0.0016201677499338984,-0.00021417217794805765,0.0010400123428553343
1772656069199570000,10.47256982421875,0.0004110925365239382,-0.001012854278087616,0.0009662425145506859
1772656069209552100,10.48255224609375,-0.00031257886439561844,0.0003332517808303237,0.0015313425101339817
1772656069219534800,10.492534912109376,-0.0014630644582211971,-0.0018121908651664853,0.0009033689275383949
1772656069229517000,10.50251708984375,-0.0011825074907392263,-0.0004892995348200202,-0.00039978139102458954
1772656069239500000,10.5125,-0.0006469455547630787,-0.0006283164257183671,0.0000425693579018116
1772656069249482000,10.52248193359375,-0.0011122748255729675,-0.0006875299150124192,0.0006017363630235195
1772656069259464000,10.5324638671875,0.002120003569871187,0.0012629693374037743,0.00030479393899440765
1772656069269447200,10.542447265625,0.0008283457718789577,-0.00026576092932373285,0.002107159234583378
1772656069279428900,10.552428955078126,-0.00027100695297122,-0.0007832130650058389,-0.00021618232131004333
1772656069289412000,10.562412109375,0.000694645568728447,0.00009708432480692863,0.0022835663985460997
1772656069299393800,10.572393798828125,-0.0006718223448842764,0.0009338496020063758,0.0017330909613519907
1772656069309377000,10.582376953125,0.0005441145040094852,-0.0005289745749905705,0.0007504555396735668
1772656069319359000,10.59235888671875,-0.001592006767168641,0.0008926208247430623,0.00031795818358659744
1772656069329342000,10.602342041015625,0.0001825815998017788,-0.00005737377796322107,-0.00219707190990448
1772656069339324000,10.612323974609374,0.0021016555838286877,0.001323475269600749,-0.002450338564813137
1772656069349307100,10.62230712890625,-0.0003933755215257406,-0.00008504523430019617,-0.000575752928853035
1772656069359288800,10.632288818359376,0.0012940034503117204,0.0008851443417370319,0.002937222830951214
1772656069369272000,10.64227197265625,0.0011339396005496383,0.0017002876847982407,0.002044747117906809
1772656069379254000,10.65225390625,0.0001935774926096201,0.0020382427610456944,0.0005152937956154346
1772656069389237000,10.662237060546875,-0.0007881165947765112,0.0003001291770488024,-0.002075514290481806
1772656069399219000,10.672218994140625,-0.0005455026403069496,0.000019165687263011932,0.0011551661882549524
1772656069409201000,10.682200927734375,0.002196189481765032,0.0013207538286224008,0.0001655425876379013
1772656069419183900,10.692183837890624,0.00010241218842566013,-0.00000763090793043375,-0.0008355393074452877
1772656069429166000,10.702166015625,-0.0001876566093415022,0.001298271119594574,0.0005522361025214195
1772656069439148800,10.712148681640626,-0.00016874819993972778,-0.0023622438311576843,-0.002259795553982258
1772656069449131000,10.722131103515625,0.000004270346835255623,0.0010946975089609623,0.002722120378166437
1772656069459114000,10.732114013671875,-0.00011131097562611103,0.0018150826217606664,-0.0010933903977274895
1772656069469096000,10.742095947265625,-0.0005973230581730604,-0.0008497878443449736,0.00014999648556113243
1772656069479079000,10.752078857421875,-0.00005723419599235058,0.0031944885849952698,-0.00035387370735406876
1772656069489060900,10.762060791015625,-0.0003689636941999197,-0.0025246699806302786,0.002035119803622365
1772656069499043800,10.7720439453125,0.00006060418672859669,-0.0008633898105472326,0.0008982163853943348
1772656069509026000,10.782026123046874,0.00014195311814546585,0.00042590172961354256,0.0029580933041870594
1772656069519008800,10.7920087890625,-0.0001768271904438734,0.0011239162413403392,0.002395367482677102
1772656069528991000,10.801990966796875,-0.0034505492076277733,0.0005538330879062414,0.00026251794770359993
1772656069538974000,10.811973876953125,-0.0015546446666121483,0.0006616911850869656,0.0009533418342471123
1772656069548956000,10.821955810546875,0.0009486419148743153,0.002080386271700263,0.00434013782069087
1772656069558938000,10.831938232421875,0.0005347868427634239,0.00023135356605052948,0.000113700982183218
1772656069568921000,10.841921142578125,-0.0014567498583346605,-0.0006550244288519025,0.00306982034817338
1772656069578903000,10.851903076171874,-0.00038749072700738907,0.0018470154609531164,-0.00018110033124685287
1772656069588886000,10.861885986328126,-0.00029441341757774353,-0.00010793609544634819,0.0009659263305366039
1772656069598868000,10.871867919921876,0.000009719515219330788,0.0024247299879789352,-0.0008551431819796562
1772656069608851000,10.881850830078125,-0.001698904437944293,-0.002574455924332142,0.0015741130337119102
1772656069618833200,10.891833251953125,-0.0017787993419915438,-0.00010064570233225822,0.002367468783631921
1772656069628816000,10.90181591796875,-0.0016013213898986578,0.0017205207841470838,-0.002269990276545286
1772656069638798000,10.911798095703125,0.0007507826667279005,0.0006422068690881133,-0.0019570686854422092
1772656069648781000,10.921781005859375,0.0002536557149142027,-0.0005933810025453568,0.001076126005500555
1772656069658763000,10.931762939453124,-0.00009708269499242306,0.0009344745194539428,0.0020319344475865364
1772656069668746000,10.94174609375,0.00022677727974951267,0.0007824484491720796,0.00215145037509501
1772656069678728200,10.951728271484376,-0.00539116095751524,0.07207287847995758,0.02317843772470951
1772656069688711000,10.9617109375,-0.0018778331577777863,0.045255303382873535,0.020312905311584473
1772656069698693000,10.971693115234375,0.0005570950452238321,-0.0048358263447880745,-0.0014110319316387177
1772656069708676000,10.981676025390625,-0.0003387453034520149,-0.002504116389900446,-0.003953429404646158
1772656069718658000,10.991657958984375,-0.00041704229079186916,0.021956751123070717,0.008582867681980133
1772656069728640000,11.001639892578124,0.0004302200395613909,0.002986626699566841,0.002145613543689251
1772656069738623000,11.011623046875,0.0003753590863198042,-0.03199665620923042,-0.011421594768762589
1772656069748605000,11.02160498046875,0.0008725631050765514,-0.04282639920711517,-0.015685126185417175
1772656069758588200,11.031588134765625,0.001162581262178719,-0.0466054268181324,-0.016719229519367218
1772656069768569900,11.04156982421875,-0.0004185093566775322,-0.017320340499281883,-0.009577369317412376
1772656069778553000,11.051552978515625,-0.0021058879792690277,0.024562394246459007,0.009948661550879478
1772656069788534800,11.06153466796875,-0.000853255158290267,0.008390712551772594,0.0009144339710474014
