time,seconds_elapsed,z,y,x
1772562035021841200,0.100841064453125,0.00921557211279869,-0.022848376145958898,0.36446474191918965
1772562035031823000,0.110822998046875,0.06272504398226737,0.0823189483769238,0.3231540957570076
1772562035041805000,0.12080517578125,-0.08726385743319988,0.14317922140061853,0.2938581509068608
1772562035051788000,0.1307880859375,-0.36160160757303234,0.11904738131538033,0.31326047825217246
1772562035061770000,0.14077001953125,-0.5437830520629883,0.09468845447599887,0.3523113627888262
1772562035071753000,0.1507529296875,-0.6498989094823598,0.10673004379495978,0.48252793450281023
1772562035081735200,0.160735107421875,-0.7107359477609395,0.17293708467409014,0.47864729367718095
1772562035091717000,0.170717041015625,-0.617660189178586,0.2826912985958159,0.30937822999134656
1772562035101700000,0.1807001953125,-0.5631506003558635,0.38789939352050423,0.2105858473278582
1772562035111682300,0.190682373046875,-0.5680284355252981,0.3791097917348146,0.11747194869220257
1772562035121665000,0.2006650390625,-0.5046300223261118,0.2594162214703858,0.12425795557051897
1772562035131647200,0.210647216796875,-0.48499300944209095,0.1253498424604535,0.12517360911071299
1772562035141629000,0.22062890625,-0.4274041593044996,0.06871288622021675,0.07330956636071205
1772562035151612200,0.230612060546875,-0.29918694471418855,0.05305383705645799,0.01418678465411067
1772562035161594000,0.240593994140625,-0.13871347416341304,0.09873962956294417,-0.06295739143341779
1772562035171577000,0.2505771484375,0.02684592134952545,0.1036126424267888,-0.12032046999111772
1772562035181559000,0.26055908203125,0.1651718575000763,0.06991451709493994,-0.18436828700974583
1772562035191542300,0.270542236328125,0.24458850856423375,0.03433174706026911,-0.23757409975752233
1772562035201524000,0.28052392578125,0.22123919715881346,-0.047589141909778115,-0.2808078229367733
1772562035211506200,0.290506103515625,0.2896136452049017,-0.07805120792984963,-0.31815672586113214
1772562035221489200,0.3004892578125,0.3249047388166189,-0.10403262140452861,-0.3108325204528868
1772562035231471000,0.31047119140625,0.20816051987707615,-0.1494553790606558,-0.28307123782411214
1772562035241454000,0.3204541015625,0.08269991051852703,-0.19034560785368085,-0.24133710555285215
1772562035251436000,0.33043603515625,-0.07510638664960861,-0.2106494140833616,-0.25711466652974485
1772562035261419000,0.3404189453125,-0.1871791066467762,-0.155721453718096,-0.33358328144326804
1772562035271401200,0.350401123046875,-0.2536982822149992,-0.07784326426759362,-0.44878611615970726
1772562035281383000,0.3603828125,-0.2942658549249172,0.0051158817090094085,-0.6019613925263285
1772562035291366100,0.3703662109375,-0.30132337222099304,0.07657850502878427,-0.6989252445884049
1772562035301348000,0.38034814453125,-0.3056798138648271,0.11446575261354446,-0.6998596028290689
1772562035311331000,0.3903310546875,-0.2969932340621948,0.11344780774265527,-0.671318129608035
1772562035321313000,0.40031298828125,-0.23495675686597822,0.0738506875000894,-0.671290364818275
1772562035331295000,0.410294921875,-0.1585357804864645,0.052085430415719745,-0.6856400849491358
1772562035341278000,0.42027783203125,-0.10378712221086024,0.023436697427928446,-0.7483763809777796
1772562035351260200,0.43026025390625,0.12736731976270674,-0.004176847293227911,-0.8178497301764786
1772562035361243100,0.4402431640625,0.33891105233728885,-0.018645517628639936,-0.8356840775527059
1772562035371225000,0.45022509765625,0.347514045509696,-0.048900955160707235,-0.7758177840024233
1772562035381208000,0.4602080078125,0.18793197084069252,-0.12456892121583223,-0.6417454136431217
1772562035391190000,0.47018994140625,0.0764835202217102,-0.21470906473770737,-0.4584720822632313
1772562035401172200,0.480172119140625,0.013741525104641914,-0.3329281785354018,-0.32093890392556784
1772562035411155000,0.490155029296875,-0.05312894811928272,-0.46478974097743625,-0.2347486670732498
1772562035421137200,0.50013720703125,-0.14008885416984557,-0.5637788152568042,-0.20472791507989166
1772562035431120100,0.5101201171875,-0.18973989704549313,-0.5653105548687279,-0.17063304551541805
1772562035441102000,0.52010205078125,-0.20170038395226,-0.5088584536761045,-0.2181650504104793
1772562035451084000,0.530083984375,-0.27188743437826635,-0.44083384198099373,-0.2584593591369688
1772562035461067300,0.5400673828125,-0.33641806647777556,-0.43311844529807564,-0.31114494740292425
1772562035471049000,0.550049072265625,-0.36813656229972835,-0.3793275261387229,-0.36800080709084865
1772562035481032200,0.5600322265625,-0.3354752326697111,-0.3177807321555912,-0.46017859392017124
1772562035491014000,0.570013916015625,-0.3687684304624796,-0.2875786322459578,-0.5139509545095264
1772562035500997000,0.5799970703125,-0.47827626840770243,-0.32880729921311136,-0.5101056772582233
1772562035510979000,0.58997900390625,-0.4359738347291946,-0.3726458564177155,-0.5000143452242016
1772562035520961000,0.5999609375,-0.22579145363569258,-0.3675710373714566,-0.47482364373579616
1772562035530944000,0.609944091796875,-0.053476738643646236,-0.2827978277102113,-0.4502262319654226
1772562035540926000,0.619926025390625,0.13590426196157931,-0.20046879633069037,-0.42152386909425255
1772562035550909000,0.629908935546875,0.2718564547181129,-0.20882950517982243,-0.3644134501233697
1772562035560891100,0.63989111328125,0.29288112256824966,-0.2851020129993558,-0.24200594472512602
1772562035570873900,0.649873779296875,0.23435996001660822,-0.3120239221945405,-0.13792553865611554
1772562035580856000,0.65985595703125,0.2739958048343658,-0.31452918301373717,-0.08394844927489757
1772562035590838300,0.66983837890625,0.3505588200330734,-0.2942094485625624,-0.009658055183291435
1772562035600821000,0.679821044921875,0.33128537976443767,-0.28899171391427514,0.03481894605532288
1772562035610803200,0.68980322265625,0.3089934684574604,-0.2705650997333228,-0.01376432145833969
1772562035620786200,0.6997861328125,0.3308656930476427,-0.18401318996176122,-0.028420477189868686
1772562035630768000,0.70976806640625,0.30984394780695435,-0.08652180689424276,-0.0431780474692583
1772562035640750000,0.71975,0.1923632312864065,-0.012178659702092408,-0.09661211601495742
1772562035650733000,0.729733154296875,0.06175532216727733,0.03243424287587404,-0.19143062661141155
1772562035660715000,0.739715087890625,-0.03623685002923011,0.05210179702863097,-0.2525400520905852
1772562035670698500,0.749698486328125,-0.11094576179385185,0.026894436666369436,-0.23501009448841212
1772562035680680200,0.75968017578125,-0.25648294449746606,-0.018105127141624686,-0.20559680686891077
1772562035690663400,0.769663330078125,-0.3087234193444252,-0.035734745725989336,-0.25568551050946114
1772562035700645400,0.779645263671875,-0.2539613170653581,0.033821021059155465,-0.3060496700905263
1772562035710627300,0.78962744140625,-0.2506160982906818,0.1162462062895298,-0.34174320702329275
1772562035720610300,0.7996103515625,-0.22734394377470016,0.1798272825792432,-0.36302667194008825
1772562035730592500,0.809592529296875,-0.18056699503064155,0.21074454502090811,-0.34407091931849715
1772562035740575200,0.8195751953125,-0.19360767838954923,0.2586906836748123,-0.2805691918753087
1772562035750557400,0.829557373046875,-0.2563537651598453,0.30222865049764513,-0.21559037761688232
1772562035760540400,0.83954052734375,-0.23557342745959758,0.30064123517572877,-0.2122911899410188
1772562035770522400,0.8495224609375,-0.16683774488568304,0.3338837256945669,-0.23904928687661886
1772562035780504600,0.859504638671875,-0.11039280408620834,0.3534584869973361,-0.23918898760825394
1772562035790487300,0.8694873046875,-0.06202127962708473,0.28980039994865653,-0.21967706240862606
1772562035800469500,0.879469482421875,-0.01374386319220066,0.19662059646993874,-0.1981507286466658
1772562035810452500,0.889452392578125,0.07584522231817245,0.16959347333461045,-0.18990487834885716
1772562035820434400,0.899434326171875,0.1310468850582838,0.13940993199497462,-0.13059300381094216
1772562035830416400,0.90941650390625,0.0894634133040905,0.049502866576611994,-0.06375745576992631
1772562035840399400,0.9193994140625,0.06717500912845134,-0.012356062095612286,-0.016139672287553548
1772562035850381300,0.92938134765625,0.04563187036216259,-0.06341463368162513,0.041125352723151445
1772562035860364500,0.939364501953125,-0.041615620458126064,-0.12193915723413229,0.08832154979258776
1772562035870346200,0.94934619140625,-0.11158990491628647,-0.1274494450882077,0.06845481980592012
1772562035880329500,0.95932958984375,-0.13724398613274097,-0.08704992242157458,0.04380860045775771
1772562035890311400,0.9693115234375,-0.22699206159710883,-0.06763298202902078,0.060700114025920626
1772562035900293400,0.97929345703125,-0.27758827636837957,-0.06579466068595648,0.021877046895772218
1772562035910276400,0.9892763671875,-0.2157914531469345,-0.021363398285210132,-0.02924903696849942
1772562035920258300,0.99925830078125,-0.18065934948921203,-0.007731763295829296,-0.03978182915970683
1772562035930241300,1.0092412109375,-0.18373451915085315,-0.006809241623431443,-0.01208645137399435
1772562035940223500,1.019223388671875,-0.2154652899324894,-0.015090893886983394,0.02442322424724698
1772562035950206200,1.029206298828125,-0.17873627247214316,-0.03355491746887564,-0.024127163910120725
1772562035960188400,1.0391884765625,-0.04794365443587303,0.0052064826019108295,-0.06868643660470843
1772562035970170400,1.04917041015625,0.033519407764077185,0.0522889901638031,-0.07790478519648313
1772562035980153300,1.0591533203125,0.07652560579776764,0.056679480207711457,-0.03465191892534494
1772562035990135600,1.069135498046875,0.1308159989118576,0.05298427895158529,0.014295797986537217
1772562036000118300,1.0791181640625,0.21983926723301409,0.0410892584964633,0.03000526216328144
1772562036010100500,1.0891005859375,0.27301322353780266,0.036934915295988316,0.03527940317392349
1772562036020082400,1.09908251953125,0.29080490081608296,0.045699090379476545,0.05683540142178535
1772562036030065400,1.1090654296875,0.2975450227260589,0.054379971093684434,0.07751958527117968
1772562036040047400,1.11904736328125,0.26254852814674373,0.09105842741057277,0.06379471904039383
1772562036050030600,1.129030517578125,0.2779267145425081,0.16915668935254216,0.05098258374035358
1772562036060012300,1.13901220703125,0.26469723061323164,0.20536650524437428,0.0685896982319653
1772562036069995500,1.14899560546875,0.2315419799864292,0.19498685778826474,0.059951487615704534
1772562036079977200,1.158977294921875,0.24429624761939048,0.22182634939700363,0.06104629711508751
1772562036089959400,1.16895947265625,0.2535147423416376,0.22822978669852018,0.048824821184575554
1772562036099942400,1.1789423828125,0.24437632711827753,0.21696458857953546,0.06571808831840753
1772562036109924400,1.18892431640625,0.24777941356003283,0.20061551132500172,0.09093217068240046
1772562036119907300,1.1989072265625,0.20782851144373415,0.19288652450814842,0.08227320953905581
1772562036129889500,1.2088896484375,0.10127893878221511,0.19246625326946376,0.08124547392651438
1772562036139871200,1.218871337890625,0.024750410374999046,0.2447629883483052,0.0572319995239377
1772562036149854500,1.2288544921875,-0.013585457760095596,0.34023893994018434,0.021069237644225358
1772562036159836400,1.23883642578125,-0.10654606553018092,0.39807036666199563,0.014116642027348279
1772562036169819400,1.2488193359375,-0.1814841098755598,0.4024117568671703,0.027627427116036413
1772562036179801300,1.25880126953125,-0.28200375472307204,0.3991995168223977,0.05543839410543441
1772562036189784300,1.268784423828125,-0.3742354636967182,0.410924149146676,-0.0020331132628023624
1772562036199766300,1.278766357421875,-0.3885632642567158,0.44677506859824057,-0.03369111106917262
1772562036209748200,1.288748291015625,-0.3963853361845016,0.45319355733841654,-0.05330941925272345
1772562036219731500,1.2987314453125,-0.3506324697911739,0.45668373754173514,-0.04251256929785013
1772562036229713400,1.30871337890625,-0.2708019772291183,0.4426350461840629,-0.012416560111194849
1772562036239696400,1.3186962890625,-0.19942776284515856,0.3907853242203593,0.023172931925207377
1772562036249678300,1.32867822265625,-0.10442308202683925,0.31478798008039593,0.056604223014414305
1772562036259661300,1.338661376953125,-0.03828326116502285,0.23475144355222582,0.07857537793442607
1772562036269643300,1.348643310546875,-0.01891220574080944,0.15631781217604876,0.07509440395087004
1772562036279625500,1.35862548828125,0.04600362628400326,0.09870704246759414,0.05454860565885901
1772562036289608400,1.3686083984375,0.07632102313637733,0.04533142611086368,0.05951967206969857
1772562036299590400,1.37859033203125,0.058770168876647946,0.00033040099814534183,0.08175166988298296
1772562036309573400,1.388573486328125,0.08848375461697577,-0.013123685467243193,0.0973188029795885
1772562036319555300,1.398555419921875,0.08800152405798435,-0.006455313619226217,0.08975801233649253
1772562036329538300,1.408538330078125,0.04832300914227962,0.01977598296329379,0.08160086323544383
1772562036339520500,1.4185205078125,0.01807867752611637,0.03303060133382678,0.06911503728032112
1772562036349502200,1.428502197265625,-0.03927753289937973,0.039867900007963177,0.05923749412745237
1772562036359485400,1.4384853515625,-0.07197685645222664,0.02768573317453265,0.05539499335512518
1772562036369467100,1.448467041015625,-0.07288228085935115,-0.004804769933223724,0.0818646287381649
1772562036379450400,1.458450439453125,-0.08594517605006695,-0.016977146025002002,0.104127021689713
1772562036389432300,1.468432373046875,-0.10694704754650593,-0.008902560640871525,0.11486585784703493
1772562036399414300,1.478414306640625,-0.10748013150990009,0.01505684548690915,0.14329349543005226
1772562036409397200,1.488397216796875,-0.06809738467037678,0.044835459287464616,0.14156827907264233
1772562036419379500,1.49837939453125,-0.039565702190995214,0.058136108756810426,0.15435922545418143
1772562036429362200,1.508362060546875,-0.01919979051053524,0.07126783140003681,0.16569968076646327
1772562036439344400,1.518344482421875,-0.020887889727950096,0.10345087599381804,0.18291078167781233
1772562036449327400,1.528327392578125,-0.09081307434737682,0.10328472564667462,0.2082562353365123
1772562036459309300,1.538309326171875,-0.13411971663236616,0.11583674870580433,0.1965947313763201
1772562036469291500,1.54829150390625,-0.12644026804566383,0.16223843439668417,0.15444646534621714
1772562036479274200,1.558274169921875,-0.1458475638270378,0.1663756803318858,0.13348229551166296
1772562036489256400,1.56825634765625,-0.18817396290302277,0.15414470592066645,0.1105411265157163
1772562036499239400,1.578239501953125,-0.16940204241573809,0.14802183912619948,0.09005056554228066
1772562036509221400,1.588221435546875,-0.14874211622476577,0.1282790277801454,0.08872925381064414
1772562036519204400,1.598204345703125,-0.14128770856559275,0.146033734048903,0.08582929458543657
1772562036529186600,1.6081865234375,-0.10717267299592495,0.1636003703996539,0.05664791602566838
1772562036539168300,1.618168212890625,-0.07178980944752693,0.1779061052583158,0.041081951972842215
1772562036549151500,1.6281513671875,-0.03609071955680847,0.23089871364682912,0.01073883615732193
1772562036559133200,1.63813330078125,0.0015858078867197036,0.2589453890882432,0.02647504221051931
1772562036569116400,1.648116455078125,-0.0051852936834096905,0.2392300502710044,0.05422098113968968
1772562036579098400,1.658098388671875,-0.0056564183264970775,0.2483179043509066,0.06662351272553205
1772562036589080300,1.668080322265625,0.03984042747914791,0.2935366638675332,0.07462123348116874
1772562036599063300,1.678063232421875,0.07817921822369098,0.3153887224525213,0.05932634145468473
1772562036609045200,1.688045166015625,0.09225684341490269,0.32800650422424077,0.07209039982929825
1772562036619028200,1.6980283203125,0.10778700550198554,0.3126397160053253,0.07440642168670893
1772562036629010400,1.708010498046875,0.10328501790761947,0.2967356060393154,0.08370616495162247
1772562036638993200,1.7179931640625,0.07876724724471569,0.2759649129502475,0.1036079662516713
1772562036648975400,1.727975341796875,0.02574234402179718,0.23571575853973625,0.10694076393619178
1772562036658957600,1.73795751953125,-0.017653730112314223,0.22593962993472813,0.08368409925028682
1772562036668940800,1.74794091796875,-0.030583354312181472,0.2584606743112206,0.02307034833356738
1772562036678923000,1.757923095703125,-0.04713233805298805,0.293088481708616,-0.001697159306704998
1772562036688905700,1.76790576171875,-0.07609656673073768,0.3625355274222791,-0.02688669175133109
1772562036698888000,1.777887939453125,-0.06947568728625773,0.39684053260609503,-0.04329655928239226
1772562036708871000,1.787870849609375,-0.07529168008863925,0.37561084370315073,-0.020430501349270342
1772562036718852900,1.797852783203125,-0.10511164881289005,0.3416090592496097,0.007676525977253913
1772562036728834800,1.807834716796875,-0.11112696357965468,0.30538492257148026,0.015183686736971139
1772562036738818000,1.817818115234375,-0.08535188633203505,0.2609200501620769,0.018988924238830803
1772562036748799700,1.8277998046875,-0.08247662315666675,0.23313509439677,0.026769202851504085
1772562036758783000,1.837782958984375,-0.07192892565727234,0.2135042189925909,0.012167115394771099
1772562036768764700,1.8477646484375,-0.045750528305768964,0.19623364297896623,0.007908142776042222
1772562036778748000,1.857747802734375,-0.035544191589951514,0.16772475685328245,0.0006336217284202575
1772562036788729900,1.867729736328125,-0.017678280031681058,0.12527443913668393,0.007778525047004222
1772562036798711800,1.8777119140625,-0.008045359289646148,0.08064487768486142,0.017852905946224927
1772562036808694800,1.88769482421875,0.015676292559504507,0.054938774020224804,0.0217743171736598
1772562036818677000,1.897677001953125,0.032706337815523144,0.036727556155622,0.04028261828869581
1772562036828659700,1.90765966796875,0.015095862323045729,0.03017681933790445,0.0300495396964252
1772562036838642000,1.917641845703125,0.03652385027706623,0.04770590015724301,0.03115560124218464
1772562036848623900,1.927623779296875,-0.004663315635919571,0.07762026916667819,0.03483984271287918
1772562036858606800,1.93760693359375,0.0031646015107631683,0.09071955084502696,0.011412936026602982
1772562036868588800,1.9475888671875,0.06270341667234897,0.1113997891716659,0.01017959483936429
1772562036878571800,1.95757177734375,0.06748539025187492,0.11345979044139384,0.01861468409895897
1772562036888554000,1.967553955078125,0.07645838578045368,0.10634981230571866,0.014108458720892668
1772562036898537000,1.977536865234375,0.11068798764050006,0.09629574354216455,0.0011833645656704902
1772562036908519000,1.987518798828125,0.05244271942079067,0.11066299932971596,-0.004478168327361345
1772562036918500900,1.9975009765625,-0.015042086309194564,0.12861688143238426,-0.01300970369875431
1772562036928483800,2.00748388671875,0.005557634127140045,0.1436312029518187,-0.03122866647839546
1772562036938465800,2.0174658203125,0.035225627160072326,0.15343305051997302,-0.02277311895266175
1772562036948449000,2.027448974609375,0.013802315381169319,0.13217676587104796,0.009438567213714123
1772562036958430700,2.0374306640625,0.0032768297135829924,0.08762772230952978,0.03117079881131649
1772562036968414000,2.0474140625,-0.004059504523873329,0.08865092787742614,0.022024930933862923
1772562036978396000,2.05739599609375,-0.0033399580776691433,0.09787643686234951,-0.005905424651503562
1772562036988377900,2.0673779296875,0.027810966989398,0.07172609656155109,-0.019607932920008897
1772562036998360800,2.07736083984375,0.02058627643287182,0.05431304333731532,-0.028398265358060597
1772562037008342800,2.0873427734375,0.02708031462728977,0.05026975929588079,-0.03270107711851596
1772562037018325800,2.09732568359375,0.0724058955192566,0.05510638567209243,-0.021090572693198917
1772562037028308000,2.107307861328125,0.04586977077126503,0.09205416044965385,-0.0035807810962200162
1772562037038290700,2.117290771484375,-0.002446224108338356,0.1254600248366594,-0.008464169223606585
1772562037048273000,2.12727294921875,-0.04834054479897022,0.14890782818049192,-0.017574673526734114
1772562037058254600,2.137254638671875,-0.10332067374289035,0.16439780438765883,-0.012823825737833977
1772562037068237800,2.14723779296875,-0.1419084708124399,0.19832038612514732,-0.011859072358906268
1772562037078219800,2.1572197265625,-0.20703473071753978,0.217936210090667,0.006758680479973554
1772562037088202800,2.16720263671875,-0.25405191795825954,0.22332316382601855,0.02466565470099449
1772562037098184700,2.177184814453125,-0.24977672485709188,0.24322452673465011,0.02067015532404184
1772562037108167000,2.1871669921875,-0.21323709248900413,0.2295619120851159,0.015570055706053972
1772562037118149600,2.197149658203125,-0.15803952140212058,0.19575857281312345,0.03085311116427183
1772562037128131800,2.2071318359375,-0.12569734072387218,0.1625850558772683,0.058521454812586304
1772562037138114800,2.21711474609375,-0.06627835254967213,0.14048136061877012,0.0685121029511094
1772562037148096800,2.2270966796875,-0.013915712627768516,0.12756971046701074,0.06614829642921685
1772562037158079700,2.237079833984375,0.017515782946348188,0.12725509155988693,0.055496261772513385
1772562037168061700,2.247061767578125,0.06659457889199256,0.13706161530315875,0.054695174522697926
1772562037178044000,2.2570439453125,0.04900339262187481,0.13269845165759325,0.06729498224630952
1772562037188027000,2.26702685546875,0.037426936596632,0.12844561651870606,0.06823898509815335
1772562037198008800,2.2770087890625,0.07706570402383804,0.12966332174539566,0.042956659803539514
1772562037207991800,2.28699169921875,0.09273673588633537,0.13069076509699223,0.034897418119013306
1772562037217974000,2.29697412109375,0.08958148672580718,0.115560415982455,0.005332300938665866
1772562037227956700,2.306956787109375,0.10097615644335746,0.11622983967661857,-0.013034107487648725
1772562037237939000,2.31693896484375,0.07577391064763069,0.13351546712890267,-0.00992035938128829
1772562037247920600,2.326920654296875,0.06067746380269527,0.12492109565436839,-0.005747896002233028
1772562037257903900,2.33690380859375,0.04654489355385303,0.11044307296872138,-0.014053513663262128
1772562037267885800,2.3468857421875,0.05063128608465194,0.12475026913210749,-0.009857669408619403
1772562037277868800,2.356868896484375,0.06480827999711036,0.13447948985546826,-0.013019932831823825
1772562037287850800,2.366850830078125,0.08319500055909157,0.12863456321954728,-0.018179215291142463
1772562037297834000,2.376833984375,0.0455137969404459,0.1086703642077744,-0.018158026372641325
1772562037307815700,2.386815673828125,0.028189737173914906,0.10615443586409092,-0.008491495621949435
1772562037317798000,2.3967978515625,-0.0014887772530317305,0.12426175496280192,-0.009922843599319458
1772562037327780600,2.406780517578125,-0.022307108876109122,0.13675021126642822,-0.022267215257138012
1772562037337762800,2.4167626953125,-0.0014624737679958342,0.1432639770746231,-0.030526071166992186
1772562037347745800,2.426745849609375,-0.0015016367346048355,0.14704437239617107,-0.03630187808945775
1772562037357727700,2.436727783203125,0.0012637363255023955,0.13534297481700777,-0.03282674932479858
1772562037367710700,2.446710693359375,0.00689502021074295,0.13071648406013844,-0.03016074498593807
1772562037377693000,2.45669287109375,0.0030757541835308073,0.12929331938922403,-0.04934665310159325
1772562037387675000,2.4666748046875,0.01949380502104759,0.14168445279821754,-0.038435529117286205
1772562037397657900,2.476657958984375,0.02100713219344616,0.12186740717217326,-0.020599428175389765
1772562037407639800,2.486639892578125,0.01750876868367195,0.11050210967957973,-0.0006118482880294322
1772562037417622800,2.496622802734375,0.04773556464314461,0.0970116367265582,0.02628653390109539
1772562037427605000,2.50660498046875,0.032331659284234045,0.06663710285946726,0.028470161550492045
1772562037437586700,2.516586669921875,0.0069265843927860254,0.06759016580060125,0.008737871598452329
1772562037447570000,2.52656982421875,0.027714520877599715,0.08622340846955776,0.00807400086224079
1772562037457551600,2.536551513671875,0.025767478463053703,0.10077157378196716,-0.006024813247472048
1772562037467534800,2.546534912109375,-0.015127426505088805,0.11035568694621324,-0.01512172741666436
1772562037477516800,2.556516845703125,-0.034224341163039206,0.11601765823066233,-0.00899812996983528
1772562037487499800,2.566499755859375,-0.05854454342722892,0.11986162030771375,-0.0013142974689602852
1772562037497481700,2.576481689453125,-0.05602759217023849,0.13530381185039878,-0.007338964585959911
1772562037507464000,2.5864638671875,-0.07075462118089199,0.14467662035152315,-0.02471899232342839
1772562037517446700,2.59644677734375,-0.08560790691971779,0.16636837380826472,-0.04969064423367381
1772562037527428900,2.606428955078125,-0.08649228853881359,0.19537717228010296,-0.05863850532099604
1772562037537411800,2.616411865234375,-0.09763386027812958,0.1790883007802069,-0.043781858581304546
1772562037547393800,2.626393798828125,-0.0732417618215084,0.18378332672864198,-0.05854556634053588
1772562037557376800,2.636376708984375,-0.03134147920310497,0.17343816606402396,-0.06519684092327951
1772562037567358700,2.646358642578125,-0.004101005578041076,0.13946926096677778,-0.05135463192313909
1772562037577341000,2.6563408203125,0.014989479339122772,0.122023620647192,-0.02723199805766344
1772562037587324000,2.666323974609375,0.04043897789418697,0.11332228166684508,-0.011301292345672845
1772562037597305900,2.676305908203125,0.06308043329119682,0.08933364944458007,-0.017261662054806948
1772562037607288800,2.686288818359375,0.05311491959393024,0.07703107110187411,-0.02718070626184344
1772562037617271000,2.69627099609375,0.046587563651800154,0.0746351158760488,-0.03798530113175511
1772562037627253800,2.706253662109375,0.05245324081480503,0.0729433633968234,-0.047886371290683745
1772562037637236000,2.716236083984375,0.05430091450810432,0.08777341439053415,-0.04961100312620401
1772562037647217700,2.7262177734375,0.05259001893699169,0.0781678200468421,-0.03842544611468911
1772562037657201000,2.736200927734375,0.043971243673563004,0.09105492027923465,-0.02839168948680162
1772562037667182300,2.746182373046875,0.04182897094786167,0.08917436722964048,-0.02719736513569951
1772562037677165300,2.756165283203125,0.0363204366594553,0.09007920711487531,-0.03698284609094262
1772562037687147300,2.766147216796875,0.03731178578436375,0.10372560128197074,-0.04837780806943774
1772562037697130500,2.776130615234375,0.02590834823846817,0.10471724266782402,-0.037214170628786084
1772562037707112200,2.7861123046875,-0.009082301121950149,0.08498466045483946,-0.023338790011405944
1772562037717094400,2.796094482421875,-0.019169979894161224,0.07715688943862914,-0.014252835627645254
1772562037727077000,2.8060771484375,-0.025886720928549763,0.057645402630418535,-0.005054360780119896
1772562037737059300,2.816059326171875,-0.05102876096963882,0.039381870056688785,0.016229834789037705
1772562037747042300,2.826042236328125,-0.052128831166028976,0.045716772166639566,0.01603855000063777
1772562037757024300,2.836024169921875,-0.03633855683803558,0.0825153477318585,-0.0014760639019310473
1772562037767006500,2.84600634765625,-0.016696867778897284,0.06739741970747709,0.000521539656072855
1772562037776989200,2.8559892578125,-0.01151040505170822,0.05771116134300828,0.013462415902316569
1772562037786971400,2.865971435546875,-0.026987375646829605,0.05403904870152473,0.025267712247371673
1772562037796954400,2.875954345703125,-0.03068272303342819,0.06184475401639938,0.002554068396985531
1772562037806936300,2.885936279296875,-0.008729834422469138,0.0794667738161981,-0.012616904988884925
1772562037816919300,2.895919189453125,-0.006676409024000168,0.09902940628975629,-0.014272709371894596
1772562037826901500,2.905901611328125,-0.02846680054962635,0.09202990279123187,-0.013564707233011722
1772562037836884200,2.91588427734375,-0.025400398716330527,0.07253171385601162,-0.00027326398342847823
1772562037846866400,2.925866455078125,-0.012762450939416884,0.036957711649686094,0.011189356403797864
1772562037856848100,2.93584814453125,0.0025426702201366423,0.02536591192483902,0.016069821921736
1772562037866831400,2.945831298828125,-0.016921908706426618,0.025444676249474284,0.01514028598666191
1772562037876813300,2.955813232421875,-0.010635375782847404,0.047627281963080165,0.017943360708653926
1772562037886796300,2.96579638671875,0.02658931623995304,0.08363821428194641,0.008905921641737221
1772562037896778200,2.9757783203125,0.037303602477908135,0.08597615571022033,0.008973287789523601
1772562037906760200,2.98576025390625,0.044083471876382826,0.0904760974779725,0.04415332224220037
1772562037916743200,2.9957431640625,0.04458090000450611,0.10044701800271869,0.05707914704978466
1772562037926725400,3.005725341796875,0.043942602100968356,0.10583382560759783,0.07063873971626163
1772562037936708000,3.0157080078125,0.052983986690640444,0.11583528740108012,0.060277943091094494
1772562037946690300,3.025690185546875,0.0645405689716339,0.14228738712742925,0.05169555431529879
1772562037956673300,3.03567333984375,0.05276186837255954,0.16966916891932488,0.05824877535104751
1772562037966655200,3.0456552734375,0.02077916865646839,0.16805676528662442,0.07069090829491614
1772562037976637400,3.055637451171875,0.004610124143958091,0.14955562456473706,0.083680007597059
1772562037986620400,3.065620361328125,-0.012623334729671478,0.12858312529325486,0.10266644761785865
1772562037996602400,3.075602294921875,-0.05462064798176288,0.12297770650163292,0.09958251012787223
1772562038006585300,3.08558544921875,-0.05321779544651508,0.13307707571163774,0.07690861376598476
1772562038016567300,3.0955673828125,-0.07090075165331364,0.13936024763435126,0.06566898847967385
1772562038026550300,3.10555029296875,-0.09155833975672721,0.1327533967152238,0.06348068465515971
1772562038036532500,3.115532470703125,-0.08077683350145816,0.128546446544677,0.05923106438666582
1772562038046514200,3.12551416015625,-0.06461714133918285,0.1204042027518153,0.05205079749375582
1772562038056497400,3.135497314453125,-0.0632119507163763,0.11977467267662285,0.0376098919481039
1772562038066479400,3.145479248046875,-0.04477028509676456,0.11516820179447532,0.020111790788918733
1772562038076462300,3.15546240234375,-0.024871406406164167,0.11601283592507243,0.022536679848283527
1772562038086444300,3.1654443359375,-0.02471533906161785,0.11895546524822712,0.01857756695896387
1772562038096427500,3.175427490234375,-0.0005114566534757614,0.10643339893594383,0.019894787037372588
1772562038106409200,3.1854091796875,0.033360417810082435,0.09168050483167171,0.022614713520556686
1772562038116391400,3.195391357421875,0.049072366204857824,0.080982292945683,0.03896656725406646
1772562038126374100,3.2053740234375,0.052587096327543256,0.06387947471439838,0.04257891253232956
1772562038136356400,3.2153564453125,0.06853109991252422,0.0380979677259922,0.055689446257054805
1772562038146339300,3.22533935546875,0.08282090654969215,0.043718584086745976,0.045700843945145606
1772562038156321300,3.2353212890625,0.10732464868724345,0.053971098031848665,0.05794672366455197
1772562038166304300,3.24530419921875,0.062166825577616686,0.04516702932938933,0.07707944028824568
1772562038176286200,3.2552861328125,0.04041384345293045,0.03036328182071447,0.07338628485873341
1772562038186268400,3.265268310546875,0.06412029773294925,0.0420695017054677,0.07755933275967836
1772562038196251400,3.27525146484375,0.053503042128682135,0.05094005977287888,0.08280424767583608
1772562038206233300,3.2852333984375,-0.0030927053183317185,0.04221270956844091,0.09812164379507303
1772562038216216300,3.29521630859375,-0.03550853575468063,0.05926408987343311,0.06522460571303963
1772562038226198500,3.305198486328125,-0.017812135544419287,0.08148600468412041,0.04600713341534138
1772562038236181200,3.31518115234375,-0.062033554586768146,0.08254340478256345,0.0664990095630288
1772562038246163500,3.32516357421875,-0.1212742635846138,0.0771282478660345,0.08275690140277146
1772562038256145200,3.335145263671875,-0.10910860949456691,0.10031856931746005,0.0610617869451642
1772562038266128400,3.34512841796875,-0.07380524092316627,0.13648907611221076,0.04023571040704846
1772562038276110300,3.3551103515625,-0.10989128430485724,0.14867109681516885,0.037325229787826535
1772562038286093300,3.36509326171875,-0.09594576106071472,0.13967603558525443,0.04652253559157252
1772562038296075300,3.3750751953125,-0.0688455726891756,0.14071063932999966,0.037422698812931775
1772562038306058500,3.38505859375,-0.08330489067435264,0.12192001414224504,0.0504993302680552
1772562038316040200,3.395040283203125,-0.0712292529553175,0.09852364872470498,0.07381926944851874
1772562038326022400,3.4050224609375,-0.045664603587985034,0.08658113586604595,0.0821867002993822
1772562038336005400,3.41500537109375,-0.03693944534063339,0.07219415246471762,0.07897475251555443
1772562038345987300,3.4249873046875,-0.022584172251820564,0.08394158114269375,0.08212576389238238
1772562038355970300,3.43497021484375,-0.011892682367563247,0.09888809812292457,0.07971139622703194
1772562038365952300,3.4449521484375,0.0020937574088573455,0.11106076647564768,0.050919309245795005
1772562038375935200,3.454935302734375,-0.00867313579916954,0.12782456201091408,0.04331935563609004
1772562038385917400,3.46491748046875,0.008251110994815826,0.1452276783630252,0.02964928833246231
1772562038395899400,3.4748994140625,0.07967851687073707,0.16792378655672072,0.039739743583649394
1772562038405882400,3.48488232421875,0.07044073292613029,0.1574948931314051,0.05640168617963791
1772562038415864300,3.4948642578125,-0.0017079729616641998,0.12076719084531068,0.06847016350552439
1772562038425847300,3.504847412109375,0.02846680054962635,0.13467325886189938,0.041419951755553484
1772562038435829500,3.51482958984375,0.07158113513290881,0.15777619429081677,0.014608371067047118
1772562038445811200,3.524811279296875,0.01139408519566059,0.1497057005599141,0.03302139511406421
1772562038455794400,3.53479443359375,-0.01736322273313999,0.11382599340528249,0.03532338844612241
1772562038465776400,3.5447763671875,0.024953823992609977,0.1308779582321644,0.0169271694034338
1772562038475759400,3.55475927734375,0.047923196169734,0.17819208259284494,-0.0015912147141993044
1772562038485741300,3.5647412109375,0.021132219877839087,0.1756548192001879,0.019566139604896306
1772562038495724500,3.574724609375,-0.01032791726887226,0.14359627776890993,0.04415814454779029
1772562038505706200,3.584706298828125,0.002655482944846153,0.14413053077608345,0.03394333226457238
1772562038515688400,3.5946884765625,0.012757774764299392,0.14628902398422358,0.005785305403172969
1772562038525671200,3.604671142578125,0.0024929858595132827,0.11368936141356825,0.021460282788425683
1772562038535653400,3.6146533203125,-0.03943652285337448,0.06973200013488531,0.03163695501834154
1772562038545636400,3.62463623046875,-0.0420107572555542,0.05690072174295783,0.032373890990763904
1772562038555618300,3.634618408203125,-0.010540683236718177,0.0674042878396809,0.02273103337660432
1772562038565601300,3.644601318359375,-0.02128068843781948,0.077832304482162,0.016312544636428356
1772562038575583200,3.654583251953125,-0.04757482112348079,0.07710545151233672,0.021354922717809675
1772562038585565400,3.6645654296875,-0.04220540304481983,0.08219912138953804,0.02710588745996356
1772562038595548400,3.67454833984375,-0.07089958260953426,0.10742927810549735,0.02615530873686075
1772562038605530400,3.6845302734375,-0.08160568554103374,0.11855462936237454,0.016744944704324007
1772562038615513300,3.694513427734375,-0.06851531782150268,0.14227248181924224,0.014868483307957649
1772562038625495600,3.70449560546875,-0.07137362986207008,0.1392673086538911,0.028982933378219604
1772562038635478300,3.714478271484375,-0.057113633841276164,0.15386267410889268,0.024458441691100594
1772562038645460500,3.72446044921875,-0.016049802047014235,0.1693238626129925,0.02810118210762739
1772562038655442200,3.734442138671875,0.02139993090331554,0.1477221255272627,0.03911737390160561
1772562038665425400,3.74442529296875,0.04173837005496025,0.12406564786881208,0.03564648292064666
1772562038675406800,3.75440673828125,0.07403203541636466,0.12700082453787326,0.05579129919633269
1772562038685390000,3.76439013671875,0.08630056535899638,0.1336972534365952,0.0664388038083911
1772562038695371800,3.774371826171875,0.0980026935905218,0.1304250998981297,0.07216010406464338
1772562038705355000,3.78435498046875,0.09894961905181407,0.12031360185891389,0.06158391112312674
1772562038715337000,3.7943369140625,0.1034796636968851,0.1283687518902123,0.03866583074182272
1772562038725319000,3.80431884765625,0.06016016193032264,0.13446297711208463,0.05178104064166546
1772562038735302000,3.814302001953125,-0.0013385551273822783,0.10657470710277557,0.050251200725883245
1772562038745283800,3.824283935546875,-0.00978548095524311,0.11033625159338116,0.023638942001760005
1772562038755266800,3.834266845703125,-0.021293547919392586,0.11949804769232869,0.01431917886212468
1772562038765249000,3.8442490234375,-0.05219546666145324,0.12208733353316784,0.006419950044900179
1772562038775231700,3.854231689453125,-0.03838789058327675,0.10308686498701572,-0.008731149596720934
1772562038785214000,3.8642138671875,-0.017694646644592284,0.1038259929165244,-0.016299246763437986
1772562038795196200,3.874196044921875,-0.038325931262969966,0.09623466100469232,0.0015559972703456878
1772562038805179000,3.884178955078125,-0.029962007543444632,0.07198387071490288,-0.003641279111802578
1772562038815161000,3.8941611328125,-0.01746434502005577,0.07875365711078047,-0.015155191294848918
1772562038825144000,3.90414404296875,-0.013950199419260024,0.08718757732659578,-0.013780249679833649
1772562038835126000,3.9141259765625,0.0017220014870166778,0.09398264429420232,-0.008370791851729155
1772562038845109000,3.92410888671875,0.0009551087677478789,0.09237360166236758,-0.006325549759715795
1772562038855091000,3.934091064453125,0.011941197684407233,0.10482947087064384,-0.022788462652266025
1772562038865073000,3.944072998046875,0.03469605032801628,0.11673106719702482,-0.011552198366820811
1772562038875056000,3.95405615234375,-0.0043634559065103525,0.09964388492628931,-0.0014399696752429008
1772562038885037800,3.964037841796875,-0.02592354580760002,0.09047185969427228,0.005935235267877578
1772562038895021000,3.97402099609375,0.005228548303246498,0.09262026989981531,0.0036260815426707267
1772562038905003000,3.9840029296875,0.0068646250724792475,0.08924626342207193,0.017884616258740424
1772562038914986000,3.993986083984375,-0.006538461858034134,0.08230696567818523,0.006616203269362449
1772562038924968000,4.003968017578125,-0.022711598023772237,0.0894506999529898,0.017122399714589117
1772562038934950000,4.013949951171875,-0.022599369820952415,0.10327771138399838,0.016966624630987644
1772562038944932900,4.023932861328125,-0.03223170604109764,0.10928981128036976,0.009542465979605912
1772562038954915000,4.0339150390625,-0.04243862727880478,0.12089739309623837,0.006739829649031162
1772562038964897800,4.043897705078125,-0.019616554617881775,0.13523673796355723,0.005252513700723648
1772562038974880000,4.0538798828125,-0.016695114213228224,0.12460720739960669,0.01937660838216543
1772562038984863000,4.063863037109375,-0.03818272339999675,0.10690379292666911,0.022268238170444963
1772562038994845000,4.073844970703125,-0.006624971097707748,0.089796298520267,0.02691518719345331
1772562039004827100,4.0838271484375,0.006738952866196632,0.09968480145856738,0.02387041267007589
1772562039014809900,4.093809814453125,-0.015755203014612196,0.082902301222831,0.017346563859283924
1772562039024792000,4.1037919921875,0.001419219148159027,0.07736220275238156,-0.007427227391302585
1772562039034775000,4.113775146484375,0.013829203388094902,0.0835753781788051,-0.020879852551966904
1772562039044757000,4.123757080078125,-0.013752631020545959,0.07180164601579309,-0.01769698473215103
1772562039054740000,4.133739990234375,-0.013422960674762724,0.07264306527599691,-0.03060658905729651
1772562039064722200,4.14372216796875,0.0405249026119709,0.0912692936822772,-0.02855024104937911
1772562039074704000,4.153703857421875,0.014027356308698653,0.09951879724189638,-0.006843143893033266
1772562039084687000,4.16368701171875,-0.015363573348522185,0.07517419118881224,-0.0028811083942651746
1772562039094668800,4.173668701171875,0.021986206358671188,0.08855974246263504,-0.003942746276408434
1772562039104652000,4.183652099609375,0.03283201002180576,0.08746157196238637,0.005209405211359262
1772562039114634000,4.193634033203125,0.016917232531309126,0.05010448573157191,0.021704759068787098
1772562039124617000,4.203616943359375,0.023759645771980285,0.0357398602925241,0.03290741334557533
1772562039134599000,4.213598876953125,0.038385552495718,0.030759733792394398,0.05704159151837229
1772562039144580900,4.223580810546875,0.009252396991848945,0.02095759396329522,0.06126330086663365
1772562039154563800,4.233563720703125,-0.003968903630971909,0.005262012181431055,0.0510036265283823
1772562039164546000,4.243546142578125,-0.0015823007553815841,0.00689414342790842,0.05121273923441767
1772562039174528800,4.25352880859375,-0.053904608666896815,0.028498364731669425,0.043391836350411175
1772562039184511000,4.263510986328125,-0.08170914591550826,0.05595671889111399,0.026049218013882637
1772562039194494000,4.273493896484375,-0.05716098011434078,0.08200432946979999,0.023845132098346947
1772562039204476000,4.283475830078125,-0.08606792564690112,0.0927741452872753,0.025659634174406528
1772562039214458000,4.2934580078125,-0.08468553137779235,0.08118468364998697,0.03760696933865547
1772562039224441000,4.303441162109375,-0.07776596124768256,0.05306143584102392,0.032788170880079265
1772562039234423000,4.313423095703125,-0.06284545549154281,0.04965937231257558,0.019257512047141788
1772562039244406000,4.323406005859375,-0.0448427658110857,0.05391366875618696,0.019145429974794386
1772562039254388000,4.333387939453125,-0.03038520139157772,0.04043956241607666,0.04734203528091311
1772562039264371000,4.343370849609375,0.026722587230801582,0.0432630954042077,0.05595262723788619
1772562039274353200,4.353353271484375,0.05335983426570892,0.04564283014759421,0.07031681428551674
1772562039284334800,4.3633349609375,0.06991700131297111,0.04914280109256506,0.0801331287704408
1772562039294318000,4.373318115234375,0.07817512657046317,0.060880439028888934,0.07843553107231854
1772562039304300000,4.383300048828125,0.059815878537297244,0.07256210899427533,0.07030950776189565
1772562039314283000,4.393282958984375,0.04066109621226787,0.08011193985193968,0.04458338422253728
1772562039324265000,4.403264892578125,0.009130816438794136,0.07231383332163095,0.03139876234829426
1772562039334248200,4.413248291015625,0.006739537388086319,0.07656593780815601,0.022478812181204556
1772562039344230000,4.42322998046875,-0.030413258442282674,0.08003624426722526,0.03660290686264634
1772562039354212000,4.433212158203125,-0.03630991526544094,0.09628872927948832,0.018323153806477786
1772562039364194800,4.44319482421875,0.007266776132583618,0.12051204704046249,0.009838672447204589
1772562039374177000,4.453177001953125,-0.009326046749949454,0.11700623087659477,0.012214900059252977
1772562039384160000,4.463159912109375,-0.002555529701709747,0.11434241849482059,0.004750847788900137
1772562039394142000,4.473141845703125,0.025037995144724844,0.12226342075243592,-0.0003267477363348007
1772562039404125000,4.483125,0.037654315611720085,0.12078911041617393,0.0010929098032414913
1772562039414107000,4.49310693359375,0.052724458971619606,0.10765125029310584,0.017554361391067502
1772562039424088800,4.5030888671875,0.03870060979425907,0.09054653236567974,0.042987054941803216
1772562039434072000,4.513072021484375,0.03795943603813648,0.08006883136257528,0.05227028546333313
1772562039444054000,4.523053955078125,0.04345043466985225,0.08547931210398674,0.07680719921812415
1772562039454037000,4.533037109375,0.005559387692809104,0.09441752858012914,0.07867138565480708
1772562039464019000,4.54301904296875,0.011258476117253302,0.10234656801372766,0.04834361353889107
1772562039474002000,4.553001953125,0.026516251003742216,0.07958411658555269,0.064460197211802
1772562039483984000,4.56298388671875,-0.021648352706432342,0.05534472447261214,0.0867651141308248
1772562039493967000,4.572967041015625,-0.03368658102452755,0.07590396676808595,0.08730170522555708
1772562039503948800,4.58294873046875,-0.024188684839010238,0.09508870583996176,0.07180237666815519
1772562039513931000,4.592930908203125,-0.01787818651795387,0.11079466288536786,0.06305179171860217
1772562039523914000,4.6029140625,-0.03500233979821205,0.12951631449013948,0.053419747759401795
1772562039533896000,4.61289599609375,-0.06558978576362133,0.11004106803908943,0.049992403659224506
1772562039543879000,4.62287890625,-0.05643325036168098,0.09723258600085972,0.041615620458126064
1772562039553860900,4.63286083984375,-0.06079436818063259,0.09115297382622957,0.05338321514129638
1772562039563843800,4.64284375,-0.07597498617768288,0.062168286882340905,0.04972717685177922
1772562039573826000,4.652825927734375,-0.06406652171909809,0.05028714882209897,0.04623582760468125
1772562039583808000,4.66280810546875,-0.06434241605103015,0.07171250642761588,0.04403583334237337
1772562039593791000,4.672791015625,-0.032660160586237906,0.08386252455711364,0.03909150880798697
1772562039603773000,4.68277294921875,-0.01679331389069557,0.09224924463033675,0.032292642448097465
1772562039613756000,4.692755859375,-0.027442133677005768,0.09189429371282458,0.028830227034538983
1772562039623738000,4.702738037109375,-0.03409866895675659,0.08190291492193937,0.019272563485801218
1772562039633720800,4.712720947265625,-0.018149404674768447,0.07007452996224164,0.027282997592538594
1772562039643703000,4.722703125,-0.00658171647787094,0.06207447111904621,0.027383681488037107
1772562039653684700,4.732684814453125,-0.0005915361523628235,0.04855433368012309,0.0460464425124228
1772562039663668000,4.74266796875,0.004295651367306709,0.04392492031380534,0.0621007746040821
1772562039673653500,4.752653564453125,0.02082534588575363,0.04505640856176615,0.05110650238096714
1772562039683636700,4.76263671875,0.02026537391543388,0.06352423153594136,0.055931730580329894
1772562039693618700,4.77261865234375,0.01652151121199131,0.08582914845496416,0.06176335934326052
1772562039703601700,4.7826015625,0.017830255722999573,0.1023265481390059,0.056671296901255844
1772562039713583600,4.79258349609375,0.03590951777100563,0.10955226160883903,0.04080854185894132
1772562039723565800,4.80256591796875,0.024981296521425247,0.10304156454056501,0.04028758672475814
1772562039733548500,4.812548583984375,0.009103343909978866,0.11354776098579168,0.05569353791028261
1772562039743530800,4.82253076171875,-0.0062742579638957975,0.1312757253780961,0.051542994102090595
1772562039753513700,4.832513671875,-0.021855273455381394,0.12729483904838562,0.04625526295751333
1772562039763495700,4.84249560546875,-0.022526304584741592,0.14157090942114592,0.04528334918543696
1772562039773478700,4.852478759765625,-0.030194062733650207,0.1568197703488171,0.03086407094970345
1772562039783460600,4.862460693359375,0.0030465280890464783,0.1534719212256372,0.03403831707164645
1772562039793442800,4.87244287109375,0.014237784188985823,0.14184607310071587,0.03473389812037349
1772562039803425800,4.88242578125,0.009651040920615195,0.1335899936698377,0.04064063794612884
1772562039813407700,4.89240771484375,0.013192659050226211,0.12787833802476525,0.05134513344243168
1772562039823390700,4.902390625,0.026169629523158072,0.1298135438710451,0.05291676667332649
1772562039833372700,4.91237255859375,0.0496224013030529,0.11543708186373114,0.03954159066304564
1772562039843355600,4.922355712890625,0.05998597440719604,0.09162862851396203,0.03618395079821348
1772562039853337900,4.932337890625,0.01618950277864933,0.07046689028069376,0.045702597510814666
1772562039863319600,4.942319580078125,0.005361819294095039,0.040858226219564676,0.04540390682518482
1772562039873302800,4.952302734375,-0.004760930791497231,0.03579349017590284,0.025034780274331567
1772562039883284700,4.96228466796875,-0.04751286180317402,0.03585954114943742,-0.009480360528826713
1772562039893267700,4.972267822265625,-0.04057341792881489,0.06672668083906173,0.008061872033029794
1772562039903249700,4.982249755859375,-0.07106032612919808,0.08083134016767143,-0.01756824378594756
1772562039913233000,4.99223291015625,-0.08028057441711425,0.0904936331346631,-0.061794485133886336
1772562039923214600,5.002214599609375,-0.011191840621829032,0.11505232032984494,-0.0631627047471702
1772562039933196800,5.01219677734375,-0.06153086576163769,0.09199600052163004,-0.04354921886920929
1772562039943179500,5.022179443359375,-0.08886778549849987,0.036006548404693604,-0.010314765526354313
1772562039953161700,5.03216162109375,-0.03950783452391624,0.016949527365714312,-0.0054375148788094515
1772562039963144700,5.042144775390625,0.009607201778888701,0.008947130434960126,0.014486498253047465
1772562039973126700,5.052126708984375,0.02479074238538742,0.003471475502848625,0.021013561934232712
1772562039983109600,5.062109619140625,0.05448270081579685,0.010478870046883821,0.030462942802906033
1772562039993091800,5.072091796875,0.05667407338023185,0.016030220563709736,0.04661299035400152
1772562040003073800,5.08207373046875,0.016616203758120535,0.03408274073526263,0.05635112503618002
1772562040013056800,5.092056884765625,0.01640343779027462,0.05238397497087717,0.034818799924850465
1772562040023038700,5.102038818359375,0.022130583265423772,0.0807176506601274,0.049900487592071295
1772562040033021700,5.112021728515625,-0.037521044620871545,0.09320216144099831,0.046276744136959314
1772562040043004000,5.12200390625,-0.027176760739088056,0.10957140470072627,0.040909079623967406
1772562040052986600,5.131986572265625,-0.008630465701222419,0.10873466161563992,0.06323854646235703
1772562040062968800,5.14196875,-0.030842297509312628,0.11117869376689195,0.07806742841228842
1772562040072951800,5.151951904296875,-0.028352234259247776,0.110595779312402,0.08699512349441647
1772562040082933800,5.161933837890625,0.01028524717092514,0.12964929322004318,0.06952230290696025
1772562040092915700,5.171915771484375,0.042561961397528644,0.12763254657015205,0.06617723026275635
1772562040102898700,5.181898681640625,0.030375849041342735,0.10498495369330048,0.09236395705118775
1772562040112880600,5.191880615234375,0.00547287845313549,0.08338818504363298,0.09637392334491014
1772562040122863900,5.20186376953125,-0.005394552519917488,0.06194309982433915,0.07422434311807155
1772562040132845600,5.211845458984375,-0.016373627173900604,0.07130684823617339,0.04246069298014044
1772562040142828800,5.221828857421875,-0.040244332104921336,0.10059110264852643,0.019466770883649585
1772562040152810800,5.231810791015625,-0.043623453149199486,0.12188377378508448,-0.007891191641241312
1772562040162792700,5.241792724609375,-0.026515081959962845,0.11601561240404844,-0.03317000980451703
1772562040172775700,5.251775634765625,0.0027881694138050077,0.1237524902664125,-0.04100990964993834
1772562040182757600,5.261757568359375,0.008983516922593117,0.10135887215062975,-0.044411388656497
1772562040192740600,5.27174072265625,0.022332243317365646,0.06863061476424336,-0.05140285497903824
1772562040202722800,5.281722900390625,0.07008885074853896,0.06263999604731797,-0.05411430589482188
1772562040212705500,5.29170556640625,0.0934282252818346,0.04351604725196957,-0.0463131306245923
1772562040222687700,5.301687744140625,0.09348317033946514,0.031807781540602445,-0.022944676127284763
1772562040232669700,5.311669677734375,0.10160101034343243,0.06659793989285827,0.0006580255173146725
1772562040242652700,5.321652587890625,0.1009311482578516,0.09406783835962414,0.025212328798323868
1772562040252635000,5.331634765625,0.09335106839239597,0.09170900027379393,0.053369771137833595
1772562040262617600,5.34161767578125,0.0874111569494009,0.08358239244148134,0.07093655361905693
1772562040272599800,5.351599853515625,0.06633271308541297,0.09239917449504137,0.08706789646968245
1772562040282582800,5.361582763671875,0.01948328362703323,0.1035788862876594,0.09844123113825917
1772562040292564700,5.371564697265625,-0.004027940341830253,0.09390037283822894,0.09199673117399215
1772562040302546700,5.381546630859375,-0.03014847002625465,0.0893082227423787,0.07864888156205416
1772562040312530000,5.391530029296875,-0.06194762986898422,0.10219883010610938,0.07378332135230302
1772562040322511600,5.40151171875,-0.0992623382627964,0.08675678469389676,0.07327756378725171
1772562040332494800,5.411494873046875,-0.07403378898203372,0.081811291115731,0.04695668922513723
1772562040342476500,5.4214765625,-0.060196986809372896,0.09537351413071155,0.0334708924472332
1772562040352459800,5.431459716796875,-0.06296703604459762,0.08134396586492657,0.03224500391408801
1772562040362441700,5.441441650390625,-0.0233276840955019,0.06415873004719615,0.029965806935727594
1772562040372424700,5.4514248046875,-0.00767184980213642,0.05079173734337091,0.05178104064166546
1772562040382406700,5.46140673828125,-0.041673488125205035,0.021127689833194015,0.06506108571439981
1772562040392388900,5.471388916015625,-0.06704290718138217,0.0042407063096761705,0.06900076325088739
1772562040402371600,5.48137158203125,-0.06987725382447242,0.02334405070841312,0.05578574623838067
1772562040412353800,5.491353759765625,-0.05010638542771339,0.05069660640582442,0.029702333693951366
1772562040422336800,5.501336669921875,-0.06183306357860565,0.04191825666651129,0.02675634336993098
1772562040432318700,5.511318603515625,-0.04866904610097408,0.048857846671342846,0.0061871642023324964
1772562040442301700,5.5213017578125,-0.014220248532295227,0.06396539943218231,-0.003416092053800821
1772562040452283600,5.53128369140625,0.007525719329714775,0.06703238578736782,-0.018485943152755497
1772562040462265900,5.541265869140625,0.045452422142028805,0.07748758269771933,-0.0062817106179893015
1772562040472248800,5.551248779296875,0.0532692333728075,0.07316402041018008,0.0011357260316610335
1772562040482230800,5.561230712890625,0.05631634598374367,0.06664060999080539,0.005039017080515623
1772562040492213800,5.5712138671875,0.07337327924668788,0.06634791065454483,0.007443886265158653
1772562040502195700,5.58119580078125,0.054847442474961275,0.05085895736068487,0.03626081542670727
1772562040512178700,5.5911787109375,0.0620136808425188,0.04003887266069651,0.051845776440948246
1772562040522161000,5.601160888671875,0.07388122876882552,0.037930502204597,0.06780775407403707
1772562040532142600,5.611142578125,0.06694120037257671,0.04344458945095539,0.058379269862920045
1772562040542125800,5.621125732421875,0.06425473776757716,0.03965834891051054,0.05612506119534373
1772562040552107800,5.631107666015625,0.021685762107372282,0.039003099872171876,0.05646349936947226
1772562040562090800,5.6410908203125,0.0030558804392814636,0.04775894551873207,0.045805181102454656
1772562040572072700,5.65107275390625,-0.003614683365821838,0.05517959703877568,0.04227466888874769
1772562040582055700,5.6610556640625,-0.023832711008191107,0.06621317835897207,0.054025166306644674
1772562040592037600,5.67103759765625,-0.026655367213487623,0.06402618970870971,0.048210488678514955
1772562040602019800,5.681019775390625,0.02032031897306442,0.06315422917976975,0.05302534161433577
1772562040612002600,5.69100244140625,0.010081833553314209,0.04623071303814649,0.07331234283968806
1772562040621984800,5.70098486328125,-0.01152268001139164,0.03582067044377327,0.06348302274271846
1772562040631967700,5.7109677734375,-0.036029344758391375,0.03269844677001238,0.06716419547349214
1772562040641949700,5.72094970703125,-0.025600889724493026,0.034751726038008926,0.05528451871797442
1772562040651932700,5.7309326171875,-0.05177168829143047,0.04017272817343473,0.03254354846924543
1772562040661914600,5.74091455078125,-0.08077157280445098,0.0430605585694313,0.025981413474678992
1772562040671894800,5.750894775390625,-0.07038228073716163,0.052260933113098144,0.01843888914063573
1772562040681876700,5.760876708984375,-0.09541852231621742,0.05286766683459282,0.028288959764689207
1772562040691858700,5.770858642578125,-0.11974807693064213,0.03757394385188818,0.019509148720651865
1772562040701841700,5.780841552734375,-0.10190379268229006,0.04534472398385405,0.016835545597225426
1772562040711823600,5.79082373046875,-0.07824702276289462,0.05371712327077984,0.007707505637407302
1772562040721806800,5.800806884765625,-0.08119885830581187,0.06099792792871594,0.0031983576498925683
1772562040731788500,5.81078857421875,-0.05829202997088432,0.07814575434550643,-0.006195347508788108
1772562040741771800,5.820771728515625,-0.03406944286227226,0.083963500713557,-0.004332768507301807
1772562040751753700,5.830753662109375,-0.023780688560009002,0.09206599701792001,0.009744710553437471
1772562040761735700,5.840735595703125,-0.026391747841238974,0.09263371390327811,-0.007624649659544229
1772562040771718700,5.85071875,0.008805822268128394,0.11468962449729442,-0.01716170881167054
1772562040781700600,5.86070068359375,0.037412323549389837,0.12154562787190079,-0.03231500041037798
1772562040791683600,5.87068359375,0.054180502998828886,0.12253069338649511,-0.0338826881185174
1772562040801665800,5.880665771484375,0.0730675742983818,0.14025032834187148,-0.02197743853032589
1772562040811648500,5.8906484375,0.0853852040797472,0.13509864466711877,-0.011369827537238596
1772562040821630700,5.900630615234375,0.1023947910696268,0.1250811085216701,-0.0031520342901349067
1772562040831612700,5.91061279296875,0.10810381636619568,0.11864581477716564,0.01429959737882018
1772562040841595600,5.920595703125,0.07143266657292842,0.12138064656853675,0.025186171443760393
1772562040851577900,5.930577880859375,0.06249883401095867,0.13341624453812836,0.015597089843451976
1772562040861560800,5.940560791015625,0.05619418090879917,0.1496225523211062,0.0016498130336403845
1772562040871542800,5.950542724609375,0.04121814557313919,0.14613529472723602,0.000013005612045526504
1772562040881525800,5.96052587890625,0.014947978284955024,0.12439809469357133,0.01896452044993639
1772562040891507700,5.9705078125,0.0064554597496986384,0.1048359006114304,0.006631985360383987
1772562040901489700,5.98048974609375,0.010789689561724661,0.10296601508632301,0.01806435673981905
1772562040911473000,5.990472900390625,-0.01987082163989544,0.09770853294953703,0.015375848308205604
1772562040921454600,6.00045458984375,-0.03372632851302623,0.08563260296955705,0.00942059316560626
1772562040931437800,6.010437744140625,-0.024400866284966467,0.09324483153894543,-0.006730331168323755
1772562040941419500,6.02041943359375,-0.03410743678510189,0.10916413907408713,0.010744827506691217
1772562040951402800,6.03040283203125,-0.04298340167999267,0.10353183227553964,0.012847937265783548
1772562040961384700,6.040384765625,-0.026036943054199218,0.10188640315607189,0.025358313140273092
1772562040971367700,6.05036767578125,-0.010505027401447296,0.10126680995300412,0.03659326225146651
1772562040981349600,6.060349609375,-0.008458616265654563,0.09170183988064527,0.03821297240778804
1772562040991331800,6.070331787109375,-0.02346563126146793,0.071408262784034,0.04156842031553387
1772562041001314600,6.080314453125,-0.050852235358953474,0.06801891260668635,0.0358060573965311
1772562041011296800,6.090296875,-0.053662032082676885,0.06812222685068846,0.03211377874985337
1772562041021279700,6.10027978515625,-0.0657043520539999,0.047384413117915386,0.031113077274709938
1772562041031261700,6.11026171875,-0.06723930653631686,0.04631663775593042,0.029110213019698856
1772562041041244700,6.12024462890625,-0.054551674398779865,0.05808876248374581,0.03492605969160795
1772562041051226600,6.1302265625,-0.03914776903986931,0.06756605427265167,0.04495294818729162
1772562041061208800,6.140208740234375,0.006857610809803009,0.06906535291969776,0.0341102132640779
1772562041071191800,6.15019189453125,0.04363631263077259,0.08519903385788202,0.03322612390592694
1772562041081173800,6.160173828125,0.058068742609024046,0.0987466438256204,0.03403159506991506
1772562041091156700,6.17015673828125,0.05706979469954967,0.10538096727356314,0.02070975668206811
1772562041101138700,6.180138671875,0.07621113302111625,0.11059840966090559,0.004094137445837259
1772562041111121700,6.19012158203125,0.09914718745052814,0.13659107518196106,0.00833659732118249
1772562041121104000,6.200103759765625,0.10500585035085677,0.13895093618109822,0.019012305114418267
1772562041131085600,6.21008544921875,0.07438859376907349,0.10891776309758425,0.0416543450333178
1772562041141068800,6.22006884765625,0.06471884814798831,0.08329305410608649,0.0619474837385118
1772562041151050800,6.23005078125,0.042536242434382435,0.08241086444407701,0.07376929282695055
1772562041161033700,6.24003369140625,0.012139935126900672,0.07736220275238156,0.08549787067398429
1772562041171015700,6.250015625,-0.0320242007702589,0.08162818963378668,0.06680412998944521
1772562041180999000,6.2599990234375,-0.0712117172986269,0.09623962944075465,0.05533318016529083
1772562041190980600,6.269980712890625,-0.08890344133377075,0.09081088239029049,0.05881663836687803
1772562041200962800,6.279962890625,-0.08722878611981869,0.0966382733695209,0.05832549384906888
1772562041210945500,6.289945556640625,-0.07036357603669166,0.12693009738922117,0.05027955003753304
1772562041220927700,6.299927734375,-0.08878595243394374,0.11580196965336799,0.05772489760741591
1772562041230910700,6.30991064453125,-0.11546879217624664,0.10185659253969788,0.06068637776151299
1772562041240892700,6.319892578125,-0.11396423283219337,0.09092968646436929,0.050430941206961864
1772562041250875600,6.329875732421875,-0.090182375228405,0.08560600722357631,0.035611265476793046
1772562041260857900,6.33985791015625,-0.09426818323731422,0.07635755575448275,0.038470454300194974
1772562041270840600,6.349840576171875,-0.0924345380693674,0.054245238798111675,0.027242957843095064
1772562041280822800,6.35982275390625,-0.050875616234540934,0.0514937481328845,0.01078150625526905
1772562041290804700,6.3698046875,-0.02151683528125286,0.06850012025237083,0.009785627085715532
1772562041300787700,6.37978759765625,-0.007880524116754531,0.07954685331508517,0.0070376435518264766
1772562041310770000,6.38977001953125,0.016814356678724288,0.10241481094434857,0.0018327683851122854
1772562041320752600,6.399752685546875,0.014670330387353896,0.11017930746600031,0.00929550548121333
1772562041330734800,6.40973486328125,0.0022907412856817246,0.11134674381017684,0.03173705439195037
1772562041340717800,6.4197177734375,0.0011053308933973312,0.10642360819429159,0.0339981311917305
1772562041350699800,6.42969970703125,0.007931377521157265,0.09409633380174637,0.03701835579574108
1772562041360681700,6.439681640625,-0.00805354259610176,0.0891461640484631,0.04649725501984357
1772562041370664700,6.449664794921875,-0.018565584260225296,0.09647197689190506,0.04389510969743132
1772562041380646700,6.459646728515625,0.0026607436418533323,0.09590455226749181,0.036487902180850504
1772562041390630000,6.4696298828125,-0.03793430159687996,0.09261793181225657,0.028956337632238864
1772562041400611600,6.479611572265625,-0.06477203963994979,0.10231588061451911,0.014386837270855903
1772562041410594800,6.4895947265625,-0.02909457705914974,0.12519538255110382,-0.00782543292865157
1772562041420576800,6.49957666015625,-0.004057750958204269,0.12524389786794782,0.0029493513248860835
1772562041430559700,6.509559814453125,-0.034950317350029944,0.09031696139350533,0.03392345852032304
1772562041440541700,6.519541748046875,-0.010198737931251525,0.08142185340672731,0.041834816166758534
1772562041450523600,6.529523681640625,0.030604981622099875,0.08878755986914039,0.03955211205706
1772562041460506600,6.539506591796875,0.0050350715577602385,0.08649111949503421,0.0613831278540194
1772562041470488800,6.54948876953125,-0.00009527706801891326,0.11690934637337923,0.06459083785414696
1772562041480471600,6.559471435546875,0.042030046477913856,0.14782996981590985,0.06228592191264033
1772562041490453800,6.569453857421875,0.01991641434729099,0.16580547922849653,0.06131517718434334
1772562041500436700,6.579436767578125,-0.005648235020041466,0.15092574387416244,0.06140899294763803
1772562041510418700,6.589418701171875,0.03629354865252971,0.1264927288852632,0.07179039396941661
1772562041520400600,6.599400634765625,0.0350000017106533,0.10313611095622181,0.08586188168078661
1772562041530383600,6.609383544921875,-0.020042086553573608,0.08101414938867092,0.07851371087506413
1772562041540365600,6.619365478515625,0.02843056019246578,0.09034589522704481,0.04947992409244179
1772562041550348800,6.629348876953125,0.09380465737879276,0.11934256486967205,0.04622983625531196
1772562041560330800,6.639330810546875,0.027860066828131674,0.12544541178941726,0.05137684375494718
1772562041570313700,6.649313720703125,-0.01824643530845642,0.13005685110762716,0.04842997664809227
1772562041580295700,6.659295654296875,0.014593758019804953,0.12385945777222514,0.029562121505662797
1772562041590277600,6.669277587890625,0.02353109771311283,0.11995967385470867,0.01825154987499118
1772562041600260600,6.679260498046875,-0.012973463341593742,0.10985124455541372,0.0035999972533434627
1772562041610242600,6.68924267578125,-0.011557751324772833,0.10344020846933126,-0.005871230120956897
1772562041620225800,6.699225830078125,-0.007117723050713539,0.09297595146968961,0.0068062459487468
1772562041630207700,6.709207763671875,-0.055282911282777784,0.08212430258765817,0.03920753640308976
1772562041640190700,6.719190673828125,-0.04997136087119579,0.07391220842897891,0.0006799450881779193
1772562041650172700,6.729172607421875,0.01259703124463558,0.09182882726117968,-0.005404416326805949
1772562041660155600,6.73915576171875,0.008424713996052742,0.09949176310449838,-0.009932269014790654
1772562041670137600,6.7491376953125,-0.006294131708145141,0.07519099619314074,-0.005149857043847441
1772562041680119600,6.75911962890625,0.03377893548309803,0.04826762569323182,0.005062397956103086
1772562041690102300,6.769102294921875,0.0319675021469593,0.050850774054229254,0.024339199225604534
1772562041700084500,6.77908447265625,-0.011834230178594588,0.05262903577312827,0.018271131358295677
1772562041710067500,6.7890673828125,-0.009044891721010207,0.08040127818733453,0.002879281763359904
1772562041720049400,6.79904931640625,-0.002336333993077278,0.09141060184910893,0.0051841246396303175
1772562041730032400,6.809032470703125,-0.05847556984424591,0.0783966603666544,0.026978607818484306
1772562041740014600,6.8190146484375,-0.0944996539056301,0.054790305460244416,0.017040347454324364
1772562041749996500,6.82899658203125,-0.07590718163847923,0.06732566964551806,0.015944149715453385
1772562041759979500,6.8389794921875,-0.07067278811633586,0.06459507563784718,0.01553279243558645
1772562041769961500,6.84896142578125,-0.08970131371319294,0.04208469927459955,0.018544468406960366
1772562041779944400,6.8589443359375,-0.057926703789830204,0.044917000091075895,0.02437332069091499
1772562041789926700,6.8689267578125,-0.014494389298558234,0.06499240439236163,0.024327727983519433
1772562041799909400,6.878909423828125,0.0003647416591644287,0.06618541356921195,0.038885245646163816
1772562041809891600,6.8888916015625,0.033111996006965634,0.04810542086884379,0.06986475966908037
1772562041819874600,6.89887451171875,0.042673605078458784,0.037257863640040155,0.06107135849110782
1772562041829856500,6.9088564453125,0.026696868267655372,0.03676701138317585,0.05007883983366191
1772562041839838500,6.91883837890625,0.03833060743808746,0.03759834764078259,0.05349990032352507
1772562041849821400,6.928821533203125,0.020658172625303266,0.02963321398049593,0.04766593347303569
1772562041859803400,6.938803466796875,0.007771803045272827,0.01569967343509197,0.04739288868531585
1772562041869786600,6.94878662109375,0.002119476372003555,0.012224252409487962,0.04609802656918764
1772562041879768300,6.958768310546875,-0.0008288520395755767,0.029390491265803575,0.043010947274044156
1772562041889751600,6.96875146484375,-0.04090250375270843,0.024852409444749354,0.030331279247254133
1772562041899733500,6.9787333984375,-0.02663841607868671,0.036099048993736504,0.017161781876906753
1772562041909715500,6.988715576171875,-0.009370470413565635,0.04080255050957202,0.022610767997801304
1772562041919698400,6.998698486328125,-0.04168050238788128,0.03232376823872327,0.040246743257716294
1772562041929680400,7.008680419921875,-0.05373568184077739,0.01885711455270648,0.034565044359490274
1772562041939663400,7.018663330078125,-0.046964580270648,0.018198066122084855,0.03842245044000447
1772562041949645600,7.0286455078125,-0.049151276659965513,0.029989772333204743,0.03653115680068731
1772562041959628300,7.038628173828125,-0.06172375798523426,0.03379676340073347,0.02026522778496146
1772562041969610500,7.048610595703125,-0.04974047472476959,0.03710618020966649,0.027537995266914365
1772562041979592400,7.058592529296875,-0.05259294154644012,0.037986762436479325,0.039210897403955454
1772562041989575400,7.068575439453125,-0.05116846170127391,0.05271349918618798,0.03856799639053642
1772562041999557400,7.078557373046875,-0.04718962119817734,0.05884688737466931,0.035689299149066205
1772562042009540600,7.08854052734375,-0.047886371290683745,0.05116933848410844,0.04030738740377128
1772562042019522300,7.098522216796875,-0.04492401435375214,0.040917116799950595,0.03500869647376239
1772562042029505500,7.108505615234375,-0.045669864284992215,0.04592062417566776,0.02473331310972571
1772562042039487500,7.118487548828125,-0.02110416282713413,0.059235594431310885,0.0002304477550089359
1772562042049470500,7.128470458984375,-0.010009937360882758,0.06894771788939834,0.0020069559082388877
1772562042059452400,7.138452392578125,-0.00665887336730957,0.06694982207044958,0.0071145081803202625
1772562042069434400,7.148434326171875,0.005119242709875106,0.059563218950480216,-0.0015787936240434645
1772562042079417300,7.158417236328125,0.029129648372530934,0.0682183807015419,0.006350318874791264
1772562042089399300,7.1683994140625,0.05687105725705623,0.08849573731571435,-0.010845511402189732
1772562042099382500,7.178382568359375,0.08560849144160747,0.0986513667576015,-0.008393295944482088
1772562042109364500,7.188364501953125,0.09544482580125331,0.10703384904712437,0.005982508475705981
1772562042119347500,7.198347412109375,0.1084860936820507,0.11069690159931778,0.03776997788064181
1772562042129329400,7.208329345703125,0.12134908238649368,0.09090469815358519,0.06183605925329029
1772562042139311600,7.2183115234375,0.12465922984778881,0.07520166371762751,0.07081789567545056
1772562042149294300,7.22829443359375,0.12032558455765247,0.06325958925038576,0.07913169664293528
1772562042159276500,7.238276611328125,0.08236381043195724,0.028612346500158307,0.09615750411525369
1772562042169259500,7.248259521484375,0.055336687296628946,0.011972177344560622,0.0892298968091607
1772562042179241500,7.258241455078125,0.04394610923230648,0.034795419049263,0.07725815785601735
1772562042189224400,7.268224365234375,-0.002601122409105301,0.05112959099560976,0.05568382023386657
1772562042199206400,7.278206298828125,-0.021621464699506758,0.07829393064454197,0.040697848026081916
1772562042209189400,7.288189453125,-0.045753450915217396,0.0859556974440813,0.058267041660100216
1772562042219171600,7.298171630859375,-0.04773439559936523,0.09116232617646455,0.05560410606116056
1772562042229153300,7.3081533203125,-0.03390869934260845,0.09949804671481251,0.05583090055435896
1772562042239136500,7.318136474609375,-0.01628010367155075,0.08966025105044245,0.06410824196897447
1772562042249118500,7.328118408203125,0.011029343536496162,0.07327727152630686,0.07052103162072598
1772562042259101400,7.338101318359375,0.009057166680693627,0.06656330697089433,0.07630304908826947
1772562042269083400,7.34808349609375,0.02019406224489212,0.04736205515563488,0.08058715614825486
1772562042279066600,7.358066650390625,0.023631635478138922,0.049776422820985315,0.08422039808407425
1772562042289048300,7.36804833984375,0.015717793613672256,0.0580893470056355,0.07829173868745565
1772562042299030500,7.378030517578125,-0.013037760749459266,0.05301029017567634,0.07232033612765372
1772562042309013200,7.38801318359375,-0.042889878177642816,0.05862301549091935,0.07366334823444486
1772562042318995500,7.397995361328125,-0.09217559487223624,0.05887728251293301,0.06918605668991804
1772562042328978400,7.407978515625,-0.10430383956134319,0.09184534000456332,0.05395056670047343
1772562042338960400,7.41796044921875,-0.10180910013616085,0.13272563192546366,0.03135908792503178
1772562042348943400,7.427943359375,-0.08833236344754695,0.16361761379539966,0.008249503559619188
1772562042358925300,7.43792529296875,-0.07923077310323715,0.18782573398724198,-0.005752718307822942
1772562042368908300,7.447908203125,-0.019306173494458196,0.18660919780433177,0.006680500677227973
1772562042378890500,7.457890380859375,0.002292494851350784,0.15497852639630436,0.0198442258939147
1772562042388872400,7.46787255859375,0.0312660758793354,0.10830986033231019,0.023147359092533588
1772562042398855400,7.47785546875,0.06839432179033755,0.07941051358431578,0.03333542949929833
1772562042408837600,7.487837646484375,0.09559504792690277,0.051019116358458995,0.05037358499653637
1772562042418820400,7.4978203125,0.12011281858980655,0.02571399471014738,0.05404796266034245
1772562042428802600,7.507802490234375,0.11601648918688297,0.007480418883264064,0.04751585747785866
1772562042438785500,7.51778564453125,0.13653437655866146,0.009590835165977477,0.03714804659001529
1772562042448767500,7.527767578125,0.12655132720470427,0.012482026562839746,0.019434037657827138
1772562042458749400,7.53774951171875,0.0926437969058752,0.013067571365833282,0.0014960107114166022
1772562042468732400,7.547732421875,0.08152619056403636,0.03017681933790445,0.010605053709819913
1772562042478714400,7.55771435546875,0.053503042128682135,0.026222090362757442,0.001822685382515192
1772562042488697600,7.567697509765625,0.051639001822471615,0.032238281912356614,-0.014279723634570836
1772562042498679300,7.57767919921875,0.025377017840743064,0.03582286240085959,-0.022095950343459844
1772562042508662500,7.58766259765625,0.017610475492477417,0.04743745847940445,-0.019990210235863923
1772562042518644500,7.59764453125,0.023306056785583496,0.04088087644279003,-0.02084580415189266
1772562042528627500,7.60762744140625,0.021734861946105955,0.04777838087156415,-0.009731924137100577
1772562042538609400,7.617609375,0.00400455946624279,0.03503317332789302,-0.006155746150761842
1772562042548591400,7.62759130859375,-0.002118307328224182,0.03250876941680908,0.002090907864645123
1772562042558574300,7.63757421875,0.01979483379423618,0.05485942517369985,-0.01866736413426697
1772562042568556500,7.647556640625,0.0230880301207304,0.08009674228280782,-0.0071234952043741934
1772562042578539300,7.657539306640625,0.001717325311899185,0.08093129341080785,0.0013582827411592006
1772562042588521500,7.667521484375,0.01936228759586811,0.10304901719465852,-0.007020473221316933
1772562042598504400,7.67750439453125,0.02924479918479919,0.13013576156273485,-0.005569909086823463
1772562042608486400,7.687486328125,0.015295768809318542,0.13135828909501432,-0.003138736417144537
1772562042618469400,7.697469482421875,0.011840075397491455,0.10899667355269194,0.021423165648430584
1772562042628451300,7.707451416015625,-0.0019195698857307434,0.09395268754735589,0.014854089456424116
1772562042638433500,7.71743359375,0.010669862574338912,0.10185571575686335,0.004827200960740447
1772562042648416500,7.72741650390625,0.006238602128624916,0.11217501132786273,0.03346197848841548
1772562042658398500,7.7373984375,-0.0012590601503849029,0.11590893715918063,0.02204137061201036
1772562042668381400,7.74738134765625,0.0055693245649337765,0.11118161637634039,0.04328318834416568
1772562042678363000,7.75736279296875,0.0005874444991350174,0.116980658043921,0.030678850575909015
1772562042688345900,7.767345947265625,0.02759878554344177,0.1255206689827144,0.029571619986370205
1772562042698328000,7.777328125,0.02987666734755039,0.11756649510785937,0.05924743099957704
1772562042708310000,7.78731005859375,0.022077391773462293,0.09072159667164087,0.044863881664350624
1772562042718293000,7.79729296875,0.017581833919882772,0.08965689004957675,0.04477160027101636
1772562042728275000,7.80727490234375,0.020219196686148643,0.10681202298998832,0.029523104669526217
1772562042738258000,7.8172578125,0.007746084082126617,0.08525777830779552,0.013150208147987723
1772562042748240000,7.827239990234375,-0.0006552490383386611,0.06632628334462642,0.01937931179590523
1772562042758223000,7.83722314453125,-0.0035801965743303297,0.08481105745360255,0.011451514471322297
1772562042768204800,7.847204833984375,-0.01402618726491928,0.08197992568090558,0.025728096300736067
1772562042778188000,7.85718798828125,-0.03954933557808399,0.05642959709987044,0.04332308196313679
1772562042788170000,7.867169921875,-0.062434536603093144,0.01383168760612607,0.04055149835795164
1772562042798152000,7.87715185546875,-0.051236850762367246,0.02131181422844529,0.02698978679962456
1772562042808135000,7.887135009765625,-0.030289924323558804,0.029471593677997586,0.0201851482860744
1772562042818116900,7.897116943359375,-0.024728198543190954,0.00231163794323802,0.023381387044116853
1772562042828099800,7.907099853515625,0.011004209095239638,-0.020692513286322354,0.03523666001074016
1772562042838082000,7.91708203125,0.024509587356448172,-0.011975684475898743,0.04880516663603485
1772562042848065000,7.92706494140625,0.025805472385883328,-0.003991115462779998,0.04892769703716039
1772562042858047000,7.937046875,0.040561142969131464,0.0007759528085589408,0.04660217669904232
1772562042868029000,7.94702880859375,0.03828793734014034,0.00915785057619214,0.06742167736589909
1772562042878012000,7.957011962890625,0.0027677111476659775,0.0011148293741047382,0.07003587845228612
1772562042887994000,7.966994140625,-0.010298106652498244,-0.008303571834415198,0.04136727172024548
1772562042897976800,7.976976806640625,-0.039919922456145285,-0.003790332193672657,0.05419971915595233
1772562042907959000,7.986958984375,-0.07499182035923004,-0.013538696008920669,0.06496127860173583
1772562042917942000,7.99694189453125,-0.07938450236022472,-0.011947481294721365,0.07837225657775998
1772562042927924000,8.006924072265624,-0.061352586585283274,0.016805004328489304,0.08646123581342399
1772562042937907000,8.016906982421874,-0.04523205738961696,0.043011604861170054,0.09034662587940692
1772562042947889000,8.026888916015626,-0.03955927245020866,0.04212839228585362,0.1053941920813173
1772562042957870800,8.036870849609375,-0.04846504796147346,0.05124254985079169,0.10894866969250142
1772562042967854000,8.04685400390625,-0.037924949246644975,0.067791095200181,0.08927702388651669
1772562042977835800,8.056835693359375,-0.02564823599755764,0.0674514879822731,0.08839709924682974
1772562042987819000,8.066819091796875,-0.033520576807856556,0.05469459000080824,0.09622859659008681
1772562042997801000,8.076801025390624,-0.044078211179375645,0.030438685144484043,0.10211115182265638
1772562043007784000,8.086783935546874,-0.043263387665152545,0.02387830371558666,0.10072970740161835
1772562043017766000,8.096765869140626,-0.025966800427436827,0.036795068433880807,0.09217822522073983
1772562043027749000,8.1067490234375,-0.014416063365340232,0.046173283762484786,0.0853926567338407
1772562043037730800,8.116730712890625,-0.01830605654120445,0.057874096819758414,0.06536876342408358
1772562043047713000,8.126713134765625,-0.023899346503615377,0.05473682170733809,0.07784289894141257
1772562043057695700,8.13669580078125,0.007275543960928917,0.0602908025726676,0.06893814634345471
1772562043067678000,8.146677978515624,0.04193067775666713,0.056471828806400295,0.07986899794153869
1772562043077661000,8.156660888671874,0.013185644787549971,0.05371946135833859,0.08737360141798853
1772562043087643000,8.166642822265626,0.018428221616148946,0.056149172723293304,0.08665405497178434
1772562043097625900,8.1766259765625,0.031816695499420164,0.05894552544355392,0.08440547232739627
1772562043107607800,8.18660791015625,0.014651625686883926,0.05467325495183468,0.07428937117829919
1772562043117590800,8.1965908203125,0.010590367597341537,0.06257248376905918,0.05569054223559797
1772562043127573000,8.206572998046875,0.014259411498904227,0.0673427669107914,0.061019847499579186
1772562043137555000,8.216554931640625,-0.010664017355442047,0.06737959178984165,0.04739661501236259
1772562043147538000,8.226537841796874,-0.002893383353948593,0.07644523403793572,0.027228417861089108
1772562043157520100,8.23652001953125,0.0010784428864717482,0.10698650277405977,0.01723426259122789
1772562043167502800,8.2465029296875,-0.022546178328990935,0.11259586708843708,0.016437047798931598
1772562043177485000,8.256485107421875,-0.01582651468515396,0.10809636371210217,0.019783874008804558
1772562043187468000,8.266468017578125,-0.013899930536746978,0.09688669517263769,0.018624328710138797
1772562043197450000,8.276449951171875,-0.016619710889458655,0.06902165990844368,0.0256047621820122
1772562043207432000,8.286431884765625,-0.007758359041810035,0.06859685862511396,0.02484400694258511
1772562043217415000,8.296414794921875,0.008397241467237472,0.07019903312474489,0.01413359316214919
1772562043227396900,8.30639697265625,0.03168751616179943,0.06550678365528582,0.029124387675523757
1772562043237380000,8.316380126953124,0.037226445588469506,0.06969035295024514,0.03691021924614906
1772562043247361800,8.32636181640625,0.04538403308093548,0.07514569574669003,0.0455529599070549
1772562043257345000,8.336344970703125,0.06029226387739181,0.0632248101979494,0.06160561149828136
1772562043267327000,8.346326904296875,0.049240123987197876,0.05953399285599589,0.0708059860419482
1772562043277310000,8.35631005859375,0.03183013950288296,0.043011020339280365,0.0703199560906738
1772562043287292000,8.3662919921875,0.03410159156620502,0.0441392937168479,0.07439582722745836
1772562043297273900,8.37627392578125,0.009865560454130172,0.037366000189632174,0.08184278223253787
1772562043307256800,8.3862568359375,-0.012680033352971076,0.028929011233896015,0.061558484420925375
1772562043317239000,8.396239013671876,-0.012138181561231613,0.03256079186499119,0.04839731648750603
1772562043327221800,8.4062216796875,-0.036382395979762075,0.05394172580689192,0.04793729776032269
1772562043337204000,8.416203857421875,-0.05391571458280086,0.07092544770315289,0.03679178049825132
1772562043347187000,8.42618701171875,-0.04419862268865108,0.08772329163849353,0.023174831621348858
1772562043357169000,8.4361689453125,-0.049046647241711615,0.09731573423966765,0.02365297052711248
1772562043367151900,8.44615185546875,-0.04655249233841896,0.09532572946622968,0.02989347235187888
1772562043377133800,8.4561337890625,-0.027384266009926793,0.091400226585567,0.02782945249415934
1772562043387116000,8.466115966796876,-0.0024690204620361326,0.08088993848711251,0.038909722500294446
1772562043397099000,8.47609912109375,-0.008336451190710067,0.0736906746327877,0.027856413566321132
1772562043407081000,8.4860810546875,0.018013211074471472,0.0831263192370534,0.01379267076998949
1772562043417064000,8.49606396484375,0.01651625051498413,0.06915785350874067,0.020751988388597965
1772562043427046100,8.506046142578125,0.021549568507075307,0.06603431466072797,0.036765623143687844
1772562043437028900,8.51602880859375,0.050879707887768744,0.0873139801852405,0.03465980997085571
1772562043447011000,8.526010986328124,0.04152735765278339,0.08254223573878407,0.02822539300918579
1772562043456992800,8.53599267578125,0.025084172374010085,0.07389774151220917,0.025111425707116723
1772562043466976000,8.54597607421875,0.0025000001221895216,0.06803118756636976,0.028295024179294703
1772562043476958000,8.5559580078125,-0.029320202508568764,0.061345426192134615,0.0335310251366347
1772562043486941000,8.56594091796875,-0.017242811223864556,0.05402282821908593,0.0391132822483778
1772562043496923000,8.5759228515625,-0.027643209207057953,0.06366261709332466,0.05455656976960599
1772562043506906000,8.585906005859375,-0.03604278876185417,0.07650164040029049,0.054309024749323725
1772562043516887800,8.5958876953125,-0.045133857712149617,0.06570654401108622,0.05005078278295696
1772562043526871000,8.60587109375,-0.07465221314132213,0.06309533859938382,0.044756621897593135
1772562043536853000,8.61585302734375,-0.08096504954993725,0.05280307716578245,0.04165682925134897
1772562043546835000,8.6258349609375,-0.07517419118881224,0.049000616142898794,0.022487726140022278
1772562043556818000,8.63581787109375,-0.06221241828501224,0.05362462268173694,0.02851020129993558
1772562043566800000,8.6457998046875,-0.06362228508293628,0.05511588415279984,0.040983240838721395
1772562043576782800,8.655782958984375,-0.05138531932234764,0.050492900527268646,0.05479417791776359
1772562043586765000,8.66576513671875,-0.018339958810806273,0.052907998844981194,0.061574120381474494
1772562043596747800,8.675747802734374,-0.03289338482022285,0.07717252539917827,0.05583579592518508
1772562043606730000,8.68572998046875,-0.03107844435274601,0.09373276118636131,0.030651012720912692
1772562043616713000,8.695712890625,0.0009229600638151168,0.09167349056899547,0.01973681999668479
1772562043626695000,8.70569482421875,-0.01271861179769039,0.09754778942987322,0.037320480547472834
1772562043636677000,8.715677001953125,-0.016253800186514854,0.10315276983007789,0.04364807613380253
1772562043646659800,8.725659912109375,0.011172551399469375,0.08867401649206877,0.046984380949661134
1772562043656642000,8.73564208984375,0.025668109741806982,0.0881950008034706,0.05718845264315605
1772562043666625000,8.745625,0.015521978780627249,0.09917246802225708,0.06363339099884033
1772562043676611300,8.755611328125,0.023984102177619933,0.1051606025211513,0.07105543075837195
1772562043686594600,8.765594482421875,0.052096682462096214,0.13415595698952673,0.06689400022998451
1772562043696576500,8.775576416015625,0.06489537375867366,0.1661502010129392,0.07303133394122123
1772562043706559500,8.7855595703125,0.03737608319222927,0.0911154182948172,0.09359671371653676
1772562043716541400,8.79554150390625,0.0005617255359888076,0.11364186901003122,0.09853994227237999
1772562043726523400,8.8055234375,0.04654372451007366,0.15848331964686513,0.07840477060787379
1772562043736506400,8.81550634765625,0.02939911296367645,0.13420257261022925,0.07806910891272127
1772562043746488600,8.825488525390625,-0.036707390150427816,0.12277443901449442,0.07221841012313962
1772562043756471300,8.83547119140625,-0.04288286391496658,0.12066007720902562,0.055654301878437396
1772562043766453500,8.84545361328125,-0.033920974302291865,0.13319865626469254,0.024889015128090976
1772562043776436500,8.8554365234375,-0.03282031958401203,0.10956102943718432,0.017396540480852127
1772562043786418400,8.86541845703125,-0.07302022802531719,0.07891732323989271,0.009712123458087444
1772562043796400600,8.875400634765626,-0.04677987135350704,0.04208557605743408,-0.012945187095180152
1772562043806383600,8.885383544921876,-0.007883446726202965,0.05551145934164524,-0.025668475067988035
1772562043816365600,8.895365478515625,-0.007205985856056213,0.06500716357007623,-0.030242870311439036
1772562043826348500,8.9053486328125,0.010698504146933555,0.05810176809579134,-0.030262524859979746
1772562043836330500,8.91533056640625,0.04327975427806377,0.06145502404645085,-0.031828532067686315
1772562043846313500,8.9253134765625,0.035520226192474365,0.06874079714044928,-0.02279606143683195
1772562043856295700,8.935295654296874,0.011388239976763725,0.041580987536162135,-0.01568169938698411
1772562043866278400,8.9452783203125,0.032874095597863195,0.015965630894899368,-0.007898717360571026
1772562043876260600,8.955260498046876,0.019604279658198356,0.01080284130424261,0.00785648565404117
1772562043886242300,8.9652421875,-0.04123217409849167,0.01198693652227521,0.008785364001989364
1772562043896225500,8.9752255859375,-0.039400867018103594,0.046034459813684224,0.0034894495509564874
1772562043906207500,8.98520751953125,-0.03195814979672432,0.0701572398096323,0.002584536600485444
1772562043916190500,8.9951904296875,-0.04349135120213032,0.08499035954326391,0.008698343305662274
1772562043926172400,9.00517236328125,-0.04406768978536129,0.08576265909001231,0.025403029064834118
1772562043936155600,9.01515576171875,-0.034815877315402026,0.09511442480310797,0.04027012413330376
1772562043946137300,9.025137451171876,-0.004548749345541,0.10534648048207164,0.038557328866049644
1772562043956120600,9.03512060546875,0.015343115082383155,0.11464724666029215,0.03365640508197248
1772562043966102500,9.0451025390625,0.030167174726724623,0.10271540132611989,0.05911430613920092
1772562043976084500,9.05508447265625,0.04169628447890281,0.07406213829368352,0.05933174828216433
1772562043986067500,9.0650673828125,0.07477963891327381,0.06497106934338807,0.07191613924093544
1772562043996049400,9.07504931640625,0.08661912978887558,0.05014861713424325,0.08164543302953242
1772562044006032400,9.085032470703124,0.07540566185712815,0.03481105500981212,0.09809073720015585
1772562044016014600,9.0950146484375,0.047291912528872486,0.006439239267259836,0.10036942272186279
1772562044025997300,9.104997314453126,0.018902268868684766,0.03714417413249611,0.07110540737994014
1772562044035979500,9.1149794921875,-0.005129764103889465,0.08249751981422304,0.08304492456391453
1772562044045962500,9.12496240234375,-0.06471592553853989,0.032231121519207956,0.06399272583052516
1772562044055944400,9.1349443359375,-0.05950023671686649,0.030649259155243632,0.053287645812332626
1772562044065926700,9.1449267578125,-0.06357669237554073,0.04847834583446383,0.0496845067538321
1772562044075909600,9.15490966796875,-0.07513035204708576,0.02845511011183262,0.04011383759304881
1772562044085891600,9.1648916015625,-0.09356266531646251,0.018887655821442605,0.032552097101882095
1772562044095874600,9.17487451171875,-0.07488251476585865,0.0197395964756608,0.03093041418418288
1772562044105856500,9.1848564453125,-0.08503449094593525,0.0020921499736607074,0.03336260976716876
1772562044115839500,9.194839599609375,-0.07994856598377227,-0.018803338538855314,0.023517215318232775
1772562044125821700,9.20482177734375,-0.048963645133376116,0.0002402384966611862,0.01590571740120649
1772562044135804400,9.214804443359375,-0.05025134685635566,0.01599792572930455,-0.00938691009171307
1772562044145786600,9.22478662109375,-0.05450841977894306,0.0212504394300282,-0.020228037579730154
1772562044155768300,9.234768310546874,-0.025895488756895065,0.03882935074046254,-0.025102584813535212
1772562044165751600,9.24475146484375,-0.016640169155597687,0.055651306203752755,-0.009165668556466697
1772562044175733500,9.2547333984375,-0.018663783937692642,0.052992462258040905,0.004119418017566204
1772562044185716500,9.264716552734376,-0.008289104917645455,0.043923751270025964,0.013210998424515128
1772562044195698400,9.274698486328125,0.003039513826370239,0.05283274165168404,0.02376439501233399
1772562044205681700,9.284681640625,-0.010437222862243651,0.05758139748349785,0.038345147420093414
1772562044215663400,9.294663330078125,-0.014331892213225363,0.06839826731309294,0.027699469438940284
1772562044225646600,9.304646484375,-0.005082417830824851,0.091779727422446,0.016768544775620103
1772562044235628500,9.314628662109374,0.03205342686474323,0.11272256220802664,0.015461188504099844
1772562044245610500,9.324610595703126,0.05049626152813434,0.12140826522782444,0.020555735164135693
1772562044255593500,9.334593505859376,0.039947394984960555,0.13566241602972148,0.038309637715294956
1772562044265575400,9.344575439453125,0.06788987939953804,0.1277666943438351,0.0363656640406698
1772562044275558400,9.354558349609375,0.08180909915864468,0.12220102304071187,0.048433264583721755
1772562044285540600,9.36454052734375,0.07778583499193191,0.11641396407186984,0.06060512921884655
1772562044295523300,9.3745234375,0.06365560283064842,0.10143120673447847,0.06563369797058403
1772562044305505500,9.384505615234374,0.03779810799658298,0.09191986654549837,0.05263780360147357
1772562044315487500,9.394487548828126,0.039353520745038985,0.09143500563800334,0.0499268641423434
1772562044325470500,9.404470458984376,0.009647533789277076,0.07367138541042804,0.051224502737447615
1772562044335452700,9.41445263671875,0.016226327657699584,0.07395385561361908,0.036215441915020345
1772562044345435400,9.424435302734375,0.018378537255525587,0.08155687796324491,0.03857011528238654
1772562044355417600,9.43441748046875,-0.033572014734148975,0.08904548015296458,0.040182591980323194
1772562044365400600,9.444400634765625,-0.054520694738626474,0.10327625007927417,0.029988822485134004
1772562044375382500,9.454382568359375,-0.026162615260481834,0.11101897316053509,0.030034195996820924
1772562044385365500,9.464365478515624,-0.03650631462037563,0.11786767001152038,0.04500518983118236
1772562044395347700,9.47434765625,-0.09144318894445895,0.08238792195990681,0.052452437097206706
1772562044405329400,9.484329345703125,-0.04088263000845909,0.06218465349525213,0.022089593667909503
1772562044415312600,9.494312744140625,0.018379706299304962,0.07799509382843971,0.03717084294371307
1772562044425294300,9.50429443359375,-0.002366144609451294,0.049329701966792344,0.048713615895062685
1772562044435277600,9.514277587890625,0.007788169658184051,0.02937690113186836,0.0417157928969711
1772562044445259500,9.524259521484375,0.08631050223112106,0.045050855603814124,0.03297930953800678
1772562044455242500,9.534242431640624,0.09185703044235706,0.05714855902418494,0.044832536678016184
1772562044465224400,9.544224365234374,0.029175825601816176,0.05527604315057397,0.06128682787269354
1772562044475207700,9.554207763671876,0.0514566309928894,0.06685381435006857,0.03555814705006778
1772562044485189400,9.564189453125,0.05242693732976913,0.09566372924894094,0.04916077514067292
1772562044495171600,9.574171630859375,-0.02625847685039043,0.09715849785134195,0.046717546707019206
1772562044505154600,9.584154541015625,-0.04876315412521362,0.09717530285567044,0.03987790994532406
1772562044515136500,9.594136474609375,-0.05080664265155792,0.10681406881660223,0.026112492508441207
1772562044525119500,9.604119384765625,-0.061709729459881776,0.09458630927577615,0.03206745539009571
1772562044535101400,9.614101318359374,-0.05851414828896522,0.08298793367967008,0.01800320113711059
1772562044545084400,9.62408447265625,-0.05771686043143272,0.06260623990818857,0.02597308403775096
1772562044555066600,9.634066650390626,-0.024884265887737272,0.06286795958429575,0.03650156538002193
1772562044565049300,9.64404931640625,0.0003805237501859665,0.05367576834708452,0.02756846347041428
1772562044575031600,9.654031494140625,0.0033159926801919937,0.053274055678397415,0.027249314518645405
1772562044585013500,9.664013427734375,0.004898293435573578,0.062138476265966885,0.03148088767379522
1772562044594996500,9.67399658203125,-0.007646130838990211,0.07519771819487214,0.04110635576173663
1772562044604978700,9.683978759765624,-0.004861468556523323,0.06745835611447691,0.03919423853009939
1772562044614961400,9.69396142578125,0.0024000468790531158,0.05616846194565296,0.038791868274286385
1772562044624943600,9.703943603515626,-0.0018108488142490385,0.05236921579316258,0.030630700585246085
1772562044634926600,9.713926513671876,-0.01090659393966198,0.041418052059412,0.02497837391197681
1772562044644908500,9.723908447265625,-0.02079144361615181,0.04578223861828446,0.01568352601788938
1772562044654891500,9.7338916015625,-0.019915829825401306,0.0696091044075787,0.02091689662672579
1772562044664873700,9.743873779296875,-0.023458032476902008,0.09153627405539154,0.026242621694132683
1772562044674855000,9.75385498046875,-0.037737902241945266,0.09354951357394456,0.018827669262513516
1772562044684838100,9.763838134765624,-0.014652210208773612,0.09782499893605709,0.02546360014565289
1772562044694819800,9.77381982421875,-0.017758944052457808,0.09802066763862967,0.04132357870899141
1772562044704803000,9.783802978515626,-0.010140285742282866,0.08073752440437675,0.04196019611209631
1772562044714784800,9.79378466796875,0.014202128353714942,0.06085545071810484,0.05164382412806153
1772562044724768000,9.80376806640625,0.009331307446956634,0.03305602803602815,0.0631829438176006
1772562044734750000,9.81375,-0.001180149695277214,0.04206482553035021,0.051156844328716394
1772562044744733000,9.82373291015625,0.003212532305717468,0.04913680974319577,0.04600296869687736
1772562044754715000,9.83371484375,-0.0066916065931320184,0.06474208289310336,0.01955773710273206
1772562044764697000,9.843697021484376,-0.011225158369541167,0.0745480221144855,0.008559665487334132
1772562044774679800,9.8536796875,-0.005168342548608779,0.0890907805994153,0.009838891642913222
1772562044784662000,9.863662109375,-0.003611760756373405,0.08322671087160706,0.015045666505768895
1772562044794645000,9.87364501953125,-0.026052725145220754,0.08504515847042203,0.010834551616758108
1772562044804627000,9.883626953125,-0.01052314758002758,0.07089198382496834,0.006228592191264033
1772562044814610000,9.89360986328125,-0.007735562688112259,0.06408405737578869,0.0026573826409876343
1772562044824592000,9.903591796875,-0.015095277801156043,0.0686193627178669,0.004635770041868091
1772562044834574800,9.913574951171874,0.005369418078660965,0.06596797142624855,-0.0074997081056237215
1772562044844557000,9.92355712890625,0.022995675662159917,0.059358490158617494,-0.008785437067225574
1772562044854539000,9.9335390625,0.014383330139517782,0.05459960519373416,0.01700439935810864
1772562044864522000,9.94352197265625,0.01672550935149193,0.027496786473691463,0.007602583958208561
1772562044874504000,9.95350390625,0.05555705204904079,0.017009148598462344,0.01629252476170659
1772562044884487000,9.96348681640625,0.0022357962280511855,0.02473243632689118,0.03376278806589544
1772562044894469000,9.97346923828125,-0.01999357123672962,0.0264898013882339,0.030566037851199507
1772562044904451800,9.983451904296874,0.03231646171510219,0.02946925559043884,0.0175327340811491
1772562044914434000,9.99343408203125,0.014353519523143768,0.04530307679921388,0.014244433125481008
1772562044924417000,10.0034169921875,-0.0451782813757658,0.04793707856461406,0.02914433448500931
1772562044934399000,10.01339892578125,-0.02974456540048122,0.04647168218716979,0.02619512929059565
1772562044944381000,10.023380859375,-0.004288052582740783,0.05344415154829621,0.023921631400659678
1772562044954364200,10.0333642578125,-0.03731061674058437,0.039243922890722746,0.04410013075023889
1772562044964345900,10.043345947265625,-0.07122691486775874,0.016883914783596993,0.03823211549967527
1772562044974329000,10.0533291015625,-0.041938861063122744,0.0017902444176375865,0.04265957655310631
1772562044984310800,10.063310791015626,-0.014574468797445296,0.010135463436692952,0.05178951620906591
1772562044994294000,10.0732939453125,-0.0446598104596138,0.008981471095979214,0.05139920171722769
1772562045004276000,10.08327587890625,-0.04319909025728702,0.015876783567667006,0.046373993966355914
1772562045014259000,10.093259033203125,-0.0019371055424213409,0.026010931830108164,0.04139883590228855
1772562045024241000,10.103240966796875,0.007011924588680267,0.032209055817872284,0.03655651043765246
1772562045034222800,10.113222900390625,0.017581249397993087,0.035289486176520585,0.04427344149053097
1772562045044205800,10.123205810546875,0.0387123002320528,0.024155659352242946,0.055611777910962695
1772562045054188000,10.13318798828125,0.03107844435274601,0.014458879593759775,0.06892265651337802
1772562045064170800,10.143170654296876,0.03449731288552284,0.0347657545633614,0.03952800052911043
1772562045074153000,10.153153076171876,0.07458090147078036,0.028208003482967613,0.04200666560232639
1772562045084136000,10.163135986328125,0.04072305553257465,0.01737199056148529,0.06948387059271335
1772562045094118000,10.173117919921875,0.006394084951281547,0.004099252012372017,0.05708543066009879
1772562045104100900,10.183100830078125,0.025679215657711026,0.0016901450440287588,0.05890862749926746
1772562045114083000,10.1930830078125,0.021173720932006836,0.011437485945969819,0.06940846726894379
1772562045124065000,10.20306494140625,0.0064162967830896376,0.013604746982455253,0.04573847254179418
1772562045134048000,10.213048095703124,0.010205167672038077,0.012254793678224086,0.03936016968153417
1772562045144030000,10.223030029296876,0.006061491996049881,0.03709083651006222,0.032033260859549044
1772562045154013000,10.233012939453126,-0.002339256602525711,0.04504544877633452,0.029878786239400504
1772562045163995100,10.2429951171875,0.019195698857307434,0.052580666586756704,0.030846316097304222
1772562045173977900,10.252977783203125,0.028534605088829993,0.0635704087652266,0.019953750682994723
1772562045183960000,10.2629599609375,0.012208324187994002,0.06963599241450429,0.031772271835803986
1772562045193943000,10.272943115234375,-0.0005593874484300613,0.07678279542922974,0.03900288067646324
1772562045203925000,10.282925048828124,0.00025602058768272397,0.06635813978761435,0.035694852107018234
1772562045213907000,10.292906982421876,-0.0012064531803131103,0.07174144026115536,0.04115530946999788
1772562045223890200,10.30289013671875,-0.03979775738120079,0.0680436086565256,0.04875891634151339
1772562045233872000,10.312871826171875,-0.04842763856053352,0.06676248280480504,0.05616152074821293
1772562045243855000,10.322855224609375,-0.033057050949335094,0.06455372071415186,0.04595796051137149
1772562045253836800,10.3328369140625,-0.016978022807836533,0.07187617255672812,0.0382323346953839
1772562045263820000,10.342820068359375,-0.03230184866786003,0.07693871664330362,0.03868650820367038
1772562045273802000,10.352802001953124,-0.005147884282469749,0.07436828163340688,0.031311449391022324
1772562045283785000,10.362784912109374,0.021890344768762587,0.09003302988559007,0.04159297023490071
1772562045293767000,10.372766845703126,0.021120529440045357,0.09827624983489512,0.04207520079389214
1772562045303750100,10.382750244140626,0.054871407872438424,0.10324307846203445,0.050758273465186354
1772562045313731800,10.39273193359375,0.07924538615047931,0.09335852104648946,0.06667538904324173
1772562045323714000,10.402714111328125,0.06850128929615021,0.07324453830048441,0.07343173143565654
1772562045333696800,10.41269677734375,0.05661152953803539,0.05835457381308078,0.08096227307096124
1772562045343679000,10.422678955078124,0.062034139108657835,0.04030950629562139,0.07498977453261614
1772562045353662000,10.432661865234374,0.062193129062652584,0.019460195012390612,0.0724653706215322
1772562045363644000,10.442643798828126,0.05758358944058418,0.02304448323994875,0.06328245866931974
1772562045373627000,10.452626953125,0.05700432824790477,0.008045651550590992,0.049878348825499415
1772562045383609000,10.462609130859375,0.05156885919570923,0.07059022439941763,0.028845497668907046
1772562045393591800,10.472591796875,-0.003370353215932846,0.0936024128049612,0.04391564102880657
1772562045403574000,10.482573974609375,0.001995557731389999,0.0515808418944478,0.03421951885744929
1772562045413556000,10.492555908203125,0.0018587796092033385,0.06222425485327839,0.057168578898906704
1772562045423539000,10.5025390625,0.004991816937923431,0.07225655017644167,0.02917779836319387
1772562045433521200,10.512521240234374,0.0015045593440532684,0.05202054848596453,0.027164047387987375
1772562045443503900,10.52250390625,-0.001807341682910919,0.021069676035642623,0.04124437599293888
1772562045453486000,10.532486083984375,0.03783317930996418,0.01152370292469859,0.0355420726981014
1772562045463469000,10.542468994140625,0.04655132329463958,0.020336539455503223,0.0370610258936882
1772562045473451000,10.552450927734375,0.029028526085615156,0.02659457693696022,0.030063349026069042
1772562045483434000,10.56243408203125,0.02925882771015167,0.0533097115136683,0.026748744585365056
1772562045493416200,10.572416259765625,0.013397241711616515,0.07234817398265003,0.03624072248674929
1772562045503398000,10.58239794921875,0.009295067089796065,0.07289426355808973,0.03478592056855559
1772562045513381000,10.592381103515624,0.0239244809448719,0.06187573367655277,0.042402094660699365
1772562045523362800,10.60236279296875,0.010958031865954398,0.05221621718853712,0.04893872988782823
1772562045533346000,10.612345947265625,0.002809212201833725,0.05236833901032805,0.036497912118211386
1772562045543328000,10.622327880859375,0.0265823019772768,0.0642589755512774,0.045360213813930746
1772562045553311000,10.63231103515625,0.015344284126162528,0.06370455653890968,0.049913200943171976
1772562045563293000,10.64229296875,-0.015072481447458267,0.0498182161360979,0.041290260961279274
1772562045573276200,10.652276123046875,-0.03366436919271946,0.048990825401246545,0.045865167661383745
1772562045583257900,10.6622578125,-0.012414660415053368,0.05974515138864517,0.02134352454096079
1772562045593241000,10.672240966796876,0.013939678025245665,0.07256824647411704,0.011520634184777737
1772562045603222800,10.682222900390625,0.013600655329227447,0.06593070815578103,0.007477642404288053
1772562045613205000,10.692205078125,0.00762742613852024,0.06344575947225094,0.008006196323037148
1772562045623188000,10.70218798828125,0.010199906975030898,0.07136778464317321,-0.0007276566874235868
1772562045633170000,10.712169921875,0.02812076359093189,0.09035919310003518,0.00957863327153027
1772562045643153000,10.72215283203125,0.01567395447194576,0.09626520227342844,0.01715359857045114
1772562045653135000,10.732135009765624,0.013772504764795303,0.09139774236753583,0.01971227007731795
1772562045663117800,10.742117919921874,0.039218496188521385,0.08974062281027435,0.039506300153955815
1772562045673100000,10.75210009765625,0.05832476319670677,0.08612652396634221,0.04159589284434914
1772562045683083300,10.762083251953126,0.07211947979331017,0.07644684147313237,0.03225355254672468
1772562045693065200,10.772065185546875,0.06816635825335979,0.048808746832609176,0.039218788449466226
1772562045703047200,10.782047119140625,0.0005132102191448212,0.04253068947643041,0.10320267338640987
1772562045713030400,10.792030517578125,-0.04474573517739772,-0.00033799978271126745,0.06848528800942004
1772562045723012000,10.80201220703125,-0.023566169026494024,-0.00258241770863533,0.038527956641092896
1772562045732995300,10.811995361328124,-0.015201660785079002,0.06176102125570178,0.03606675415933132
1772562045742977000,10.82197705078125,-0.06367255396544932,0.0942288741402328,0.007735270427167415
1772562045752960300,10.831960205078126,-0.06653320409357548,0.05713438436836004,0.04083462614826858
1772562045762942200,10.841942138671875,-0.10539572645127773,0.046695407940447325,0.029007848623767492
1772562045772925200,10.85192529296875,-0.058361003553867336,0.07088409277945756,0.025359043792635202
1772562045782907100,10.8619072265625,-0.00931669439971447,0.04787848024517297,0.028303426681458948
1772562045792890400,10.871890380859375,-0.04098199872970581,0.005178425551205873,0.042014702778309584
1772562045802872000,10.8818720703125,-0.018002105158567427,0.0181416597597301,0.04046316248737275
1772562045812855300,10.891855224609374,0.016256722795963286,0.030113106451928613,0.042429567189514635
1772562045822837200,10.901837158203126,0.037601124119758605,0.012552607581019401,0.01113660330325365
1772562045832819200,10.911819091796875,-0.003762567403912544,0.07872501553818582,0.06083791506141424
1772562045842802200,10.92180224609375,-0.031472412106394766,0.036896190720796584,0.02807641299255192
1772562045852784000,10.9317841796875,0.056792146801948544,-0.009817921920120716,0.042391719397157426
1772562045862767000,10.94176708984375,0.03126549135744572,0.02370966915041208,0.058097968703508376
1772562045872749300,10.951749267578125,-0.0075672203838825225,0.002682370951771736,0.04443016642220318
1772562045882732000,10.96173193359375,0.014807108509540557,0.007603314610570669,0.05131722252219915
1772562045892714200,10.97171435546875,0.015316811597347258,0.02518924018368125,0.04707783138677477
1772562045902697200,10.981697265625,-0.021142741271853446,0.03661810443177819,0.030502690291404722
1772562045912679200,10.99167919921875,-0.015904256096482276,0.046175037328153846,0.03344247007034719
1772562045922661400,11.001661376953125,0.011158522874116897,0.05412278146222233,0.0301501505266875
1772562045932644000,11.01164404296875,0.006529694029688835,0.05191241193637251,0.03983604356497526
1772562045942626300,11.021626220703125,0.012431027027964591,0.03513341883197427,0.04373838476575911
1772562045952609300,11.031609375,0.0266869313955307,0.01635010016784072,0.05795293420962989
1772562045962591200,11.04159130859375,-0.008674304842948913,0.027617490243911743,0.055602571691200135
1772562045972574200,11.05157421875,-0.03728840490877628,0.037084406769275664,0.036654783180356025
1772562045982556400,11.061556396484375,-0.046319852626323696,0.042301556895673276,0.023009558057039976
1772562045992539100,11.0715390625,-0.013037176227569579,0.07730024343207478,0.009506006426736711
1772562046002521300,11.081521240234375,0.016824878072738646,0.10338877054303884,0.019267887310683726
1772562046012504300,11.09150439453125,-0.020787351962924003,0.08344868305921554,0.03396715153157711
1772562046022486300,11.101486328125,-0.01626782871186733,0.08624313608333468,0.04802219956479967
1772562046032468200,11.11146826171875,-0.00589899491071701,0.08266863859742879,0.07040931487455963
1772562046042451200,11.121451171875,-0.012194880184531211,0.06671469814032316,0.06030556175038218
1772562046052433200,11.13143310546875,0.00908405468761921,0.06352715414538979,0.05398037731684744
1772562046062416400,11.14141650390625,0.011944120293855666,0.034961861657351254,0.08216485379375517
1772562046072398000,11.151398193359375,0.01196048690676689,0.038404549457132814,0.07758775513656437
1772562046082381300,11.16138134765625,0.002514028647542,0.05042947990223765,0.0823472976885736
1772562046092363300,11.17136328125,-0.01687222434580326,0.06519347992241382,0.07053272205851972
1772562046102346200,11.18134619140625,-0.017095511707663536,0.07850801178663969,0.07060995201319456
1772562046112328200,11.191328125,-0.04594809670448303,0.08009776519611478,0.06438618212752044
1772562046122310100,11.20131005859375,-0.050453591430187225,0.0886222863048315,0.04931063194014132
1772562046132293000,11.211293212890626,-0.02700315773785114,0.08994973551630973,0.04044175437316298
1772562046142275300,11.221275390625,-0.03941080389022827,0.08244096732139587,0.05517258277609944
1772562046152258000,11.231258056640625,-0.04601356315612793,0.06922916517928242,0.05791771676577627
1772562046162240300,11.241240234375,-0.021671149060130117,0.06952259516790509,0.06107318512201309
1772562046172223200,11.25122314453125,-0.02026069774031639,0.05632832868248224,0.07317607617415488
1772562046182205200,11.261205078125,-0.05251636917889118,0.04940992759615183,0.07505480259284376
1772562046192188200,11.271188232421874,-0.0337321737319231,0.044188393555581566,0.060452569005638356
1772562046202170000,11.281170166015626,-0.011343816313147544,0.05093655264154076,0.038528906489163635
1772562046212153000,11.291153076171875,-0.03280804462432861,0.04462020910158753,0.03488134376704693
1772562046222135300,11.30113525390625,-0.0031739538609981536,0.0482519897326827,0.034828590666502714
1772562046232117200,11.3111171875,0.010198737931251525,0.05017433609738946,0.023754969596862793
1772562046242100200,11.321100341796875,0.019051906472444532,0.05848726028203964,0.014128697791323065
1772562046252082400,11.33108251953125,0.04926116677522659,0.07704831449761987,0.026647841494157908
1772562046262065200,11.341065185546874,0.059089902350306506,0.07577142642959953,0.027876798767223952
1772562046272047400,11.35104736328125,0.07454173850417137,0.07901376935169101,0.03517404310330748
1772562046282030300,11.3610302734375,0.07235153498351574,0.08211568088978528,0.05308715480417013
1772562046292012300,11.37101220703125,0.04372340639233589,0.06766571525484323,0.05645356249734759
1772562046301995300,11.380995361328125,0.02731120077371597,0.06806757405400275,0.044333062723279
1772562046311977200,11.390977294921875,0.01400222186744213,0.06854702813401818,0.04635331650450825
1772562046321960200,11.400960205078125,-0.013590718457102774,0.06866568607762455,0.04273461455069482
1772562046331942400,11.4109423828125,-0.013614683854579925,0.06873509805202484,0.042100481365621084
1772562046341924000,11.420924072265626,-0.020873861202597616,0.08389379647821188,0.031038404603302476
1772562046351907300,11.4309072265625,-0.038711715710163117,0.11427286038994788,0.014148060078918933
1772562046361889300,11.44088916015625,-0.03323416108191013,0.12360562914162873,0.02524981126450002
1772562046371872300,11.450872314453125,-0.033201427856087685,0.12735299897640942,0.01726904164366424
1772562046381854200,11.460854248046875,-0.025969138514995573,0.11612623317167162,0.03528429854474961
1772562046391837400,11.47083740234375,-0.037325814309716224,0.09264262786209583,0.06446918423585593
1772562046401819100,11.480819091796874,-0.04253507339060306,0.05826221935451031,0.06471176082007586
1772562046411802400,11.49080224609375,-0.020913608691096305,0.04551321241855621,0.06177424606345593
1772562046421784000,11.5007841796875,-0.02494973233938217,0.049010260754078626,0.04517923122383654
1772562046431767300,11.510767333984376,-0.030289924323558804,0.053287645812332626,0.037488238329812885
1772562046441749200,11.520749267578125,-0.00008241758644580841,0.05882233745530247,0.02692315130420029
1772562046451731200,11.530731201171875,-0.013658522996306419,0.06274155672565102,0.029881343522667882
1772562046461714200,11.540714111328125,-0.018736849173903464,0.055452861022204154,0.020471637077257035
1772562046471696100,11.550696044921875,0.011107084947824478,0.05662687323763966,0.014978081162273883
1772562046481679000,11.56067919921875,0.016975100198388098,0.06651391487121582,0.002527545716241002
1772562046491661300,11.570661376953124,-0.004058920001983642,0.06364712726324796,0.011998700025305151
1772562046501644000,11.58064404296875,-0.013768413111567497,0.05381532294824719,0.023143413569778202
1772562046511626200,11.590626220703125,-0.021028174981474874,0.053159197127074,0.013869243137538432
1772562046521609200,11.600609130859375,-0.010492752441763877,0.05171104414537549,0.035247254469990726
1772562046531591200,11.610591064453125,-0.00020808979272842406,0.06103825993910431,0.03974639252014458
1772562046541574100,11.62057421875,-0.004924596920609474,0.05770341642796993,0.039740035844594235
1772562046551556400,11.630556396484375,-0.020802549532055854,0.05260550876706838,0.03774440504796803
1772562046561538300,11.640538330078124,-0.004776712882518768,0.05498962742462754,0.044103857077285646
1772562046571521300,11.650521240234376,0.00995674586892128,0.08021803057491779,0.06056582012176513
1772562046581503200,11.660503173828126,-0.017672434812784195,0.09800926946178078,0.05211005340032279
1772562046591486200,11.670486328125,-0.0058253451526165,0.1108184821523726,0.047608942588791246
1772562046601468400,11.680468505859375,0.014033786049485205,0.12092077397182584,0.043600437599793075
1772562046611451100,11.690451171875,0.008759645038843154,0.11573372672274708,0.056895534111186856
1772562046621433300,11.700433349609375,0.005022212076187134,0.10078048774078488,0.06440262180566787
1772562046631416300,11.710416259765625,0.026021160963177678,0.08886924680322408,0.06728394939564168
1772562046641398300,11.720398193359374,0.006931260567903518,0.08177198201864957,0.056127910739555954
1772562046651381200,11.73038134765625,0.004095744881033897,0.05933510928303003,0.06554251255579292
1772562046661363500,11.740363525390626,0.008690671455860137,0.043690234775096176,0.05283661410920321
1772562046671345200,11.75034521484375,-0.00914016878902912,0.04027706533074379,0.04342873429469764
1772562046681324500,11.760324462890624,-0.018202596166729926,0.02959697362333536,0.041751156471297145
1772562046691306200,11.77030615234375,-0.011329203265905379,0.015587006840854883,0.035218247571215035
1772562046701289500,11.78028955078125,-0.03510112399756908,0.02228475091382861,0.041743192360550165
1772562046711271400,11.790271484375,-0.04835808045566082,0.03863002877607941,0.0276313726387918
1772562046721254400,11.80025439453125,-0.02342822186052799,0.053882981356978416,0.020095351110771296
1772562046731236400,11.810236328125,-0.03319149098396301,0.058113458533585065,0.029858401038497684
1772562046741219600,11.820219482421875,-0.02563771460354328,0.04955620419904589,0.01223031682409346
1772562046751201300,11.830201171875,0.010319149440526962,0.046652591712027784,0.02939728633277118
1772562046761183500,11.84018359375,0.008574936121702193,0.0274167069748044,0.044806744649633766
1772562046771166500,11.85016650390625,0.005454758274555206,0.017330635637789964,0.024334230789542197
1772562046781148400,11.8601484375,0.027084406280517576,0.03021379034742713,0.03924209625981748
1772562046791131400,11.87013134765625,0.034679099193215365,0.04099821921214461,0.05571706491634249
1772562046801113300,11.88011328125,0.0423679001301527,0.02542129537388682,0.03329195568375289
1772562046811096300,11.890096435546875,0.03377484382987022,0.07877864542156457,0.05503339350111782
1772562046821078500,11.90007861328125,-0.01593406671285629,0.058354866074025624,0.06000387539006769
1772562046831061200,11.910061279296874,0.025170681613683698,0.02700578808635473,0.047473041249439116
1772562046841043500,11.92004345703125,0.027238720059394834,0.06317103418409824,0.06192446818910539
1772562046851026400,11.9300263671875,-0.022936638951301574,0.06399491778761147,0.02902874528132379
1772562046861008400,11.94000830078125,0.009262918385863303,0.06473769897893071,0.038227877715975044
1772562046870990600,11.949990478515625,-0.016450784063339233,0.07677826538458465,0.03712934188954532
1772562046880973300,11.959973388671875,-0.025919454154372214,0.08589782977700233,0.027360592873394488
1772562046890955500,11.96995556640625,-0.017302432456612588,0.0675648852288723,0.03062748571485281
1772562046900938500,11.9799384765625,-0.018001520636677742,0.06123407477214932,0.025850188310444354
1772562046910920400,11.98992041015625,-0.004296235889196396,0.04193769201934337,0.028965616917237636
1772562046920903400,11.9999033203125,0.0016863456517457961,0.02149652314558625,0.040025647852942346
1772562046930885600,12.0098857421875,0.010439560949802399,0.016829700378328562,0.053048064902797336
1772562046940868400,12.019868408203125,0.0071270754009485245,0.01755582269579172,0.061508873125538224
1772562046950850600,12.0298505859375,0.005267711269855499,0.025050562365353107,0.0618003303527832
1772562046960833500,12.03983349609375,-0.011617372557520865,0.0314537074059248,0.07416589092910289
1772562046970815500,12.0498154296875,-0.011524433577060698,0.04425415226817131,0.06730462685748935
1772562046980797400,12.05979736328125,-0.01911269674897194,0.06222279354855418,0.05744279273040592
1772562046990780400,12.069780517578126,-0.02468786653280258,0.05038739432618022,0.05835786174871027
1772562047000762400,12.079762451171876,-0.020310966622829437,0.045230157693475485,0.03996551516354084
1772562047010745600,12.08974560546875,-0.019744564911723137,0.029219810874015092,0.03903926716409623
1772562047020727300,12.099727294921875,-0.021864625805616378,0.03907879545688629,0.034518355673551555
1772562047030710500,12.10971044921875,-0.0033528175592422486,0.049195846454054115,0.023663199660182
1772562047040692500,12.1196923828125,-0.021027590459585188,0.02844298128262162,0.031367855753377076
1772562047050675500,12.129675537109375,-0.046478842580318445,0.03029313919395208,0.026000629631802438
1772562047060657400,12.139657470703124,-0.013171616262197493,0.040975276727974415,0.019607056137174367
1772562047070640600,12.149640625,0.00850011731982231,0.03554433772042394,0.02674289936646819
1772562047080622300,12.159622314453125,-0.007168576455116271,0.01706847757026553,0.03965323434397578
1772562047090604500,12.1696044921875,0.012221183669567107,0.002679886733740568,0.021660919927060603
1772562047100587300,12.179587158203125,0.05783434933125972,0.02151785819455981,0.02160202934667468
1772562047110569500,12.189569580078125,0.04228782063126564,0.03858107506781816,0.03709112877100706
1772562047120552400,12.199552490234375,0.008332944059371948,0.04118497395589948,0.02902889141179621
1772562047130534400,12.209534423828124,0.03289163125455379,0.05681465089470148,0.014943375175073742
1772562047140517400,12.219517333984374,0.03128536510169506,0.06760784758776425,0.02560227796398103
