time,seconds_elapsed,z,y,x
1772562035003126300,0.082126220703125,-0.990325927734375,-0.15032958984375,-0.08056640625
1772562035013108000,0.09210791015625,-0.9858245849609375,-0.14447021484375,-0.0956573486328125
1772562035023091200,0.10209130859375,-0.974639892578125,-0.137176513671875,-0.105499267578125
1772562035033073200,0.1120732421875,-0.977752685546875,-0.1286468505859375,-0.111114501953125
1772562035043056000,0.12205615234375,-1.0021820068359375,-0.129547119140625,-0.1123046875
1772562035053038000,0.1320380859375,-1.027313232421875,-0.13372802734375,-0.1088104248046875
1772562035063020000,0.14202001953125,-1.04046630859375,-0.1359710693359375,-0.0977020263671875
1772562035073003000,0.1520029296875,-1.0503692626953125,-0.1318817138671875,-0.0854339599609375
1772562035082985200,0.161985107421875,-1.0494232177734375,-0.122772216796875,-0.09490966796875
1772562035092968000,0.171968017578125,-1.0391693115234375,-0.1092529296875,-0.10687255859375
1772562035102950100,0.1819501953125,-1.0391693115234375,-0.10235595703125,-0.1150970458984375
1772562035112931800,0.191931884765625,-1.036163330078125,-0.1075286865234375,-0.1193084716796875
1772562035122915000,0.2019150390625,-1.0316314697265625,-0.120880126953125,-0.116241455078125
1772562035132897000,0.21189697265625,-1.029632568359375,-0.12835693359375,-0.1202850341796875
1772562035142880000,0.2218798828125,-1.0196380615234375,-0.1303253173828125,-0.1251220703125
1772562035152862000,0.231862060546875,-1.00537109375,-0.1263580322265625,-0.13311767578125
1772562035162845200,0.24184521484375,-0.9876861572265625,-0.1209869384765625,-0.1392974853515625
1772562035172827000,0.251826904296875,-0.97296142578125,-0.1227264404296875,-0.14544677734375
1772562035182809000,0.26180908203125,-0.960296630859375,-0.124908447265625,-0.15130615234375
1772562035192792000,0.2717919921875,-0.959228515625,-0.131591796875,-0.15521240234375
1772562035202774000,0.28177392578125,-0.9582366943359375,-0.138397216796875,-0.15972900390625
1772562035212757000,0.291757080078125,-0.948974609375,-0.14117431640625,-0.1613922119140625
1772562035222739000,0.301739013671875,-0.954803466796875,-0.1466522216796875,-0.16009521484375
1772562035232721200,0.31172119140625,-0.967315673828125,-0.15185546875,-0.1576995849609375
1772562035242704100,0.3217041015625,-0.9814910888671875,-0.1571502685546875,-0.157073974609375
1772562035252686000,0.33168603515625,-0.9956207275390625,-0.1558990478515625,-0.1643829345703125
1772562035262669000,0.3416689453125,-1.00408935546875,-0.149444580078125,-0.1760101318359375
1772562035272651300,0.3516513671875,-1.0087127685546875,-0.1421966552734375,-0.191650390625
1772562035282634000,0.361634033203125,-1.010986328125,-0.134979248046875,-0.206207275390625
1772562035292616200,0.3716162109375,-1.011077880859375,-0.1317596435546875,-0.2105712890625
1772562035302598000,0.381597900390625,-1.0108795166015625,-0.131591796875,-0.208526611328125
1772562035312581000,0.3915810546875,-1.00732421875,-0.1377105712890625,-0.205963134765625
1772562035322563000,0.40156298828125,-0.998260498046875,-0.14447021484375,-0.206298828125
1772562035332546000,0.411546142578125,-0.993377685546875,-0.1501007080078125,-0.209503173828125
1772562035342528000,0.421528076171875,-0.978546142578125,-0.1571502685546875,-0.216461181640625
1772562035352510000,0.431510009765625,-0.9519805908203125,-0.1635894775390625,-0.220306396484375
1772562035362493000,0.441492919921875,-0.93902587890625,-0.1695404052734375,-0.2173309326171875
1772562035372475100,0.45147509765625,-0.9478607177734375,-0.179595947265625,-0.20745849609375
1772562035382457900,0.461457763671875,-0.9630584716796875,-0.1926727294921875,-0.19207763671875
1772562035392440000,0.471440185546875,-0.9695281982421875,-0.207366943359375,-0.1780548095703125
1772562035402423000,0.481423095703125,-0.973541259765625,-0.2248687744140625,-0.1714935302734375
1772562035412405000,0.491405029296875,-0.980743408203125,-0.24139404296875,-0.17205810546875
1772562035422387200,0.50138720703125,-0.986541748046875,-0.2503509521484375,-0.1747589111328125
1772562035432370200,0.5113701171875,-0.9866790771484375,-0.2501068115234375,-0.1807708740234375
1772562035442352000,0.52135205078125,-0.9898223876953125,-0.2454071044921875,-0.1927642822265625
1772562035452335000,0.531335205078125,-0.995758056640625,-0.24462890625,-0.2001800537109375
1772562035462317000,0.541317138671875,-1.00042724609375,-0.24432373046875,-0.208984375
1772562035472300000,0.551300048828125,-0.999267578125,-0.2392425537109375,-0.2174530029296875
1772562035482282200,0.5612822265625,-0.9972076416015625,-0.2345428466796875,-0.22637939453125
1772562035492264000,0.571263916015625,-1.0066070556640625,-0.23486328125,-0.2274627685546875
1772562035502247200,0.5812470703125,-1.0138092041015625,-0.239227294921875,-0.2252655029296875
1772562035512228900,0.591228759765625,-0.9984893798828125,-0.23992919921875,-0.2205047607421875
1772562035522212000,0.601212158203125,-0.97943115234375,-0.2333831787109375,-0.214508056640625
1772562035532194000,0.611194091796875,-0.9626617431640625,-0.2209930419921875,-0.2078094482421875
1772562035542176000,0.621176025390625,-0.945281982421875,-0.215240478515625,-0.1993865966796875
1772562035552159000,0.631158935546875,-0.93817138671875,-0.21978759765625,-0.18524169921875
1772562035562141200,0.64114111328125,-0.942657470703125,-0.225067138671875,-0.168548583984375
1772562035572124000,0.6511240234375,-0.9453125,-0.2262420654296875,-0.15875244140625
1772562035582106000,0.661106201171875,-0.93719482421875,-0.225982666015625,-0.1512298583984375
1772562035592089000,0.671089111328125,-0.934112548828125,-0.224945068359375,-0.143096923828125
1772562035602071000,0.681071044921875,-0.93756103515625,-0.2265777587890625,-0.1450347900390625
1772562035612053200,0.69105322265625,-0.9365234375,-0.22174072265625,-0.1489105224609375
1772562035622036000,0.701035888671875,-0.934906005859375,-0.2135772705078125,-0.1510772705078125
1772562035632018200,0.71101806640625,-0.94189453125,-0.204742431640625,-0.1537322998046875
1772562035642001200,0.721001220703125,-0.95587158203125,-0.199554443359375,-0.1627655029296875
1772562035651983000,0.730983154296875,-0.967620849609375,-0.19573974609375,-0.1712646484375
1772562035661966300,0.74096630859375,-0.9757537841796875,-0.195892333984375,-0.1733245849609375
1772562035671948500,0.750948486328125,-0.986602783203125,-0.1985931396484375,-0.1689453125
1772562035681930200,0.76093017578125,-1.000823974609375,-0.20196533203125,-0.1700592041015625
1772562035691913500,0.77091357421875,-0.997772216796875,-0.196868896484375,-0.176361083984375
1772562035701895400,0.7808955078125,-0.995086669921875,-0.186614990234375,-0.180084228515625
1772562035711878400,0.79087841796875,-0.995819091796875,-0.17724609375,-0.1832122802734375
1772562035721860400,0.8008603515625,-0.99066162109375,-0.1697540283203125,-0.1837310791015625
1772562035731842300,0.81084228515625,-0.989166259765625,-0.16448974609375,-0.1784515380859375
1772562035741825300,0.8208251953125,-0.995025634765625,-0.15582275390625,-0.170745849609375
1772562035751807500,0.830807373046875,-0.998870849609375,-0.15167236328125,-0.167144775390625
1772562035761790200,0.840790283203125,-0.9928131103515625,-0.1484222412109375,-0.168182373046875
1772562035771772400,0.8507724609375,-0.9876556396484375,-0.1414031982421875,-0.1696929931640625
1772562035781755400,0.86075537109375,-0.9825286865234375,-0.1405029296875,-0.166778564453125
1772562035791737300,0.8707373046875,-0.979095458984375,-0.147308349609375,-0.16351318359375
1772562035801719600,0.880719482421875,-0.9728546142578125,-0.1507568359375,-0.1615447998046875
1772562035811702500,0.89070263671875,-0.96429443359375,-0.1495513916015625,-0.157623291015625
1772562035821684500,0.9006845703125,-0.964324951171875,-0.154327392578125,-0.1505584716796875
1772562035831667500,0.91066748046875,-0.9691314697265625,-0.161590576171875,-0.14447021484375
1772562035841649400,0.9206494140625,-0.970123291015625,-0.1653594970703125,-0.141082763671875
1772562035851632400,0.93063232421875,-0.9755706787109375,-0.1712799072265625,-0.1355743408203125
1772562035861614600,0.940614501953125,-0.985260009765625,-0.1751708984375,-0.1357574462890625
1772562035871596300,0.95059619140625,-0.988189697265625,-0.172882080078125,-0.14068603515625
1772562035881579500,0.96057958984375,-0.9937591552734375,-0.1693115234375,-0.1422271728515625
1772562035891561200,0.970561279296875,-1.0028839111328125,-0.1696624755859375,-0.143402099609375
1772562035901544400,0.98054443359375,-1.0010986328125,-0.1669158935546875,-0.151031494140625
1772562035911526400,0.9905263671875,-0.994140625,-0.164154052734375,-0.154998779296875
1772562035921508400,1.00050830078125,-0.9932861328125,-0.1643218994140625,-0.15557861328125
1772562035931491300,1.0104912109375,-0.99407958984375,-0.1650238037109375,-0.15069580078125
1772562035941473500,1.0204736328125,-0.9965972900390625,-0.1685791015625,-0.152557373046875
1772562035951456300,1.030456298828125,-0.985626220703125,-0.16864013671875,-0.1575927734375
1772562035961438500,1.0404384765625,-0.9741973876953125,-0.1637420654296875,-0.1598663330078125
1772562035971421400,1.05042138671875,-0.9683837890625,-0.162567138671875,-0.15625
1772562035981403400,1.0604033203125,-0.96405029296875,-0.1632537841796875,-0.149078369140625
1772562035991385300,1.07038525390625,-0.956695556640625,-0.1649017333984375,-0.1439666748046875
1772562036001368300,1.080368408203125,-0.9488677978515625,-0.16607666015625,-0.1416473388671875
1772562036011350300,1.090350341796875,-0.946197509765625,-0.16534423828125,-0.1394805908203125
1772562036021333500,1.10033349609375,-0.94403076171875,-0.16510009765625,-0.1360321044921875
1772562036031315200,1.110315185546875,-0.9469146728515625,-0.1628875732421875,-0.1358642578125
1772562036041298400,1.12029833984375,-0.9479827880859375,-0.1573486328125,-0.13812255859375
1772562036051280400,1.1302802734375,-0.9461822509765625,-0.1494598388671875,-0.1376953125
1772562036061262300,1.140262451171875,-0.9498748779296875,-0.1505126953125,-0.137664794921875
1772562036071245300,1.150245361328125,-0.9506378173828125,-0.1493682861328125,-0.138885498046875
1772562036081227300,1.160227294921875,-0.948699951171875,-0.1478729248046875,-0.139495849609375
1772562036091210200,1.170210205078125,-0.9493255615234375,-0.148590087890625,-0.1400909423828125
1772562036101192400,1.1801923828125,-0.9491424560546875,-0.15020751953125,-0.13671875
1772562036111174400,1.19017431640625,-0.950103759765625,-0.1514434814453125,-0.136260986328125
1772562036121157400,1.200157470703125,-0.95855712890625,-0.1514892578125,-0.136871337890625
1772562036131139300,1.210139404296875,-0.9692535400390625,-0.148712158203125,-0.137939453125
1772562036141122300,1.220122314453125,-0.9732513427734375,-0.139495849609375,-0.1424102783203125
1772562036151104500,1.2301044921875,-0.9808349609375,-0.1298370361328125,-0.1456146240234375
1772562036161087200,1.240087158203125,-0.9895477294921875,-0.12615966796875,-0.14569091796875
1772562036171069400,1.2500693359375,-0.9980621337890625,-0.12530517578125,-0.143646240234375
1772562036181051100,1.260051025390625,-1.0091400146484375,-0.124847412109375,-0.1452484130859375
1772562036191034400,1.270034423828125,-1.014495849609375,-0.1207427978515625,-0.1518096923828125
1772562036201016300,1.280016357421875,-1.01513671875,-0.1177978515625,-0.1538543701171875
1772562036210999600,1.28999951171875,-1.0145111083984375,-0.1169891357421875,-0.1544342041015625
1772562036220981200,1.299981201171875,-1.007080078125,-0.1168670654296875,-0.150665283203125
1772562036230964500,1.309964599609375,-0.99932861328125,-0.1208038330078125,-0.1469879150390625
1772562036240946200,1.3199462890625,-0.9912109375,-0.1278839111328125,-0.1423797607421875
1772562036250928400,1.329928466796875,-0.982025146484375,-0.1367340087890625,-0.138458251953125
1772562036260911400,1.339911376953125,-0.978485107421875,-0.145477294921875,-0.1369781494140625
1772562036270893300,1.349893310546875,-0.974456787109375,-0.1534271240234375,-0.1381988525390625
1772562036280876300,1.359876220703125,-0.9676513671875,-0.1595306396484375,-0.139434814453125
1772562036290858200,1.369858154296875,-0.968658447265625,-0.1652984619140625,-0.137786865234375
1772562036300840400,1.37984033203125,-0.9677886962890625,-0.1690216064453125,-0.135833740234375
1772562036310823400,1.389823486328125,-0.964935302734375,-0.1696319580078125,-0.1364288330078125
1772562036320805400,1.399805419921875,-0.968048095703125,-0.16815185546875,-0.137939453125
1772562036330788400,1.409788330078125,-0.9708099365234375,-0.165985107421875,-0.139556884765625
1772562036340770600,1.4197705078125,-0.97515869140625,-0.1651153564453125,-0.1414794921875
1772562036350753300,1.429753173828125,-0.9811859130859375,-0.165557861328125,-0.1427764892578125
1772562036360735500,1.439735595703125,-0.98138427734375,-0.1679840087890625,-0.1419219970703125
1772562036370717200,1.44971728515625,-0.9824066162109375,-0.1708831787109375,-0.13897705078125
1772562036380700400,1.459700439453125,-0.983795166015625,-0.1714630126953125,-0.13739013671875
1772562036390682400,1.469682373046875,-0.9857177734375,-0.16949462890625,-0.1356048583984375
1772562036400665300,1.479665283203125,-0.9833984375,-0.1667327880859375,-0.1340179443359375
1772562036410647300,1.489647216796875,-0.9796295166015625,-0.1642303466796875,-0.13397216796875
1772562036420630500,1.499630615234375,-0.9769134521484375,-0.16351318359375,-0.131805419921875
1772562036430612200,1.5096123046875,-0.9756011962890625,-0.160675048828125,-0.1307525634765625
1772562036440594400,1.519594482421875,-0.9788818359375,-0.15875244140625,-0.12823486328125
1772562036450577200,1.5295771484375,-0.986968994140625,-0.15948486328125,-0.1269683837890625
1772562036460559400,1.539559326171875,-0.9873046875,-0.155731201171875,-0.1305389404296875
1772562036470542300,1.549542236328125,-0.9873199462890625,-0.152557373046875,-0.134033203125
1772562036480524300,1.559524169921875,-0.9918365478515625,-0.154632568359375,-0.1355133056640625
1772562036490506500,1.569506591796875,-0.992828369140625,-0.15484619140625,-0.1376190185546875
1772562036500489500,1.579489501953125,-0.9905242919921875,-0.1571502685546875,-0.1390838623046875
1772562036510471400,1.589471435546875,-0.98907470703125,-0.15728759765625,-0.137054443359375
1772562036520454400,1.599454345703125,-0.9875335693359375,-0.1546173095703125,-0.1386871337890625
1772562036530436400,1.609436279296875,-0.9833984375,-0.1539306640625,-0.1389617919921875
1772562036540419300,1.61941943359375,-0.9809722900390625,-0.1503753662109375,-0.140380859375
1772562036550401500,1.629401611328125,-0.97637939453125,-0.14520263671875,-0.1401824951171875
1772562036560383200,1.63938330078125,-0.9749603271484375,-0.1450347900390625,-0.1363525390625
1772562036570366500,1.649366455078125,-0.976531982421875,-0.1465911865234375,-0.1331787109375
1772562036580348400,1.659348388671875,-0.974151611328125,-0.1424713134765625,-0.1318206787109375
1772562036590331400,1.669331298828125,-0.9688873291015625,-0.1387176513671875,-0.132049560546875
1772562036600313300,1.679313232421875,-0.96710205078125,-0.137115478515625,-0.1325225830078125
1772562036610296600,1.689296630859375,-0.964599609375,-0.1373291015625,-0.13140869140625
1772562036620278300,1.6992783203125,-0.964752197265625,-0.1393280029296875,-0.1316986083984375
1772562036630260500,1.709260498046875,-0.9656219482421875,-0.14080810546875,-0.1301422119140625
1772562036640243200,1.7192431640625,-0.9698638916015625,-0.1441497802734375,-0.1297760009765625
1772562036650225400,1.729225341796875,-0.9749603271484375,-0.1474609375,-0.1307525634765625
1772562036660208400,1.73920849609375,-0.97808837890625,-0.14544677734375,-0.1364898681640625
1772562036670190800,1.74919091796875,-0.978912353515625,-0.1414337158203125,-0.1405487060546875
1772562036680172800,1.7591728515625,-0.9817962646484375,-0.13525390625,-0.1423797607421875
1772562036690155800,1.76915576171875,-0.98394775390625,-0.127899169921875,-0.143707275390625
1772562036700137700,1.7791376953125,-0.9830474853515625,-0.126678466796875,-0.14251708984375
1772562036710121000,1.789120849609375,-0.985870361328125,-0.128875732421875,-0.1382904052734375
1772562036720103000,1.79910302734375,-0.9883575439453125,-0.131744384765625,-0.135894775390625
1772562036730086000,1.8090859375,-0.9871826171875,-0.1354522705078125,-0.1345977783203125
1772562036740067800,1.81906787109375,-0.9853057861328125,-0.1388702392578125,-0.134063720703125
1772562036750049800,1.8290498046875,-0.985107421875,-0.14141845703125,-0.134063720703125
1772562036760032800,1.83903271484375,-0.9831085205078125,-0.1430206298828125,-0.1356353759765625
1772562036770014700,1.8490146484375,-0.9802398681640625,-0.14569091796875,-0.1363067626953125
1772562036779998000,1.858998046875,-0.9801025390625,-0.14898681640625,-0.136688232421875
1772562036789980000,1.86897998046875,-0.9778900146484375,-0.153717041015625,-0.1354522705078125
1772562036799963000,1.878962890625,-0.9772796630859375,-0.157135009765625,-0.1352081298828125
1772562036809944800,1.88894482421875,-0.9735565185546875,-0.158905029296875,-0.1333160400390625
1772562036819926800,1.8989267578125,-0.9754486083984375,-0.15985107421875,-0.13287353515625
1772562036829909800,1.90890966796875,-0.9742584228515625,-0.1586151123046875,-0.133270263671875
1772562036839892000,1.91889208984375,-0.975250244140625,-0.156097412109375,-0.1317291259765625
1772562036849874700,1.928874755859375,-0.978851318359375,-0.1532745361328125,-0.132904052734375
1772562036859857000,1.93885693359375,-0.973663330078125,-0.15179443359375,-0.1343994140625
1772562036869840000,1.94883984375,-0.9701385498046875,-0.1502685546875,-0.133514404296875
1772562036879821800,1.95882177734375,-0.971221923828125,-0.151092529296875,-0.1331329345703125
1772562036889803800,1.9688037109375,-0.967193603515625,-0.1522064208984375,-0.134185791015625
1772562036899787000,1.978787109375,-0.9679107666015625,-0.151611328125,-0.135589599609375
1772562036909768700,1.988768798828125,-0.9763946533203125,-0.1502685546875,-0.1356964111328125
1772562036919752000,1.998751953125,-0.978790283203125,-0.1480255126953125,-0.1380157470703125
1772562036929733600,2.008733642578125,-0.9742584228515625,-0.1470489501953125,-0.13934326171875
1772562036939716900,2.018716796875,-0.9748077392578125,-0.1474151611328125,-0.1363372802734375
1772562036949698800,2.02869873046875,-0.9766693115234375,-0.1515045166015625,-0.1339263916015625
1772562036959680800,2.0386806640625,-0.977081298828125,-0.1546783447265625,-0.133544921875
1772562036969663700,2.048663818359375,-0.9780120849609375,-0.15264892578125,-0.1358489990234375
1772562036979645700,2.058645751953125,-0.975921630859375,-0.15380859375,-0.1384124755859375
1772562036989628700,2.068628662109375,-0.9738616943359375,-0.15594482421875,-0.1392669677734375
1772562036999611000,2.07861083984375,-0.9759368896484375,-0.156341552734375,-0.140106201171875
1772562037009592800,2.0885927734375,-0.9719696044921875,-0.15576171875,-0.140380859375
1772562037019575800,2.098575927734375,-0.970458984375,-0.1534881591796875,-0.1384735107421875
1772562037029558000,2.10855810546875,-0.975799560546875,-0.14813232421875,-0.1387481689453125
1772562037039540700,2.118540771484375,-0.979461669921875,-0.14520263671875,-0.140472412109375
1772562037049523000,2.12852294921875,-0.985565185546875,-0.14276123046875,-0.1403961181640625
1772562037059506000,2.138505859375,-0.98968505859375,-0.1406402587890625,-0.1411285400390625
1772562037069487900,2.14848779296875,-0.995391845703125,-0.136962890625,-0.1393585205078125
1772562037079469800,2.1584697265625,-1.001129150390625,-0.136322021484375,-0.1372833251953125
1772562037089452800,2.168452880859375,-1.004119873046875,-0.1347198486328125,-0.1354827880859375
1772562037099434800,2.178434814453125,-1.001556396484375,-0.1342926025390625,-0.1357269287109375
1772562037109418000,2.18841796875,-0.99676513671875,-0.137420654296875,-0.13409423828125
1772562037119399700,2.198399658203125,-0.9923858642578125,-0.14111328125,-0.13055419921875
1772562037129383000,2.2083828125,-0.98773193359375,-0.1449432373046875,-0.1277008056640625
1772562037139364600,2.218364501953125,-0.9818572998046875,-0.1467742919921875,-0.126983642578125
1772562037149346800,2.228346923828125,-0.9776611328125,-0.148590087890625,-0.12750244140625
1772562037159329800,2.238329833984375,-0.9734344482421875,-0.148345947265625,-0.128265380859375
1772562037169311700,2.248311767578125,-0.9706573486328125,-0.14794921875,-0.12744140625
1772562037179294700,2.258294677734375,-0.9744720458984375,-0.14910888671875,-0.1263885498046875
1772562037189277000,2.26827685546875,-0.9717254638671875,-0.1491241455078125,-0.1280059814453125
1772562037199259600,2.278259765625,-0.96868896484375,-0.1486358642578125,-0.12982177734375
1772562037209241900,2.288241943359375,-0.9683380126953125,-0.1489715576171875,-0.13214111328125
1772562037219223800,2.298223876953125,-0.967987060546875,-0.1498260498046875,-0.1347198486328125
1772562037229206800,2.308206787109375,-0.9684600830078125,-0.1483917236328125,-0.13519287109375
1772562037239189000,2.31818896484375,-0.9709320068359375,-0.147247314453125,-0.1349639892578125
1772562037249171700,2.328171630859375,-0.9727630615234375,-0.1484832763671875,-0.13458251953125
1772562037259154000,2.33815380859375,-0.9728851318359375,-0.148681640625,-0.1353302001953125
1772562037269135600,2.348135498046875,-0.9726409912109375,-0.1461944580078125,-0.13458251953125
1772562037279118800,2.358118896484375,-0.9700927734375,-0.1461181640625,-0.135345458984375
1772562037289100800,2.368100830078125,-0.971099853515625,-0.1475067138671875,-0.135345458984375
1772562037299084000,2.378083984375,-0.9748382568359375,-0.149139404296875,-0.1350555419921875
1772562037309065700,2.388065673828125,-0.9758148193359375,-0.1481475830078125,-0.134490966796875
1772562037319049000,2.398049072265625,-0.98004150390625,-0.1467437744140625,-0.1354217529296875
1772562037329030700,2.40803076171875,-0.9794921875,-0.145721435546875,-0.136993408203125
1772562037339012900,2.418012939453125,-0.977447509765625,-0.14520263671875,-0.1372222900390625
1772562037348995800,2.427995849609375,-0.9780731201171875,-0.145751953125,-0.137847900390625
1772562037358977800,2.437977783203125,-0.9775543212890625,-0.1464691162109375,-0.1369476318359375
1772562037368960800,2.447960693359375,-0.977447509765625,-0.147247314453125,-0.1377716064453125
1772562037378942700,2.457942626953125,-0.9774169921875,-0.1461639404296875,-0.138153076171875
1772562037388925700,2.46792578125,-0.975799560546875,-0.1460113525390625,-0.1355438232421875
1772562037398908000,2.477907958984375,-0.9761962890625,-0.1485443115234375,-0.1339874267578125
1772562037408889900,2.487889892578125,-0.975311279296875,-0.148895263671875,-0.13092041015625
1772562037418872800,2.497872802734375,-0.972900390625,-0.1518707275390625,-0.129241943359375
1772562037428855000,2.50785498046875,-0.97674560546875,-0.1536865234375,-0.1307373046875
1772562037438837800,2.517837646484375,-0.976776123046875,-0.151947021484375,-0.1320343017578125
1772562037448820000,2.527820068359375,-0.974578857421875,-0.1500396728515625,-0.1329193115234375
1772562037458803000,2.537802978515625,-0.9776611328125,-0.148590087890625,-0.134735107421875
1772562037468785000,2.547784912109375,-0.981109619140625,-0.1472625732421875,-0.135101318359375
1772562037478766800,2.557766845703125,-0.9828643798828125,-0.1469879150390625,-0.134765625
1772562037488749800,2.567749755859375,-0.984405517578125,-0.1456756591796875,-0.1347503662109375
1772562037498731800,2.577731689453125,-0.9841766357421875,-0.144134521484375,-0.1363372802734375
1772562037508715000,2.587715087890625,-0.9860992431640625,-0.14276123046875,-0.1388702392578125
1772562037518696700,2.59769677734375,-0.9871673583984375,-0.139556884765625,-0.1405487060546875
1772562037528679000,2.607678955078125,-0.987640380859375,-0.13909912109375,-0.1400146484375
1772562037538661600,2.61766162109375,-0.9873046875,-0.1408843994140625,-0.1397247314453125
1772562037548643800,2.627643798828125,-0.9829254150390625,-0.140716552734375,-0.1412353515625
1772562037558626800,2.637626708984375,-0.9796905517578125,-0.1441802978515625,-0.1407012939453125
1772562037568608800,2.64760888671875,-0.9771881103515625,-0.1479339599609375,-0.138427734375
1772562037578591700,2.657591796875,-0.9752044677734375,-0.149169921875,-0.1362457275390625
1772562037588574000,2.667573974609375,-0.97210693359375,-0.151397705078125,-0.1358489990234375
1772562037598556700,2.677556640625,-0.9708709716796875,-0.15411376953125,-0.136749267578125
1772562037608539000,2.687538818359375,-0.9727783203125,-0.15484619140625,-0.137908935546875
1772562037618520800,2.697520751953125,-0.972625732421875,-0.154998779296875,-0.1394805908203125
1772562037628503800,2.70750390625,-0.971832275390625,-0.154266357421875,-0.1400604248046875
1772562037638486000,2.717486083984375,-0.971923828125,-0.15350341796875,-0.139984130859375
1772562037648468700,2.72746875,-0.9727020263671875,-0.15374755859375,-0.1389617919921875
1772562037658451000,2.737450927734375,-0.9729156494140625,-0.1522979736328125,-0.1389617919921875
1772562037668432100,2.74743212890625,-0.97314453125,-0.1526641845703125,-0.13934326171875
1772562037678415400,2.757415283203125,-0.974090576171875,-0.1517486572265625,-0.1411285400390625
1772562037688397300,2.767397216796875,-0.97369384765625,-0.14971923828125,-0.140228271484375
1772562037698380300,2.77738037109375,-0.9765777587890625,-0.1514892578125,-0.13916015625
1772562037708362200,2.7873623046875,-0.979583740234375,-0.15240478515625,-0.1377716064453125
1772562037718345500,2.797345458984375,-0.979400634765625,-0.153594970703125,-0.1369476318359375
1772562037728327200,2.8073271484375,-0.9814605712890625,-0.1559295654296875,-0.135894775390625
1772562037738309400,2.817309326171875,-0.9832000732421875,-0.1575775146484375,-0.1349334716796875
1772562037748292400,2.827292236328125,-0.981658935546875,-0.154449462890625,-0.13616943359375
1772562037758274300,2.8372744140625,-0.9803314208984375,-0.1533050537109375,-0.1375885009765625
1772562037768257300,2.84725732421875,-0.9782867431640625,-0.1551971435546875,-0.13665771484375
1772562037778239200,2.8572392578125,-0.9793701171875,-0.1562347412109375,-0.135101318359375
1772562037788222200,2.86722216796875,-0.9806060791015625,-0.15460205078125,-0.135894775390625
1772562037798204400,2.877204345703125,-0.9795684814453125,-0.154449462890625,-0.13861083984375
1772562037808186400,2.887186279296875,-0.9774169921875,-0.15142822265625,-0.1396484375
1772562037818169300,2.89716943359375,-0.9790802001953125,-0.1519775390625,-0.1404571533203125
1772562037828151300,2.9071513671875,-0.979827880859375,-0.152557373046875,-0.1399688720703125
1772562037838134300,2.91713427734375,-0.979339599609375,-0.15655517578125,-0.13873291015625
1772562037848116500,2.927116455078125,-0.9766082763671875,-0.159332275390625,-0.1378631591796875
1772562037858099200,2.93709912109375,-0.9774169921875,-0.1600799560546875,-0.1379852294921875
1772562037868081400,2.947081298828125,-0.9790191650390625,-0.159088134765625,-0.1374359130859375
1772562037878063400,2.9570634765625,-0.976165771484375,-0.1552886962890625,-0.137542724609375
1772562037888046300,2.96704638671875,-0.9735260009765625,-0.1531219482421875,-0.1386566162109375
1772562037898028300,2.9770283203125,-0.97283935546875,-0.152862548828125,-0.136077880859375
1772562037908011500,2.987011474609375,-0.972076416015625,-0.1521759033203125,-0.133209228515625
1772562037917993200,2.9969931640625,-0.9728240966796875,-0.1514434814453125,-0.132476806640625
1772562037927976400,3.0069765625,-0.97174072265625,-0.1508941650390625,-0.1319427490234375
1772562037937958100,3.016958251953125,-0.9708251953125,-0.14935302734375,-0.133636474609375
1772562037947940400,3.0269404296875,-0.970916748046875,-0.1459808349609375,-0.1331329345703125
1772562037957923300,3.03692333984375,-0.9730377197265625,-0.1448974609375,-0.13201904296875
1772562037967905300,3.0469052734375,-0.9762115478515625,-0.1461944580078125,-0.1307830810546875
1772562037977888300,3.05688818359375,-0.9765167236328125,-0.1479949951171875,-0.129241943359375
1772562037987870200,3.0668701171875,-0.980682373046875,-0.14996337890625,-0.1277923583984375
1772562037997853200,3.076853271484375,-0.982574462890625,-0.1493377685546875,-0.1296539306640625
1772562038007835400,3.08683544921875,-0.9829864501953125,-0.14825439453125,-0.1318511962890625
1772562038017817300,3.0968173828125,-0.9853363037109375,-0.1485595703125,-0.132293701171875
1772562038027800300,3.10680029296875,-0.9859161376953125,-0.1491241455078125,-0.132568359375
1772562038037782500,3.116782470703125,-0.9845428466796875,-0.150054931640625,-0.1328582763671875
1772562038047765200,3.12676513671875,-0.983184814453125,-0.15032958984375,-0.1338958740234375
1772562038057747500,3.13674755859375,-0.9828948974609375,-0.1505889892578125,-0.1353607177734375
1772562038067729200,3.146729248046875,-0.98016357421875,-0.151580810546875,-0.136688232421875
1772562038077712400,3.15671240234375,-0.979278564453125,-0.1503143310546875,-0.13616943359375
1772562038087694300,3.1666943359375,-0.978973388671875,-0.1514434814453125,-0.1370086669921875
1772562038097677300,3.17667724609375,-0.9749908447265625,-0.153350830078125,-0.1359710693359375
1772562038107659300,3.1866591796875,-0.97259521484375,-0.1545562744140625,-0.13494873046875
1772562038117642500,3.196642578125,-0.9716033935546875,-0.155517578125,-0.1337890625
1772562038127624200,3.206624267578125,-0.9707489013671875,-0.1592559814453125,-0.131866455078125
1772562038137607400,3.216607421875,-0.9694061279296875,-0.1601104736328125,-0.131805419921875
1772562038147589400,3.22658935546875,-0.9671173095703125,-0.158966064453125,-0.1314849853515625
1772562038157571300,3.2365712890625,-0.967376708984375,-0.15899658203125,-0.1289825439453125
1772562038167554300,3.24655419921875,-0.972930908203125,-0.160491943359375,-0.1286163330078125
1772562038177536300,3.256536376953125,-0.971282958984375,-0.1601715087890625,-0.1289215087890625
1772562038187519200,3.266519287109375,-0.970489501953125,-0.158538818359375,-0.128692626953125
1772562038197501400,3.27650146484375,-0.974517822265625,-0.158233642578125,-0.127838134765625
1772562038207483400,3.2864833984375,-0.9796295166015625,-0.1582794189453125,-0.1284027099609375
1772562038217466400,3.29646630859375,-0.9797821044921875,-0.1546478271484375,-0.13275146484375
1772562038227448300,3.3064482421875,-0.9804229736328125,-0.153564453125,-0.1320343017578125
1772562038237431300,3.316431396484375,-0.9870452880859375,-0.1536865234375,-0.1301116943359375
1772562038247413500,3.32641357421875,-0.99029541015625,-0.1532440185546875,-0.1297607421875
1772562038257396200,3.336396240234375,-0.9854888916015625,-0.1495513916015625,-0.13275146484375
1772562038267378400,3.34637841796875,-0.9864654541015625,-0.1464080810546875,-0.133453369140625
1772562038277360400,3.3563603515625,-0.98858642578125,-0.147491455078125,-0.13299560546875
1772562038287343400,3.36634326171875,-0.9849700927734375,-0.1475982666015625,-0.132476806640625
1772562038297325300,3.3763251953125,-0.9849700927734375,-0.1489715576171875,-0.132232666015625
1772562038307308500,3.38630859375,-0.98541259765625,-0.15142822265625,-0.1300201416015625
1772562038317290200,3.396290283203125,-0.9830474853515625,-0.153411865234375,-0.128387451171875
1772562038327273500,3.4062734375,-0.98138427734375,-0.1555633544921875,-0.1277313232421875
1772562038337255200,3.416255126953125,-0.9801177978515625,-0.1555633544921875,-0.1283111572265625
1772562038347237400,3.4262373046875,-0.97882080078125,-0.154083251953125,-0.1272735595703125
1772562038357220400,3.436220458984375,-0.9774932861328125,-0.1529693603515625,-0.1296539306640625
1772562038367202300,3.446202392578125,-0.977020263671875,-0.1515045166015625,-0.131378173828125
1772562038377185300,3.456185302734375,-0.9783477783203125,-0.150054931640625,-0.1324005126953125
1772562038387167200,3.466167236328125,-0.9725189208984375,-0.1475830078125,-0.132965087890625
1772562038397150200,3.476150146484375,-0.967620849609375,-0.1470947265625,-0.131500244140625
1772562038407132400,3.48613232421875,-0.97412109375,-0.1504364013671875,-0.1294403076171875
1772562038417114400,3.4961142578125,-0.9770965576171875,-0.15234375,-0.1305999755859375
1772562038427097300,3.506097412109375,-0.97039794921875,-0.1491546630859375,-0.134307861328125
1772562038437079600,3.51607958984375,-0.97174072265625,-0.1483917236328125,-0.1346893310546875
1772562038447062300,3.526062255859375,-0.9785003662109375,-0.1508026123046875,-0.1330718994140625
1772562038457044500,3.53604443359375,-0.976959228515625,-0.1523590087890625,-0.1334381103515625
1772562038467027500,3.54602734375,-0.9727630615234375,-0.14715576171875,-0.1367950439453125
1772562038477009400,3.556009521484375,-0.972930908203125,-0.144195556640625,-0.1362762451171875
1772562038486991400,3.565991455078125,-0.9773712158203125,-0.1468048095703125,-0.133392333984375
1772562038496974300,3.575974365234375,-0.9779052734375,-0.14874267578125,-0.1326751708984375
1772562038506956300,3.585956298828125,-0.97613525390625,-0.14727783203125,-0.1356048583984375
1772562038516939500,3.595939453125,-0.9759674072265625,-0.14874267578125,-0.136138916015625
1772562038526921200,3.605921142578125,-0.9791717529296875,-0.153350830078125,-0.134185791015625
1772562038536904400,3.615904541015625,-0.982147216796875,-0.156402587890625,-0.133880615234375
1772562038546886400,3.625886474609375,-0.9798736572265625,-0.15606689453125,-0.1341094970703125
1772562038556868400,3.635868408203125,-0.97845458984375,-0.1547088623046875,-0.1352386474609375
1772562038566851300,3.645851318359375,-0.9807281494140625,-0.1541748046875,-0.1349945068359375
1772562038576833300,3.655833251953125,-0.9820404052734375,-0.1539764404296875,-0.13494873046875
1772562038586816300,3.665816162109375,-0.982086181640625,-0.15185546875,-0.1344757080078125
1772562038596798500,3.675798583984375,-0.9861602783203125,-0.1503143310546875,-0.1352081298828125
1772562038606781200,3.68578125,-0.9847412109375,-0.148773193359375,-0.1361236572265625
1772562038616763400,3.695763427734375,-0.984161376953125,-0.1474456787109375,-0.1349639892578125
1772562038626745300,3.705745361328125,-0.984222412109375,-0.147247314453125,-0.1343841552734375
1772562038636728300,3.715728271484375,-0.9809417724609375,-0.14581298828125,-0.13482666015625
1772562038646710300,3.725710205078125,-0.97637939453125,-0.1458892822265625,-0.1334991455078125
1772562038656693200,3.735693359375,-0.973968505859375,-0.1494140625,-0.1329193115234375
1772562038666675000,3.745675048828125,-0.971435546875,-0.1501617431640625,-0.1322174072265625
1772562038676658000,3.755657958984375,-0.96844482421875,-0.149505615234375,-0.13006591796875
1772562038686640000,3.76564013671875,-0.968048095703125,-0.1491241455078125,-0.1300506591796875
1772562038696621800,3.775621826171875,-0.9666290283203125,-0.14947509765625,-0.1295013427734375
1772562038706605000,3.78560498046875,-0.966888427734375,-0.1501617431640625,-0.1327972412109375
1772562038716587000,3.7955869140625,-0.9677581787109375,-0.1481170654296875,-0.1331787109375
1772562038726570000,3.805570068359375,-0.974578857421875,-0.1497344970703125,-0.1319122314453125
1772562038736552000,3.815552001953125,-0.9783172607421875,-0.15106201171875,-0.1342010498046875
1772562038746535200,3.82553515625,-0.977874755859375,-0.149505615234375,-0.136444091796875
1772562038756516900,3.835516845703125,-0.98138427734375,-0.1484222412109375,-0.1371002197265625
1772562038766499000,3.8454990234375,-0.9824066162109375,-0.149322509765625,-0.1378021240234375
1772562038776481800,3.855481689453125,-0.979736328125,-0.1498870849609375,-0.1398773193359375
1772562038786464000,3.865464111328125,-0.980316162109375,-0.1495513916015625,-0.138458251953125
1772562038796447000,3.875447021484375,-0.9810943603515625,-0.1514892578125,-0.1375579833984375
1772562038806429000,3.885428955078125,-0.9798736572265625,-0.1525115966796875,-0.1385498046875
1772562038816412000,3.895411865234375,-0.97882080078125,-0.1513824462890625,-0.13873291015625
1772562038826393900,3.905393798828125,-0.9786834716796875,-0.1508026123046875,-0.138580322265625
1772562038836376000,3.9153759765625,-0.9766998291015625,-0.1500396728515625,-0.1372222900390625
1772562038846359000,3.925359130859375,-0.97760009765625,-0.1502838134765625,-0.138763427734375
1772562038856341000,3.935341064453125,-0.9749603271484375,-0.14776611328125,-0.1386871337890625
1772562038866324000,3.945323974609375,-0.9756622314453125,-0.148406982421875,-0.137451171875
1772562038876306200,3.95530615234375,-0.980438232421875,-0.14959716796875,-0.1362762451171875
1772562038886289000,3.965288818359375,-0.9787139892578125,-0.1500091552734375,-0.13702392578125
1772562038896271000,3.97527099609375,-0.9766082763671875,-0.1495513916015625,-0.1354522705078125
1772562038906251000,3.9852509765625,-0.977569580078125,-0.1503143310546875,-0.1358184814453125
1772562038916233000,3.99523291015625,-0.979400634765625,-0.149993896484375,-0.135894775390625
1772562038926216000,4.0052158203125,-0.980224609375,-0.1488037109375,-0.1351165771484375
1772562038936198000,4.015197998046875,-0.9803466796875,-0.147186279296875,-0.1354217529296875
1772562038946181000,4.02518115234375,-0.982147216796875,-0.1468658447265625,-0.1354217529296875
1772562038956162800,4.035162841796875,-0.9815216064453125,-0.144775390625,-0.135498046875
1772562038966146000,4.04514599609375,-0.97900390625,-0.1453704833984375,-0.1343994140625
1772562038976127700,4.055127685546875,-0.9815216064453125,-0.1461029052734375,-0.1332855224609375
1772562038986110000,4.06510986328125,-0.98065185546875,-0.1488800048828125,-0.133056640625
1772562038996093000,4.075093017578125,-0.9775848388671875,-0.148956298828125,-0.132720947265625
1772562039006075000,4.085074951171875,-0.9783782958984375,-0.1485748291015625,-0.133514404296875
1772562039016057900,4.095057861328125,-0.9796905517578125,-0.1508026123046875,-0.1354217529296875
1772562039026039800,4.105039794921875,-0.976593017578125,-0.1499176025390625,-0.1379547119140625
1772562039036022800,4.115022705078125,-0.9776763916015625,-0.149932861328125,-0.1385345458984375
1772562039046005000,4.1250048828125,-0.980865478515625,-0.1504669189453125,-0.138092041015625
1772562039055987000,4.134987060546875,-0.9760894775390625,-0.14935302734375,-0.139434814453125
1772562039065970000,4.144969970703125,-0.9747467041015625,-0.1468505859375,-0.1371612548828125
1772562039075952000,4.1549521484375,-0.9787445068359375,-0.148284912109375,-0.1355133056640625
1772562039085934800,4.164934814453125,-0.97900390625,-0.1494598388671875,-0.13507080078125
1772562039095917000,4.1749169921875,-0.9748077392578125,-0.14697265625,-0.134918212890625
1772562039105900000,4.184900146484375,-0.9758148193359375,-0.1497955322265625,-0.1330413818359375
1772562039115882000,4.194882080078125,-0.977020263671875,-0.153045654296875,-0.1319580078125
1772562039125864000,4.204864013671875,-0.974578857421875,-0.1533050537109375,-0.1301422119140625
1772562039135847000,4.214846923828125,-0.97576904296875,-0.15423583984375,-0.1282501220703125
1772562039145828900,4.224828857421875,-0.9787750244140625,-0.1551513671875,-0.1291046142578125
1772562039155812000,4.23481201171875,-0.9783477783203125,-0.1557464599609375,-0.1295318603515625
1772562039165793800,4.244793701171875,-0.9809417724609375,-0.15423583984375,-0.129669189453125
1772562039175777000,4.254777099609375,-0.9867706298828125,-0.1509246826171875,-0.1311492919921875
1772562039185759000,4.264759033203125,-0.9851531982421875,-0.148162841796875,-0.132598876953125
1772562039195741000,4.274740966796875,-0.9857177734375,-0.1457366943359375,-0.13226318359375
1772562039205724000,4.284723876953125,-0.9876861572265625,-0.1458740234375,-0.132080078125
1772562039215705900,4.294705810546875,-0.98699951171875,-0.1487884521484375,-0.1306915283203125
1772562039225688800,4.304688720703125,-0.9857940673828125,-0.1513671875,-0.1322784423828125
1772562039235671000,4.314671142578125,-0.98388671875,-0.15087890625,-0.1327972412109375
1772562039245653800,4.32465380859375,-0.9828338623046875,-0.151763916015625,-0.13055419921875
1772562039255636000,4.334635986328125,-0.97894287109375,-0.1530914306640625,-0.1284637451171875
1772562039265618000,4.344617919921875,-0.97369384765625,-0.1523895263671875,-0.1270904541015625
1772562039275601000,4.354600830078125,-0.97235107421875,-0.1527862548828125,-0.125457763671875
1772562039285583000,4.3645830078125,-0.970550537109375,-0.1512603759765625,-0.12518310546875
1772562039295565800,4.37456591796875,-0.9715576171875,-0.1502838134765625,-0.1256866455078125
1772562039305551000,4.384551025390625,-0.9732208251953125,-0.14910888671875,-0.1277923583984375
1772562039315532800,4.39453271484375,-0.976104736328125,-0.14923095703125,-0.1299896240234375
1772562039325515000,4.404514892578125,-0.9781646728515625,-0.149200439453125,-0.1316070556640625
1772562039335498000,4.414498046875,-0.9785614013671875,-0.148681640625,-0.130950927734375
1772562039345480000,4.42447998046875,-0.9837493896484375,-0.1475982666015625,-0.1312255859375
1772562039355463000,4.434462890625,-0.9796905517578125,-0.1448974609375,-0.1327362060546875
1772562039365444900,4.44444482421875,-0.978485107421875,-0.144195556640625,-0.1330413818359375
1772562039375427800,4.454427734375,-0.9799041748046875,-0.1444091796875,-0.1326751708984375
1772562039385410000,4.46441015625,-0.9772186279296875,-0.14453125,-0.13348388671875
1772562039395392000,4.47439208984375,-0.9756317138671875,-0.1441802978515625,-0.1339263916015625
1772562039405375000,4.484375,-0.9736785888671875,-0.1449432373046875,-0.132843017578125
1772562039415357000,4.49435693359375,-0.9733428955078125,-0.1469268798828125,-0.1304779052734375
1772562039425340000,4.50433984375,-0.9752655029296875,-0.1484375,-0.128387451171875
1772562039435322000,4.514322021484375,-0.9737396240234375,-0.14801025390625,-0.1268463134765625
1772562039445304800,4.524304931640625,-0.976043701171875,-0.1473541259765625,-0.12420654296875
1772562039455287000,4.534287109375,-0.9785614013671875,-0.145965576171875,-0.12646484375
1772562039465268700,4.544268798828125,-0.9765625,-0.14581298828125,-0.1269073486328125
1772562039475252000,4.554251953125,-0.9783782958984375,-0.1486968994140625,-0.1244354248046875
1772562039485234000,4.56423388671875,-0.98309326171875,-0.148345947265625,-0.1229095458984375
1772562039495217000,4.574216796875,-0.9816131591796875,-0.1453857421875,-0.1240997314453125
1772562039505198800,4.58419873046875,-0.9810943603515625,-0.1440887451171875,-0.1258697509765625
1772562039515182000,4.59418212890625,-0.9810943603515625,-0.141937255859375,-0.126678466796875
1772562039525163800,4.604163818359375,-0.9846954345703125,-0.142059326171875,-0.1275177001953125
1772562039535146000,4.61414599609375,-0.985443115234375,-0.14447021484375,-0.1280517578125
1772562039545129000,4.62412890625,-0.984130859375,-0.1449737548828125,-0.1277618408203125
1772562039555111000,4.63411083984375,-0.98687744140625,-0.147125244140625,-0.1272125244140625
1772562039565094000,4.644093994140625,-0.9855499267578125,-0.1494293212890625,-0.1276092529296875
1772562039575075800,4.654075927734375,-0.9865570068359375,-0.1488189697265625,-0.1277313232421875
1772562039585058800,4.664058837890625,-0.98382568359375,-0.1464691162109375,-0.128448486328125
1772562039595041000,4.674041015625,-0.9815216064453125,-0.1454925537109375,-0.128570556640625
1772562039605023000,4.68402294921875,-0.980987548828125,-0.1451416015625,-0.129608154296875
1772562039615006000,4.694005859375,-0.982574462890625,-0.14605712890625,-0.129974365234375
1772562039624988000,4.70398779296875,-0.981292724609375,-0.1470794677734375,-0.1301422119140625
1772562039634971000,4.713970947265625,-0.9804534912109375,-0.1483306884765625,-0.1294403076171875
1772562039644953000,4.723953125,-0.9791259765625,-0.14984130859375,-0.1284637451171875
1772562039654936000,4.73393603515625,-0.979095458984375,-0.150360107421875,-0.1259918212890625
1772562039664918000,4.74391796875,-0.977783203125,-0.15106201171875,-0.125762939453125
1772562039674903600,4.753903564453125,-0.976806640625,-0.14984130859375,-0.126495361328125
1772562039684886800,4.76388671875,-0.9769134521484375,-0.14794921875,-0.1252288818359375
1772562039694868700,4.77386865234375,-0.9775543212890625,-0.1454010009765625,-0.125152587890625
1772562039704851700,4.783851806640625,-0.976165771484375,-0.1445465087890625,-0.1267852783203125
1772562039714833700,4.793833740234375,-0.975830078125,-0.1436614990234375,-0.12701416015625
1772562039724817000,4.80381689453125,-0.977386474609375,-0.1441802978515625,-0.1266326904296875
1772562039734798600,4.813798583984375,-0.97906494140625,-0.1417083740234375,-0.1255950927734375
1772562039744780800,4.82378076171875,-0.98095703125,-0.1407928466796875,-0.1264801025390625
1772562039754763500,4.833763427734375,-0.9814453125,-0.1403656005859375,-0.12701416015625
1772562039764745700,4.843745849609375,-0.982208251953125,-0.1380615234375,-0.127410888671875
1772562039774728700,4.853728759765625,-0.980926513671875,-0.137420654296875,-0.12774658203125
1772562039784710700,4.863710693359375,-0.978118896484375,-0.1382293701171875,-0.1278076171875
1772562039794693600,4.873693603515625,-0.978363037109375,-0.1389617919921875,-0.1269073486328125
1772562039804675800,4.88367578125,-0.9783782958984375,-0.1402587890625,-0.1256103515625
1772562039814658600,4.893658447265625,-0.9774017333984375,-0.1394500732421875,-0.1251678466796875
1772562039824640800,4.903640869140625,-0.9763946533203125,-0.1407470703125,-0.12567138671875
1772562039834622700,4.913622802734375,-0.9727020263671875,-0.1421356201171875,-0.12744140625
1772562039844605700,4.923605712890625,-0.9761810302734375,-0.1447601318359375,-0.126800537109375
1772562039854588000,4.933587890625,-0.97882080078125,-0.1466064453125,-0.1263885498046875
1772562039864570600,4.943570556640625,-0.9794769287109375,-0.1481475830078125,-0.127471923828125
1772562039874552800,4.953552734375,-0.98162841796875,-0.1477508544921875,-0.1310882568359375
1772562039884535800,4.963535888671875,-0.98529052734375,-0.145538330078125,-0.1323699951171875
1772562039894517800,4.973517822265625,-0.9842071533203125,-0.142333984375,-0.1321258544921875
1772562039904499700,4.983499755859375,-0.9893646240234375,-0.1413726806640625,-0.137115478515625
1772562039914482700,4.993482666015625,-0.9839324951171875,-0.1389007568359375,-0.1395111083984375
1772562039924464600,5.003464599609375,-0.9826507568359375,-0.13897705078125,-0.138153076171875
1772562039934447900,5.01344775390625,-0.9882049560546875,-0.144195556640625,-0.1346588134765625
1772562039944429600,5.0234296875,-0.9870758056640625,-0.1482391357421875,-0.13262939453125
1772562039954412800,5.033412841796875,-0.9804840087890625,-0.14959716796875,-0.13177490234375
1772562039964394800,5.043394775390625,-0.97808837890625,-0.150390625,-0.130096435546875
1772562039974376700,5.053376708984375,-0.975616455078125,-0.150177001953125,-0.1298828125
1772562039984359700,5.063359619140625,-0.973602294921875,-0.1493988037109375,-0.128143310546875
1772562039994341600,5.073341552734375,-0.9757232666015625,-0.14813232421875,-0.1271514892578125
1772562040004324600,5.08332470703125,-0.9788818359375,-0.1458740234375,-0.1279449462890625
1772562040014306800,5.093306884765625,-0.976806640625,-0.143524169921875,-0.1290283203125
1772562040024289500,5.10328955078125,-0.9805755615234375,-0.1407318115234375,-0.1270751953125
1772562040034271700,5.113271728515625,-0.9841156005859375,-0.139617919921875,-0.1285247802734375
1772562040044253700,5.123253662109375,-0.9807891845703125,-0.138153076171875,-0.12744140625
1772562040054236700,5.133236572265625,-0.981719970703125,-0.138580322265625,-0.125335693359375
1772562040064219000,5.143218994140625,-0.98309326171875,-0.137939453125,-0.124053955078125
1772562040074201900,5.153201904296875,-0.9810333251953125,-0.1373443603515625,-0.12469482421875
1772562040084183800,5.163183837890625,-0.97698974609375,-0.1361846923828125,-0.1263885498046875
1772562040094166800,5.173166748046875,-0.9752044677734375,-0.1373748779296875,-0.124847412109375
1772562040104148700,5.183148681640625,-0.9786224365234375,-0.1398162841796875,-0.1226806640625
1772562040114130700,5.193130615234375,-0.97991943359375,-0.141937255859375,-0.124237060546875
1772562040124114000,5.203114013671875,-0.98089599609375,-0.1422576904296875,-0.1272430419921875
1772562040134095600,5.213095703125,-0.9829254150390625,-0.1394500732421875,-0.130462646484375
1772562040144078800,5.223078857421875,-0.984283447265625,-0.1362762451171875,-0.1334991455078125
1772562040154060500,5.233060546875,-0.9836273193359375,-0.1360626220703125,-0.1364288330078125
1772562040164043800,5.243043701171875,-0.9809417724609375,-0.1359710693359375,-0.1387176513671875
1772562040174025700,5.253025634765625,-0.979095458984375,-0.136444091796875,-0.1388397216796875
1772562040184008700,5.2630087890625,-0.978424072265625,-0.140380859375,-0.1391143798828125
1772562040193990700,5.27299072265625,-0.975067138671875,-0.142486572265625,-0.1397857666015625
1772562040203972900,5.282972900390625,-0.97076416015625,-0.143402099609375,-0.138458251953125
1772562040213955600,5.29295556640625,-0.9705352783203125,-0.145904541015625,-0.136566162109375
1772562040223937800,5.302937744140625,-0.9700927734375,-0.1442413330078125,-0.133514404296875
1772562040233920800,5.312920654296875,-0.9695281982421875,-0.1401214599609375,-0.1305084228515625
1772562040243902700,5.32290283203125,-0.9700164794921875,-0.138702392578125,-0.1270751953125
1772562040253885700,5.3328857421875,-0.9710693359375,-0.13885498046875,-0.1249237060546875
1772562040263867600,5.34286767578125,-0.9720916748046875,-0.1387176513671875,-0.122222900390625
1772562040273849600,5.352849609375,-0.9764251708984375,-0.13677978515625,-0.1209716796875
1772562040283832800,5.362832763671875,-0.9797515869140625,-0.136138916015625,-0.1203765869140625
1772562040293814800,5.372814697265625,-0.982696533203125,-0.1365509033203125,-0.1215057373046875
1772562040303797800,5.3827978515625,-0.9849853515625,-0.135406494140625,-0.122772216796875
1772562040313779700,5.39277978515625,-0.9897308349609375,-0.13470458984375,-0.1223297119140625
1772562040323762700,5.4027626953125,-0.990142822265625,-0.135955810546875,-0.1237335205078125
1772562040333744600,5.41274462890625,-0.9871673583984375,-0.134735107421875,-0.1260223388671875
1772562040343726600,5.4227265625,-0.9873046875,-0.134735107421875,-0.1263885498046875
1772562040353709800,5.432709716796875,-0.985809326171875,-0.1365814208984375,-0.1267852783203125
1772562040363691800,5.44269189453125,-0.9819183349609375,-0.1381378173828125,-0.1257476806640625
1772562040373674800,5.4526748046875,-0.9831085205078125,-0.1400604248046875,-0.123382568359375
1772562040383656700,5.46265673828125,-0.9870758056640625,-0.1428985595703125,-0.123138427734375
1772562040393639700,5.4726396484375,-0.98828125,-0.143280029296875,-0.123321533203125
1772562040403621600,5.48262158203125,-0.9868316650390625,-0.1391754150390625,-0.126556396484375
1772562040413603800,5.492603759765625,-0.986572265625,-0.1384124755859375,-0.127777099609375
1772562040423586600,5.502586669921875,-0.987274169921875,-0.1387786865234375,-0.128997802734375
1772562040433568800,5.51256884765625,-0.9840850830078125,-0.1368255615234375,-0.13128662109375
1772562040443551700,5.5225517578125,-0.9815216064453125,-0.136322021484375,-0.1317291259765625
1772562040453533700,5.53253369140625,-0.978515625,-0.1353912353515625,-0.132598876953125
1772562040463516700,5.5425166015625,-0.9752960205078125,-0.13494873046875,-0.1305999755859375
1772562040473499000,5.552498779296875,-0.9764404296875,-0.135650634765625,-0.130157470703125
1772562040483480600,5.56248046875,-0.9740447998046875,-0.13555908203125,-0.1297607421875
1772562040493463800,5.5724638671875,-0.974212646484375,-0.1364288330078125,-0.12799072265625
1772562040503445500,5.582445556640625,-0.976409912109375,-0.1372528076171875,-0.125335693359375
1772562040513428700,5.5924287109375,-0.9736175537109375,-0.13787841796875,-0.1235809326171875
1772562040523410700,5.60241064453125,-0.97467041015625,-0.1365509033203125,-0.123931884765625
1772562040533393700,5.6123935546875,-0.9739837646484375,-0.13604736328125,-0.12457275390625
1772562040543375600,5.622375732421875,-0.9769134521484375,-0.1361846923828125,-0.1248321533203125
1772562040553358800,5.63235888671875,-0.980682373046875,-0.1346435546875,-0.12542724609375
1772562040563340500,5.642340576171875,-0.9814453125,-0.1340789794921875,-0.1259918212890625
1772562040573322800,5.65232275390625,-0.9830169677734375,-0.1321258544921875,-0.12542724609375
1772562040583305500,5.662305419921875,-0.984832763671875,-0.1318206787109375,-0.124908447265625
1772562040593287700,5.67228759765625,-0.9822235107421875,-0.1313323974609375,-0.1246795654296875
1772562040603270700,5.682270751953125,-0.9793548583984375,-0.1317901611328125,-0.1231689453125
1772562040613252600,5.692252685546875,-0.9824371337890625,-0.133636474609375,-0.12255859375
1772562040623235600,5.702235595703125,-0.984405517578125,-0.133941650390625,-0.122955322265625
1772562040633217800,5.7122177734375,-0.985382080078125,-0.1337890625,-0.123687744140625
1772562040643199700,5.72219970703125,-0.9853057861328125,-0.133056640625,-0.1257476806640625
1772562040653182700,5.7321826171875,-0.9893341064453125,-0.13226318359375,-0.1272430419921875
1772562040663164700,5.74216455078125,-0.9896087646484375,-0.1312103271484375,-0.12786865234375
1772562040673144800,5.752144775390625,-0.9901275634765625,-0.1301727294921875,-0.1280517578125
1772562040683126800,5.762126708984375,-0.9933929443359375,-0.1309356689453125,-0.1282806396484375
1772562040693109800,5.77210986328125,-0.9938201904296875,-0.1314544677734375,-0.1289215087890625
1772562040703091700,5.782091796875,-0.9906158447265625,-0.1304473876953125,-0.1300201416015625
1772562040713073700,5.79207373046875,-0.990509033203125,-0.130126953125,-0.1304779052734375
1772562040723057000,5.802056884765625,-0.9891204833984375,-0.128875732421875,-0.131378173828125
1772562040733038600,5.81203857421875,-0.9866790771484375,-0.1277618408203125,-0.131866455078125
1772562040743021800,5.822021728515625,-0.984619140625,-0.127471923828125,-0.1305999755859375
1772562040753003500,5.83200341796875,-0.9845733642578125,-0.1273193359375,-0.130889892578125
1772562040762986800,5.84198681640625,-0.9833526611328125,-0.1262054443359375,-0.1326904296875
1772562040772968700,5.85196875,-0.97906494140625,-0.1249237060546875,-0.1337890625
1772562040782950700,5.86195068359375,-0.9771728515625,-0.12530517578125,-0.134674072265625
1772562040792933600,5.87193359375,-0.975006103515625,-0.1240081787109375,-0.133819580078125
1772562040802915800,5.881915771484375,-0.973541259765625,-0.123291015625,-0.13238525390625
1772562040812898600,5.891898681640625,-0.9726409912109375,-0.1243743896484375,-0.1312408447265625
1772562040822880800,5.901880859375,-0.97052001953125,-0.12530517578125,-0.130462646484375
1772562040832863700,5.91186376953125,-0.972625732421875,-0.125091552734375,-0.128204345703125
1772562040842845700,5.921845703125,-0.975433349609375,-0.1243896484375,-0.1282806396484375
1772562040852828700,5.93182861328125,-0.9756317138671875,-0.1221923828125,-0.129852294921875
1772562040862810600,5.941810546875,-0.976898193359375,-0.1213836669921875,-0.130340576171875
1772562040872792800,5.951792724609375,-0.9793701171875,-0.1224822998046875,-0.1292724609375
1772562040882775800,5.96177587890625,-0.98126220703125,-0.12530517578125,-0.12841796875
1772562040892757800,5.9717578125,-0.9809722900390625,-0.125091552734375,-0.1295318603515625
1772562040902740700,5.98174072265625,-0.9824981689453125,-0.1256561279296875,-0.128387451171875
1772562040912722700,5.99172265625,-0.9849395751953125,-0.125946044921875,-0.128631591796875
1772562040922705700,6.00170556640625,-0.9854736328125,-0.1265411376953125,-0.1304931640625
1772562040932688000,6.01168798828125,-0.98468017578125,-0.1243896484375,-0.1301422119140625
1772562040942669600,6.021669677734375,-0.986846923828125,-0.124481201171875,-0.1286163330078125
1772562040952652800,6.03165283203125,-0.98583984375,-0.1246185302734375,-0.12786865234375
1772562040962634800,6.041634765625,-0.9838409423828125,-0.12457275390625,-0.1265106201171875
1772562040972617700,6.05161767578125,-0.983184814453125,-0.1252899169921875,-0.1259765625
1772562040982599700,6.061599609375,-0.983489990234375,-0.126617431640625,-0.1257171630859375
1772562040992583000,6.0715830078125,-0.9866180419921875,-0.1281585693359375,-0.125274658203125
1772562041002564600,6.081564697265625,-0.987701416015625,-0.1275634765625,-0.12640380859375
1772562041012546800,6.091546875,-0.9883270263671875,-0.1290435791015625,-0.1262664794921875
1772562041022529500,6.101529541015625,-0.98974609375,-0.12994384765625,-0.12640380859375
1772562041032511700,6.11151171875,-0.9882049560546875,-0.1292724609375,-0.1262664794921875
1772562041042494700,6.12149462890625,-0.987396240234375,-0.1283721923828125,-0.125091552734375
1772562041052476700,6.1314765625,-0.984527587890625,-0.1277008056640625,-0.125244140625
1772562041062459600,6.141459716796875,-0.979217529296875,-0.1270599365234375,-0.1263427734375
1772562041072441900,6.15144189453125,-0.97705078125,-0.1252593994140625,-0.1254119873046875
1772562041082424600,6.161424560546875,-0.9765777587890625,-0.1240997314453125,-0.1256866455078125
1772562041092406800,6.17140673828125,-0.9761199951171875,-0.1242218017578125,-0.1276702880859375
1772562041102388700,6.181388671875,-0.9732513427734375,-0.12200927734375,-0.127655029296875
1772562041112371700,6.191371826171875,-0.971832275390625,-0.1202392578125,-0.126953125
1772562041122354000,6.20135400390625,-0.9732666015625,-0.1217193603515625,-0.1247100830078125
1772562041132336600,6.211336669921875,-0.9759521484375,-0.124908447265625,-0.12213134765625
1772562041142318800,6.22131884765625,-0.9771575927734375,-0.12542724609375,-0.1203460693359375
1772562041152301800,6.2313017578125,-0.9797821044921875,-0.1250762939453125,-0.118896484375
1772562041162283800,6.24128369140625,-0.98406982421875,-0.124908447265625,-0.1190338134765625
1772562041172265700,6.251265625,-0.988128662109375,-0.1228790283203125,-0.1208953857421875
1772562041182248700,6.261248779296875,-0.991790771484375,-0.1219024658203125,-0.1206512451171875
1772562041192230700,6.271230712890625,-0.992340087890625,-0.1226959228515625,-0.1201171875
1772562041202214000,6.2812138671875,-0.9912567138671875,-0.1196441650390625,-0.120880126953125
1772562041212195600,6.291195556640625,-0.9907379150390625,-0.11865234375,-0.1205596923828125
1772562041222178800,6.3011787109375,-0.9938201904296875,-0.121002197265625,-0.1195220947265625
1772562041232160800,6.311160888671875,-0.995361328125,-0.12213134765625,-0.1201324462890625
1772562041242142700,6.321142822265625,-0.9933929443359375,-0.1233062744140625,-0.121490478515625
1772562041252125700,6.331125732421875,-0.992034912109375,-0.1239776611328125,-0.1223602294921875
1772562041262107600,6.341107666015625,-0.9932708740234375,-0.125885009765625,-0.12225341796875
1772562041272090600,6.351090576171875,-0.99053955078125,-0.12774658203125,-0.1240234375
1772562041282072800,6.36107275390625,-0.986541748046875,-0.1268463134765625,-0.1254119873046875
1772562041292055600,6.3710556640625,-0.9845428466796875,-0.1254425048828125,-0.1251373291015625
1772562041302037800,6.381037841796875,-0.9829254150390625,-0.1237640380859375,-0.125579833984375
1772562041312020700,6.391020751953125,-0.98046875,-0.122222900390625,-0.1255645751953125
1772562041322002700,6.401002685546875,-0.9827423095703125,-0.1215667724609375,-0.1236724853515625
1772562041331984600,6.410984619140625,-0.982696533203125,-0.1224212646484375,-0.1224212646484375
1772562041341968000,6.4209677734375,-0.9823150634765625,-0.1234283447265625,-0.1223297119140625
1772562041351949600,6.430949462890625,-0.982513427734375,-0.12457275390625,-0.1219940185546875
1772562041361932800,6.440932861328125,-0.9850311279296875,-0.1245574951171875,-0.121551513671875
1772562041371914800,6.450914794921875,-0.9835662841796875,-0.1245574951171875,-0.1223907470703125
1772562041381897700,6.460897705078125,-0.98388671875,-0.1246185302734375,-0.1232452392578125
1772562041391879700,6.470879638671875,-0.9886932373046875,-0.12518310546875,-0.1246337890625
1772562041401861600,6.480861572265625,-0.9879150390625,-0.1232147216796875,-0.126708984375
1772562041411844600,6.4908447265625,-0.9834747314453125,-0.121612548828125,-0.1272430419921875
1772562041421826600,6.50082666015625,-0.9844970703125,-0.1246185302734375,-0.1242523193359375
1772562041431809500,6.5108095703125,-0.9863739013671875,-0.1270294189453125,-0.12152099609375
1772562041441791700,6.520791748046875,-0.9809722900390625,-0.1271209716796875,-0.121551513671875
1772562041451774700,6.530774658203125,-0.980560302734375,-0.1269683837890625,-0.1200408935546875
1772562041461756700,6.540756591796875,-0.9832916259765625,-0.1268157958984375,-0.1185455322265625
1772562041471739000,6.55073876953125,-0.98040771484375,-0.122772216796875,-0.11846923828125
1772562041481721600,6.5607216796875,-0.9786529541015625,-0.1207275390625,-0.1187896728515625
1772562041491703800,6.570703857421875,-0.9825286865234375,-0.1203460693359375,-0.11871337890625
1772562041501686800,6.580686767578125,-0.981689453125,-0.12322998046875,-0.11871337890625
1772562041511668700,6.590668701171875,-0.977569580078125,-0.1256256103515625,-0.116607666015625
1772562041521651700,6.600651611328125,-0.98199462890625,-0.128326416015625,-0.11614990234375
1772562041531633700,6.610633544921875,-0.98382568359375,-0.129547119140625,-0.1187591552734375
1772562041541616600,6.62061669921875,-0.9747161865234375,-0.126678466796875,-0.1197052001953125
1772562041551598800,6.630598876953125,-0.975433349609375,-0.1253662109375,-0.1201019287109375
1772562041561580500,6.64058056640625,-0.9832763671875,-0.1245574951171875,-0.1190338134765625
1772562041571563800,6.650563720703125,-0.9833831787109375,-0.1240692138671875,-0.1210174560546875
1772562041581545500,6.66054541015625,-0.97943115234375,-0.1249847412109375,-0.1224365234375
1772562041591528700,6.67052880859375,-0.98248291015625,-0.12530517578125,-0.1234893798828125
1772562041601510700,6.6805107421875,-0.98431396484375,-0.1258544921875,-0.1251068115234375
1772562041611493600,6.69049365234375,-0.9829559326171875,-0.126861572265625,-0.1253814697265625
1772562041621475600,6.7004755859375,-0.985565185546875,-0.1278076171875,-0.1218109130859375
1772562041631457800,6.710457763671875,-0.9895782470703125,-0.129180908203125,-0.12225341796875
1772562041641440500,6.7204404296875,-0.9841156005859375,-0.1287994384765625,-0.1253509521484375
1772562041651422700,6.730422607421875,-0.9805755615234375,-0.1267547607421875,-0.124664306640625
1772562041661405700,6.74040576171875,-0.983245849609375,-0.128204345703125,-0.1247406005859375
1772562041671387400,6.750387451171875,-0.981536865234375,-0.1314544677734375,-0.1235198974609375
1772562041681370600,6.76037060546875,-0.9782562255859375,-0.132904052734375,-0.1219024658203125
1772562041691352300,6.770352294921875,-0.982391357421875,-0.132598876953125,-0.121063232421875
1772562041701334500,6.78033447265625,-0.984039306640625,-0.1311492919921875,-0.1223907470703125
1772562041711317500,6.7903173828125,-0.9828948974609375,-0.128662109375,-0.123992919921875
1772562041721299500,6.800299560546875,-0.985198974609375,-0.1287078857421875,-0.1217498779296875
1772562041731282400,6.810282470703125,-0.99114990234375,-0.131683349609375,-0.1215667724609375
1772562041741264400,6.820264404296875,-0.99163818359375,-0.132080078125,-0.122406005859375
1772562041751247400,6.830247314453125,-0.98980712890625,-0.1312255859375,-0.1216888427734375
1772562041761229600,6.8402294921875,-0.9907989501953125,-0.1334228515625,-0.1215972900390625
1772562041771212300,6.85021240234375,-0.9913787841796875,-0.13525390625,-0.1199798583984375
1772562041781194500,6.860194580078125,-0.985443115234375,-0.1337738037109375,-0.119903564453125
1772562041791176400,6.870176513671875,-0.983551025390625,-0.132904052734375,-0.118743896484375
1772562041801159400,6.880159423828125,-0.9815216064453125,-0.134674072265625,-0.11578369140625
1772562041811141400,6.890141357421875,-0.9775390625,-0.1362762451171875,-0.1138763427734375
1772562041821124600,6.90012451171875,-0.979583740234375,-0.1372833251953125,-0.1156005859375
1772562041831106300,6.910106201171875,-0.9789276123046875,-0.137420654296875,-0.1160888671875
1772562041841089500,6.920089599609375,-0.979522705078125,-0.1375579833984375,-0.116058349609375
1772562041851071200,6.9300712890625,-0.9808807373046875,-0.1387939453125,-0.1170654296875
1772562041861054500,6.940054443359375,-0.9821929931640625,-0.1403961181640625,-0.1163177490234375
1772562041871036400,6.950036376953125,-0.9819183349609375,-0.1385345458984375,-0.1175994873046875
1772562041881018400,6.960018310546875,-0.9851226806640625,-0.13848876953125,-0.1173248291015625
1772562041891001300,6.97000146484375,-0.986419677734375,-0.138397216796875,-0.1190948486328125
1772562041900983600,6.979983642578125,-0.9834442138671875,-0.1377105712890625,-0.119476318359375
1772562041910966300,6.98996630859375,-0.9850006103515625,-0.1379241943359375,-0.118255615234375
1772562041920948500,6.999948486328125,-0.987548828125,-0.1399078369140625,-0.1170196533203125
1772562041930931500,7.009931396484375,-0.9878082275390625,-0.1408843994140625,-0.117919921875
1772562041940913400,7.019913330078125,-0.9864501953125,-0.14068603515625,-0.1172943115234375
1772562041950895600,7.0298955078125,-0.987945556640625,-0.1396942138671875,-0.1186065673828125
1772562041960878300,7.03987841796875,-0.988250732421875,-0.1402587890625,-0.1191558837890625
1772562041970860500,7.049860595703125,-0.98663330078125,-0.140350341796875,-0.118072509765625
1772562041980843500,7.059843505859375,-0.98797607421875,-0.1396636962890625,-0.11724853515625
1772562041990825500,7.069825439453125,-0.9864959716796875,-0.138702392578125,-0.1178436279296875
1772562042000808400,7.079808349609375,-0.9866485595703125,-0.1394805908203125,-0.117401123046875
1772562042010790400,7.089790283203125,-0.9869232177734375,-0.1407318115234375,-0.118011474609375
1772562042020772400,7.0997724609375,-0.9865264892578125,-0.1410980224609375,-0.1182708740234375
1772562042030755600,7.109755615234375,-0.985504150390625,-0.140716552734375,-0.12030029296875
1772562042040737300,7.1197373046875,-0.983154296875,-0.1393890380859375,-0.121856689453125
1772562042050720500,7.129720458984375,-0.9825286865234375,-0.1394195556640625,-0.1204071044921875
1772562042060702500,7.139702392578125,-0.9820709228515625,-0.1406402587890625,-0.121307373046875
1772562042070685400,7.149685546875,-0.9801025390625,-0.1407623291015625,-0.1202850341796875
1772562042080667400,7.15966748046875,-0.9775390625,-0.13983154296875,-0.12139892578125
1772562042090650600,7.169650634765625,-0.9739532470703125,-0.1386871337890625,-0.121734619140625
1772562042100632300,7.17963232421875,-0.9724578857421875,-0.1384429931640625,-0.1205596923828125
1772562042110614500,7.189614501953125,-0.9706573486328125,-0.1379241943359375,-0.117919921875
1772562042120597200,7.19959716796875,-0.9701995849609375,-0.1386871337890625,-0.114532470703125
1772562042130579500,7.209579345703125,-0.9686279296875,-0.1421661376953125,-0.1126556396484375
1772562042140562400,7.2195625,-0.968780517578125,-0.142364501953125,-0.112548828125
1772562042150544400,7.22954443359375,-0.9704132080078125,-0.1452178955078125,-0.11077880859375
1772562042160527400,7.23952734375,-0.975311279296875,-0.148590087890625,-0.111236572265625
1772562042170509300,7.24950927734375,-0.9756927490234375,-0.1473236083984375,-0.1119842529296875
1772562042180491500,7.259491455078125,-0.979339599609375,-0.14508056640625,-0.1140594482421875
1772562042190474500,7.269474609375,-0.9831085205078125,-0.1423492431640625,-0.116180419921875
1772562042200456400,7.27945654296875,-0.98492431640625,-0.14007568359375,-0.11572265625
1772562042210439400,7.289439453125,-0.986724853515625,-0.1397552490234375,-0.114410400390625
1772562042220421600,7.299421630859375,-0.9854583740234375,-0.1391754150390625,-0.114990234375
1772562042230404400,7.309404296875,-0.984130859375,-0.1387939453125,-0.113616943359375
1772562042240386600,7.319386474609375,-0.981781005859375,-0.1412811279296875,-0.1131591796875
1772562042250369500,7.32936962890625,-0.980133056640625,-0.142669677734375,-0.1123199462890625
1772562042260351500,7.3393515625,-0.9799652099609375,-0.1440887451171875,-0.112152099609375
1772562042270333400,7.34933349609375,-0.979248046875,-0.1457672119140625,-0.1113739013671875
1772562042280316400,7.35931640625,-0.978546142578125,-0.1450347900390625,-0.11199951171875
1772562042290298400,7.36929833984375,-0.98114013671875,-0.144500732421875,-0.112579345703125
1772562042300281600,7.379281494140625,-0.9836578369140625,-0.1449432373046875,-0.113616943359375
1772562042310263300,7.38926318359375,-0.98828125,-0.1443023681640625,-0.113433837890625
1772562042320246500,7.39924658203125,-0.9915771484375,-0.142791748046875,-0.115447998046875
1772562042330228500,7.409228515625,-0.9918975830078125,-0.1385345458984375,-0.1172332763671875
1772562042340210400,7.41921044921875,-0.9904632568359375,-0.1349334716796875,-0.1199951171875
1772562042350193400,7.429193359375,-0.9900360107421875,-0.132598876953125,-0.1214599609375
1772562042360175400,7.43917529296875,-0.986328125,-0.1311798095703125,-0.1216583251953125
1772562042370158300,7.449158447265625,-0.9814605712890625,-0.13372802734375,-0.1191253662109375
1772562042380140500,7.459140625,-0.9798126220703125,-0.1390380859375,-0.1183624267578125
1772562042390123300,7.469123291015625,-0.9760284423828125,-0.1425933837890625,-0.1173553466796875
1772562042400105500,7.47910546875,-0.9726409912109375,-0.146270751953125,-0.1160888671875
1772562042410088400,7.48908837890625,-0.9693145751953125,-0.149017333984375,-0.1146392822265625
1772562042420070400,7.4990703125,-0.9691619873046875,-0.151641845703125,-0.1149139404296875
1772562042430052600,7.509052490234375,-0.967742919921875,-0.1519927978515625,-0.11566162109375
1772562042440035300,7.519035400390625,-0.9672393798828125,-0.1514129638671875,-0.117034912109375
1772562042450017500,7.529017578125,-0.96990966796875,-0.1512603759765625,-0.1195526123046875
1772562042460000500,7.53900048828125,-0.9723968505859375,-0.149810791015625,-0.1199798583984375
1772562042469982500,7.548982421875,-0.973846435546875,-0.1491241455078125,-0.1191253662109375
1772562042479965400,7.55896533203125,-0.975921630859375,-0.1491851806640625,-0.12066650390625
1772562042489947600,7.56894775390625,-0.97686767578125,-0.1485443115234375,-0.122406005859375
1772562042499929300,7.578929443359375,-0.979248046875,-0.1476593017578125,-0.1217041015625
1772562042509912600,7.58891259765625,-0.97906494140625,-0.1475067138671875,-0.1219329833984375
1772562042519894300,7.598894287109375,-0.978515625,-0.1476898193359375,-0.1208038330078125
1772562042529877500,7.60887744140625,-0.9796600341796875,-0.147979736328125,-0.1196136474609375
1772562042539859500,7.618859375,-0.981658935546875,-0.149017333984375,-0.118072509765625
1772562042549842400,7.628842529296875,-0.9806671142578125,-0.148468017578125,-0.1187744140625
1772562042559824400,7.638824462890625,-0.9783172607421875,-0.1444549560546875,-0.1190032958984375
1772562042569807600,7.6488076171875,-0.98077392578125,-0.143951416015625,-0.1163482666015625
1772562042579789300,7.658789306640625,-0.9805450439453125,-0.1427764892578125,-0.1171417236328125
1772562042589771500,7.668771484375,-0.9788360595703125,-0.1396484375,-0.116363525390625
1772562042599754500,7.67875439453125,-0.979339599609375,-0.1385040283203125,-0.1168212890625
1772562042609736400,7.688736328125,-0.9799652099609375,-0.1394195556640625,-0.114471435546875
1772562042619719400,7.698719482421875,-0.981109619140625,-0.141998291015625,-0.113006591796875
1772562042629701400,7.708701416015625,-0.981475830078125,-0.14227294921875,-0.11517333984375
1772562042639684400,7.718684326171875,-0.980224609375,-0.1412353515625,-0.112457275390625
1772562042649666600,7.72866650390625,-0.9818267822265625,-0.140594482421875,-0.1118011474609375
1772562042659648500,7.7386484375,-0.981109619140625,-0.1404266357421875,-0.1111907958984375
1772562042669631000,7.748630859375,-0.982086181640625,-0.1402130126953125,-0.1097412109375
1772562042679613000,7.758613037109375,-0.9805145263671875,-0.1392974853515625,-0.111053466796875
1772562042689596000,7.768595947265625,-0.978607177734375,-0.1385498046875,-0.108673095703125
1772562042699578000,7.778578125,-0.9794769287109375,-0.1405181884765625,-0.10760498046875
1772562042709560800,7.788560791015625,-0.97998046875,-0.14178466796875,-0.109222412109375
1772562042719543000,7.79854296875,-0.980194091796875,-0.139984130859375,-0.109405517578125
1772562042729526000,7.808526123046875,-0.98089599609375,-0.139312744140625,-0.111785888671875
1772562042739508000,7.818508056640625,-0.982147216796875,-0.141754150390625,-0.112457275390625
1772562042749490000,7.828489990234375,-0.9825439453125,-0.1412506103515625,-0.1123504638671875
1772562042759473000,7.838472900390625,-0.98291015625,-0.1391448974609375,-0.11309814453125
1772562042769454800,7.848454833984375,-0.9850006103515625,-0.1409759521484375,-0.111083984375
1772562042779438000,7.85843798828125,-0.98773193359375,-0.14471435546875,-0.110382080078125
1772562042789419800,7.868419677734375,-0.9886322021484375,-0.146759033203125,-0.1112518310546875
1772562042799403000,7.878403076171875,-0.986175537109375,-0.1447906494140625,-0.112274169921875
1772562042809385000,7.888385009765625,-0.9854583740234375,-0.145782470703125,-0.11248779296875
1772562042819368000,7.898367919921875,-0.98321533203125,-0.148223876953125,-0.111175537109375
1772562042829350000,7.908349853515625,-0.9804534912109375,-0.1489105224609375,-0.1100921630859375
1772562042839331800,7.918331787109375,-0.98016357421875,-0.146942138671875,-0.1090240478515625
1772562042849314800,7.928314697265625,-0.9791107177734375,-0.14605712890625,-0.1103363037109375
1772562042859297000,7.938297119140625,-0.9781951904296875,-0.145111083984375,-0.1097412109375
1772562042869279700,7.94827978515625,-0.9804840087890625,-0.1447601318359375,-0.10791015625
1772562042879262000,7.958261962890625,-0.9829864501953125,-0.1453399658203125,-0.1108551025390625
1772562042889245000,7.968244873046875,-0.9848480224609375,-0.145416259765625,-0.1114501953125
1772562042899227000,7.978226806640625,-0.9886322021484375,-0.1451263427734375,-0.1097412109375
1772562042909206800,7.988206787109375,-0.9909820556640625,-0.1453704833984375,-0.10870361328125
1772562042919189000,7.99818896484375,-0.9901123046875,-0.14373779296875,-0.1072845458984375
1772562042929172000,8.008171875,-0.98828125,-0.1399688720703125,-0.1063995361328125
1772562042939154000,8.01815380859375,-0.98712158203125,-0.1385650634765625,-0.1057586669921875
1772562042949137000,8.028136962890626,-0.9873199462890625,-0.1381988525390625,-0.103790283203125
1772562042959118800,8.038118896484375,-0.98760986328125,-0.1370849609375,-0.1053314208984375
1772562042969101800,8.048101806640625,-0.9862823486328125,-0.1358795166015625,-0.1069183349609375
1772562042979084000,8.058083984375,-0.9855499267578125,-0.1364288330078125,-0.1064300537109375
1772562042989066800,8.068066650390625,-0.9870452880859375,-0.13873291015625,-0.1059112548828125
1772562042999049000,8.078049072265625,-0.987548828125,-0.139923095703125,-0.1057891845703125
1772562043009031200,8.08803125,-0.98687744140625,-0.1394195556640625,-0.1063232421875
1772562043019014000,8.098013916015624,-0.98492431640625,-0.1378936767578125,-0.1076507568359375
1772562043028996000,8.10799609375,-0.98468017578125,-0.1368865966796875,-0.1087493896484375
1772562043038979000,8.11797900390625,-0.9852142333984375,-0.1360321044921875,-0.109344482421875
1772562043048961000,8.1279609375,-0.9842529296875,-0.1363677978515625,-0.1087646484375
1772562043058944000,8.137944091796875,-0.9800567626953125,-0.1357574462890625,-0.1089935302734375
1772562043068926000,8.147926025390625,-0.9795989990234375,-0.1365203857421875,-0.1076202392578125
1772562043078909000,8.157908935546875,-0.9825286865234375,-0.1362152099609375,-0.1070098876953125
1772562043088891100,8.16789111328125,-0.97979736328125,-0.135650634765625,-0.108154296875
1772562043098872800,8.177872802734376,-0.98028564453125,-0.1356658935546875,-0.10821533203125
1772562043108856000,8.18785595703125,-0.982452392578125,-0.135162353515625,-0.111083984375
1772562043118838000,8.197838134765625,-0.9810943603515625,-0.1342620849609375,-0.1112823486328125
1772562043128821000,8.207821044921875,-0.982757568359375,-0.1338043212890625,-0.1116790771484375
1772562043138803000,8.217802978515625,-0.9843292236328125,-0.133087158203125,-0.1142578125
1772562043148786200,8.2277861328125,-0.9826202392578125,-0.130950927734375,-0.1157073974609375
1772562043158767900,8.237767822265624,-0.9843597412109375,-0.1280975341796875,-0.1165771484375
1772562043168750000,8.24775,-0.9854888916015625,-0.1286468505859375,-0.1164703369140625
1772562043178732800,8.25773291015625,-0.9842071533203125,-0.1285858154296875,-0.11651611328125
1772562043188715000,8.267715087890625,-0.9851226806640625,-0.1310882568359375,-0.11578369140625
1772562043198698000,8.277697998046875,-0.9844818115234375,-0.1324920654296875,-0.115936279296875
1772562043208680000,8.287679931640625,-0.98309326171875,-0.1320648193359375,-0.115997314453125
1772562043218663000,8.297662841796875,-0.9812164306640625,-0.1318359375,-0.1161041259765625
1772562043228644900,8.307644775390624,-0.979522705078125,-0.1322784423828125,-0.114227294921875
1772562043238627800,8.3176279296875,-0.9791717529296875,-0.1310272216796875,-0.1136474609375
1772562043248610000,8.327610107421876,-0.977569580078125,-0.131500244140625,-0.1120758056640625
1772562043258592000,8.337592041015625,-0.9779052734375,-0.1316375732421875,-0.1104888916015625
1772562043268575000,8.347574951171875,-0.979583740234375,-0.1327362060546875,-0.11041259765625
1772562043278557200,8.35755712890625,-0.9800567626953125,-0.1332855224609375,-0.1098785400390625
1772562043288540000,8.367539794921875,-0.980865478515625,-0.1330718994140625,-0.10992431640625
1772562043298522000,8.377522216796875,-0.984130859375,-0.1334075927734375,-0.1099700927734375
1772562043308505000,8.387505126953124,-0.9847869873046875,-0.1334686279296875,-0.1130828857421875
1772562043318487000,8.397487060546876,-0.9859771728515625,-0.1316070556640625,-0.1131439208984375
1772562043328470000,8.407469970703126,-0.9886932373046875,-0.1290740966796875,-0.1134490966796875
1772562043338452000,8.417451904296875,-0.9889068603515625,-0.12744140625,-0.115081787109375
1772562043348434000,8.427433837890625,-0.988494873046875,-0.125518798828125,-0.1159820556640625
1772562043358417200,8.437417236328125,-0.9887542724609375,-0.125152587890625,-0.1148529052734375
1772562043368398800,8.44739892578125,-0.988037109375,-0.12554931640625,-0.114654541015625
1772562043378382000,8.457382080078125,-0.9848480224609375,-0.1264801025390625,-0.1140594482421875
1772562043388363800,8.46736376953125,-0.984619140625,-0.1271820068359375,-0.1135101318359375
1772562043398347000,8.477346923828126,-0.9835205078125,-0.12725830078125,-0.1155242919921875
1772562043408329000,8.487328857421875,-0.981414794921875,-0.1267852783203125,-0.1159820556640625
1772562043418312200,8.497312255859375,-0.982666015625,-0.1281585693359375,-0.1146087646484375
1772562043428294000,8.5072939453125,-0.9801788330078125,-0.126678466796875,-0.11346435546875
1772562043438276000,8.517276123046875,-0.978668212890625,-0.125579833984375,-0.1144561767578125
1772562043448258800,8.5272587890625,-0.980743408203125,-0.1261444091796875,-0.1148223876953125
1772562043458241000,8.537240966796874,-0.98199462890625,-0.126678466796875,-0.114990234375
1772562043468224000,8.54722412109375,-0.9859466552734375,-0.126678466796875,-0.114044189453125
1772562043478206000,8.5572060546875,-0.9863739013671875,-0.1277923583984375,-0.114013671875
1772562043488189000,8.56718896484375,-0.98626708984375,-0.126983642578125,-0.113006591796875
1772562043498171000,8.5771708984375,-0.98748779296875,-0.1253814697265625,-0.112030029296875
1772562043508153000,8.587153076171875,-0.9879302978515625,-0.1254425048828125,-0.1126861572265625
1772562043518136000,8.597135986328125,-0.990234375,-0.126190185546875,-0.1134033203125
1772562043528121000,8.60712109375,-0.9925994873046875,-0.126678466796875,-0.1136474609375
1772562043538102800,8.617102783203125,-0.991912841796875,-0.1277618408203125,-0.1150360107421875
1772562043548086000,8.6270859375,-0.99127197265625,-0.12786865234375,-0.1158447265625
1772562043558068000,8.63706787109375,-0.990081787109375,-0.1267242431640625,-0.11480712890625
1772562043568051000,8.647051025390626,-0.9906768798828125,-0.1272735595703125,-0.1125640869140625
1772562043578033000,8.657032958984376,-0.9874114990234375,-0.12744140625,-0.112213134765625
1772562043588014800,8.667014892578125,-0.98651123046875,-0.12591552734375,-0.1112823486328125
1772562043597997800,8.676997802734375,-0.9880218505859375,-0.1244354248046875,-0.1132354736328125
1772562043607980000,8.68697998046875,-0.98541259765625,-0.123779296875,-0.1156005859375
1772562043617962800,8.696962646484375,-0.983795166015625,-0.1241912841796875,-0.114501953125
1772562043627945000,8.706945068359374,-0.9864349365234375,-0.1233978271484375,-0.1135406494140625
1772562043637928000,8.716927978515624,-0.9838714599609375,-0.1241607666015625,-0.1126556396484375
1772562043647910000,8.726909912109376,-0.9821624755859375,-0.12579345703125,-0.1122894287109375
1772562043657892900,8.736892822265625,-0.9812469482421875,-0.1245574951171875,-0.1109161376953125
1772562043667875000,8.746875,-0.9830474853515625,-0.1241455078125,-0.110595703125
1772562043677861400,8.756861328125,-0.9794158935546875,-0.1225433349609375,-0.1096954345703125
1772562043687844600,8.7668447265625,-0.9783477783203125,-0.1180572509765625,-0.11004638671875
1772562043697826300,8.776826416015625,-0.9777069091796875,-0.1211700439453125,-0.1080322265625
1772562043707809500,8.7868095703125,-0.9835357666015625,-0.1254425048828125,-0.1066131591796875
1772562043717791500,8.79679150390625,-0.9817047119140625,-0.1197509765625,-0.10760498046875
1772562043727774500,8.8067744140625,-0.97833251953125,-0.1188812255859375,-0.1082916259765625
1772562043737756400,8.81675634765625,-0.9847869873046875,-0.1217041015625,-0.108978271484375
1772562043747739600,8.82673974609375,-0.9889984130859375,-0.1215972900390625,-0.1098785400390625
1772562043757721300,8.836721435546876,-0.988037109375,-0.1209716796875,-0.1135406494140625
1772562043767703600,8.84670361328125,-0.9866790771484375,-0.121490478515625,-0.1148223876953125
1772562043777686500,8.8566865234375,-0.989288330078125,-0.124267578125,-0.1157989501953125
1772562043787668500,8.86666845703125,-0.991424560546875,-0.1285247802734375,-0.116729736328125
1772562043797651500,8.8766513671875,-0.986175537109375,-0.12939453125,-0.1187896728515625
1772562043807633400,8.88663330078125,-0.984954833984375,-0.12762451171875,-0.119659423828125
1772562043817616400,8.896616455078124,-0.9841156005859375,-0.1278839111328125,-0.1190032958984375
1772562043827598600,8.9065986328125,-0.9815521240234375,-0.12860107421875,-0.119781494140625
1772562043837581300,8.916581298828126,-0.97906494140625,-0.1275482177734375,-0.1190032958984375
1772562043847563500,8.9265634765625,-0.9822540283203125,-0.128448486328125,-0.1178741455078125
1772562043857545700,8.936545654296875,-0.9819488525390625,-0.1318359375,-0.1175079345703125
1772562043867528400,8.946528564453125,-0.9804229736328125,-0.1331939697265625,-0.1161041259765625
1772562043877510700,8.9565107421875,-0.9853363037109375,-0.133331298828125,-0.115203857421875
1772562043887493600,8.96649365234375,-0.988922119140625,-0.131195068359375,-0.1157379150390625
1772562043897475600,8.9764755859375,-0.9871826171875,-0.127960205078125,-0.11627197265625
1772562043907458600,8.98645849609375,-0.9882354736328125,-0.1256561279296875,-0.11529541015625
1772562043917440500,8.9964404296875,-0.988800048828125,-0.12530517578125,-0.11474609375
1772562043927422500,9.00642236328125,-0.988311767578125,-0.1253662109375,-0.1122894287109375
1772562043937405700,9.01640576171875,-0.9860382080078125,-0.1239776611328125,-0.11175537109375
1772562043947387400,9.026387451171875,-0.9833526611328125,-0.123443603515625,-0.112060546875
1772562043957370600,9.03637060546875,-0.9817047119140625,-0.1231842041015625,-0.1107635498046875
1772562043967352300,9.046352294921874,-0.98040771484375,-0.1260833740234375,-0.1092071533203125
1772562043977335600,9.05633544921875,-0.97833251953125,-0.127716064453125,-0.1087646484375
1772562043987317500,9.0663173828125,-0.9755706787109375,-0.1295623779296875,-0.10723876953125
1772562043997300500,9.076300537109375,-0.975738525390625,-0.130401611328125,-0.1055450439453125
1772562044007282400,9.086282470703125,-0.9776611328125,-0.132965087890625,-0.1049041748046875
1772562044017264600,9.0962646484375,-0.981109619140625,-0.1338348388671875,-0.1072845458984375
1772562044027247400,9.106247314453125,-0.982940673828125,-0.1270599365234375,-0.1072998046875
1772562044037229600,9.1162294921875,-0.9879913330078125,-0.1281280517578125,-0.108184814453125
1772562044047212500,9.126212646484374,-0.9908599853515625,-0.1320953369140625,-0.110198974609375
1772562044057194500,9.136194580078126,-0.990081787109375,-0.129425048828125,-0.110595703125
1772562044067177500,9.146177490234376,-0.9912261962890625,-0.1298370361328125,-0.1115875244140625
1772562044077159400,9.156159423828125,-0.99334716796875,-0.1316680908203125,-0.1129608154296875
1772562044087142400,9.166142333984375,-0.9927978515625,-0.131805419921875,-0.11309814453125
1772562044097124600,9.17612451171875,-0.99176025390625,-0.1328277587890625,-0.1129608154296875
1772562044107106600,9.1861064453125,-0.9933319091796875,-0.1351318359375,-0.1138153076171875
1772562044117089500,9.196089599609374,-0.990478515625,-0.136016845703125,-0.1147613525390625
1772562044127071500,9.206071533203126,-0.9886474609375,-0.1334228515625,-0.1162109375
1772562044137054500,9.216054443359376,-0.9893951416015625,-0.133148193359375,-0.1188201904296875
1772562044147036700,9.22603662109375,-0.988372802734375,-0.13238525390625,-0.119171142578125
1772562044157019600,9.23601953125,-0.9853668212890625,-0.1307373046875,-0.1189117431640625
1772562044167001600,9.246001708984375,-0.9859619140625,-0.130218505859375,-0.1167755126953125
1772562044176984600,9.255984619140625,-0.9856719970703125,-0.1315460205078125,-0.1159820556640625
1772562044186966500,9.265966552734374,-0.983428955078125,-0.13165283203125,-0.1150970458984375
1772562044196948500,9.275948486328126,-0.9840240478515625,-0.1317138671875,-0.113739013671875
1772562044206931700,9.285931640625,-0.9852447509765625,-0.1309356689453125,-0.1132965087890625
1772562044216913400,9.295913330078125,-0.9846649169921875,-0.1295623779296875,-0.1148223876953125
1772562044226896600,9.305896728515625,-0.9824981689453125,-0.1275634765625,-0.115264892578125
1772562044236878300,9.31587841796875,-0.97869873046875,-0.1260833740234375,-0.1160125732421875
1772562044246861600,9.325861572265625,-0.9787750244140625,-0.1254119873046875,-0.1130523681640625
1772562044256843500,9.335843505859375,-0.9781951904296875,-0.1253204345703125,-0.1134033203125
1772562044266826500,9.345826416015624,-0.9755706787109375,-0.1265869140625,-0.1123199462890625
1772562044276808400,9.355808349609376,-0.974945068359375,-0.1273040771484375,-0.111663818359375
1772562044286790700,9.365790771484376,-0.9759979248046875,-0.1285552978515625,-0.110076904296875
1772562044296773400,9.3757734375,-0.978057861328125,-0.129486083984375,-0.11083984375
1772562044306755600,9.385755615234375,-0.97930908203125,-0.13006591796875,-0.1121826171875
1772562044316738600,9.395738525390625,-0.980682373046875,-0.130859375,-0.1118011474609375
1772562044326720500,9.405720458984375,-0.9822998046875,-0.1316070556640625,-0.113250732421875
1772562044336703500,9.415703369140624,-0.98101806640625,-0.131134033203125,-0.1134185791015625
1772562044346685400,9.425685546875,-0.9835968017578125,-0.130096435546875,-0.11322021484375
1772562044356667400,9.43566748046875,-0.9888153076171875,-0.1290130615234375,-0.1136322021484375
1772562044366650600,9.445650634765625,-0.98724365234375,-0.1280975341796875,-0.114990234375
1772562044376632600,9.455632568359375,-0.9858551025390625,-0.12689208984375,-0.1134796142578125
1772562044386615600,9.465615478515625,-0.9904327392578125,-0.1286468505859375,-0.112030029296875
1772562044396597500,9.475597412109375,-0.9912872314453125,-0.132843017578125,-0.113800048828125
1772562044406580500,9.48558056640625,-0.9834747314453125,-0.1318511962890625,-0.1148834228515625
1772562044416562400,9.4955625,-0.9817047119140625,-0.132720947265625,-0.112518310546875
1772562044426545400,9.50554541015625,-0.984405517578125,-0.136444091796875,-0.1126861572265625
1772562044436527600,9.515527587890626,-0.9780426025390625,-0.1363677978515625,-0.1134185791015625
1772562044446509600,9.525509521484375,-0.9730377197265625,-0.1345062255859375,-0.1138916015625
1772562044456492500,9.535492431640625,-0.9773406982421875,-0.1339874267578125,-0.1106719970703125
1772562044466474500,9.545474609375,-0.9800872802734375,-0.13360595703125,-0.1122283935546875
1772562044476457500,9.55545751953125,-0.976898193359375,-0.1309051513671875,-0.1131591796875
1772562044486439400,9.565439453125,-0.981842041015625,-0.12841796875,-0.1118011474609375
1772562044496422700,9.575422607421874,-0.9881591796875,-0.1295928955078125,-0.1125335693359375
1772562044506404400,9.585404296875,-0.988128662109375,-0.12799072265625,-0.1143035888671875
1772562044516387600,9.5953876953125,-0.989349365234375,-0.1284637451171875,-0.1141815185546875
1772562044526369500,9.60536962890625,-0.9892730712890625,-0.1294708251953125,-0.114898681640625
1772562044536351500,9.6153515625,-0.9893646240234375,-0.1321868896484375,-0.115447998046875
1772562044546334500,9.62533447265625,-0.987640380859375,-0.1330413818359375,-0.11395263671875
1772562044556316700,9.635316650390624,-0.9840545654296875,-0.1333770751953125,-0.1134185791015625
1772562044566299400,9.64529931640625,-0.983428955078125,-0.1346893310546875,-0.11407470703125
1772562044576281600,9.655281494140626,-0.9822540283203125,-0.1341705322265625,-0.1136627197265625
1772562044586264600,9.6652646484375,-0.9834747314453125,-0.132781982421875,-0.1127166748046875
1772562044596246500,9.67524658203125,-0.9839324951171875,-0.1326446533203125,-0.11273193359375
1772562044606229500,9.6852294921875,-0.9832763671875,-0.133941650390625,-0.1129913330078125
1772562044616211500,9.69521142578125,-0.9828033447265625,-0.1345977783203125,-0.1136322021484375
1772562044626193400,9.705193359375,-0.9840545654296875,-0.13543701171875,-0.1145477294921875
1772562044636176600,9.7151767578125,-0.9842071533203125,-0.1359710693359375,-0.11517333984375
1772562044646158300,9.725158447265626,-0.9858856201171875,-0.134674072265625,-0.11529541015625
1772562044656141600,9.7351416015625,-0.9849090576171875,-0.131805419921875,-0.114288330078125
1772562044666123300,9.745123291015625,-0.986846923828125,-0.1306304931640625,-0.114654541015625
1772562044676106000,9.75510595703125,-0.985931396484375,-0.13128662109375,-0.114288330078125
1772562044686088000,9.765087890625,-0.984405517578125,-0.130157470703125,-0.1131134033203125
1772562044696071000,9.77507080078125,-0.984954833984375,-0.131927490234375,-0.11224365234375
1772562044706053000,9.78505322265625,-0.9827117919921875,-0.13348388671875,-0.1116485595703125
1772562044716034800,9.795034912109376,-0.9816131591796875,-0.1366424560546875,-0.1101837158203125
1772562044726018000,9.80501806640625,-0.98272705078125,-0.13763427734375,-0.11065673828125
1772562044736000000,9.815,-0.98284912109375,-0.1365509033203125,-0.1114349365234375
1772562044745983000,9.82498291015625,-0.983184814453125,-0.1352691650390625,-0.1130828857421875
1772562044755965000,9.83496484375,-0.9841156005859375,-0.1344451904296875,-0.116180419921875
1772562044765948200,9.8449482421875,-0.9839019775390625,-0.13232421875,-0.115478515625
1772562044775929900,9.854929931640624,-0.9831085205078125,-0.1324005126953125,-0.1161346435546875
1772562044785912000,9.864912109375,-0.9847869873046875,-0.1327972412109375,-0.1150360107421875
1772562044795894800,9.874894775390626,-0.9851531982421875,-0.1334381103515625,-0.116058349609375
1772562044805877000,9.884876953125,-0.983367919921875,-0.135223388671875,-0.1161956787109375
1772562044815860000,9.89485986328125,-0.9845123291015625,-0.1351776123046875,-0.11602783203125
1772562044825842000,9.904842041015625,-0.983978271484375,-0.13494873046875,-0.1164398193359375
1772562044835825000,9.914824951171875,-0.981109619140625,-0.1359100341796875,-0.1179046630859375
1772562044845806800,9.924806884765625,-0.9806976318359375,-0.136199951171875,-0.1160888671875
1772562044855789800,9.934789794921874,-0.9822845458984375,-0.1381988525390625,-0.114837646484375
1772562044865772000,9.94477197265625,-0.9788360595703125,-0.1407928466796875,-0.11590576171875
1772562044875755000,9.954755126953126,-0.9790496826171875,-0.1400604248046875,-0.1141510009765625
1772562044885737000,9.964737060546875,-0.984954833984375,-0.1403045654296875,-0.112945556640625
1772562044895719200,9.97471923828125,-0.9823760986328125,-0.139373779296875,-0.11456298828125
1772562044905702000,9.984701904296875,-0.9789581298828125,-0.1386566162109375,-0.1154937744140625
1772562044915684000,9.99468408203125,-0.9852142333984375,-0.137451171875,-0.1145782470703125
1772562044925667000,10.0046669921875,-0.9873199462890625,-0.13775634765625,-0.11395263671875
1772562044935649000,10.01464892578125,-0.9840240478515625,-0.136962890625,-0.1148223876953125
1772562044945632000,10.024632080078124,-0.984649658203125,-0.1378936767578125,-0.1138763427734375
1772562044955614000,10.034614013671876,-0.98883056640625,-0.1400299072265625,-0.11279296875
1772562044965597000,10.044596923828125,-0.98931884765625,-0.1426544189453125,-0.113555908203125
1772562044975579100,10.0545791015625,-0.9844207763671875,-0.143157958984375,-0.1126251220703125
1772562044985560800,10.064560791015625,-0.9857177734375,-0.1428375244140625,-0.1119537353515625
1772562044995544000,10.0745439453125,-0.98785400390625,-0.143218994140625,-0.1127166748046875
1772562045005526000,10.084526123046874,-0.9846954345703125,-0.14227294921875,-0.112884521484375
1772562045015509000,10.094509033203124,-0.982269287109375,-0.14154052734375,-0.1136474609375
1772562045025491000,10.104490966796876,-0.9811553955078125,-0.141143798828125,-0.11395263671875
1772562045035474200,10.11447412109375,-0.9799346923828125,-0.1419677734375,-0.1122894287109375
1772562045045456000,10.124455810546875,-0.9780426025390625,-0.14385986328125,-0.1112213134765625
1772562045055439000,10.134439208984375,-0.9798431396484375,-0.1427459716796875,-0.11199951171875
1772562045065420800,10.1444208984375,-0.9763336181640625,-0.1424560546875,-0.114105224609375
1772562045075403000,10.154403076171874,-0.9752197265625,-0.1435546875,-0.11212158203125
1772562045085386000,10.164385986328124,-0.9807281494140625,-0.14483642578125,-0.110626220703125
1772562045095368000,10.174367919921876,-0.98089599609375,-0.1458282470703125,-0.11279296875
1772562045105351000,10.184350830078126,-0.9794158935546875,-0.145355224609375,-0.111297607421875
1772562045115332900,10.194332763671875,-0.9810638427734375,-0.144134521484375,-0.1128082275390625
1772562045125315800,10.20431591796875,-0.9813079833984375,-0.1443328857421875,-0.1152191162109375
1772562045135298000,10.214298095703125,-0.9808502197265625,-0.1429901123046875,-0.1155853271484375
1772562045145280800,10.22428076171875,-0.9824981689453125,-0.1408538818359375,-0.1166839599609375
1772562045155263000,10.234262939453124,-0.9813079833984375,-0.14044189453125,-0.1157073974609375
1772562045165245200,10.2442451171875,-0.979461669921875,-0.139373779296875,-0.116546630859375
1772562045175228000,10.254227783203126,-0.9801177978515625,-0.138214111328125,-0.1163177490234375
1772562045185210000,10.264210205078125,-0.981597900390625,-0.137542724609375,-0.1150665283203125
1772562045195193000,10.274193115234375,-0.98272705078125,-0.1383056640625,-0.114990234375
1772562045205175000,10.284175048828125,-0.981842041015625,-0.138458251953125,-0.11572265625
1772562045215158000,10.294157958984375,-0.9840240478515625,-0.138458251953125,-0.1150970458984375
1772562045225140000,10.304139892578124,-0.987091064453125,-0.1391143798828125,-0.1148529052734375
1772562045235123000,10.314123046875,-0.9864501953125,-0.1391754150390625,-0.114501953125
1772562045245105200,10.324105224609376,-0.9840240478515625,-0.139495849609375,-0.11590576171875
1772562045255086800,10.3340869140625,-0.9843902587890625,-0.1385498046875,-0.115509033203125
1772562045265070000,10.344070068359375,-0.9850006103515625,-0.1390228271484375,-0.1155853271484375
1772562045275052000,10.354052001953125,-0.980316162109375,-0.1382598876953125,-0.115478515625
1772562045285035000,10.364034912109375,-0.98028564453125,-0.13653564453125,-0.1143798828125
1772562045295017000,10.374016845703125,-0.978179931640625,-0.1365966796875,-0.1145782470703125
1772562045305000200,10.384000244140625,-0.97454833984375,-0.1366119384765625,-0.112518310546875
1772562045314982000,10.39398193359375,-0.97393798828125,-0.1390380859375,-0.1116790771484375
1772562045324965000,10.403965087890626,-0.9757537841796875,-0.1410675048828125,-0.1108856201171875
1772562045334946800,10.41394677734375,-0.9756622314453125,-0.142791748046875,-0.111175537109375
1772562045344930000,10.423929931640625,-0.9755859375,-0.145233154296875,-0.1119384765625
1772562045354912000,10.433912109375,-0.9752960205078125,-0.145843505859375,-0.112396240234375
1772562045364894000,10.44389404296875,-0.976409912109375,-0.1463470458984375,-0.113128662109375
1772562045374877000,10.453876953125,-0.9751434326171875,-0.14495849609375,-0.11700439453125
1772562045384859000,10.46385888671875,-0.9797210693359375,-0.137847900390625,-0.1143341064453125
1772562045394841900,10.473841796875,-0.9822998046875,-0.14056396484375,-0.1169586181640625
1772562045404824000,10.483823974609376,-0.981231689453125,-0.14263916015625,-0.113861083984375
1772562045414806800,10.493806884765625,-0.98150634765625,-0.1403656005859375,-0.1151580810546875
1772562045424789000,10.5037890625,-0.9811248779296875,-0.140960693359375,-0.11700439453125
1772562045434772000,10.51377197265625,-0.981842041015625,-0.14434814453125,-0.1158294677734375
1772562045444754000,10.52375390625,-0.98065185546875,-0.1461334228515625,-0.1152191162109375
1772562045454736000,10.53373583984375,-0.9766998291015625,-0.14605712890625,-0.115631103515625
1772562045464719000,10.543718994140624,-0.9782562255859375,-0.14508056640625,-0.115509033203125
1772562045474700800,10.55370068359375,-0.9787139892578125,-0.1432647705078125,-0.1165771484375
1772562045484684000,10.56368408203125,-0.9794769287109375,-0.1405487060546875,-0.115814208984375
1772562045494666000,10.573666015625,-0.9815826416015625,-0.139404296875,-0.1150970458984375
1772562045504649000,10.58364892578125,-0.9797821044921875,-0.140228271484375,-0.11529541015625
1772562045514631000,10.593630859375,-0.980010986328125,-0.141021728515625,-0.1139678955078125
1772562045524614000,10.60361376953125,-0.9817047119140625,-0.14190673828125,-0.114227294921875
1772562045534595800,10.613595947265624,-0.9806365966796875,-0.140594482421875,-0.114501953125
1772562045544579000,10.6235791015625,-0.9793548583984375,-0.1399383544921875,-0.112640380859375
1772562045554561000,10.63356103515625,-0.982666015625,-0.1404876708984375,-0.1140289306640625
1772562045564543000,10.64354296875,-0.984893798828125,-0.141357421875,-0.11358642578125
1772562045574526000,10.65352587890625,-0.9850311279296875,-0.140380859375,-0.114166259765625
1772562045584508000,10.6635078125,-0.9820404052734375,-0.1386260986328125,-0.116546630859375
1772562045594491000,10.673490966796875,-0.98052978515625,-0.1380615234375,-0.1164398193359375
1772562045604472800,10.683472900390624,-0.981414794921875,-0.138519287109375,-0.1171112060546875
1772562045614456000,10.6934560546875,-0.9817962646484375,-0.137939453125,-0.1171875
1772562045624438000,10.70343798828125,-0.98046875,-0.1361846923828125,-0.1173553466796875
1772562045634421000,10.7134208984375,-0.9800872802734375,-0.1345367431640625,-0.1153411865234375
1772562045644403000,10.72340283203125,-0.981170654296875,-0.1342926025390625,-0.11541748046875
1772562045654385000,10.733385009765625,-0.98028564453125,-0.1349639892578125,-0.11370849609375
1772562045664367900,10.743367919921875,-0.9774322509765625,-0.1350555419921875,-0.1118316650390625
1772562045674350300,10.753350341796875,-0.975738525390625,-0.13531494140625,-0.112396240234375
1772562045684333300,10.763333251953124,-0.9754791259765625,-0.1369781494140625,-0.1134185791015625
1772562045694315300,10.773315185546876,-0.978240966796875,-0.13885498046875,-0.107818603515625
1772562045704298200,10.78329833984375,-0.9860992431640625,-0.1398468017578125,-0.10638427734375
1772562045714280400,10.793280517578125,-0.9869842529296875,-0.144195556640625,-0.111083984375
1772562045724263200,10.80326318359375,-0.9846038818359375,-0.1384124755859375,-0.11236572265625
1772562045734245400,10.813245361328125,-0.9868316650390625,-0.1331634521484375,-0.113922119140625
1772562045744228400,10.823228271484375,-0.9898223876953125,-0.132598876953125,-0.1132659912109375
1772562045754210300,10.833210205078124,-0.992340087890625,-0.136993408203125,-0.11175537109375
1772562045764192300,10.843192138671874,-0.992889404296875,-0.134796142578125,-0.112701416015625
1772562045774175200,10.85317529296875,-0.9854278564453125,-0.1342010498046875,-0.1126251220703125
1772562045784157200,10.8631572265625,-0.98541259765625,-0.1391448974609375,-0.111236572265625
1772562045794140400,10.873140380859375,-0.9875335693359375,-0.140533447265625,-0.110565185546875
1772562045804122000,10.8831220703125,-0.9827880859375,-0.1388092041015625,-0.110809326171875
1772562045814105300,10.893105224609375,-0.980316162109375,-0.139801025390625,-0.1112518310546875
1772562045824087000,10.903087158203125,-0.9803314208984375,-0.1374053955078125,-0.112701416015625
1772562045834070300,10.9130703125,-0.9869537353515625,-0.1338958740234375,-0.109100341796875
1772562045844052200,10.92305224609375,-0.98211669921875,-0.1415863037109375,-0.1126251220703125
1772562045854035200,10.93303515625,-0.9765472412109375,-0.140380859375,-0.1089019775390625
1772562045864017200,10.94301708984375,-0.983428955078125,-0.1390533447265625,-0.109375
1772562045873999400,10.952999267578125,-0.9830169677734375,-0.1410369873046875,-0.11029052734375
1772562045883982000,10.962982177734375,-0.98150634765625,-0.1386260986328125,-0.1093597412109375
1772562045893964300,10.97296435546875,-0.9839019775390625,-0.1368560791015625,-0.1116180419921875
1772562045903947300,10.982947265625,-0.9857940673828125,-0.135711669921875,-0.1119232177734375
1772562045913929200,10.99292919921875,-0.98382568359375,-0.1341094970703125,-0.111907958984375
1772562045923912200,11.002912109375,-0.9822235107421875,-0.13372802734375,-0.11175537109375
1772562045933894100,11.01289404296875,-0.983154296875,-0.1348114013671875,-0.11065673828125
1772562045943877000,11.022877197265625,-0.980987548828125,-0.137054443359375,-0.1103973388671875
1772562045953859300,11.032859375,-0.982177734375,-0.13671875,-0.109344482421875
1772562045963841300,11.04284130859375,-0.9864501953125,-0.1352386474609375,-0.110931396484375
1772562045973824300,11.05282421875,-0.9876861572265625,-0.13470458984375,-0.113037109375
1772562045983806200,11.06280615234375,-0.987060546875,-0.1327362060546875,-0.114990234375
1772562045993789200,11.0727890625,-0.98260498046875,-0.1278839111328125,-0.1147918701171875
1772562046003771400,11.082771484375,-0.9834442138671875,-0.128570556640625,-0.1133880615234375
1772562046013754000,11.092754150390626,-0.9862060546875,-0.1295013427734375,-0.111968994140625
1772562046023736300,11.102736328125,-0.9841461181640625,-0.12939453125,-0.10992431640625
1772562046033719300,11.11271923828125,-0.9852294921875,-0.130584716796875,-0.1086883544921875
1772562046043701200,11.122701171875,-0.983734130859375,-0.1313629150390625,-0.110565185546875
1772562046053684200,11.132684326171875,-0.98248291015625,-0.13299560546875,-0.108734130859375
1772562046063666400,11.14266650390625,-0.982208251953125,-0.1342315673828125,-0.10711669921875
1772562046073648000,11.152648193359376,-0.98284912109375,-0.13330078125,-0.1078948974609375
1772562046083631400,11.16263134765625,-0.98455810546875,-0.131317138671875,-0.1081390380859375
1772562046093613000,11.172613037109375,-0.9854736328125,-0.129608154296875,-0.1089019775390625
1772562046103596300,11.18259619140625,-0.986419677734375,-0.128387451171875,-0.1094970703125
1772562046113578200,11.192578125,-0.98992919921875,-0.1282196044921875,-0.10992431640625
1772562046123561200,11.202561279296875,-0.98736572265625,-0.1267547607421875,-0.1119842529296875
1772562046133543200,11.212543212890624,-0.98681640625,-0.127532958984375,-0.1111907958984375
1772562046143526400,11.2225263671875,-0.9887542724609375,-0.1291046142578125,-0.1096038818359375
1772562046153508000,11.232508056640626,-0.9879150390625,-0.1292724609375,-0.109954833984375
1772562046163491300,11.2424912109375,-0.985107421875,-0.1303253173828125,-0.1085052490234375
1772562046173473300,11.252473388671875,-0.9880523681640625,-0.1310577392578125,-0.108306884765625
1772562046183455200,11.262455322265625,-0.9885101318359375,-0.1321563720703125,-0.108917236328125
1772562046193438200,11.272438232421875,-0.9855194091796875,-0.131927490234375,-0.1108245849609375
1772562046203420200,11.282420166015624,-0.98614501953125,-0.1316375732421875,-0.11248779296875
1772562046213403100,11.292403076171874,-0.986297607421875,-0.131805419921875,-0.11199951171875
1772562046223385300,11.30238525390625,-0.9826507568359375,-0.1318817138671875,-0.1132354736328125
1772562046233368000,11.3123681640625,-0.9828033447265625,-0.13116455078125,-0.1136474609375
1772562046243350300,11.322350341796875,-0.9803314208984375,-0.1298065185546875,-0.1139068603515625
1772562046253333200,11.332333251953125,-0.9781341552734375,-0.12921142578125,-0.112518310546875
1772562046263315200,11.342315185546875,-0.9771575927734375,-0.1293182373046875,-0.1124114990234375
1772562046273298200,11.352298095703125,-0.9757843017578125,-0.1285858154296875,-0.111175537109375
1772562046283280100,11.362280029296874,-0.977569580078125,-0.129150390625,-0.109619140625
1772562046293262300,11.372262451171874,-0.98046875,-0.130401611328125,-0.1108551025390625
1772562046303245300,11.382245361328126,-0.981170654296875,-0.12933349609375,-0.111602783203125
1772562046313227300,11.392227294921875,-0.983978271484375,-0.1295166015625,-0.11151123046875
1772562046323210200,11.402210205078125,-0.9853668212890625,-0.12890625,-0.1121826171875
1772562046333192400,11.4121923828125,-0.9852447509765625,-0.12811279296875,-0.11285400390625
1772562046343175200,11.422175048828125,-0.9871826171875,-0.125030517578125,-0.1141510009765625
1772562046353157400,11.432157470703125,-0.9876861572265625,-0.1226654052734375,-0.114776611328125
1772562046363140400,11.442140380859374,-0.9875030517578125,-0.122039794921875,-0.1139373779296875
1772562046373122300,11.452122314453124,-0.9868927001953125,-0.122589111328125,-0.113800048828125
1772562046383104300,11.462104248046876,-0.987213134765625,-0.1240386962890625,-0.1107177734375
1772562046393087200,11.472087158203125,-0.9885711669921875,-0.1277923583984375,-0.108856201171875
1772562046403069200,11.482069091796875,-0.9868316650390625,-0.13018798828125,-0.109344482421875
1772562046413052400,11.492052490234375,-0.986328125,-0.130462646484375,-0.1106414794921875
1772562046423034000,11.5020341796875,-0.9867401123046875,-0.130218505859375,-0.1121826171875
1772562046433017300,11.512017333984375,-0.98553466796875,-0.1294403076171875,-0.113677978515625
1772562046442999300,11.521999267578124,-0.98388671875,-0.1287841796875,-0.113525390625
1772562046452982300,11.531982177734376,-0.986297607421875,-0.1295928955078125,-0.11395263671875
1772562046462964200,11.541964111328125,-0.9842071533203125,-0.129669189453125,-0.1144561767578125
1772562046472947500,11.551947509765625,-0.9821624755859375,-0.1291351318359375,-0.1156463623046875
1772562046482929200,11.56192919921875,-0.9828338623046875,-0.1287078857421875,-0.11627197265625
1772562046492911400,11.571911376953125,-0.985260009765625,-0.1292572021484375,-0.114288330078125
1772562046502894000,11.58189404296875,-0.9854278564453125,-0.13043212890625,-0.114898681640625
1772562046512876300,11.591876220703124,-0.9857635498046875,-0.130401611328125,-0.1143951416015625
1772562046522859300,11.601859375,-0.984375,-0.13037109375,-0.1126861572265625
1772562046532841200,11.61184130859375,-0.98394775390625,-0.130126953125,-0.11334228515625
1772562046542824200,11.62182421875,-0.98504638671875,-0.1302032470703125,-0.1129608154296875
1772562046552806100,11.63180615234375,-0.9857025146484375,-0.131011962890625,-0.1131134033203125
1772562046562789000,11.6417890625,-0.9827728271484375,-0.129241943359375,-0.1114501953125
1772562046572771300,11.651771240234375,-0.984375,-0.1267242431640625,-0.11102294921875
1772562046582754000,11.661754150390625,-0.985565185546875,-0.1251983642578125,-0.111602783203125
1772562046592736300,11.671736328125,-0.982879638671875,-0.124053955078125,-0.1121978759765625
1772562046602718500,11.681718505859376,-0.9824981689453125,-0.12335205078125,-0.1116790771484375
1772562046612701200,11.691701171875,-0.9834442138671875,-0.125244140625,-0.11016845703125
1772562046622683400,11.701683349609375,-0.9821929931640625,-0.1262664794921875,-0.110015869140625
1772562046632666400,11.711666259765625,-0.981658935546875,-0.1276702880859375,-0.110260009765625
1772562046642648300,11.7216484375,-0.9834136962890625,-0.1291046142578125,-0.110321044921875
1772562046652631300,11.73163134765625,-0.9830780029296875,-0.131561279296875,-0.110198974609375
1772562046662613200,11.74161328125,-0.9836883544921875,-0.1325225830078125,-0.111968994140625
1772562046672592400,11.75159228515625,-0.985382080078125,-0.1328125,-0.1120758056640625
1772562046682574600,11.76157470703125,-0.985626220703125,-0.134796142578125,-0.1130523681640625
1772562046692557600,11.7715576171875,-0.985321044921875,-0.1349945068359375,-0.11212158203125
1772562046702539500,11.78153955078125,-0.9887542724609375,-0.133941650390625,-0.1129608154296875
1772562046712521500,11.791521484375,-0.987396240234375,-0.1325531005859375,-0.114654541015625
1772562046722504400,11.80150439453125,-0.9859161376953125,-0.1315155029296875,-0.1139373779296875
1772562046732486400,11.811486328125,-0.987884521484375,-0.1327362060546875,-0.114654541015625
1772562046742469600,11.8214697265625,-0.9837188720703125,-0.132781982421875,-0.114776611328125
1772562046752451300,11.831451416015625,-0.9823760986328125,-0.134918212890625,-0.11181640625
1772562046762434600,11.8414345703125,-0.9829864501953125,-0.136383056640625,-0.1126708984375
1772562046772416300,11.851416259765625,-0.981781005859375,-0.13665771484375,-0.1132659912109375
1772562046782399500,11.8613994140625,-0.9801177978515625,-0.1350555419921875,-0.11053466796875
1772562046792381400,11.87138134765625,-0.9797821044921875,-0.13592529296875,-0.1103363037109375
1772562046802364400,11.881364501953126,-0.9791412353515625,-0.1348419189453125,-0.1130828857421875
1772562046812346400,11.891346435546875,-0.9826812744140625,-0.1305694580078125,-0.1080322265625
1772562046822328600,11.90132861328125,-0.9840850830078125,-0.1366424560546875,-0.1110687255859375
1772562046832311300,11.911311279296875,-0.97906494140625,-0.13494873046875,-0.1092529296875
1772562046842293500,11.92129345703125,-0.9845733642578125,-0.1324462890625,-0.110443115234375
1772562046852276500,11.9312763671875,-0.9842071533203125,-0.133148193359375,-0.1124267578125
1772562046862258400,11.941258544921874,-0.9828643798828125,-0.132293701171875,-0.11102294921875
1772562046872241400,11.951241455078126,-0.9873046875,-0.1311798095703125,-0.1119842529296875
1772562046882223400,11.961223388671876,-0.984710693359375,-0.13140869140625,-0.112213134765625
1772562046892206300,11.971206298828125,-0.9859619140625,-0.1334991455078125,-0.1119384765625
1772562046902188500,11.9811884765625,-0.9842987060546875,-0.1344451904296875,-0.1120147705078125
1772562046912168400,11.99116845703125,-0.9836578369140625,-0.136993408203125,-0.11102294921875
1772562046922151700,12.001151611328124,-0.982940673828125,-0.138763427734375,-0.1095733642578125
1772562046932133400,12.01113330078125,-0.98248291015625,-0.13873291015625,-0.1085052490234375
1772562046942115600,12.021115478515625,-0.9828948974609375,-0.13787841796875,-0.107635498046875
1772562046952098300,12.031098388671875,-0.9835662841796875,-0.1378021240234375,-0.1076507568359375
1772562046962080500,12.04108056640625,-0.984710693359375,-0.13653564453125,-0.1063232421875
1772562046972063500,12.0510634765625,-0.984832763671875,-0.135040283203125,-0.1081085205078125
1772562046982045400,12.06104541015625,-0.986175537109375,-0.1343994140625,-0.10772705078125
1772562046992028400,12.0710283203125,-0.98553466796875,-0.13604736328125,-0.10919189453125
1772562047002010400,12.08101025390625,-0.985107421875,-0.1368865966796875,-0.110137939453125
1772562047011993300,12.090993408203126,-0.98602294921875,-0.13787841796875,-0.110076904296875
1772562047021975600,12.1009755859375,-0.9841766357421875,-0.136627197265625,-0.111358642578125
1772562047031958300,12.110958251953125,-0.98406982421875,-0.1374359130859375,-0.1114501953125
1772562047041940500,12.1209404296875,-0.987060546875,-0.13922119140625,-0.110748291015625
1772562047051922400,12.13092236328125,-0.9871826171875,-0.1383209228515625,-0.111785888671875
1772562047061905400,12.140905517578124,-0.982452392578125,-0.1383819580078125,-0.1116485595703125
1772562047071887600,12.1508876953125,-0.9828643798828125,-0.1403961181640625,-0.109832763671875
1772562047081870600,12.16087060546875,-0.98370361328125,-0.1422271728515625,-0.1103973388671875
1772562047091852500,12.1708525390625,-0.9792633056640625,-0.1426239013671875,-0.1115264892578125
1772562047101835500,12.18083544921875,-0.9770660400390625,-0.1397552490234375,-0.110504150390625
1772562047111817500,12.1908173828125,-0.980987548828125,-0.1396636962890625,-0.1096954345703125
1772562047121800400,12.200800537109375,-0.9815673828125,-0.138153076171875,-0.1116485595703125
1772562047131782700,12.21078271484375,-0.97882080078125,-0.137359619140625,-0.11199951171875
1772562047141765400,12.220765380859374,-0.9819793701171875,-0.1371002197265625,-0.10919189453125
1772562047151747600,12.23074755859375,-0.9848480224609375,-0.139923095703125,-0.109100341796875
1772562047161729500,12.2407294921875,-0.981292724609375,-0.139404296875,-0.1104583740234375
1772562047171712500,12.25071240234375,-0.9794464111328125,-0.1395263671875,-0.1093292236328125
1772562047181694500,12.260694580078125,-0.9825592041015625,-0.141021728515625,-0.108856201171875
1772562047191677700,12.270677734375,-0.9852294921875,-0.141571044921875,-0.109832763671875
1772562047201659400,12.280659423828125,-0.9813385009765625,-0.139007568359375,-0.11212158203125
1772562047211642600,12.290642578125,-0.98297119140625,-0.1371612548828125,-0.1102294921875
1772562047221624300,12.300624267578126,-0.98651123046875,-0.139007568359375,-0.11041259765625
1772562047231607600,12.310607666015626,-0.9819793701171875,-0.1392364501953125,-0.111480712890625
1772562047241589500,12.320589599609375,-0.9799041748046875,-0.1387176513671875,-0.109100341796875
1772562047251572500,12.330572509765625,-0.9843597412109375,-0.141693115234375,-0.1071319580078125
1772562047261554400,12.340554443359375,-0.985809326171875,-0.143218994140625,-0.1074066162109375
1772562047271536400,12.350536376953125,-0.982025146484375,-0.1410675048828125,-0.1085052490234375
1772562047281519400,12.360519287109375,-0.9799346923828125,-0.138671875,-0.107940673828125
1772562047291501600,12.37050146484375,-0.9866943359375,-0.1403656005859375,-0.1082000732421875
1772562047301484300,12.380484375,-0.9850311279296875,-0.13922119140625,-0.1093292236328125
1772562047311469600,12.390469482421874,-0.9801483154296875,-0.1371612548828125,-0.10870361328125
1772562047321451500,12.400451416015626,-0.982269287109375,-0.138153076171875,-0.108154296875
1772562047331434500,12.4104345703125,-0.98516845703125,-0.1402435302734375,-0.1094512939453125
1772562047341416400,12.42041650390625,-0.9809417724609375,-0.1410369873046875,-0.1092987060546875
1772562047351399400,12.4303994140625,-0.98406982421875,-0.14056396484375,-0.1092071533203125
1772562047361381600,12.440381591796875,-0.9860382080078125,-0.140716552734375,-0.1119842529296875
1772562047371363300,12.45036328125,-0.982757568359375,-0.14154052734375,-0.1121063232421875
1772562047381346600,12.4603466796875,-0.9820404052734375,-0.1397552490234375,-0.11224365234375
1772562047391328500,12.47032861328125,-0.982696533203125,-0.1387176513671875,-0.1133575439453125
1772562047401311500,12.4803115234375,-0.981658935546875,-0.1403656005859375,-0.11297607421875
1772562047411293400,12.49029345703125,-0.9805450439453125,-0.1431427001953125,-0.112457275390625
1772562047421276700,12.500276611328125,-0.9813385009765625,-0.1443023681640625,-0.111907958984375
1772562047431258400,12.51025830078125,-0.980194091796875,-0.144500732421875,-0.113006591796875
1772562047441241600,12.52024169921875,-0.98095703125,-0.1454010009765625,-0.1123504638671875
1772562047451223300,12.530223388671875,-0.98211669921875,-0.1466522216796875,-0.1113128662109375
1772562047461205500,12.54020556640625,-0.9843902587890625,-0.1448516845703125,-0.1116943359375
1772562047471188500,12.5501884765625,-0.9854583740234375,-0.1420135498046875,-0.112548828125
1772562047481170400,12.56017041015625,-0.9847412109375,-0.1394805908203125,-0.1123046875
1772562047491153400,12.5701533203125,-0.986328125,-0.137939453125,-0.1124267578125
1772562047501135400,12.58013525390625,-0.9870147705078125,-0.1369781494140625,-0.1143798828125
1772562047511118300,12.590118408203125,-0.9872589111328125,-0.1369781494140625,-0.11517333984375
1772562047521100500,12.6001005859375,-0.98712158203125,-0.138916015625,-0.11480712890625
1772562047531083300,12.610083251953125,-0.9886322021484375,-0.14190673828125,-0.1175079345703125
1772562047541065500,12.6200654296875,-0.977783203125,-0.138641357421875,-0.117156982421875
1772562047551048400,12.63004833984375,-0.983001708984375,-0.141357421875,-0.113250732421875
1772562047561030400,12.640030517578126,-0.9822540283203125,-0.1422271728515625,-0.1160736083984375
1772562047571012600,12.6500126953125,-0.978179931640625,-0.1387786865234375,-0.11444091796875
1772562047580995600,12.65999560546875,-0.9803924560546875,-0.1386260986328125,-0.1153411865234375
1772562047590977500,12.6699775390625,-0.9751129150390625,-0.1395263671875,-0.1153106689453125
1772562047600960500,12.67996044921875,-0.976165771484375,-0.1400604248046875,-0.1129913330078125
1772562047610942500,12.6899423828125,-0.9799041748046875,-0.1424560546875,-0.11395263671875
1772562047620925400,12.699925537109374,-0.9780426025390625,-0.14227294921875,-0.115234375
1772562047630907600,12.70990771484375,-0.9792327880859375,-0.1426849365234375,-0.1125335693359375
1772562047640890400,12.719890380859376,-0.98260498046875,-0.1434173583984375,-0.110992431640625
1772562047650872600,12.72987255859375,-0.9820404052734375,-0.142791748046875,-0.1105194091796875
1772562047660855600,12.73985546875,-0.9843292236328125,-0.142425537109375,-0.1120147705078125
1772562047670837500,12.74983740234375,-0.9822845458984375,-0.1422576904296875,-0.11187744140625
1772562047680819700,12.75981982421875,-0.985443115234375,-0.14337158203125,-0.11029052734375
1772562047690802700,12.769802734375,-0.9860687255859375,-0.1436309814453125,-0.1119232177734375
1772562047700784600,12.77978466796875,-0.98370361328125,-0.1441192626953125,-0.1141815185546875
1772562047710767900,12.789767822265626,-0.983795166015625,-0.1441497802734375,-0.11431884765625
