time,seconds_elapsed,z,y,x
1772562035021841200,0.100841064453125,0.2874794900417328,-0.348251610994339,0.17743916809558868
1772562035031823000,0.110822998046875,0.2397652119398117,-0.16776973009109497,0.20880188047885895
1772562035041805000,0.12080517578125,0.18233485519886017,-0.014502367936074734,0.19695891439914703
1772562035051788000,0.1307880859375,0.10611545294523239,0.10865045338869095,0.15790152549743652
1772562035061770000,0.14077001953125,0.010992436669766903,0.1959158033132553,0.09086546301841736
1772562035071753000,0.1507529296875,-0.07075222581624985,0.2323012501001358,0.013216741383075714
1772562035081735200,0.160735107421875,-0.10147219896316528,0.23991912603378296,-0.0534166619181633
1772562035091717000,0.170717041015625,-0.08256775140762329,0.21476957201957703,-0.10311364382505417
1772562035101700000,0.1807001953125,-0.023528313264250755,0.16440795361995697,-0.13705596327781677
1772562035111682300,0.190682373046875,0.04924682527780533,0.10095281153917313,-0.15672235190868378
1772562035121665000,0.2006650390625,0.12480414658784866,0.05348951369524002,-0.1709669679403305
1772562035131647200,0.210647216796875,0.2003399282693863,0.025761213153600693,-0.17982597649097443
1772562035141629000,0.22062890625,0.27274832129478455,0.02498033083975315,-0.17010638117790222
1772562035151612200,0.230612060546875,0.33587324619293213,0.041145987808704376,-0.14241589605808258
1772562035161594000,0.240593994140625,0.390857994556427,0.06892240047454834,-0.10164686292409897
1772562035171577000,0.2505771484375,0.4322669506072998,0.09660808742046356,-0.045912500470876694
1772562035181559000,0.26055908203125,0.45951047539711,0.11134873330593109,0.008223012089729309
1772562035191542300,0.270542236328125,0.4804285168647766,0.09702065587043762,0.06792708486318588
1772562035201524000,0.28052392578125,0.5017180442810059,0.0793812945485115,0.1288127899169922
1772562035211506200,0.290506103515625,0.5174570679664612,0.05252571403980255,0.16747549176216125
1772562035221489200,0.3004892578125,0.5313029289245605,-0.00181680079549551,0.19086891412734985
1772562035231471000,0.31047119140625,0.536285400390625,-0.06082366034388542,0.18897007405757904
1772562035241454000,0.3204541015625,0.5287970304489136,-0.11245515197515488,0.17239069938659668
1772562035251436000,0.33043603515625,0.5252784490585327,-0.13384006917476654,0.1597854346036911
1772562035261419000,0.3404189453125,0.5232452750205994,-0.11378612369298935,0.15338438749313354
1772562035271401200,0.350401123046875,0.5336915254592896,-0.058506887406110764,0.174646258354187
1772562035281383000,0.3603828125,0.5569201111793518,0.011873681098222733,0.22248439490795135
1772562035291366100,0.3703662109375,0.5800297260284424,0.07208722084760666,0.2788810729980469
1772562035301348000,0.38034814453125,0.5985162258148193,0.11367753893136978,0.33575525879859924
1772562035311331000,0.3903310546875,0.616024911403656,0.13982205092906952,0.3945583701133728
1772562035321313000,0.40031298828125,0.6196941137313843,0.15332840383052826,0.43412667512893677
1772562035331295000,0.410294921875,0.6287747025489807,0.15741927921772003,0.4639087915420532
1772562035341278000,0.42027783203125,0.6615004539489746,0.18488889932632446,0.49325278401374817
1772562035351260200,0.43026025390625,0.7130025029182434,0.22733409702777863,0.5277939438819885
1772562035361243100,0.4402431640625,0.7716801166534424,0.22187724709510803,0.5560938119888306
1772562035371225000,0.45022509765625,0.8105228543281555,0.12818671762943268,0.5741652250289917
1772562035381208000,0.4602080078125,0.8179640173912048,-0.02350775897502899,0.575605034828186
1772562035391190000,0.47018994140625,0.7961820363998413,-0.1890951246023178,0.5631864666938782
1772562035401172200,0.480172119140625,0.7617982029914856,-0.34014269709587097,0.5430663824081421
1772562035411155000,0.490155029296875,0.7189348936080933,-0.4689278304576874,0.5139444470405579
1772562035421137200,0.50013720703125,0.6600053906440735,-0.5336878895759583,0.4708905816078186
1772562035431120100,0.5101201171875,0.5869405269622803,-0.5231093168258667,0.43057405948638916
1772562035441102000,0.52010205078125,0.50482577085495,-0.4483201205730438,0.3871779143810272
1772562035451084000,0.530083984375,0.42670968174934387,-0.33764418959617615,0.33588331937789917
1772562035461067300,0.5400673828125,0.3595884144306183,-0.20518265664577484,0.28081464767456055
1772562035471049000,0.550049072265625,0.319106787443161,-0.0638742670416832,0.21064727008342743
1772562035481032200,0.5600322265625,0.2996949851512909,0.060212355107069016,0.12442965060472488
1772562035491014000,0.570013916015625,0.29307010769844055,0.1439402848482132,0.020643603056669235
1772562035500997000,0.5799970703125,0.28671735525131226,0.21576492488384247,-0.07027416676282883
1772562035510979000,0.58997900390625,0.2740212678909302,0.3104379177093506,-0.13220492005348206
1772562035520961000,0.5999609375,0.2603697180747986,0.40647807717323303,-0.15937937796115875
1772562035530944000,0.609944091796875,0.2602512240409851,0.49331578612327576,-0.15901851654052734
1772562035540926000,0.619926025390625,0.2630422115325928,0.5493931770324707,-0.12287063151597977
1772562035550909000,0.629908935546875,0.27943849563598633,0.538165271282196,-0.06860286742448807
1772562035560891100,0.63989111328125,0.2952173352241516,0.453276127576828,-0.010153217241168022
1772562035570873900,0.649873779296875,0.3189687430858612,0.3380448818206787,0.05795792490243912
1772562035580856000,0.65985595703125,0.3451941907405853,0.22079506516456604,0.11815293878316879
1772562035590838300,0.66983837890625,0.37865039706230164,0.10861685127019882,0.16132359206676483
1772562035600821000,0.679821044921875,0.416156530380249,0.03651802986860275,0.18757744133472443
1772562035610803200,0.68980322265625,0.45294463634490967,0.017698271200060844,0.20319607853889465
1772562035620786200,0.6997861328125,0.47831085324287415,0.030856279656291008,0.19596140086650848
1772562035630768000,0.70976806640625,0.5011698007583618,0.05784448981285095,0.1680631935596466
1772562035640750000,0.71975,0.5300258994102478,0.09244667738676071,0.12982827425003052
1772562035650733000,0.729733154296875,0.5564926862716675,0.13075917959213257,0.08277234435081482
1772562035660715000,0.739715087890625,0.5645103454589844,0.15042223036289215,0.03425046429038048
1772562035670698500,0.749698486328125,0.5515564680099487,0.13302752375602722,-0.015644121915102005
1772562035680680200,0.75968017578125,0.5201175808906555,0.10644324123859406,-0.059572599828243256
1772562035690663400,0.769663330078125,0.4792407155036926,0.09902606904506683,-0.0934235081076622
1772562035700645400,0.779645263671875,0.43767446279525757,0.10322289168834686,-0.1255529820919037
1772562035710627300,0.78962744140625,0.3931701183319092,0.10418055951595306,-0.1612904667854309
1772562035720610300,0.7996103515625,0.34814026951789856,0.09849844127893448,-0.18131282925605774
1772562035730592500,0.809592529296875,0.29556626081466675,0.08493949472904205,-0.20055735111236572
1772562035740575200,0.8195751953125,0.24628159403800964,0.06582506000995636,-0.21906538307666779
1772562035750557400,0.829557373046875,0.20558983087539673,0.06959395855665207,-0.2289198786020279
1772562035760540400,0.83954052734375,0.18560892343521118,0.0926893875002861,-0.24205605685710907
1772562035770522400,0.8495224609375,0.1878715455532074,0.12567849457263947,-0.25356489419937134
1772562035780504600,0.859504638671875,0.2071540653705597,0.14503198862075806,-0.26653361320495605
1772562035790487300,0.8694873046875,0.23245462775230408,0.1427432745695114,-0.2712652385234833
1772562035800469500,0.879469482421875,0.26005637645721436,0.1372821182012558,-0.2522850036621094
1772562035810452500,0.889452392578125,0.2764745056629181,0.1191135048866272,-0.2153243124485016
1772562035820434400,0.899434326171875,0.2768792510032654,0.0732298418879509,-0.1702023446559906
1772562035830416400,0.90941650390625,0.27403977513313293,0.013438682071864605,-0.1132647693157196
1772562035840399400,0.9193994140625,0.2560851275920868,-0.041572198271751404,-0.046643976122140884
1772562035850381300,0.92938134765625,0.2348823845386505,-0.08984945714473724,0.003387231845408678
1772562035860364500,0.939364501953125,0.2165364772081375,-0.11383895576000214,0.036503974348306656
1772562035870346200,0.94934619140625,0.20580314099788666,-0.11009561270475388,0.05272688716650009
1772562035880329500,0.95932958984375,0.19595074653625488,-0.11433761566877365,0.05533846467733383
1772562035890311400,0.9693115234375,0.19265374541282654,-0.12038778513669968,0.05432779714465141
1772562035900293400,0.97929345703125,0.1930871456861496,-0.10858476907014847,0.05777018517255783
1772562035910276400,0.9892763671875,0.1967359483242035,-0.07795149087905884,0.07652656733989716
1772562035920258300,0.99925830078125,0.18982630968093872,-0.058656539767980576,0.10074585676193237
1772562035930241300,1.0092412109375,0.16851143538951874,-0.04389277473092079,0.10960859060287476
1772562035940223500,1.019223388671875,0.1418977677822113,-0.00881220493465662,0.11575058847665787
1772562035950206200,1.029206298828125,0.11732956767082214,0.056006740778684616,0.1209285706281662
1772562035960188400,1.0391884765625,0.1024266704916954,0.12456609308719635,0.11801929771900177
1772562035970170400,1.04917041015625,0.09638688713312149,0.1736619919538498,0.10832992196083069
1772562035980153300,1.0591533203125,0.09323015809059143,0.1980224996805191,0.089170441031456
1772562035990135600,1.069135498046875,0.10101190954446793,0.19954822957515717,0.06873094290494919
1772562036000118300,1.0791181640625,0.1112506166100502,0.18093718588352203,0.049377281218767166
1772562036010100500,1.0891005859375,0.12067127972841263,0.14541274309158325,0.02712896838784218
1772562036020082400,1.09908251953125,0.13302914798259735,0.08826929330825806,0.014767106622457504
1772562036030065400,1.1090654296875,0.14792364835739136,0.03163020312786102,0.014412766322493553
1772562036040047400,1.11904736328125,0.16360236704349518,-0.006781372241675854,0.03582774102687836
1772562036050030600,1.129030517578125,0.17086347937583923,-0.024458901956677437,0.048769108951091766
1772562036060012300,1.13901220703125,0.18457593023777008,-0.02451978623867035,0.059764083474874496
1772562036069995500,1.14899560546875,0.18671177327632904,-0.011272422969341278,0.06282858550548553
1772562036079977200,1.158977294921875,0.18683187663555145,0.01315244659781456,0.06136796995997429
1772562036089959400,1.16895947265625,0.17932575941085815,0.0280136838555336,0.05301016941666603
1772562036099942400,1.1789423828125,0.16400191187858582,0.03261851146817207,0.03407255932688713
1772562036109924400,1.18892431640625,0.14895504713058472,0.030289575457572937,0.00908917747437954
1772562036119907300,1.1989072265625,0.12874534726142883,0.005409169942140579,-0.031693149358034134
1772562036129889500,1.2088896484375,0.1075764149427414,-0.017306528985500336,-0.06343190371990204
1772562036139871200,1.218871337890625,0.08647975325584412,-0.035214029252529144,-0.08057592064142227
1772562036149854500,1.2288544921875,0.07575227320194244,-0.055311575531959534,-0.0829906091094017
1772562036159836400,1.23883642578125,0.06558943539857864,-0.06669698655605316,-0.0875263586640358
1772562036169819400,1.2488193359375,0.05618289113044739,-0.06907092779874802,-0.0929964929819107
1772562036179801300,1.25880126953125,0.0512622706592083,-0.06383407860994339,-0.088016077876091
1772562036189784300,1.268784423828125,0.04050309956073761,-0.029511794447898865,-0.08345381915569305
1772562036199766300,1.278766357421875,0.03410021960735321,0.00859791412949562,-0.06675215065479279
1772562036209748200,1.288748291015625,0.03073078766465187,0.046716805547475815,-0.041176751255989075
1772562036219731500,1.2987314453125,0.03173906356096268,0.07929177582263947,-0.006480197422206402
1772562036229713400,1.30871337890625,0.03825235739350319,0.09976322203874588,0.029034653678536415
1772562036239696400,1.3186962890625,0.042580701410770416,0.10219288617372513,0.05781038850545883
1772562036249678300,1.32867822265625,0.047464143484830856,0.09074129164218903,0.07972927391529083
1772562036259661300,1.338661376953125,0.049883339554071426,0.06079506874084473,0.0883156955242157
1772562036269643300,1.348643310546875,0.048598628491163254,0.036285728216171265,0.08534840494394302
1772562036279625500,1.35862548828125,0.03747020661830902,0.018130457028746605,0.0754598081111908
1772562036289608400,1.3686083984375,0.027511578053236008,-0.015398475341498852,0.06471662223339081
1772562036299590400,1.37859033203125,0.021988416090607643,-0.04021695628762245,0.057103391736745834
1772562036309573400,1.388573486328125,0.017606716603040695,-0.05869396775960922,0.046094682067632675
1772562036319555300,1.398555419921875,0.014650820754468441,-0.07145783305168152,0.03812262415885925
1772562036329538300,1.408538330078125,0.017461255192756653,-0.06987617909908295,0.02305499091744423
1772562036339520500,1.4185205078125,0.012505680322647095,-0.05783966928720474,0.012721939012408257
1772562036349502200,1.428502197265625,-0.002286848146468401,-0.04712337255477905,0.00877273641526699
1772562036359485400,1.4384853515625,-0.020356202498078346,-0.029731372371315956,0.008774531073868275
1772562036369467100,1.448467041015625,-0.043389350175857544,-0.015418744646012783,0.010654723271727562
1772562036379450400,1.458450439453125,-0.06469087302684784,-0.01252367626875639,0.009859293699264526
1772562036389432300,1.468432373046875,-0.07822532206773758,-0.017048653215169907,0.002979816636070609
1772562036399414300,1.478414306640625,-0.08519075065851212,-0.011864363215863705,-0.003993114456534386
1772562036409397200,1.488397216796875,-0.0834442526102066,-0.005831771530210972,-0.013259582221508026
1772562036419379500,1.49837939453125,-0.07928794622421265,0.0031134397722780704,-0.01897786371409893
1772562036429362200,1.508362060546875,-0.07173069566488266,0.004259664565324783,-0.010687977075576782
1772562036439344400,1.518344482421875,-0.061797067523002625,-0.011460497975349426,-0.007949656806886196
1772562036449327400,1.528327392578125,-0.054630495607852936,-0.025946229696273804,-0.002667277120053768
1772562036459309300,1.538309326171875,-0.042998094111680984,-0.017080077901482582,0.00741557776927948
1772562036469291500,1.54829150390625,-0.033433616161346436,0.004781011492013931,0.015143271535634995
1772562036479274200,1.558274169921875,-0.02558634988963604,0.017494287341833115,0.019436242058873177
1772562036489256400,1.56825634765625,-0.02083473838865757,0.030664950609207153,0.016495846211910248
1772562036499239400,1.578239501953125,-0.021169388666749,0.052223365753889084,0.01249612495303154
1772562036509221400,1.588221435546875,-0.021372854709625244,0.0759769007563591,0.008100844919681549
1772562036519204400,1.598204345703125,-0.026577278971672058,0.09932346642017365,-0.00003305263817310333
1772562036529186600,1.6081865234375,-0.025832924991846085,0.124421626329422,-0.005928491707891226
1772562036539168300,1.618168212890625,-0.008429393172264099,0.14440619945526123,-0.00432121567428112
1772562036549151500,1.6281513671875,0.012602121569216251,0.14869122207164764,-0.004765696823596954
1772562036559133200,1.63813330078125,0.03601188585162163,0.12691068649291992,-0.010352510958909988
1772562036569116400,1.648116455078125,0.053385283797979355,0.08153681457042694,-0.011398866772651672
1772562036579098400,1.658098388671875,0.07108515501022339,0.05028626322746277,-0.006460884120315313
1772562036589080300,1.668080322265625,0.08309122174978256,0.03441808372735977,0.0005799815990030766
1772562036599063300,1.678063232421875,0.0948789045214653,0.020992962643504143,0.007440508343279362
1772562036609045200,1.688045166015625,0.10480823367834091,0.013291900977492332,0.019542444497346878
1772562036619028200,1.6980283203125,0.11356101185083389,-0.009131434373557568,0.025315167382359505
1772562036629010400,1.708010498046875,0.11189920455217361,-0.031121689826250076,0.03099222667515278
1772562036638993200,1.7179931640625,0.10543155670166016,-0.05226132646203041,0.023347927257418633
1772562036648975400,1.727975341796875,0.09167632460594177,-0.04950495436787605,0.0003848206251859665
1772562036658957600,1.73795751953125,0.07942987233400345,-0.02407926321029663,-0.02638803981244564
1772562036668940800,1.74794091796875,0.0647321492433548,0.018338235095143318,-0.056323569267988205
1772562036678923000,1.757923095703125,0.06726308912038803,0.06957421451807022,-0.07670144736766815
1772562036688905700,1.76790576171875,0.07425202429294586,0.11124682426452637,-0.08809445053339005
1772562036698888000,1.777887939453125,0.08772101998329163,0.1332007199525833,-0.0881960391998291
1772562036708871000,1.787870849609375,0.0976887047290802,0.12527728080749512,-0.08056394755840302
1772562036718852900,1.797852783203125,0.09915303438901901,0.09717398881912231,-0.06268322467803955
1772562036728834800,1.807834716796875,0.0980861708521843,0.06733006983995438,-0.0374487042427063
1772562036738818000,1.817818115234375,0.09729521721601486,0.03425426408648491,-0.01230575330555439
1772562036748799700,1.8277998046875,0.0948893204331398,0.009729480370879173,0.010663211345672607
1772562036758783000,1.837782958984375,0.09256581962108612,-0.0006356816738843918,0.02224537916481495
1772562036768764700,1.8477646484375,0.09120308607816696,-0.005014451220631599,0.024805208668112755
1772562036778748000,1.857747802734375,0.08949688076972961,-0.0027583828195929527,0.017346609383821487
1772562036788729900,1.867729736328125,0.08025570958852768,0.005769325420260429,-0.0020055165514349937
1772562036798711800,1.8777119140625,0.07833759486675262,0.018410013988614082,-0.02230869233608246
1772562036808694800,1.88769482421875,0.06193625554442406,0.03658182546496391,-0.033728860318660736
1772562036818677000,1.897677001953125,0.052296943962574005,0.04906779155135155,-0.04297269135713577
1772562036828659700,1.90765966796875,0.04527631774544716,0.05064304918050766,-0.03411315381526947
1772562036838642000,1.917641845703125,0.03608473390340805,0.04129067808389664,-0.025951925665140152
1772562036848623900,1.927623779296875,0.029749609529972076,0.02741401083767414,-0.008904232643544674
1772562036858606800,1.93760693359375,0.0321182981133461,0.02302384562790394,0.004801709204912186
1772562036868588800,1.9475888671875,0.03498918563127518,0.01911991834640503,0.013421029783785343
1772562036878571800,1.95757177734375,0.03839648514986038,0.017208293080329895,0.01463376171886921
1772562036888554000,1.967553955078125,0.042478047311306,0.013540854677557945,0.012610024772584438
1772562036898537000,1.977536865234375,0.04450133815407753,0.0008637770661152899,0.009267609566450119
1772562036908519000,1.987518798828125,0.048260923475027084,-0.016701901331543922,0.0010853135026991367
1772562036918500900,1.9975009765625,0.05415938422083855,-0.018984682857990265,0.0031979416962713003
1772562036928483800,2.00748388671875,0.05947638303041458,-0.011737421154975891,0.016489513218402863
1772562036938465800,2.0174658203125,0.05194510892033577,-0.01948966644704342,0.02909461222589016
1772562036948449000,2.027448974609375,0.04316120222210884,-0.026143839582800865,0.031826481223106384
1772562036958430700,2.0374306640625,0.02626827359199524,-0.025636274367570877,0.022020690143108368
1772562036968414000,2.0474140625,0.015554109588265419,-0.014233417809009552,-0.00212965440005064
1772562036978396000,2.05739599609375,0.007513637654483318,0.0012743865372613072,-0.022977584972977638
1772562036988377900,2.0673779296875,-0.00003189663402736187,0.0008831681916490197,-0.04547650367021561
1772562036998360800,2.07736083984375,-0.008517827838659286,-0.013797864317893982,-0.06255616992712021
1772562037008342800,2.0873427734375,-0.016035664826631546,-0.029459381476044655,-0.07209987193346024
1772562037018325800,2.09732568359375,-0.01955425553023815,-0.051968321204185486,-0.07223135232925415
1772562037028308000,2.107307861328125,-0.020050935447216034,-0.06421886384487152,-0.06096937134861946
1772562037038290700,2.117290771484375,-0.017585307359695435,-0.06315237283706665,-0.04912245646119118
1772562037048273000,2.12727294921875,-0.015469426289200783,-0.0509343221783638,-0.037489499896764755
1772562037058254600,2.137254638671875,-0.012717829085886478,-0.01916315406560898,-0.01886352151632309
1772562037068237800,2.14723779296875,-0.002530705416575074,0.015085363760590553,-0.005031329579651356
1772562037078219800,2.1572197265625,0.0035133748315274715,0.046922337263822556,0.0033949674107134342
1772562037088202800,2.16720263671875,0.018822556361556053,0.07577821612358093,0.012445986270904541
1772562037098184700,2.177184814453125,0.03343505412340164,0.10360973328351974,0.0209366325289011
1772562037108167000,2.1871669921875,0.038674820214509964,0.11350097507238388,0.03241885080933571
1772562037118149600,2.197149658203125,0.0485110841691494,0.10720586776733398,0.04584531486034393
1772562037128131800,2.2071318359375,0.04882746562361717,0.08197294920682907,0.056746695190668106
1772562037138114800,2.21711474609375,0.043807338923215866,0.05592639744281769,0.06008516997098923
1772562037148096800,2.2270966796875,0.037186186760663986,0.030869780108332634,0.06455448269844055
1772562037158079700,2.237079833984375,0.033662401139736176,0.02218947745859623,0.05619858577847481
1772562037168061700,2.247061767578125,0.02869134396314621,0.007239289116114378,0.042701952159404755
1772562037178044000,2.2570439453125,0.024546563625335693,-0.006700691767036915,0.023466479033231735
1772562037188027000,2.26702685546875,0.024787846952676773,-0.01106321532279253,0.0030618724413216114
1772562037198008800,2.2770087890625,0.02321089431643486,-0.008973198011517525,-0.016945330426096916
1772562037207991800,2.28699169921875,0.018845707178115845,-0.008343360386788845,-0.028425950556993484
1772562037217974000,2.29697412109375,0.018592316657304764,-0.0011000019731000066,-0.033662211149930954
1772562037227956700,2.306956787109375,0.016733963042497635,0.009865297004580498,-0.03423186019062996
1772562037237939000,2.31693896484375,0.011011254973709583,0.007066721096634865,-0.03541651368141174
1772562037247920600,2.326920654296875,0.006202651187777519,0.005161762237548828,-0.030965838581323624
1772562037257903900,2.33690380859375,0.0054308148100972176,0.009344919584691525,-0.025949127972126007
1772562037267885800,2.3468857421875,0.00373038649559021,0.013458704575896263,-0.01952691562473774
1772562037277868800,2.356868896484375,0.0037469849921762943,0.013803543522953987,-0.011363365687429905
1772562037287850800,2.366850830078125,0.0029629503842443228,0.006965612061321735,-0.005330507643520832
1772562037297834000,2.376833984375,0.002879116451367736,-0.002309122122824192,0.004729779902845621
1772562037307815700,2.386815673828125,-0.0019300198182463646,-0.012380930595099926,0.015524104237556458
1772562037317798000,2.3967978515625,-0.0022626693826168776,-0.02121826447546482,0.016981733962893486
1772562037327780600,2.406780517578125,-0.0012573262210935354,-0.015508180484175682,0.011450082063674927
1772562037337762800,2.4167626953125,0.0001179128885269165,-0.004257969092577696,0.006306580267846584
1772562037347745800,2.426745849609375,-0.0009377640672028065,0.004222334828227758,-0.0014789048582315445
1772562037357727700,2.436727783203125,-0.0010434535797685385,0.011970214545726776,-0.008440351113677025
1772562037367710700,2.446710693359375,-0.0040677390061318874,0.02438480593264103,-0.008390283212065697
1772562037377693000,2.45669287109375,-0.0029715290293097496,0.04206300526857376,-0.0028249244205653667
1772562037387675000,2.4666748046875,-0.002395221032202244,0.041596416383981705,0.001463830005377531
1772562037397657900,2.476657958984375,0.0016779227880761027,0.03130383789539337,0.00641601299867034
1772562037407639800,2.486639892578125,0.00031385174952447414,0.01279087457805872,0.008435754105448723
1772562037417622800,2.496622802734375,-0.003650906030088663,-0.007032489869743586,0.002895765006542206
1772562037427605000,2.50660498046875,-0.009190813638269901,-0.024056747555732727,-0.0074018798768520355
1772562037437586700,2.516586669921875,-0.012836535461246967,-0.02535109408199787,-0.014923086389899254
1772562037447570000,2.52656982421875,-0.015728995203971863,-0.025754030793905258,-0.023039335384964943
1772562037457551600,2.536551513671875,-0.01693965122103691,-0.03197832405567169,-0.02111479640007019
1772562037467534800,2.546534912109375,-0.015508734621107578,-0.036933667957782745,-0.02616867795586586
1772562037477516800,2.556516845703125,-0.013493914157152176,-0.04117545485496521,-0.026195263490080833
1772562037487499800,2.566499755859375,-0.010850461199879646,-0.03652690723538399,-0.02521229162812233
1772562037497481700,2.576481689453125,-0.010742899030447006,-0.02767532877624035,-0.019152766093611717
1772562037507464000,2.5864638671875,-0.005121765658259392,-0.013293195515871048,-0.007105423603206873
1772562037517446700,2.59644677734375,-0.0005230717360973358,0.00322492653504014,0.00511220982298255
1772562037527428900,2.606428955078125,0.0042210835963487625,0.007392507046461105,0.02077985182404518
1772562037537411800,2.616411865234375,0.0058918604627251625,0.009701652452349663,0.04012591391801834
1772562037547393800,2.626393798828125,0.005880675278604031,0.012476666830480099,0.05391230061650276
1772562037557376800,2.636376708984375,0.004665149375796318,0.012882543727755547,0.06322064250707626
1772562037567358700,2.646358642578125,0.0024398118257522583,0.006338891107589006,0.06930729746818542
1772562037577341000,2.6563408203125,-0.000002796761691570282,0.004968760535120964,0.06590894609689713
1772562037587324000,2.666323974609375,-0.004404203034937382,0.005363707430660725,0.05654846876859665
1772562037597305900,2.676305908203125,-0.008019203320145607,0.0006419026176445186,0.03726082295179367
1772562037607288800,2.686288818359375,-0.009286335669457912,-0.01586223766207695,0.017973411828279495
1772562037617271000,2.69627099609375,-0.011267529800534248,-0.02168222703039646,0.00317260529845953
1772562037627253800,2.706253662109375,-0.010543948970735073,-0.030289296060800552,-0.008251557126641273
1772562037637236000,2.716236083984375,-0.015304043889045715,-0.039824411273002625,-0.01712483912706375
1772562037647217700,2.7262177734375,-0.014662221074104309,-0.03666164353489876,-0.019806109368801117
1772562037657201000,2.736200927734375,-0.016424931585788727,-0.032383449375629425,-0.0276845283806324
1772562037667182300,2.746182373046875,-0.014299728907644749,-0.022323092445731163,-0.03184518590569496
1772562037677165300,2.756165283203125,-0.01027123536914587,-0.0022000186145305634,-0.026315996423363686
1772562037687147300,2.766147216796875,-0.006286614574491978,0.014775502495467663,-0.02429039590060711
1772562037697130500,2.776130615234375,-0.0032133457716554403,0.017623567953705788,-0.017293570563197136
1772562037707112200,2.7861123046875,-7.746275514364243e-7,0.001972435973584652,-0.0069852727465331554
1772562037717094400,2.796094482421875,0.00030781375244259834,-0.01845576800405979,0.002341805025935173
1772562037727077000,2.8060771484375,-0.0009286918211728334,-0.03234522044658661,0.012857562862336636
1772562037737059300,2.816059326171875,-0.0029300013557076454,-0.042213570326566696,0.01881312020123005
1772562037747042300,2.826042236328125,-0.008500535041093826,-0.02846766635775566,0.020845912396907806
1772562037757024300,2.836024169921875,-0.00671815499663353,-0.012606446631252766,0.01383160799741745
1772562037767006500,2.84600634765625,-0.0075597139075398445,-0.006422054022550583,0.0016708155162632465
1772562037776989200,2.8559892578125,-0.007572104223072529,-0.012500814162194729,-0.005996470805257559
1772562037786971400,2.865971435546875,-0.00027131475508213043,-0.028090959414839745,-0.015185974538326263
1772562037796954400,2.875954345703125,0.0035801311023533344,-0.03314914554357529,-0.004933742806315422
1772562037806936300,2.885936279296875,0.011001828126609325,-0.03947628289461136,0.011418599635362625
1772562037816919300,2.895919189453125,0.01200006902217865,-0.042513392865657806,0.025114599615335464
1772562037826901500,2.905901611328125,0.00932012964040041,-0.04225373640656471,0.035171762108802795
1772562037836884200,2.91588427734375,-0.0017983599100261927,-0.029474811628460884,0.035878896713256836
1772562037846866400,2.925866455078125,-0.014184722676873207,-0.009105624631047249,0.025687778368592262
1772562037856848100,2.93584814453125,-0.020669424906373024,0.0047781686298549175,0.00955274049192667
1772562037866831400,2.945831298828125,-0.02082921378314495,0.013734912499785423,-0.003679174929857254
1772562037876813300,2.955813232421875,-0.019814690575003624,0.019752906635403633,-0.015612093731760979
1772562037886796300,2.96579638671875,-0.014902757480740547,0.016580015420913696,-0.014319660142064095
1772562037896778200,2.9757783203125,-0.012151606380939484,0.00788506492972374,-0.007477431558072567
1772562037906760200,2.98576025390625,-0.014306901954114437,-0.009027073159813881,0.0018201959319412708
1772562037916743200,2.9957431640625,-0.015534619800746441,-0.01629483886063099,0.010791320353746414
1772562037926725400,3.005725341796875,-0.015156717039644718,-0.007992967031896114,0.010714621283113956
1772562037936708000,3.0157080078125,-0.009748016484081745,0.004275890998542309,0.010523121803998947
1772562037946690300,3.025690185546875,0.0032444808166474104,0.01754535734653473,0.007121466565877199
1772562037956673300,3.03567333984375,0.014158827252686024,0.012739208526909351,0.00004839478060603142
1772562037966655200,3.0456552734375,0.023451659828424454,0.011428933590650558,0.0009922191966325045
1772562037976637400,3.055637451171875,0.026045754551887512,0.0019450716208666563,0.010578323155641556
1772562037986620400,3.065620361328125,0.02501697465777397,-0.008219948038458824,0.008599861524999142
1772562037996602400,3.075602294921875,0.023276977241039276,-0.004100855439901352,0.01053450908511877
1772562038006585300,3.08558544921875,0.025624554604291916,0.004516334738582373,0.008924627676606178
1772562038016567300,3.0955673828125,0.026974964886903763,0.006542577408254147,0.005792900919914246
1772562038026550300,3.10555029296875,0.0306373443454504,0.0054924930445849895,0.007560973986983299
1772562038036532500,3.115532470703125,0.03154882416129112,0.00944510567933321,0.005944263190031052
1772562038046514200,3.12551416015625,0.03213898092508316,0.009104221127927303,0.012362481094896793
1772562038056497400,3.135497314453125,0.032103028148412704,0.00899103656411171,0.014864254742860794
1772562038066479400,3.145479248046875,0.030337084084749222,0.007313244976103306,0.01555987261235714
1772562038076462300,3.15546240234375,0.028311554342508316,0.007113422732800245,0.018821202218532562
1772562038086444300,3.1654443359375,0.029934220016002655,0.013227242045104504,0.0163939967751503
1772562038096427500,3.175427490234375,0.030750906094908714,0.02350623905658722,0.021472342312335968
1772562038106409200,3.1854091796875,0.030209751799702644,0.03288908675312996,0.01986885443329811
1772562038116391400,3.195391357421875,0.027235180139541626,0.04270553961396217,0.025923656299710274
1772562038126374100,3.2053740234375,0.026680443435907364,0.04477774724364281,0.024866115301847458
1772562038136356400,3.2153564453125,0.022585460916161537,0.04617243632674217,0.02761366404592991
1772562038146339300,3.22533935546875,0.0217010248452425,0.041077010333538055,0.01786196604371071
1772562038156321300,3.2353212890625,0.020855717360973358,0.022555092349648476,0.00730128213763237
1772562038166304300,3.24530419921875,0.02321714162826538,-0.0005939012626186013,-0.01111367903649807
1772562038176286200,3.2552861328125,0.024372298270463943,-0.01415370311588049,-0.024981463328003883
1772562038186268400,3.265268310546875,0.026125723496079445,-0.023910459131002426,-0.031857214868068695
1772562038196251400,3.27525146484375,0.02333259955048561,-0.03470425307750702,-0.035696424543857574
1772562038206233300,3.2852333984375,0.017823319882154465,-0.03103734366595745,-0.03285536542534828
1772562038216216300,3.29521630859375,0.013553749769926071,-0.011820048093795776,-0.027968641370534897
1772562038226198500,3.305198486328125,0.011920166201889515,-0.0029562488198280334,-0.021462805569171906
1772562038236181200,3.31518115234375,0.01128467358648777,-0.011998808942735195,-0.017706390470266342
1772562038246163500,3.32516357421875,0.017816076055169106,-0.004602144472301006,-0.013825098052620888
1772562038256145200,3.335145263671875,0.024757951498031616,0.01655331626534462,-0.005354004446417093
1772562038266128400,3.34512841796875,0.02575397491455078,0.030233440920710564,0.005814227741211653
1772562038276110300,3.3551103515625,0.02955012395977974,0.038154102861881256,0.0184321366250515
1772562038286093300,3.36509326171875,0.03840912878513336,0.04238773137331009,0.02807304635643959
1772562038296075300,3.3750751953125,0.04133569821715355,0.03430648893117905,0.03761719539761543
1772562038306058500,3.38505859375,0.042448900640010834,0.02156219631433487,0.038468606770038605
1772562038316040200,3.395040283203125,0.04358290508389473,0.017581850290298462,0.03672873601317406
1772562038326022400,3.4050224609375,0.047826651483774185,0.012190015986561775,0.03031185083091259
1772562038336005400,3.41500537109375,0.04418419301509857,0.014507775194942951,0.02868792414665222
1772562038345987300,3.4249873046875,0.04666359722614288,0.015451066195964813,0.018554862588644028
1772562038355970300,3.43497021484375,0.049199387431144714,0.010369840078055859,0.014196842908859253
1772562038365952300,3.4449521484375,0.05000526085495949,0.0074376994743943214,0.012451941147446632
1772562038375935200,3.454935302734375,0.05466682091355324,0.0021003680303692818,0.01950983703136444
1772562038385917400,3.46491748046875,0.06153005361557007,0.007329218089580536,0.02787535823881626
1772562038395899400,3.4748994140625,0.05957501009106636,0.005646055564284325,0.03290007263422012
1772562038405882400,3.48488232421875,0.056656185537576675,-0.010799496434628963,0.030259283259510994
1772562038415864300,3.4948642578125,0.056619592010974884,-0.010476992465555668,0.02514304779469967
1772562038425847300,3.504847412109375,0.051138006150722504,0.006785884499549866,0.014102648012340069
1772562038435829500,3.51482958984375,0.05014164745807648,0.007532188203185797,-0.00347317336127162
1772562038445811200,3.524811279296875,0.04840580001473427,-0.0056861452758312225,-0.024715878069400787
1772562038455794400,3.53479443359375,0.04958201199769974,-0.001704580383375287,-0.03503703698515892
1772562038465776400,3.5447763671875,0.04569166526198387,0.0043770140036940575,-0.03306416794657707
1772562038475759400,3.55475927734375,0.04578298702836037,-0.0012522742617875338,-0.023987503722310066
1772562038485741300,3.5647412109375,0.04533637687563896,-0.009048412553966045,-0.019355466589331627
1772562038495724500,3.574724609375,0.0431794747710228,-0.0072645521722733974,-0.010560736060142517
1772562038505706200,3.584706298828125,0.044491078704595566,0.008132247254252434,-0.0042743440717458725
1772562038515688400,3.5946884765625,0.04547327011823654,0.018607037141919136,-0.0017820186913013458
1772562038525671200,3.604671142578125,0.04144390672445297,0.010915295220911503,-0.0012403316795825958
1772562038535653400,3.6146533203125,0.03425029292702675,0.005417399108409882,-0.0028540841303765774
1772562038545636400,3.62463623046875,0.032050520181655884,0.00953065138310194,-0.0013517951592803001
1772562038555618300,3.634618408203125,0.02531738020479679,0.004969890229403973,-0.005786002613604069
1772562038565601300,3.644601318359375,0.021121302619576454,-0.001444599824026227,-0.00789948645979166
1772562038575583200,3.654583251953125,0.014077507890760899,-0.00623695831745863,-0.014656459912657738
1772562038585565400,3.6645654296875,0.009405858814716339,-0.007509767077863216,-0.008763127960264683
1772562038595548400,3.67454833984375,0.009189455769956112,-0.0033239529002457857,0.00022539077326655388
1772562038605530400,3.6845302734375,0.00644080713391304,0.002972292248159647,0.011467925272881985
1772562038615513300,3.694513427734375,0.005544885061681271,0.004023351240903139,0.022428683936595917
1772562038625495600,3.70449560546875,0.004769905470311642,0.009328900836408138,0.0247509628534317
1772562038635478300,3.714478271484375,0.009281455539166927,0.014710492454469204,0.02556367591023445
1772562038645460500,3.72446044921875,0.011933164671063423,0.02146267145872116,0.02074628323316574
1772562038655442200,3.734442138671875,0.014077224768698215,0.021493427455425262,0.01368715986609459
1772562038665425400,3.74442529296875,0.017999261617660522,0.0162949375808239,0.005904604215174913
1772562038675406800,3.75440673828125,0.021302012726664543,0.0033347802236676216,0.0008254349231719971
1772562038685390000,3.76439013671875,0.026668814942240715,-0.013469765894114971,-0.007062049116939306
1772562038695371800,3.774371826171875,0.02868785709142685,-0.025187792256474495,-0.01272021234035492
1772562038705355000,3.78435498046875,0.0319393128156662,-0.019704610109329224,-0.010892217978835106
1772562038715337000,3.7943369140625,0.026707589626312256,-0.017144789919257164,-0.008848045021295547
1772562038725319000,3.80431884765625,0.02635924704372883,-0.02301626093685627,-0.012702438980340958
1772562038735302000,3.814302001953125,0.0297749824821949,-0.01775181293487549,-0.022480778396129608
1772562038745283800,3.824283935546875,0.03218088299036026,-0.007229398470371962,-0.027953308075666428
1772562038755266800,3.834266845703125,0.02864987961947918,0.0026997728273272514,-0.034610565751791
1772562038765249000,3.8442490234375,0.02906559780240059,0.010278330184519291,-0.03725721687078476
1772562038775231700,3.854231689453125,0.0243663489818573,0.020768780261278152,-0.03190642222762108
1772562038785214000,3.8642138671875,0.016807764768600464,0.018720543012022972,-0.0183115191757679
1772562038795196200,3.874196044921875,0.009538350626826286,0.016172150149941444,-0.009357810020446777
1772562038805179000,3.884178955078125,0.009753001853823662,0.015257887542247772,-0.0015938961878418922
1772562038815161000,3.8941611328125,0.009821196086704731,0.01835944876074791,0.0013096213806420565
1772562038825144000,3.90414404296875,0.012796479277312756,0.012885055504739285,-0.0034747477620840073
1772562038835126000,3.9141259765625,0.010236292146146297,0.008185560815036297,-0.010689990594983101
1772562038845109000,3.92410888671875,0.012235527858138084,0.01034431904554367,-0.009126449003815651
1772562038855091000,3.934091064453125,0.010633241385221481,0.014092547819018364,-0.01060872059315443
1772562038865073000,3.944072998046875,0.009434020146727562,0.004329666029661894,-0.010413510724902153
1772562038875056000,3.95405615234375,0.004926139023154974,-0.005903926678001881,-0.01020803116261959
1772562038885037800,3.964037841796875,-0.000286466209217906,-0.003710014745593071,-0.011113505810499191
1772562038895021000,3.97402099609375,-0.006973247975111008,0.002929049078375101,-0.011590603739023209
1772562038905003000,3.9840029296875,-0.007100546732544899,0.007993582636117935,-0.012126432731747627
1772562038914986000,3.993986083984375,-0.011435438878834248,0.00730558019131422,-0.012586339376866817
1772562038924968000,4.003968017578125,-0.014748144894838333,0.014640724286437035,-0.013722977600991726
1772562038934950000,4.013949951171875,-0.008920925669372082,0.02203710377216339,-0.012110266834497452
1772562038944932900,4.023932861328125,-0.007759254425764084,0.022919941693544388,-0.009678800590336323
1772562038954915000,4.0339150390625,-0.0014275021385401487,0.037834133952856064,-0.0000646272674202919
1772562038964897800,4.043897705078125,0.0028250336181372404,0.0353267677128315,0.007955215871334076
1772562038974880000,4.0538798828125,0.00733613595366478,0.01505675632506609,0.01791791059076786
1772562038984863000,4.063863037109375,0.009977991692721844,0.0009795528603717685,0.018627377226948738
1772562038994845000,4.073844970703125,0.011485005728900433,-0.012475717812776566,0.01605420932173729
1772562039004827100,4.0838271484375,0.006681462749838829,-0.028437640517950058,0.0057477764785289764
1772562039014809900,4.093809814453125,0.0024062972515821457,-0.03206474706530571,-0.0039125243201851845
1772562039024792000,4.1037919921875,-0.0036348174326121807,-0.015388298779726028,-0.010440731421113014
1772562039034775000,4.113775146484375,-0.009829312562942505,-0.002834911458194256,-0.016484634950757027
1772562039044757000,4.123757080078125,-0.016635021194815636,0.01317361555993557,-0.02216009795665741
1772562039054740000,4.133739990234375,-0.014986009337008,0.03266631066799164,-0.015480231493711472
1772562039064722200,4.14372216796875,-0.014514896087348461,0.038062408566474915,-0.01535160094499588
1772562039074704000,4.153703857421875,-0.008781730197370052,0.0257948637008667,-0.015259882435202599
1772562039084687000,4.16368701171875,-0.004206152632832527,0.015963539481163025,-0.011775936931371689
1772562039094668800,4.173668701171875,-0.004111557267606258,0.014127956703305244,-0.010620239190757275
1772562039104652000,4.183652099609375,-0.00683197658509016,0.007800286635756493,-0.0006307223811745644
1772562039114634000,4.193634033203125,-0.011202206835150719,0.004733435343950987,0.0003800857812166214
1772562039124617000,4.203616943359375,-0.015705611556768417,0.005941178649663925,-0.0016697496175765991
1772562039134599000,4.213598876953125,-0.017343461513519287,-0.0003093784907832742,-0.008245941251516342
1772562039144580900,4.223580810546875,-0.02038079872727394,-0.00408760504797101,-0.020673848688602448
1772562039154563800,4.233563720703125,-0.019708752632141113,-0.0025033876299858093,-0.033522315323352814
1772562039164546000,4.243546142578125,-0.015632519498467445,-0.003639225848019123,-0.04747461527585983
1772562039174528800,4.25352880859375,-0.006024720147252083,-0.007726872339844704,-0.04447339475154877
1772562039184511000,4.263510986328125,0.007263920735567808,-0.008449121378362179,-0.03131284937262535
1772562039194494000,4.273493896484375,0.012993231415748596,-0.008619694039225578,-0.008080348372459412
1772562039204476000,4.283475830078125,0.014284332282841206,-0.004027605522423983,0.02021893300116062
1772562039214458000,4.2934580078125,0.01071392372250557,0.010007943958044052,0.037764087319374084
1772562039224441000,4.303441162109375,0.0082467719912529,0.02659490890800953,0.04584065452218056
1772562039234423000,4.313423095703125,0.002689015120267868,0.0323021337389946,0.04871012642979622
1772562039244406000,4.323406005859375,0.0014977832324802876,0.03316659480333328,0.037779711186885834
1772562039254388000,4.333387939453125,-0.001089958706870675,0.02850193902850151,0.02501240186393261
1772562039264371000,4.343370849609375,0.002833942649886012,0.02211781032383442,0.012324037030339241
1772562039274353200,4.353353271484375,0.006378794088959694,0.016051288694143295,0.0023644992616027594
1772562039284334800,4.3633349609375,0.009405743330717087,0.006578424014151096,0.002358374185860157
1772562039294318000,4.373318115234375,0.012429775670170784,-0.006578998640179634,-0.003625656943768263
1772562039304300000,4.383300048828125,0.011179154738783836,-0.018249502405524254,-0.006368979346007109
1772562039314283000,4.393282958984375,0.012465264648199081,-0.02451573871076107,-0.010886210948228836
1772562039324265000,4.403264892578125,0.014050643891096115,-0.020681053400039673,-0.013682529330253601
1772562039334248200,4.413248291015625,0.011615647003054619,-0.013995369896292686,-0.017487410455942154
1772562039344230000,4.42322998046875,0.007451795041561127,-0.0018984932685270905,-0.011105410754680634
1772562039354212000,4.433212158203125,0.0038808314129710197,0.019253579899668694,-0.0069796196185052395
1772562039364194800,4.44319482421875,0.0022448513191193342,0.02134016714990139,0.002016272395849228
1772562039374177000,4.453177001953125,0.008703978732228279,0.015525680035352707,0.008046434260904789
1772562039384160000,4.463159912109375,0.011824138462543488,0.012092332355678082,0.01103157177567482
1772562039394142000,4.473141845703125,0.009817201644182205,0.007248741574585438,0.014967110008001328
1772562039404125000,4.483125,0.010220936499536037,0.008327588438987732,0.012194493785500526
1772562039414107000,4.49310693359375,0.003842434845864773,0.007281854748725891,0.007527847774326801
1772562039424088800,4.5030888671875,-0.0010316825937479734,0.00815031211823225,-0.0026656677946448326
1772562039434072000,4.513072021484375,-0.000999110983684659,0.01657266542315483,-0.014979211613535881
1772562039444054000,4.523053955078125,-0.00420289346948266,0.02253042347729206,-0.02562386728823185
1772562039454037000,4.533037109375,-0.000618841266259551,0.031118957325816154,-0.03655979782342911
1772562039464019000,4.54301904296875,0.006066491827368736,0.036064185202121735,-0.04146747291088104
1772562039474002000,4.553001953125,0.010590801946818829,0.018678700551390648,-0.041470177471637726
1772562039483984000,4.56298388671875,0.014089662581682205,-0.0016540015349164605,-0.03841046988964081
1772562039493967000,4.572967041015625,0.01907235197722912,-0.013323402032256126,-0.025476189330220222
1772562039503948800,4.58294873046875,0.022722214460372925,-0.013480529189109802,-0.007817300036549568
1772562039513931000,4.592930908203125,0.027366120368242264,-0.006358634680509567,0.008271530270576477
1772562039523914000,4.6029140625,0.02733789011836052,-0.001274926820769906,0.016318004578351974
1772562039533896000,4.61289599609375,0.028664318844676018,0.007497711107134819,0.018804121762514114
1772562039543879000,4.62287890625,0.023241324350237846,0.016375092789530754,0.016474388539791107
1772562039553860900,4.63286083984375,0.021702144294977188,0.011795692145824432,0.00898020900785923
1772562039563843800,4.64284375,0.01942913606762886,0.005669355858117342,-0.001437544822692871
1772562039573826000,4.652825927734375,0.017984580248594284,-0.0014500623801723123,-0.0040819947607815266
1772562039583808000,4.66280810546875,0.016345670446753502,-0.002389892004430294,-0.00029418105259537697
1772562039593791000,4.672791015625,0.01726716011762619,-0.0032667801715433598,0.005723509471863508
1772562039603773000,4.68277294921875,0.013326745480298996,-0.002373289316892624,0.010946767404675484
1772562039613756000,4.692755859375,0.01088143140077591,0.004152254201471806,0.014786512590944767
1772562039623738000,4.702738037109375,0.012554163113236427,0.013742031529545784,0.0171189084649086
1772562039633720800,4.712720947265625,0.004739983938634396,0.023289112374186516,0.013452291488647461
1772562039643703000,4.722703125,0.0017135677626356483,0.023216141387820244,0.012551343068480492
1772562039653684700,4.732684814453125,-0.004575469996780157,0.015710068866610527,0.008921060711145401
1772562039663668000,4.74266796875,-0.009532145224511623,0.010572297498583794,0.005010474938899279
1772562039673653500,4.752653564453125,-0.01343473419547081,0.0034378075506538153,0.004311710130423307
1772562039683636700,4.76263671875,-0.014991618692874908,0.005769405514001846,-0.0006705312989652157
1772562039693618700,4.77261865234375,-0.017620354890823364,0.003045172430574894,-0.005941170267760754
1772562039703601700,4.7826015625,-0.015711933374404907,0.008270294405519962,-0.015349320136010647
1772562039713583600,4.79258349609375,-0.01534928847104311,0.0021617687307298183,-0.02399907261133194
1772562039723565800,4.80256591796875,-0.012701306492090225,-0.003945392556488514,-0.03211718425154686
1772562039733548500,4.812548583984375,-0.010030861012637615,-0.011900442652404308,-0.03190019354224205
1772562039743530800,4.82253076171875,-0.007237737998366356,-0.01462112832814455,-0.030363818630576134
1772562039753513700,4.832513671875,-0.004421221558004618,-0.005892026238143444,-0.025829313322901726
1772562039763495700,4.84249560546875,-0.002726652193814516,0.006807256955653429,-0.026057014241814613
1772562039773478700,4.852478759765625,0.0005778581835329533,0.02608613297343254,-0.01819436252117157
1772562039783460600,4.862460693359375,0.0004345802590250969,0.030622562393546104,-0.013772184029221535
1772562039793442800,4.87244287109375,0.0031219967640936375,0.024368295446038246,-0.011762112379074097
1772562039803425800,4.88242578125,0.007931665517389774,0.010262063704431057,-0.003799260128289461
1772562039813407700,4.89240771484375,0.010762781836092472,-0.0014545952435582876,0.0006179180927574635
1772562039823390700,4.902390625,0.015559135004878044,-0.005647475831210613,-0.0001533334143459797
1772562039833372700,4.91237255859375,0.014765351079404354,-0.007096496410667896,-0.002907008398324251
1772562039843355600,4.922355712890625,0.012218303978443146,-0.01301563810557127,-0.014207333326339722
1772562039853337900,4.932337890625,0.015643272548913956,-0.021031538024544716,-0.03322380781173706
1772562039863319600,4.942319580078125,0.01746567338705063,-0.021945001557469368,-0.05198950320482254
1772562039873302800,4.952302734375,0.021913163363933563,-0.03501719981431961,-0.06309639662504196
1772562039883284700,4.96228466796875,0.018667569383978844,-0.03590802848339081,-0.05864385515451431
1772562039893267700,4.972267822265625,0.018317561596632004,-0.03308286517858505,-0.04718615859746933
1772562039903249700,4.982249755859375,0.018664304167032242,-0.016956621780991554,-0.02312929555773735
1772562039913233000,4.99223291015625,0.018536223098635674,0.008572750724852085,0.006917692720890045
1772562039923214600,5.002214599609375,0.014636557549238205,0.01867571845650673,0.026066087186336517
1772562039933196800,5.01219677734375,0.01395642664283514,0.01769614964723587,0.03236745297908783
1772562039943179500,5.022179443359375,0.012005661614239216,0.017552074044942856,0.028737563639879227
1772562039953161700,5.03216162109375,0.0057347859255969524,0.013469895347952843,0.021065818145871162
1772562039963144700,5.042144775390625,0.005312408320605755,-0.0014731016708537936,0.005895121488720179
1772562039973126700,5.052126708984375,-0.0005043924320489168,-0.012889428995549679,-0.006181406322866678
1772562039983109600,5.062109619140625,-0.0027947109192609787,-0.01941550523042679,-0.010961780324578285
1772562039993091800,5.072091796875,-0.00797257386147976,-0.025483012199401855,-0.020366599783301353
1772562040003073800,5.08207373046875,-0.01161471288651228,-0.018430162221193314,-0.024661479517817497
1772562040013056800,5.092056884765625,-0.012954086996614933,-0.0031900587491691113,-0.024693423882126808
1772562040023038700,5.102038818359375,-0.012795896269381046,0.0021751453168690205,-0.022587129846215248
1772562040033021700,5.112021728515625,-0.009762965142726898,0.006194893270730972,-0.018617019057273865
1772562040043004000,5.12200390625,-0.006867842748761177,0.005093143321573734,-0.011863508261740208
1772562040052986600,5.131986572265625,-0.0023065535351634026,-0.0027851294726133347,-0.004262065980583429
1772562040062968800,5.14196875,0.002345722634345293,-0.013029245659708977,0.0003385446034371853
1772562040072951800,5.151951904296875,0.00027246284298598766,-0.010538807138800621,0.003845448140054941
1772562040082933800,5.161933837890625,0.007507472764700651,0.0019391672685742378,0.003122400026768446
1772562040092915700,5.171915771484375,0.010534393601119518,0.008352164179086685,-0.007323508150875568
1772562040102898700,5.181898681640625,0.011414035223424435,-0.0025955582968890667,-0.02017805352807045
1772562040112880600,5.191880615234375,0.01813097670674324,-0.014635139144957066,-0.02910832315683365
1772562040122863900,5.20186376953125,0.024289002642035484,-0.028034834191203117,-0.03661950305104256
1772562040132845600,5.211845458984375,0.03047892078757286,-0.038639456033706665,-0.031841814517974854
1772562040142828800,5.221828857421875,0.0295121930539608,-0.03326120227575302,-0.017766742035746574
1772562040152810800,5.231810791015625,0.028521325439214706,-0.024790676310658455,0.0025118417106568813
1772562040162792700,5.241792724609375,0.02295158989727497,-0.009783228859305382,0.022642409428954124
1772562040172775700,5.251775634765625,0.014000378549098969,0.0027360371313989162,0.03390924632549286
1772562040182757600,5.261757568359375,0.00949910469353199,0.01637914404273033,0.037728216499090195
1772562040192740600,5.27174072265625,-0.005927642807364464,0.036427900195121765,0.02783573605120182
1772562040202722800,5.281722900390625,-0.018093761056661606,0.052859071642160416,0.009648475795984268
1772562040212705500,5.29170556640625,-0.026808524504303932,0.056935157626867294,-0.008358210325241089
1772562040222687700,5.301687744140625,-0.03578018397092819,0.0544927753508091,-0.02106015756726265
1772562040232669700,5.311669677734375,-0.04274479299783707,0.04808051511645317,-0.03389141708612442
1772562040242652700,5.321652587890625,-0.04681437090039253,0.04073604941368103,-0.04261859506368637
1772562040252635000,5.331634765625,-0.04156562685966492,0.032383814454078674,-0.04825471714138985
1772562040262617600,5.34161767578125,-0.037827879190444946,0.025284625589847565,-0.05193174257874489
1772562040272599800,5.351599853515625,-0.03162219375371933,0.014728992246091366,-0.05749970301985741
1772562040282582800,5.361582763671875,-0.02180551178753376,0.007738460786640644,-0.06641383469104767
1772562040292564700,5.371564697265625,-0.011581760831177235,0.006244189105927944,-0.06497426331043243
1772562040302546700,5.381546630859375,-0.006337463855743408,0.004925125278532505,-0.05689476802945137
1772562040312530000,5.391530029296875,0.0019929506815969944,0.0018722830573096871,-0.05053321272134781
1772562040322511600,5.40151171875,0.009736889973282814,0.00525449775159359,-0.03813086822628975
1772562040332494800,5.411494873046875,0.011180327273905277,0.011592486873269081,-0.023877548053860664
1772562040342476500,5.4214765625,0.016735946759581566,0.01296934112906456,-0.006344893015921116
1772562040352459800,5.431459716796875,0.020994026213884354,0.016044622287154198,0.002850852906703949
1772562040362441700,5.441441650390625,0.0239727720618248,0.014958584681153297,0.010012093000113964
1772562040372424700,5.4514248046875,0.0314023494720459,-0.003581480821594596,0.007933910936117172
1772562040382406700,5.46140673828125,0.039921268820762634,-0.022675812244415283,-0.0014425469562411308
1772562040392388900,5.471388916015625,0.03995095193386078,-0.02951662242412567,-0.008557543158531189
1772562040402371600,5.48137158203125,0.04043378308415413,-0.02113964967429638,-0.016159003600478172
1772562040412353800,5.491353759765625,0.0399119071662426,-0.015072430483996868,-0.019280195236206055
1772562040422336800,5.501336669921875,0.03327504172921181,-0.008318919688463211,-0.016077745705842972
1772562040432318700,5.511318603515625,0.028920307755470276,-0.003963403403759003,-0.012653963640332222
1772562040442301700,5.5213017578125,0.02575753629207611,0.0037784057203680277,-0.010290674865245819
1772562040452283600,5.53128369140625,0.01937740296125412,0.005443946458399296,-0.0068458751775324345
1772562040462265900,5.541265869140625,0.009157522581517696,0.0171155147254467,-0.0044514271430671215
1772562040472248800,5.551248779296875,0.006330826319754124,0.020590629428625107,-0.009507310576736927
1772562040482230800,5.561230712890625,0.004662888590246439,0.028804883360862732,-0.01331642922013998
1772562040492213800,5.5712138671875,0.010709679685533047,0.02521250769495964,-0.02228366583585739
1772562040502195700,5.58119580078125,0.011615953408181667,0.01414148136973381,-0.03322499617934227
1772562040512178700,5.5911787109375,0.014928790740668774,-0.00116353842895478,-0.038479190319776535
1772562040522161000,5.601160888671875,0.018236970528960228,-0.015358186326920986,-0.04258578270673752
1772562040532142600,5.611142578125,0.01976056396961212,-0.019765986129641533,-0.04957631602883339
1772562040542125800,5.621125732421875,0.017913928255438805,-0.014814634807407856,-0.04879867285490036
1772562040552107800,5.631107666015625,0.01263379119336605,-0.004422325640916824,-0.04672478511929512
1772562040562090800,5.6410908203125,0.013730747625231743,0.013354540802538395,-0.043023522943258286
1772562040572072700,5.65107275390625,0.01738956943154335,0.028143463656306267,-0.03941773250699043
1772562040582055700,5.6610556640625,0.02214304730296135,0.030980795621871948,-0.03272254765033722
1772562040592037600,5.67103759765625,0.030034024268388748,0.02602933719754219,-0.026480436325073242
1772562040602019800,5.681019775390625,0.031630322337150574,0.014491724781692028,-0.018716521561145782
1772562040612002600,5.69100244140625,0.03861553594470024,0.0009547268273308873,-0.022525856271386147
1772562040621984800,5.70098486328125,0.03830740973353386,-0.009774350561201572,-0.01845255121588707
1772562040631967700,5.7109677734375,0.040085386484861374,-0.010020023211836815,-0.02578701265156269
1772562040641949700,5.72094970703125,0.045687347650527954,-0.005730204284191132,-0.027241364121437073
1772562040651932700,5.7309326171875,0.04966260492801666,-0.007149876095354557,-0.028621478006243706
1772562040661914600,5.74091455078125,0.05098939314484596,-0.002902666572481394,-0.027356741949915886
1772562040671894800,5.750894775390625,0.05228862911462784,-0.012225647456943989,-0.017252082005143166
1772562040681876700,5.760876708984375,0.046856045722961426,-0.023536358028650284,-0.007416228298097849
1772562040691858700,5.770858642578125,0.04269341379404068,-0.017110273241996765,0.005131968297064304
1772562040701841700,5.780841552734375,0.03474893793463707,-0.009252616204321384,0.0159705001860857
1772562040711823600,5.79082373046875,0.03450910001993179,-0.0008821790106594563,0.020642835646867752
1772562040721806800,5.800806884765625,0.033617205917835236,0.005042023025453091,0.025058090686798096
1772562040731788500,5.81078857421875,0.03635765239596367,0.006075466051697731,0.02696320042014122
1772562040741771800,5.820771728515625,0.03261431306600571,0.0016460964689031243,0.027769606560468674
1772562040751753700,5.830753662109375,0.029768675565719604,-0.0019831976387649775,0.028707504272460938
1772562040761735700,5.840735595703125,0.026448778808116913,0.0015566761139780283,0.027264604344964027
1772562040771718700,5.85071875,0.020950842648744583,0.010059411637485027,0.026611214503645897
1772562040781700600,5.86070068359375,0.017949193716049194,0.01852000690996647,0.020329616963863373
1772562040791683600,5.87068359375,0.015606032684445381,0.016999486833810806,0.01679951138794422
1772562040801665800,5.880665771484375,0.012077078223228455,0.014033524319529533,0.008833197876811028
1772562040811648500,5.8906484375,0.007688107434660196,0.008445915766060352,0.0025829491205513477
1772562040821630700,5.900630615234375,0.004755168221890926,0.007537511643022299,-0.00569575373083353
1772562040831612700,5.91061279296875,0.0017492079641669989,0.006632620934396982,-0.012852918356657028
1772562040841595600,5.920595703125,-0.0014849347062408924,0.003543354570865631,-0.018747026100754738
1772562040851577900,5.930577880859375,0.002442877506837249,0.012132430449128151,-0.019951429218053818
1772562040861560800,5.940560791015625,0.005762507673352957,0.012360929511487484,-0.022566385567188263
1772562040871542800,5.950542724609375,0.008206972852349281,0.008996953256428242,-0.02201579511165619
1772562040881525800,5.96052587890625,0.013919985853135586,0.002111350651830435,-0.024212900549173355
1772562040891507700,5.9705078125,0.01486367266625166,0.0010435916483402252,-0.02364329621195793
1772562040901489700,5.98048974609375,0.012153906747698784,-0.002601210493594408,-0.02490670047700405
1772562040911473000,5.990472900390625,0.00892309658229351,0.0011808422859758139,-0.02466324344277382
1772562040921454600,6.00045458984375,0.007776073180139065,0.007390534970909357,-0.020317494869232178
1772562040931437800,6.010437744140625,0.00857834704220295,0.01316390372812748,-0.013656975701451302
1772562040941419500,6.02041943359375,0.008558905683457851,0.01515035517513752,-0.006708521395921707
1772562040951402800,6.03040283203125,0.01044400129467249,0.01684505119919777,-0.0018585557118058205
1772562040961384700,6.040384765625,0.011269048787653446,0.014309453777968884,0.0012339071836322546
1772562040971367700,6.05036767578125,0.011704353615641594,0.011514758691191673,0.003521959763020277
1772562040981349600,6.060349609375,0.011933918111026287,0.0041535161435604095,-0.002663498278707266
1772562040991331800,6.070331787109375,0.006035362835973501,0.00024162954650819302,-0.010055293329060078
1772562041001314600,6.080314453125,0.004293389152735472,0.0016677522799000144,-0.009576190263032913
1772562041011296800,6.090296875,0.0029639427084475756,0.007019306067377329,-0.010340699926018715
1772562041021279700,6.10027978515625,0.002905086847022176,0.007236087694764137,-0.005997616797685623
1772562041031261700,6.11026171875,-0.001928769052028656,-0.0008067203452810645,-0.00023393845185637474
1772562041041244700,6.12024462890625,-0.004545058589428663,-0.0008607826894149184,0.005389059893786907
1772562041051226600,6.1302265625,-0.008312632329761982,0.0034511415287852287,0.004387444816529751
1772562041061208800,6.140208740234375,-0.01229991763830185,0.009210759773850441,0.0035866324324160814
1772562041071191800,6.15019189453125,-0.010000854730606079,0.014683005400002003,0.0033042365685105324
1772562041081173800,6.160173828125,-0.011973191052675247,0.019521435722708702,0.0005012592300772667
1772562041091156700,6.17015673828125,-0.013976376503705978,0.028052890673279762,-0.003986065741628408
1772562041101138700,6.180138671875,-0.01320192962884903,0.03232193738222122,-0.005632964428514242
1772562041111121700,6.19012158203125,-0.015609909780323505,0.03006923943758011,-0.007039948832243681
1772562041121104000,6.200103759765625,-0.013253810815513134,0.021983616054058075,-0.01661587692797184
1772562041131085600,6.21008544921875,-0.013188819400966167,0.015050526708364487,-0.026546835899353027
1772562041141068800,6.22006884765625,-0.010442035272717476,0.017212746664881706,-0.04202406108379364
1772562041151050800,6.23005078125,-0.007462302688509226,0.0205208919942379,-0.052264254540205
1772562041161033700,6.24003369140625,-0.004958131816238165,0.02371322363615036,-0.05690241605043411
1772562041171015700,6.250015625,-0.0012469661887735128,0.021298406645655632,-0.05423910543322563
1772562041180999000,6.2599990234375,0.0044015985913574696,0.01904963329434395,-0.04611353576183319
1772562041190980600,6.269980712890625,0.012793620117008686,0.017835063859820366,-0.02729133516550064
1772562041200962800,6.279962890625,0.01682058721780777,0.02465222403407097,-0.004381493665277958
1772562041210945500,6.289945556640625,0.02520058862864971,0.023645291104912758,0.01387903280556202
1772562041220927700,6.299927734375,0.035026054829359055,0.016997775062918663,0.027938924729824066
1772562041230910700,6.30991064453125,0.03804140165448189,0.007715714629739523,0.030597645789384842
1772562041240892700,6.319892578125,0.04552701488137245,0.007155385799705982,0.03052893653512001
1772562041250875600,6.329875732421875,0.04559936746954918,0.0020112614147365093,0.027748970314860344
1772562041260857900,6.33985791015625,0.04246962070465088,-0.00291878217831254,0.021808790042996407
1772562041270840600,6.349840576171875,0.03677990660071373,-0.003864302532747388,0.015114093199372292
1772562041280822800,6.35982275390625,0.03240353614091873,0.0000342989806085825,0.010233316570520401
1772562041290804700,6.3698046875,0.026379164308309555,0.002016665181145072,0.0130314901471138
1772562041300787700,6.37978759765625,0.02201184630393982,0.004576495382934809,0.01450315210968256
1772562041310770000,6.38977001953125,0.024312162771821022,0.0034848148934543133,0.0175405815243721
1772562041320752600,6.399752685546875,0.024143852293491364,0.0026826709508895874,0.023055721074342728
1772562041330734800,6.40973486328125,0.027835002169013023,0.003876760136336088,0.024227868765592575
1772562041340717800,6.4197177734375,0.03185904026031494,-0.0017899138620123267,0.02394690364599228
1772562041350699800,6.42969970703125,0.030670154839754105,-0.008470125496387482,0.023530852049589157
1772562041360681700,6.439681640625,0.030666692182421684,-0.013424403965473175,0.02102242037653923
1772562041370664700,6.449664794921875,0.030032839626073837,-0.014398566447198391,0.024524521082639694
1772562041380646700,6.459646728515625,0.023535527288913727,-0.015284598805010319,0.02191675454378128
1772562041390630000,6.4696298828125,0.015801234170794487,-0.014150637201964855,0.02163545787334442
1772562041400611600,6.479611572265625,0.011722602881491184,0.0068646324798464775,0.025030987337231636
1772562041410594800,6.4895947265625,0.006021445617079735,0.031611621379852295,0.03089158423244953
1772562041420576800,6.49957666015625,0.0031761243008077145,0.032991938292980194,0.029052671045064926
1772562041430559700,6.509559814453125,-0.001572303008288145,0.031377945095300674,0.03057754598557949
1772562041440541700,6.519541748046875,-0.005298597738146782,0.029928654432296753,0.031268369406461716
1772562041450523600,6.529523681640625,-0.004628830123692751,0.018147051334381104,0.028568318113684654
1772562041460506600,6.539506591796875,0.0009686020202934742,0.010277675464749336,0.02614271081984043
1772562041470488800,6.54948876953125,0.010437488555908203,0.00945373997092247,0.030673686414957047
1772562041480471600,6.559471435546875,0.017437873408198357,0.011005563661456108,0.02870134823024273
1772562041490453800,6.569453857421875,0.026971757411956787,0.0050878445617854595,0.025617685168981552
1772562041500436700,6.579436767578125,0.033750567585229874,0.005489449482411146,0.029127463698387146
1772562041510418700,6.589418701171875,0.029008468613028526,0.004100231919437647,0.023201558738946915
1772562041520400600,6.599400634765625,0.0242744330316782,-0.0019238387467339635,0.015117531642317772
1772562041530383600,6.609383544921875,0.014864007942378521,0.007440686225891113,0.009056082926690578
1772562041540365600,6.619365478515625,0.01338914968073368,0.028933728113770485,0.008952486328780651
1772562041550348800,6.629348876953125,0.014757893979549408,0.020251238718628883,0.0006752097979187965
1772562041560330800,6.639330810546875,0.017998693510890007,0.0018418710678815842,-0.007340638432651758
1772562041570313700,6.649313720703125,0.026936184614896774,-0.010300843976438046,-0.014362136833369732
1772562041580295700,6.659295654296875,0.030495233833789825,-0.007718376815319061,-0.010036096908152103
1772562041590277600,6.669277587890625,0.029693888500332832,-0.004215520806610584,-0.010281640104949474
1772562041600260600,6.679260498046875,0.02415424771606922,0.010479802265763283,-0.0054756999015808105
1772562041610242600,6.68924267578125,0.022214271128177643,0.01296915765851736,0.0011138010304421186
1772562041620225800,6.699225830078125,0.014105476438999176,0.006893954239785671,0.0021100896410644054
1772562041630207700,6.709207763671875,0.012398118153214455,0.004403968341648579,0.004582482855767012
1772562041640190700,6.719190673828125,0.013202392496168613,0.025304190814495087,0.011984473094344139
1772562041650172700,6.729172607421875,0.011345659382641315,0.035520054399967194,0.02145649492740631
1772562041660155600,6.73915576171875,0.009209005162119865,0.03188963234424591,0.021700706332921982
1772562041670137600,6.7491376953125,0.008634676225483418,0.027383949607610703,0.019482113420963287
1772562041680119600,6.75911962890625,0.007844516076147556,0.0111815445125103,0.01317787915468216
1772562041690102300,6.769102294921875,0.011022998951375484,-0.010609504766762257,0.007722393609583378
1772562041700084500,6.77908447265625,0.01291677262634039,-0.016769129782915115,0.004167073406279087
1772562041710067500,6.7890673828125,0.012144206091761589,-0.011959148570895195,0.005240998230874538
1772562041720049400,6.79904931640625,0.013159137219190598,-0.006618179380893707,0.01081259734928608
1772562041730032400,6.809032470703125,0.01020747423171997,-0.0008729713736101985,0.010862056165933609
1772562041740014600,6.8190146484375,0.0065605416893959045,0.017524676397442818,0.01640116423368454
1772562041749996500,6.82899658203125,0.0037825775798410177,0.0389583520591259,0.02595609985291958
1772562041759979500,6.8389794921875,-0.0027245902456343174,0.04838620871305466,0.02993725799024105
1772562041769961500,6.84896142578125,-0.0038752909749746323,0.046721335500478745,0.0346384197473526
1772562041779944400,6.8589443359375,-0.0005551278591156006,0.04679963365197182,0.04181617125868797
1772562041789926700,6.8689267578125,0.00027760863304138184,0.039347752928733826,0.04820907860994339
1772562041799909400,6.878909423828125,0.01040374580770731,0.028269803151488304,0.044994108378887177
1772562041809891600,6.8888916015625,0.010037696920335293,0.01688355579972267,0.04008088633418083
1772562041819874600,6.89887451171875,0.013574374839663506,0.007654103916138411,0.02683166041970253
1772562041829856500,6.9088564453125,0.01762787066400051,-0.0006882554152980447,0.014440206810832024
1772562041839838500,6.91883837890625,0.023237287998199463,-0.009408775717020035,0.006115697789937258
1772562041849821400,6.928821533203125,0.02173488214612007,-0.011674526147544384,0.002828700002282858
1772562041859803400,6.938803466796875,0.024653440341353416,-0.010153594426810741,0.0024515963159501553
1772562041869786600,6.94878662109375,0.020050711929798126,-0.0017404770478606224,0.006869605742394924
1772562041879768300,6.958768310546875,0.01946241967380047,0.0060210395604372025,0.011666757985949516
1772562041889751600,6.96875146484375,0.02228306047618389,0.017473658546805382,0.020656418055295944
1772562041899733500,6.9787333984375,0.024306796491146088,0.02072164975106716,0.03019186668097973
1772562041909715500,6.988715576171875,0.022388722747564316,0.009436254389584064,0.03326335549354553
1772562041919698400,6.998698486328125,0.017940178513526917,-0.00198018504306674,0.03397894650697708
1772562041929680400,7.008680419921875,0.017389120534062386,-0.00507411640137434,0.03690135106444359
1772562041939663400,7.018663330078125,0.01598057523369789,-0.004298337735235691,0.04076559841632843
1772562041949645600,7.0286455078125,0.01721535436809063,0.00008977192919701338,0.035513848066329956
1772562041959628300,7.038628173828125,0.01823640987277031,0.0025385485496371984,0.03408186882734299
1772562041969610500,7.048610595703125,0.01817658357322216,0.005364584270864725,0.03706405684351921
1772562041979592400,7.058592529296875,0.021025633439421654,0.001768251764588058,0.03706645220518112
1772562041989575400,7.068575439453125,0.023723598569631577,-0.00161878508515656,0.03603893145918846
1772562041999557400,7.078557373046875,0.02200479432940483,-0.002677924232557416,0.03812418505549431
1772562042009540600,7.08854052734375,0.023502571508288383,-0.006117817014455795,0.03558119013905525
1772562042019522300,7.098522216796875,0.021883370354771614,-0.0014804546954110265,0.03744406998157501
1772562042029505500,7.108505615234375,0.024800263345241547,0.006213767919689417,0.039206795394420624
1772562042039487500,7.118487548828125,0.025928910821676254,0.013757971115410328,0.04130536690354347
1772562042049470500,7.128470458984375,0.027864493429660797,0.0163835808634758,0.04591929167509079
1772562042059452400,7.138452392578125,0.026397358626127243,0.015524178743362427,0.04803384095430374
1772562042069434400,7.148434326171875,0.026656614616513252,0.0169930811971426,0.05374095216393471
1772562042079417300,7.158417236328125,0.028105374425649643,0.01982135884463787,0.055411018431186676
1772562042089399300,7.1683994140625,0.03020099736750126,0.028356213122606277,0.05966634675860405
1772562042099382500,7.178382568359375,0.03388627991080284,0.03677233308553696,0.054463863372802734
1772562042109364500,7.188364501953125,0.03875211626291275,0.037988968193531036,0.04979781433939934
1772562042119347500,7.198347412109375,0.04126693680882454,0.029361393302679062,0.041538286954164505
1772562042129329400,7.208329345703125,0.04159768670797348,0.014622615650296211,0.0320916473865509
1772562042139311600,7.2183115234375,0.0427902527153492,-0.0004037385806441307,0.01913270726799965
1772562042149294300,7.22829443359375,0.04089594632387161,-0.018137196078896523,0.005185199901461601
1772562042159276500,7.238276611328125,0.041152141988277435,-0.03088921122252941,-0.010847295634448528
1772562042169259500,7.248259521484375,0.035766299813985825,-0.027827274054288864,-0.024401677772402763
1772562042179241500,7.258241455078125,0.03569252789020538,-0.014207601547241211,-0.026271749287843704
1772562042189224400,7.268224365234375,0.03162847086787224,-0.002306313719600439,-0.025099001824855804
1772562042199206400,7.278206298828125,0.03161914646625519,0.017569655552506447,-0.017050929367542267
1772562042209189400,7.288189453125,0.02936975099146366,0.02950073964893818,-0.0001285327598452568
1772562042219171600,7.298171630859375,0.03110107034444809,0.03408963233232498,0.014172907918691635
1772562042229153300,7.3081533203125,0.038947489112615585,0.029902273789048195,0.026514297351241112
1772562042239136500,7.318136474609375,0.04547516629099846,0.01867571845650673,0.03769265115261078
1772562042249118500,7.328118408203125,0.04569555073976517,0.010464342311024666,0.039714615792036057
1772562042259101400,7.338101318359375,0.04500392824411392,0.002662345767021179,0.03890394791960716
1772562042269083400,7.34808349609375,0.04185885936021805,-0.0031795809045434,0.03201061114668846
1772562042279066600,7.358066650390625,0.037818312644958496,-0.011995443142950535,0.018178153783082962
1772562042289048300,7.36804833984375,0.03818899020552635,-0.022263087332248688,0.010484803467988968
1772562042299030500,7.378030517578125,0.03420703113079071,-0.028613127768039703,-0.00635090097784996
1772562042309013200,7.38801318359375,0.03321869298815727,-0.03649264574050903,-0.01320916973054409
1772562042318995500,7.397995361328125,0.03602273762226105,-0.031921062618494034,-0.012027258053421974
1772562042328978400,7.407978515625,0.03218429535627365,-0.0157526396214962,-0.003730637952685356
1772562042338960400,7.41796044921875,0.03372280299663544,0.0008684153435751796,0.019275613129138947
1772562042348943400,7.427943359375,0.033281147480010986,0.02057819627225399,0.03690490871667862
1772562042358925300,7.43792529296875,0.03587932884693146,0.039077844470739365,0.05362476781010628
1772562042368908300,7.447908203125,0.03691516071557999,0.04326583445072174,0.06211381405591965
1772562042378890500,7.457890380859375,0.04104252904653549,0.040293481200933456,0.05900590494275093
1772562042388872400,7.46787255859375,0.03861536085605621,0.036001019179821014,0.04842552915215492
1772562042398855400,7.47785546875,0.03878900036215782,0.024026380851864815,0.03483035787940025
1772562042408837600,7.487837646484375,0.038387544453144073,0.013668696396052837,0.018207350745797157
1772562042418820400,7.4978203125,0.03824479877948761,0.00438917800784111,0.0024020224809646606
1772562042428802600,7.507802490234375,0.03649904578924179,-0.002725528087466955,-0.0077536399476230145
1772562042438785500,7.51778564453125,0.03319939225912094,-0.002218728419393301,-0.016256581991910934
1772562042448767500,7.527767578125,0.02869577147066593,-0.0061279116198420525,-0.017179934307932854
1772562042458749400,7.53774951171875,0.01862609200179577,-0.001042605610564351,-0.016398295760154724
1772562042468732400,7.547732421875,0.014658631756901741,0.004375715274363756,-0.015360109508037567
1772562042478714400,7.55771435546875,0.009151481091976166,0.013308756053447723,-0.003646994009613991
1772562042488697600,7.567697509765625,0.0035163976717740297,0.024204006418585777,0.00324843218550086
1772562042498679300,7.57767919921875,-0.0028863742481917143,0.02656356804072857,0.009258121252059937
1772562042508662500,7.58766259765625,-0.010477963835000992,0.031405773013830185,0.014144627377390862
1772562042518644500,7.59764453125,-0.018870385363698006,0.03306758403778076,0.012533681467175484
1772562042528627500,7.60762744140625,-0.027570215985178947,0.030406326055526733,0.005882010795176029
1772562042538609400,7.617609375,-0.03680286183953285,0.03291315957903862,-0.007904108613729477
1772562042548591400,7.62759130859375,-0.042363595217466354,0.045536674559116364,-0.011958921328186989
1772562042558574300,7.63757421875,-0.04619188979268074,0.05308007821440697,-0.019763581454753876
1772562042568556500,7.647556640625,-0.04790118709206581,0.04614996910095215,-0.023507259786128998
1772562042578539300,7.657539306640625,-0.043412961065769196,0.03679028898477554,-0.01864139921963215
1772562042588521500,7.667521484375,-0.04142066836357117,0.02765420451760292,-0.007375753950327635
1772562042598504400,7.67750439453125,-0.036176372319459915,0.017819948494434357,-0.005395426880568266
1772562042608486400,7.687486328125,-0.03873926028609276,0.00832008570432663,0.006405266467481852
1772562042618469400,7.697469482421875,-0.040164586156606674,0.005532022565603256,0.005097121931612492
1772562042628451300,7.707451416015625,-0.04324807971715927,0.012071185745298862,0.005878334399312735
1772562042638433500,7.71743359375,-0.04859277606010437,0.021421276032924652,-0.0017846450209617615
1772562042648416500,7.72741650390625,-0.0477084256708622,0.029512999579310417,-0.008226110599935055
1772562042658398500,7.7373984375,-0.04634994640946388,0.0333934910595417,-0.02103271894156933
1772562042668381400,7.74738134765625,-0.044648751616477966,0.02411574311554432,-0.027466125786304474
1772562042678363000,7.75736279296875,-0.04152859374880791,0.023541299626231194,-0.030170302838087082
1772562042688345900,7.767345947265625,-0.039836667478084564,0.014085526578128338,-0.03179149702191353
1772562042698328000,7.777328125,-0.037865396589040756,0.0013486928073689342,-0.04100549966096878
1772562042708310000,7.78731005859375,-0.029777957126498222,-0.007475296966731548,-0.044836338609457016
1772562042718293000,7.79729296875,-0.0288075041025877,-0.016042951494455338,-0.053012777119874954
1772562042728275000,7.80727490234375,-0.024432610720396042,-0.02363577112555504,-0.053398579359054565
1772562042738258000,7.8172578125,-0.021801143884658813,-0.027990305796265602,-0.05630302429199219
1772562042748240000,7.827239990234375,-0.01847655139863491,-0.030453002080321312,-0.04733983799815178
1772562042758223000,7.83722314453125,-0.02106301300227642,-0.029739277437329292,-0.03173824027180672
1772562042768204800,7.847204833984375,-0.021457646042108536,-0.02712065353989601,-0.01793794147670269
1772562042778188000,7.85718798828125,-0.026914462447166443,-0.021055303514003754,-0.010317571461200714
1772562042788170000,7.867169921875,-0.030073951929807663,-0.004200728610157967,-0.011450322344899178
1772562042798152000,7.87715185546875,-0.030816443264484406,0.016379646956920624,-0.018343647941946983
1772562042808135000,7.887135009765625,-0.030336862429976463,0.023700077086687088,-0.033306583762168884
1772562042818116900,7.897116943359375,-0.026179403066635132,0.017302632331848145,-0.041505925357341766
1772562042828099800,7.907099853515625,-0.022309057414531708,-0.004496100824326277,-0.04558493569493294
1772562042838082000,7.91708203125,-0.017723893746733665,-0.023737173527479172,-0.04377664625644684
1772562042848065000,7.92706494140625,-0.017335768789052963,-0.04321785643696785,-0.03938780725002289
1772562042858047000,7.937046875,-0.0192580409348011,-0.05629530921578407,-0.034747518599033356
1772562042868029000,7.94702880859375,-0.01871202513575554,-0.052969902753829956,-0.02947630174458027
1772562042878012000,7.957011962890625,-0.023605050519108772,-0.030218783766031265,-0.029682962223887444
1772562042887994000,7.966994140625,-0.02902744524180889,-0.00848773866891861,-0.036450568586587906
1772562042897976800,7.976976806640625,-0.03184427320957184,0.0070925522595644,-0.04713889956474304
1772562042907959000,7.986958984375,-0.031669631600379944,0.013219769112765789,-0.05120396614074707
1772562042917942000,7.99694189453125,-0.03147495537996292,0.015466945245862007,-0.046668071299791336
1772562042927924000,8.006924072265624,-0.02640707977116108,0.007594255730509758,-0.03000130131840706
1772562042937907000,8.016906982421874,-0.018993638455867767,0.003129732795059681,-0.017743302509188652
1772562042947889000,8.026888916015626,-0.012875541113317013,-0.007519605569541454,-0.0070189605467021465
1772562042957870800,8.036870849609375,-0.008660023100674152,-0.01113750971853733,-0.0013261870481073856
1772562042967854000,8.04685400390625,0.0007845775689929724,-0.010500839911401272,-0.005269273649901152
1772562042977835800,8.056835693359375,0.00598573125898838,-0.011458512395620346,-0.01321694627404213
1772562042987819000,8.066819091796875,0.00920935533940792,-0.018102198839187622,-0.018449217081069946
1772562042997801000,8.076801025390624,0.005437786225229502,-0.01851552166044712,-0.0188944973051548
1772562043007784000,8.086783935546874,0.006047765724360943,-0.013811727985739708,-0.017196379601955414
1772562043017766000,8.096765869140626,0.0022825889755040407,-0.00831789243966341,-0.008763212710618973
1772562043027749000,8.1067490234375,0.0020160232670605183,-0.004911397118121386,-0.006477816496044397
1772562043037730800,8.116730712890625,0.004867736250162125,-0.0004143834812566638,-0.00140848895534873
1772562043047713000,8.126713134765625,0.008102620020508766,0.008117785677313805,-0.004049515351653099
1772562043057695700,8.13669580078125,0.012462480925023556,0.014685407280921936,-0.004035932943224907
1772562043067678000,8.146677978515624,0.013917838223278522,0.00950796902179718,-0.005032687913626432
1772562043077661000,8.156660888671874,0.01826092228293419,-0.006778593175113201,-0.005885964725166559
1772562043087643000,8.166642822265626,0.023274768143892288,-0.018038664013147354,-0.013515815138816833
1772562043097625900,8.1766259765625,0.02719760499894619,-0.03139282017946243,-0.01427481696009636
1772562043107607800,8.18660791015625,0.02488967776298523,-0.03247775137424469,-0.019771695137023926
1772562043117590800,8.1965908203125,0.0210491344332695,-0.02742093987762928,-0.02370837889611721
1772562043127573000,8.206572998046875,0.018808670341968536,-0.023563947528600693,-0.029532909393310547
1772562043137555000,8.216554931640625,0.018185757100582123,-0.01602587103843689,-0.03134332597255707
1772562043147538000,8.226537841796874,0.018125299364328384,-0.008330730721354485,-0.027631066739559174
1772562043157520100,8.23652001953125,0.021550923585891724,-0.009899064898490906,-0.02250448241829872
1772562043167502800,8.2465029296875,0.0206876453012228,-0.007563888095319271,-0.01577458344399929
1772562043177485000,8.256485107421875,0.018846070393919945,-0.004960381425917149,-0.012922871857881546
1772562043187468000,8.266468017578125,0.013257425278425217,-0.002937711076810956,-0.010676229372620583
1772562043197450000,8.276449951171875,0.009505564346909523,0.0004173393244855106,-0.007238886784762144
1772562043207432000,8.286431884765625,0.006807446945458651,0.007877802476286888,-0.010086441412568092
1772562043217415000,8.296414794921875,0.005987193435430527,0.014018785208463669,-0.014744576066732407
1772562043227396900,8.30639697265625,0.0065223416313529015,0.016607431694865227,-0.01614150032401085
1772562043237380000,8.316380126953124,0.008869385346770287,0.019977927207946777,-0.016475994139909744
1772562043247361800,8.32636181640625,0.012697710655629635,0.019130004569888115,-0.02044427953660488
1772562043257345000,8.336344970703125,0.013162698596715927,0.014630859717726707,-0.02410799078643322
1772562043267327000,8.346326904296875,0.013515228405594826,0.005903633311390877,-0.025018978863954544
1772562043277310000,8.35631005859375,0.013351177796721458,-0.006365815177559853,-0.03359781950712204
1772562043287292000,8.3662919921875,0.015955325216054916,-0.0183706097304821,-0.03656686097383499
1772562043297273900,8.37627392578125,0.014730270951986313,-0.022301435470581055,-0.043498534709215164
1772562043307256800,8.3862568359375,0.01492334995418787,-0.015219024382531643,-0.04215390607714653
1772562043317239000,8.396239013671876,0.012960867024958134,-0.009018919430673122,-0.03918874263763428
1772562043327221800,8.4062216796875,0.012821963988244534,0.0040171085856854916,-0.02929128333926201
1772562043337204000,8.416203857421875,0.012217693030834198,0.013459878973662853,-0.021738294512033463
1772562043347187000,8.42618701171875,0.015597978606820107,0.023120777681469917,-0.011628871783614159
1772562043357169000,8.4361689453125,0.02182444930076599,0.020312475040555,-0.0027189995162189007
1772562043367151900,8.44615185546875,0.027431100606918335,0.01916617713868618,-0.00009893253445625305
1772562043377133800,8.4561337890625,0.030153118073940277,0.012572189792990685,0.003338942304253578
1772562043387116000,8.466115966796876,0.031850919127464294,0.007888112217187881,0.0014698656741529703
1772562043397099000,8.47609912109375,0.031240787357091904,0.004094705916941166,-0.0066261435858905315
1772562043407081000,8.4860810546875,0.02840551733970642,0.0017902908148244023,-0.01048473734408617
1772562043417064000,8.49606396484375,0.02624169923365116,-0.0038367020897567272,-0.013893583789467812
1772562043427046100,8.506046142578125,0.022220712155103683,-0.005451257340610027,-0.011932876892387867
1772562043437028900,8.51602880859375,0.01738440990447998,-0.0022338926792144775,-0.012229287065565586
1772562043447011000,8.526010986328124,0.017172887921333313,0.0006794224609620869,-0.01641765981912613
1772562043456992800,8.53599267578125,0.014381096698343754,0.0060281152836978436,-0.024740038439631462
1772562043466976000,8.54597607421875,0.016198353841900826,0.005201774183660746,-0.033218637108802795
1772562043476958000,8.5559580078125,0.019455932080745697,-0.0013884842628613114,-0.03693374618887901
1772562043486941000,8.56594091796875,0.021994175389409065,-0.007296552415937185,-0.02850809320807457
1772562043496923000,8.5759228515625,0.022181928157806396,-0.01022842712700367,-0.018425632268190384
1772562043506906000,8.585906005859375,0.02583172358572483,-0.013807632960379124,0.00008171796798706055
1772562043516887800,8.5958876953125,0.02040819637477398,-0.01803353615105152,0.011975395493209362
1772562043526871000,8.60587109375,0.021023334935307503,-0.014672295190393925,0.013470157980918884
1772562043536853000,8.61585302734375,0.017305295914411545,0.001911741215735674,0.0019509214907884598
1772562043546835000,8.6258349609375,0.01658031716942787,0.010726151056587696,-0.0034205070696771145
1772562043556818000,8.63581787109375,0.015460459515452385,0.01584794372320175,-0.007228028494864702
1772562043566800000,8.6457998046875,0.013525823131203651,0.014893612824380398,-0.0004173479974269867
1772562043576782800,8.655782958984375,0.012643517926335335,0.011356934905052185,0.007470136508345604
1772562043586765000,8.66576513671875,0.010971219278872013,0.009579265490174294,0.01994328573346138
1772562043596747800,8.675747802734374,0.011529151350259781,0.00784528162330389,0.025126863270998
1772562043606730000,8.68572998046875,0.01224394328892231,0.008372054435312748,0.03287506476044655
1772562043616713000,8.695712890625,0.013670066371560097,0.007913191802799702,0.03292859345674515
1772562043626695000,8.70569482421875,0.013661959208548069,0.002227223478257656,0.024320371448993683
1772562043636677000,8.715677001953125,0.014949065633118153,0.006489613093435764,0.023413565009832382
1772562043646659800,8.725659912109375,0.0116856275126338,0.012581327930092812,0.01382618397474289
1772562043656642000,8.73564208984375,0.009871216490864754,0.014368575066328049,0.01516016200184822
1772562043666625000,8.745625,0.005893519148230553,0.01580987684428692,0.011190719902515411
1772562043676611300,8.755611328125,0.0027499236166477203,0.015093487687408924,0.007164553739130497
1772562043686594600,8.765594482421875,-0.0013319377321749926,0.023787617683410645,0.008410820737481117
1772562043696576500,8.775576416015625,0.005067105405032635,0.020616058260202408,0.001394456485286355
1772562043706559500,8.7855595703125,0.01285954937338829,0.005447251722216606,-0.002771966625005007
1772562043716541400,8.79554150390625,0.018603987991809845,0.007933312095701694,-0.007358463015407324
1772562043726523400,8.8055234375,0.021678391844034195,0.005458639468997717,-0.00805401336401701
1772562043736506400,8.81550634765625,0.03006335347890854,-0.012350184842944145,-0.00896161887794733
1772562043746488600,8.825488525390625,0.032450027763843536,-0.022321997210383415,-0.002415450755506754
1772562043756471300,8.83547119140625,0.033636998385190964,-0.013806005008518696,0.003441372886300087
1772562043766453500,8.84545361328125,0.03046998381614685,-0.003906457219272852,0.0077001722529530525
1772562043776436500,8.8554365234375,0.02565418928861618,0.003753326367586851,0.007861293852329254
1772562043786418400,8.86541845703125,0.024026650935411453,0.014960678294301033,0.0037253275513648987
1772562043796400600,8.875400634765626,0.019865460693836212,0.02553582563996315,0.0011484529823064804
1772562043806383600,8.885383544921876,0.01575626991689205,0.026442015543580055,0.0030326591804623604
1772562043816365600,8.895365478515625,0.013315482065081596,0.023130374029278755,0.0055932882241904736
1772562043826348500,8.9053486328125,0.011964794248342514,0.016781646758317947,0.012134750373661518
1772562043836330500,8.91533056640625,0.010815107263624668,0.007549267262220383,0.015048781409859657
1772562043846313500,8.9253134765625,0.0039408546872437,0.00007376621942967176,0.009657979011535645
1772562043856295700,8.935295654296874,0.0023900961969047785,-0.0004969491856172681,-0.0033153435215353966
1772562043866278400,8.9452783203125,0.0001412250567227602,-0.002968172077089548,-0.015110166743397713
1772562043876260600,8.955260498046876,-0.005433037877082825,-0.008439636789262295,-0.0229670237749815
1772562043886242300,8.9652421875,-0.008271768689155579,-0.006955437827855349,-0.021478258073329926
1772562043896225500,8.9752255859375,-0.009183901362121105,0.0003900927258655429,-0.01289835199713707
1772562043906207500,8.98520751953125,-0.012189493514597416,0.0048356433399021626,0.0005088690668344498
1772562043916190500,8.9951904296875,-0.010211031883955002,0.003362382296472788,0.010789203457534313
1772562043926172400,9.00517236328125,-0.0047495923936367035,0.004978069569915533,0.019867494702339172
1772562043936155600,9.01515576171875,-0.0028499597683548927,0.012222399935126305,0.02092956192791462
1772562043946137300,9.025137451171876,0.00209433538839221,0.021587835624814034,0.019479699432849884
1772562043956120600,9.03512060546875,0.004465081263333559,0.02709445357322693,0.022669633850455284
1772562043966102500,9.0451025390625,0.007736654486507177,0.022267889231443405,0.01850968599319458
1772562043976084500,9.05508447265625,0.0101124607026577,0.017563950270414352,0.013532770797610283
1772562043986067500,9.0650673828125,0.01008093636482954,0.008637419901788235,0.005765737034380436
1772562043996049400,9.07504931640625,0.008412999100983143,-0.0028922036290168762,-0.0028852755203843117
1772562044006032400,9.085032470703124,0.013742437586188316,-0.013271371833980083,-0.011137420311570168
1772562044016014600,9.0950146484375,0.019873298704624176,-0.0147281214594841,-0.013408830389380455
1772562044025997300,9.104997314453126,0.019340286031365395,-0.01586540974676609,-0.015615614131093025
1772562044035979500,9.1149794921875,0.02303888276219368,-0.017595665529370308,-0.02262318879365921
1772562044045962500,9.12496240234375,0.03075682371854782,-0.012677331455051899,-0.019230026751756668
1772562044055944400,9.1349443359375,0.03389829024672508,-0.0075214519165456295,-0.014693597331643105
1772562044065926700,9.1449267578125,0.035612549632787704,-0.0020662785973399878,-0.0034690448082983494
1772562044075909600,9.15490966796875,0.03704027086496353,-0.005450624041259289,0.006334051489830017
1772562044085891600,9.1648916015625,0.03486498072743416,-0.005576104857027531,0.013438161462545395
1772562044095874600,9.17487451171875,0.034247130155563354,-0.009860065765678883,0.021442824974656105
1772562044105856500,9.1848564453125,0.03175589069724083,-0.014689560979604721,0.022678175941109657
1772562044115839500,9.194839599609375,0.028250904753804207,-0.00956776924431324,0.02371387928724289
1772562044125821700,9.20482177734375,0.025622116401791573,-0.004047725815325975,0.031484510749578476
1772562044135804400,9.214804443359375,0.023284127935767174,0.0037268404848873615,0.02911270037293434
1772562044145786600,9.22478662109375,0.021823499351739883,0.00817197747528553,0.03545172140002251
1772562044155768300,9.234768310546874,0.018711596727371216,0.0046978844329714775,0.03701899200677872
1772562044165751600,9.24475146484375,0.01777459681034088,-0.0001807701773941517,0.036605104804039
1772562044175733500,9.2547333984375,0.017778858542442322,-0.004752086475491524,0.037115633487701416
1772562044185716500,9.264716552734376,0.021411774680018425,-0.0051320441998541355,0.038795772939920425
1772562044195698400,9.274698486328125,0.017871368676424026,0.0011634021066129208,0.03533206507563591
1772562044205681700,9.284681640625,0.017230447381734848,-0.0008954795775935054,0.03168462961912155
1772562044215663400,9.294663330078125,0.013119591400027275,-0.0023197378031909466,0.03444845974445343
1772562044225646600,9.304646484375,0.015586075372993946,-0.001297716167755425,0.03331071510910988
1772562044235628500,9.314628662109374,0.01461881585419178,0.0038823983632028103,0.03584551066160202
1772562044245610500,9.324610595703126,0.014619366265833378,0.009305107407271862,0.03890836983919144
1772562044255593500,9.334593505859376,0.015130959451198578,0.012262547388672829,0.03457487374544144
1772562044265575400,9.344575439453125,0.015094507485628128,0.008426621556282043,0.033322397619485855
1772562044275558400,9.354558349609375,0.019151566550135612,0.003631334286183119,0.02450546994805336
1772562044285540600,9.36454052734375,0.01771046221256256,-0.00635750126093626,0.014644748531281948
1772562044295523300,9.3745234375,0.0222154650837183,-0.016667397692799568,0.0003172080032527447
1772562044305505500,9.384505615234374,0.023043492808938026,-0.01374843530356884,-0.009302513673901558
1772562044315487500,9.394487548828126,0.021698595955967903,-0.006835668347775936,-0.014910864643752575
1772562044325470500,9.404470458984376,0.017683397978544235,0.0022905245423316956,-0.014901047572493553
1772562044335452700,9.41445263671875,0.017207758501172066,0.01219029352068901,-0.01078966073691845
1772562044345435400,9.424435302734375,0.015052961185574532,0.0008515265653841197,-0.0011623422615230083
1772562044355417600,9.43441748046875,0.01762344501912594,-0.008045295253396034,0.0010371622629463673
1772562044365400600,9.444400634765625,0.023222342133522034,-0.002802964299917221,0.013461568392813206
1772562044375382500,9.454382568359375,0.026909489184617996,-0.002840248867869377,0.019866205751895905
1772562044385365500,9.464365478515624,0.026147708296775818,-0.0048422012478113174,0.02128629945218563
1772562044395347700,9.47434765625,0.03067747876048088,0.004140375182032585,0.02296994812786579
1772562044405329400,9.484329345703125,0.024943161755800247,0.01692301593720913,0.024446139112114906
1772562044415312600,9.494312744140625,0.01996651291847229,0.014598608016967773,0.021894564852118492
1772562044425294300,9.50429443359375,0.014454716816544533,0.009830097667872906,0.014329502359032631
1772562044435277600,9.514277587890625,0.012604884803295135,0.015550834126770496,0.009168029762804508
1772562044445259500,9.524259521484375,0.011875992640852928,0.011632106266915798,-0.00042755017057061195
1772562044455242500,9.534242431640624,0.009794732555747032,0.0005754601443186402,-0.016014499589800835
1772562044465224400,9.544224365234374,0.016011783853173256,0.00015140918549150229,-0.02734353393316269
1772562044475207700,9.554207763671876,0.01670047640800476,0.005746976938098669,-0.028280433267354965
1772562044485189400,9.564189453125,0.01828455924987793,-0.0022043315693736076,-0.020910125225782394
1772562044495171600,9.574171630859375,0.02208302542567253,-0.01374833658337593,-0.01164925005286932
1772562044505154600,9.584154541015625,0.025839081034064293,-0.013146442361176014,0.0018620910122990608
1772562044515136500,9.594136474609375,0.025432415306568146,-0.010429752059280872,0.013544313609600067
1772562044525119500,9.604119384765625,0.023585911840200424,-0.0002051123883575201,0.019180240109562874
1772562044535101400,9.614101318359374,0.017591401934623718,0.010888285003602505,0.023102808743715286
1772562044545084400,9.62408447265625,0.009517831727862358,0.025527797639369965,0.023522626608610153
1772562044555066600,9.634066650390626,0.007026710547506809,0.03110126219689846,0.018129458650946617
1772562044565049300,9.64404931640625,0.009639821015298367,0.03064863383769989,0.0165523923933506
1772562044575031600,9.654031494140625,0.011154626496136189,0.018655356019735336,0.011555235832929611
1772562044585013500,9.664013427734375,0.015709765255451202,-0.005175757221877575,0.010061755776405334
1772562044594996500,9.67399658203125,0.018061868846416473,-0.02256033942103386,0.0076670413836836815
1772562044604978700,9.683978759765624,0.016216697171330452,-0.022830285131931305,0.00838746689260006
1772562044614961400,9.69396142578125,0.008176613599061966,-0.01780729554593563,0.006928587332367897
1772562044624943600,9.703943603515626,0.0005851059686392546,-0.0014200578443706036,0.0037184427492320538
1772562044634926600,9.713926513671876,-0.005649087950587273,0.007683692034333944,0.0011796511244028807
1772562044644908500,9.723908447265625,-0.005119001027196646,0.014650107361376286,0.0013432574924081564
1772562044654891500,9.7338916015625,-0.005304356571286917,0.015470627695322037,0.007823526859283447
1772562044664873700,9.743873779296875,-0.00248912931419909,0.010761554352939129,0.011337056756019592
1772562044674855000,9.75385498046875,0.0029759437311440706,0.00854580383747816,0.020997406914830208
1772562044684838100,9.763838134765624,0.008464479818940163,0.00756240077316761,0.02100253291428089
1772562044694819800,9.77381982421875,0.008874073624610901,0.005680078640580177,0.024804728105664253
1772562044704803000,9.783802978515626,0.011903136968612671,0.007183919660747051,0.02323092892765999
1772562044714784800,9.79378466796875,0.012283703312277794,0.000727085571270436,0.021241016685962677
1772562044724768000,9.80376806640625,0.01191677339375019,-0.010296603664755821,0.010558880865573883
1772562044734750000,9.81375,0.013020386919379234,-0.009440397843718529,0.007681334391236305
1772562044744733000,9.82373291015625,0.011346939951181412,-0.011250583454966545,-0.0012920284643769264
1772562044754715000,9.83371484375,0.009939192794263363,-0.008904073387384415,-0.004510192666202784
1772562044764697000,9.843697021484376,0.010748907923698425,-0.0035718351136893034,0.0039460426196455956
1772562044774679800,9.8536796875,0.014494110830128193,0.0048592002131044865,0.01128624752163887
1772562044784662000,9.863662109375,0.011469727382063866,0.0066826557740569115,0.015889227390289307
1772562044794645000,9.87364501953125,0.013211967423558235,0.007737267762422562,0.019805938005447388
1772562044804627000,9.883626953125,0.012043805792927742,0.009290945716202259,0.02395537868142128
1772562044814610000,9.89360986328125,0.009942572563886642,0.008201180025935173,0.023866962641477585
1772562044824592000,9.903591796875,0.012785874307155609,0.004948850721120834,0.019767560064792633
1772562044834574800,9.913574951171874,0.013609323650598526,0.004875081591308117,0.017000004649162292
1772562044844557000,9.92355712890625,0.006952906958758831,-0.0011624275939539075,0.01815067231655121
1772562044854539000,9.9335390625,0.0012825041776522994,-0.009262165986001492,0.013722367584705353
1772562044864522000,9.94352197265625,-0.002630310133099556,-0.004822751507163048,0.00871647521853447
1772562044874504000,9.95350390625,-0.006976055912673473,-0.008576210588216782,0.0016300701536238194
1772562044884487000,9.96348681640625,-0.005218503996729851,-0.011849666945636272,-0.006825426127761602
1772562044894469000,9.97346923828125,-0.0016551944427192211,-0.0007581338286399841,-0.007833698764443398
1772562044904451800,9.983451904296874,0.0028350420761853456,0.0002010188763961196,-0.0031450283713638783
1772562044914434000,9.99343408203125,0.005863322410732508,-0.009997290559113026,-0.001300788950175047
1772562044924417000,10.0034169921875,0.012600070796906948,-0.013261746615171432,0.004803047981113195
1772562044934399000,10.01339892578125,0.013971865177154541,-0.009922674857079983,0.014238893985748291
1772562044944381000,10.023380859375,0.009920851327478886,-0.010574784129858017,0.026741666719317436
1772562044954364200,10.0333642578125,0.007248901762068272,-0.011840051971375942,0.03170047327876091
1772562044964345900,10.043345947265625,0.00864829309284687,-0.005097534507513046,0.03490643575787544
1772562044974329000,10.0533291015625,0.00819315854460001,0.001230668742209673,0.03267790377140045
1772562044984310800,10.063310791015626,0.004384156316518784,-0.005673722829669714,0.03018234297633171
1772562044994294000,10.0732939453125,0.002381459344178438,-0.004723773337900639,0.025919953361153603
1772562045004276000,10.08327587890625,0.004889040254056454,-0.0015710589941591024,0.02290225587785244
1772562045014259000,10.093259033203125,0.005932733416557312,-0.00290290592238307,0.023239413276314735
1772562045024241000,10.103240966796875,0.007134868297725916,-0.0003286756109446287,0.024386217817664146
1772562045034222800,10.113222900390625,0.010041441768407822,-0.0031795897521078587,0.026618212461471558
1772562045044205800,10.123205810546875,0.003668345045298338,-0.006382848136126995,0.029557257890701294
1772562045054188000,10.13318798828125,0.003285116283223033,-0.002656286582350731,0.023001886904239655
1772562045064170800,10.143170654296876,0.0038232444785535336,0.007887488231062889,0.023355979472398758
1772562045074153000,10.153153076171876,0.005291445180773735,0.004294351674616337,0.014508958905935287
1772562045084136000,10.163135986328125,0.007940772920846939,-0.012952564284205437,0.00254998542368412
1772562045094118000,10.173117919921875,0.011605815030634403,-0.03030998446047306,-0.006661622319370508
1772562045104100900,10.183100830078125,0.009995253756642342,-0.040623221546411514,-0.009572101756930351
1772562045114083000,10.1930830078125,0.005120603833347559,-0.04282592236995697,-0.014230769127607346
1772562045124065000,10.20306494140625,0.0002762970980256796,-0.03193444013595581,-0.01158878579735756
1772562045134048000,10.213048095703124,-0.0030774218030273914,-0.01664017140865326,-0.012205841019749641
1772562045144030000,10.223030029296876,-0.005847775377333164,-0.0032224664464592934,-0.009548312984406948
1772562045154013000,10.233012939453126,-0.007462183944880962,0.007330575492233038,-0.0046161385253071785
1772562045163995100,10.2429951171875,-0.0041168201714754105,0.022485485300421715,-0.00617004232481122
1772562045173977900,10.252977783203125,0.0033621350303292274,0.021960044279694557,-0.003171588759869337
1772562045183960000,10.2629599609375,0.01413780078291893,0.0022137239575386047,0.0034339777193963528
1772562045193943000,10.272943115234375,0.02003137581050396,-0.017323225736618042,0.012292450293898582
1772562045203925000,10.282925048828124,0.02056960016489029,-0.03215703368186951,0.023314207792282104
1772562045213907000,10.292906982421876,0.020726194605231285,-0.03433949127793312,0.02460451051592827
1772562045223890200,10.30289013671875,0.013164231553673744,-0.02901640348136425,0.025352217257022858
1772562045233872000,10.312871826171875,0.010053126141428947,-0.005673264153301716,0.023360172286629677
1772562045243855000,10.322855224609375,0.006458509247750044,0.01640233024954796,0.01945606619119644
1772562045253836800,10.3328369140625,0.0052251992747187614,0.028526371344923973,0.013221073895692825
1772562045263820000,10.342820068359375,0.007835229858756065,0.03176354244351387,0.0067158108577132225
1772562045273802000,10.352802001953124,0.014430015347898006,0.032864760607481,0.0037128303665667772
1772562045283785000,10.362784912109374,0.017824538052082062,0.023340890184044838,0.012635579332709312
1772562045293767000,10.372766845703126,0.022639267146587372,0.00987488217651844,0.024032311514019966
1772562045303750100,10.382750244140626,0.027530187740921974,0.0015992140397429466,0.03873355686664581
1772562045313731800,10.39273193359375,0.027881724759936333,-0.005726343020796776,0.044224195182323456
1772562045323714000,10.402714111328125,0.03235417976975441,-0.01334238238632679,0.040485311299562454
1772562045333696800,10.41269677734375,0.033890292048454285,-0.012824397534132004,0.027542613446712494
1772562045343679000,10.422678955078124,0.030216384679079056,-0.009496082551777363,0.009173145517706871
1772562045353662000,10.432661865234374,0.027693305164575577,-0.008540273644030094,-0.0030912435613572598
1772562045363644000,10.442643798828126,0.031577352434396744,0.002721052384003997,-0.004521441180258989
1772562045373627000,10.452626953125,0.022866152226924896,0.007167998701334,-0.005201080348342657
1772562045383609000,10.462609130859375,0.014596729539334774,0.0004176056245341897,-0.0021027144975960255
1772562045393591800,10.472591796875,0.01634829118847847,-0.0026088107842952013,-0.000589239876717329
1772562045403574000,10.482573974609375,0.014109903015196323,-0.00040344696026295424,0.000992943998426199
1772562045413556000,10.492555908203125,0.017691589891910553,0.003383834380656481,0.00203716941177845
1772562045423539000,10.5025390625,0.019326770678162575,0.01308173593133688,-0.003876380156725645
1772562045433521200,10.512521240234374,0.018743004649877548,0.014505728147923946,-0.006578156258910894
1772562045443503900,10.52250390625,0.013597882352769375,0.012605560943484306,-0.010646959766745567
1772562045453486000,10.532486083984375,0.008340802974998951,0.00985504686832428,-0.010520193725824356
1772562045463469000,10.542468994140625,0.0036869547329843044,-0.00025367503985762596,-0.008298253640532494
1772562045473451000,10.552450927734375,0.002914638025686145,-0.0005021479446440935,-0.007346973288804293
1772562045483434000,10.56243408203125,0.0075473422184586525,0.0023412068840116262,-0.003333894070237875
1772562045493416200,10.572416259765625,0.009318877011537552,0.007592427544295788,-0.0037086005322635174
1772562045503398000,10.58239794921875,0.008351029828190804,0.016094902530312538,-0.004870076198130846
1772562045513381000,10.592381103515624,0.006281753070652485,0.0174387339502573,-0.007579310331493616
1772562045523362800,10.60236279296875,0.0050344886258244514,0.017539067193865776,-0.010962013155221939
1772562045533346000,10.612345947265625,0.006579654291272163,0.018128691241145134,-0.013967923820018768
1772562045543328000,10.622327880859375,0.0032895621843636036,0.017080435529351234,-0.016269242390990257
1772562045553311000,10.63231103515625,0.006596941500902176,0.013585835695266724,-0.016379764303565025
1772562045563293000,10.64229296875,0.002484607044607401,0.006029767449945211,-0.023139841854572296
1772562045573276200,10.652276123046875,0.003838025499135256,0.001905063516460359,-0.023995783179998398
1772562045583257900,10.6622578125,-0.0045258705504238605,0.008874853141605854,-0.025332603603601456
1772562045593241000,10.672240966796876,-0.006913394667208195,0.005413276609033346,-0.03180062398314476
1772562045603222800,10.682222900390625,-0.005741765722632408,0.008116722106933594,-0.03233250230550766
1772562045613205000,10.692205078125,-0.0035896655172109604,0.010385468602180481,-0.030314091593027115
1772562045623188000,10.70218798828125,-0.004897793754935265,0.01776912808418274,-0.024796685203909874
1772562045633170000,10.712169921875,-0.005968651734292507,0.020455192774534225,-0.016481496393680573
1772562045643153000,10.72215283203125,-0.007803168147802353,0.018893945962190628,-0.007556749973446131
1772562045653135000,10.732135009765624,-0.004540529102087021,0.023931847885251045,-0.004009685944765806
1772562045663117800,10.742117919921874,0.0020366583485156298,0.02278365194797516,-0.003091222606599331
1772562045673100000,10.75210009765625,0.005542443599551916,0.027866028249263763,-0.015431777574121952
1772562045683083300,10.762083251953126,0.011635261587798595,0.03137223422527313,-0.023512940853834152
1772562045693065200,10.772065185546875,0.00760163739323616,0.01134659443050623,-0.03362789377570152
1772562045703047200,10.782047119140625,0.00466302502900362,-0.011721476912498474,-0.04737420380115509
1772562045713030400,10.792030517578125,0.0030566060449928045,-0.017794283106923103,-0.04941178858280182
1772562045723012000,10.80201220703125,-0.002791540464386344,-0.003050283994525671,-0.04192633554339409
1772562045732995300,10.811995361328124,-0.004882654175162315,0.008053500205278397,-0.03712545707821846
1772562045742977000,10.82197705078125,-0.005999317392706871,0.021534154191613197,-0.024871720001101494
1772562045752960300,10.831960205078126,0.004505254793912172,0.024899590760469437,-0.022601908072829247
1772562045762942200,10.841942138671875,0.00928587932139635,0.027585608884692192,-0.006790059618651867
1772562045772925200,10.85192529296875,0.00684535875916481,0.031580351293087006,0.004906277637928724
1772562045782907100,10.8619072265625,0.009744975715875626,0.020576342940330505,0.014466485008597374
1772562045792890400,10.871890380859375,0.01344623789191246,0.003628784790635109,0.014896318316459656
1772562045802872000,10.8818720703125,0.020318694412708282,-0.0012834271183237433,0.014798285439610481
1772562045812855300,10.891855224609374,0.030380383133888245,0.014524564146995544,0.017608188092708588
1772562045822837200,10.901837158203126,0.01702934317290783,0.007318885065615177,0.00898897647857666
1772562045832819200,10.911819091796875,0.013185068964958191,-0.00589012773707509,-0.003814170602709055
1772562045842802200,10.92180224609375,0.011379469186067581,0.0074302395805716515,-0.009361186996102333
1772562045852784000,10.9317841796875,0.006421462632715702,0.005708772223442793,-0.020254047587513924
1772562045862767000,10.94176708984375,0.002985461847856641,-0.0006161773344501853,-0.02818901091814041
1772562045872749300,10.951749267578125,0.0032139611430466175,-0.0036029121838510036,-0.03222742676734924
1772562045882732000,10.96173193359375,0.0054922220297157764,-0.0055709658190608025,-0.033912353217601776
1772562045892714200,10.97171435546875,0.006733521819114685,-0.009963850490748882,-0.03385908901691437
1772562045902697200,10.981697265625,0.011703552678227425,-0.006562575697898865,-0.031008772552013397
1772562045912679200,10.99167919921875,0.01197599433362484,-0.002549458295106888,-0.023174019530415535
1772562045922661400,11.001661376953125,0.007747541181743145,-0.0012923894682899117,-0.017362035810947418
1772562045932644000,11.01164404296875,0.001745841233059764,-0.008701836690306664,-0.013957186602056026
1772562045942626300,11.021626220703125,-0.0010316830594092607,-0.01275975164026022,-0.011883549392223358
1772562045952609300,11.031609375,-0.005887158215045929,-0.017587529495358467,-0.012832166627049446
1772562045962591200,11.04159130859375,-0.004402267746627331,-0.029474306851625443,-0.01998922787606716
1772562045972574200,11.05157421875,-0.006568483542650938,-0.03036460094153881,-0.025352034717798233
1772562045982556400,11.061556396484375,-0.008352470584213734,-0.01798843964934349,-0.02547398954629898
1772562045992539100,11.0715390625,-0.009314404800534248,-0.0020041479729115963,-0.019597457721829414
1772562046002521300,11.081521240234375,-0.008996834047138691,0.0016458299942314625,-0.0118238665163517
1772562046012504300,11.09150439453125,-0.0064367372542619705,0.004463986959308386,0.002147343475371599
1772562046022486300,11.101486328125,-0.010162847116589546,0.008960770443081856,0.006601590197533369
1772562046032468200,11.11146826171875,-0.00801953487098217,0.013141932897269726,0.005556832067668438
1772562046042451200,11.121451171875,-0.006087079644203186,0.015672387555241585,-0.0005569681525230408
1772562046052433200,11.13143310546875,-0.003940040245652199,-0.0011643838370218873,-0.011759554967284203
1772562046062416400,11.14141650390625,-0.003258157754316926,-0.010631064884364605,-0.019078288227319717
1772562046072398000,11.151398193359375,-0.0028592164162546396,-0.018321208655834198,-0.028461404144763947
1772562046082381300,11.16138134765625,-0.0013739813584834337,-0.015328333713114262,-0.035839371383190155
1772562046092363300,11.17136328125,-0.002127656014636159,-0.010538105852901936,-0.03582046180963516
1772562046102346200,11.18134619140625,0.001156612066552043,-0.001503480481915176,-0.026959560811519623
1772562046112328200,11.191328125,-0.0036237621679902077,0.009140375070273876,-0.016974307596683502
1772562046122310100,11.20131005859375,0.0009424691088497639,0.015457900241017342,0.0015056123957037926
1772562046132293000,11.211293212890626,0.005116441287100315,0.011435194872319698,0.010042374953627586
1772562046142275300,11.221275390625,0.009746662341058254,0.010076854377985,0.009555431082844734
1772562046152258000,11.231258056640625,0.011308872140944004,0.0067010316997766495,0.01055091992020607
1772562046162240300,11.241240234375,0.01495189219713211,-0.00013773515820503235,0.0074149384163320065
1772562046172223200,11.25122314453125,0.018302947282791138,-0.009680906310677528,0.0002483720891177654
1772562046182205200,11.261205078125,0.017259541898965836,-0.01236933097243309,-0.002542806789278984
1772562046192188200,11.271188232421874,0.015274155884981155,-0.00930083729326725,-0.00003410922363400459
1772562046202170000,11.281170166015626,0.010519495233893394,-0.00563983665779233,0.004204469732940197
1772562046212153000,11.291153076171875,0.0050059533677995205,0.0018913166131824255,0.00949004478752613
1772562046222135300,11.30113525390625,-0.0008630398660898209,0.01276390254497528,0.010612724348902702
1772562046232117200,11.3111171875,0.0021601805929094553,0.015314411371946335,0.0144527368247509
1772562046242100200,11.321100341796875,0.0017267470248043537,0.012728319503366947,0.013772335834801197
1772562046252082400,11.33108251953125,0.002822904149070382,0.009747443720698357,0.01267937384545803
1772562046262065200,11.341065185546874,0.0030090906657278538,0.0017199701396748424,0.007927505299448967
1772562046272047400,11.35104736328125,0.003979014232754707,-0.00507774855941534,0.004586835391819477
1772562046282030300,11.3610302734375,0.0078041525557637215,-0.01258424948900938,-0.0036490545608103275
1772562046292012300,11.37101220703125,0.009170354343950748,-0.016060473397374153,-0.015659378841519356
1772562046301995300,11.380995361328125,0.005813787691295147,-0.020670972764492035,-0.025960063561797142
1772562046311977200,11.390977294921875,-0.0009319994132965803,-0.02448675036430359,-0.036026544868946075
1772562046321960200,11.400960205078125,-0.006898893043398857,-0.020522866398096085,-0.0369204580783844
1772562046331942400,11.4109423828125,-0.012474487535655499,-0.012615407817065716,-0.03416488692164421
1772562046341924000,11.420924072265626,-0.016600240021944046,-0.001729691051878035,-0.03201184794306755
1772562046351907300,11.4309072265625,-0.016217544674873352,0.0104020731523633,-0.022182388231158257
1772562046361889300,11.44088916015625,-0.014171525835990906,0.019351601600646973,-0.007984891533851624
1772562046371872300,11.450872314453125,-0.0036658879835158587,0.024181243032217026,-0.000430036336183548
1772562046381854200,11.460854248046875,-0.0009055824484676123,0.020015066489577293,0.007225676905363798
1772562046391837400,11.47083740234375,0.0027221757918596268,0.007154928520321846,0.008802002295851707
1772562046401819100,11.480819091796874,0.007032118737697601,-0.004720686934888363,0.009801378473639488
1772562046411802400,11.49080224609375,0.007037977688014507,-0.017594940960407257,0.004257209599018097
1772562046421784000,11.5007841796875,0.006331384181976318,-0.02477715164422989,0.001868547173216939
1772562046431767300,11.510767333984376,0.001061521004885435,-0.0155735332518816,0.003592411056160927
1772562046441749200,11.520749267578125,-0.00008790800347924232,-0.011522850953042507,0.000583892222493887
1772562046451731200,11.530731201171875,-0.0016637002117931843,-0.004714213777333498,0.0009588655084371567
1772562046461714200,11.540714111328125,-0.004999503493309021,0.004546302370727062,-0.00021003233268857002
1772562046471696100,11.550696044921875,-0.002899601124227047,0.008225193247199059,0.0037306470330804586
1772562046481679000,11.56067919921875,-0.0010853493586182594,0.00238654762506485,0.0026275208219885826
1772562046491661300,11.570661376953124,0.003331503365188837,-0.004815971478819847,0.008831088431179523
1772562046501644000,11.58064404296875,0.0017068946035578847,-0.016940509900450706,0.014773508533835411
1772562046511626200,11.590626220703125,-0.0016116704791784286,-0.016567934304475784,0.015570860356092453
1772562046521609200,11.600609130859375,-0.006523419637233019,-0.01422937586903572,0.01937023364007473
1772562046531591200,11.610591064453125,-0.010950658470392227,-0.012434405274689198,0.016330502927303314
1772562046541574100,11.62057421875,-0.018313637003302574,-0.00888777058571577,0.007803897373378277
1772562046551556400,11.630556396484375,-0.018438272178173065,0.0027028387412428856,0.0011334780137985945
1772562046561538300,11.640538330078124,-0.021682133898139,0.004017538391053677,-0.003931359853595495
1772562046571521300,11.650521240234376,-0.021668285131454468,0.0030116625130176544,-0.003309778403490782
1772562046581503200,11.660503173828126,-0.01515384390950203,0.0052462853491306305,-0.003112546633929014
1772562046591486200,11.670486328125,-0.012676306068897247,0.011612305417656898,0.000015336088836193085
1772562046601468400,11.680468505859375,-0.009312151931226254,0.008753008209168911,0.005222762003540993
1772562046611451100,11.690451171875,-0.0024060430005192757,0.0016876416048035026,0.007576197385787964
1772562046621433300,11.700433349609375,-0.0026777340099215508,-0.004801555071026087,0.01470479927957058
1772562046631416300,11.710416259765625,0.004463000223040581,-0.006926757283508778,0.013828087598085403
1772562046641398300,11.720398193359374,0.004656442441046238,-0.006121140439063311,0.012263242155313492
1772562046651381200,11.73038134765625,0.004099308978766203,0.0033661045599728823,0.0077111003920435905
1772562046661363500,11.740363525390626,-0.0006485197227448225,0.006943994201719761,0.009792964905500412
1772562046671345200,11.75034521484375,-0.005720243789255619,0.007100054994225502,0.00924302265048027
1772562046681324500,11.760324462890624,-0.009955870918929577,0.003851633984595537,0.011322989128530025
1772562046691306200,11.77030615234375,-0.008311102166771889,-0.006896883714944124,0.011602887883782387
1772562046701289500,11.78028955078125,-0.006567046977579594,-0.014796223491430283,0.012857621535658836
1772562046711271400,11.790271484375,-0.0034205219708383083,-0.011597502045333385,0.017898187041282654
1772562046721254400,11.80025439453125,-0.009783178567886353,-0.0013805606868118048,0.02598005346953869
1772562046731236400,11.810236328125,-0.012772311456501484,0.010318972170352936,0.030419809743762016
1772562046741219600,11.820219482421875,-0.013874098658561707,0.023761391639709473,0.03170165419578552
1772562046751201300,11.830201171875,-0.014753207564353943,0.020828183740377426,0.027746593579649925
1772562046761183500,11.84018359375,-0.013164680451154709,0.015927297994494438,0.019971614703536034
1772562046771166500,11.85016650390625,-0.012545229867100716,0.005176382604986429,0.020446455106139183
1772562046781148400,11.8601484375,-0.01318687479943037,0.0022106636315584183,0.02123893052339554
1772562046791131400,11.87013134765625,-0.003700429340824485,0.006364395841956139,0.017200510948896408
1772562046801113300,11.88011328125,-0.010582382790744305,0.014991474337875843,0.017501559108495712
1772562046811096300,11.890096435546875,-0.012173355557024479,0.002466361504048109,0.008210590109229088
1772562046821078500,11.90007861328125,-0.007363532669842243,0.007538560312241316,0.006242348346859217
1772562046831061200,11.910061279296874,-0.006226363591849804,0.014367704279720783,-0.0009537790901958942
1772562046841043500,11.92004345703125,-0.004156756680458784,0.003094462212175131,-0.0028773616068065166
1772562046851026400,11.9300263671875,-0.0016057146713137627,0.004965066444128752,-0.0034014717675745487
1772562046861008400,11.94000830078125,-0.0012205666862428188,0.0005398907815106213,0.0029616905376315117
1772562046870990600,11.949990478515625,0.0008867927826941013,0.010322746820747852,0.007835541851818562
1772562046880973300,11.959973388671875,0.000577516620978713,0.01118371170014143,0.01672104001045227
1772562046890955500,11.96995556640625,-0.0005801594816148281,0.015506555326282978,0.020674502477049828
1772562046900938500,11.9799384765625,-0.00309067708440125,0.016108844429254532,0.020688822492957115
1772562046910920400,11.98992041015625,-0.0018336649518460035,0.014387909322977066,0.015045050531625748
1772562046920903400,11.9999033203125,-0.0031982851214706898,0.015387346968054771,0.01150184404104948
1772562046930885600,12.0098857421875,-0.002077360637485981,0.013355089351534843,0.003601576667279005
