time,seconds_elapsed,z,y,x
1772656004325196500,0.245196533203125,-0.031378746032714844,0.003961481153964996,0.0026418864727020264
1772656004344955400,0.264955322265625,-0.028985023498535156,0.0002762097865343094,0.001511789858341217
1772656004364714500,0.284714599609375,-0.028985977172851562,0.0014987718313932419,0.0027762576937675476
1772656004384473600,0.3044736328125,-0.030181884765625,-0.0019488092511892319,-0.0008067786693572998
1772656004404232400,0.324232421875,-0.028985023498535156,-0.001923631876707077,0.00758042186498642
1772656004423991300,0.3439912109375,-0.031378746032714844,0.0016333665698766708,0.002800196409225464
1772656004443750400,0.36375048828125,-0.02778911590576172,0.003992773592472076,0.004123397171497345
1772656004463509200,0.38350927734375,-0.026592254638671875,-0.0032230038195848465,-0.0007157176733016968
1772656004483268400,0.403268310546875,-0.027790069580078125,-0.000802900642156601,0.000548921525478363
1772656004503027200,0.423027099609375,-0.02778911590576172,0.00042007677257061005,-0.0007580667734146118
1772656004522786300,0.442786376953125,-0.024196624755859375,0.00038596242666244507,0.007451184093952179
1772656004542545200,0.462545166015625,-0.027787208557128906,0.0016671884804964066,0.0013555064797401428
1772656004562304300,0.48230419921875,-0.02659130096435547,-0.0032727550715208054,-0.0008526816964149475
1772656004582063000,0.50206298828125,-0.025394439697265625,0.0026193615049123764,-0.0007851496338844299
1772656004601822200,0.521822265625,-0.02778911590576172,0.0001911614090204239,0.004069887101650238
1772656004621581000,0.5415810546875,-0.02300262451171875,0.00009703077375888824,-0.000532880425453186
1772656004641340200,0.561340087890625,-0.023004531860351562,0.0014365985989570618,0.0008494257926940918
1772656004661099000,0.58109912109375,-0.026597976684570312,0.0025404486805200577,-0.0012994557619094849
1772656004680858000,0.600858154296875,-0.028992652893066406,0.001190749928355217,0.00008326023817062378
1772656004700617000,0.620616943359375,-0.027797698974609375,0.0022346675395965576,-0.002243220806121826
1772656004720376000,0.6403759765625,-0.02779674530029297,0.007046855986118317,-0.00217544287443161
1772656004740135000,0.660135009765625,-0.028993606567382812,-0.0036424994468688965,0.0014234036207199097
1772656004759894000,0.67989404296875,-0.02540302276611328,-0.00008583627641201019,0.0002935752272605896
1772656004779652900,0.69965283203125,-0.030191421508789062,-0.002513989806175232,-0.0022104308009147644
1772656004799412000,0.719411865234375,-0.028993606567382812,0.002180498093366623,-0.0010641366243362427
1772656004819170800,0.7391708984375,-0.02779674530029297,-0.0016224291175603867,-0.0035086721181869507
1772656004838930000,0.758929931640625,-0.027797698974609375,-0.003990603610873222,0.002543501555919647
1772656004858688800,0.778688720703125,-0.02659893035888672,-0.005280228331685066,-0.0035513117909431458
1772656004878447900,0.79844775390625,-0.021811485290527344,-0.0017828047275543213,0.0012445151805877686
1772656004898206700,0.818206787109375,-0.025403976440429688,0.001773010939359665,-0.0012005716562271118
1772656004917965600,0.837965576171875,-0.024204254150390625,0.002875257283449173,0.007007420063018799
1772656004937724700,0.857724609375,-0.021808624267578125,0.0018212739378213882,0.002049356698989868
1772656004957483500,0.8774833984375,-0.02540111541748047,-0.00431579165160656,-0.003867633640766144
1772656004977242600,0.89724267578125,-0.02300739288330078,0.005342688411474228,0.002243347465991974
1772656004997001500,0.91700146484375,-0.026597976684570312,-0.00426664762198925,0.004585228860378265
1772656005016760600,0.936760498046875,-0.02300548553466797,0.0016836263239383698,0.0008835047483444214
1772656005036519400,0.95651953125,-0.02659893035888672,-0.0043348949402570724,-0.0038955137133598328
1772656005056278500,0.976278564453125,-0.02420330047607422,0.000477861613035202,-0.005142204463481903
1772656005076037400,0.996037353515625,-0.026597976684570312,-0.004342291504144669,-0.0075255148112773895
1772656005095796500,1.01579638671875,-0.030188560485839844,0.0029234234243631363,-0.0015315860509872437
1772656005115555300,1.035555419921875,-0.02420330047607422,-0.0007620211690664291,0.0007516220211982727
1772656005135314400,1.055314453125,-0.023006439208984375,0.0015966352075338364,0.003211796283721924
1772656005155073300,1.0750732421875,-0.02180957794189453,0.0013832394033670425,-0.00043064355850219727
1772656005174832400,1.094832275390625,-0.028992652893066406,-0.0011029336601495743,0.001971304416656494
1772656005194591200,1.11459130859375,-0.021810531616210938,4.0978193283081055e-7,0.003056950867176056
1772656005214350000,1.13435009765625,-0.026597976684570312,0.001102527603507042,-0.005312755703926086
1772656005234109200,1.154109130859375,-0.026597976684570312,-0.0014439504593610764,-0.002909556031227112
1772656005253868000,1.173867919921875,-0.02420520782470703,0.0044467877596616745,-0.0028409436345100403
1772656005273627100,1.193627197265625,-0.0206146240234375,-0.005339276045560837,-0.002772495150566101
1772656005293386000,1.213385986328125,-0.017023086547851562,0.0006120558828115463,0.000708363950252533
1772656005313145000,1.23314501953125,-0.023008346557617188,-0.00432734377682209,-0.0028735995292663574
1772656005332904000,1.252904052734375,-0.030191421508789062,0.0002490729093551636,0.0006662681698799133
1772656005352663000,1.2726630859375,-0.021811485290527344,-0.003375193104147911,0.0018705949187278748
1772656005372422000,1.292421875,-0.0206146240234375,-0.0010751914232969284,-0.0005155056715011597
1772656005392181000,1.312180908203125,-0.02779865264892578,-0.007092330604791641,0.0008666664361953735
1772656005411939800,1.33193994140625,-0.026601791381835938,-0.0035929083824157715,0.002071008086204529
1772656005431699000,1.351698974609375,-0.01942157745361328,-0.001233598217368126,-0.001452520489692688
1772656005451457800,1.371457763671875,-0.021813392639160156,0.0012438464909791946,0.006872579455375671
1772656005471216600,1.391216552734375,-0.02779865264892578,-0.0024407189339399338,-0.00275401771068573
1772656005490975700,1.410975830078125,-0.025404930114746094,0.0011759400367736816,-0.00029211491346359253
1772656005510734600,1.430734619140625,-0.021814346313476562,-0.0023893918842077255,0.000853218138217926
1772656005530493700,1.45049365234375,-0.01822376251220703,-0.0051103271543979645,0.0021167993545532227
1772656005550252500,1.47025244140625,-0.027801513671875,-0.004063380882143974,0.0033203884959220886
1772656005570011600,1.49001171875,-0.023011207580566406,-0.006605887785553932,0.0020714476704597473
1772656005589770500,1.5097705078125,-0.0254058837890625,0.004190556704998016,-0.0027073845267295837
1772656005609529600,1.529529541015625,-0.020618438720703125,-0.003142639994621277,-0.003953583538532257
1772656005629288400,1.549288330078125,-0.024209022521972656,0.002924984320998192,0.001979321241378784
1772656005649047600,1.569047607421875,-0.024209022521972656,-0.0042887404561042786,-0.00034724175930023193
1772656005668806400,1.588806396484375,-0.02301311492919922,-0.0019277092069387436,-0.0026135146617889404
1772656005688565500,1.6085654296875,-0.023014068603515625,-0.0056678783148527145,0.004633620381355286
1772656005708324400,1.628324462890625,-0.019423484802246094,-0.003423992544412613,-0.0001462996006011963
1772656005728083500,1.64808349609375,-0.01702880859375,-0.002318134531378746,0.003332950174808502
1772656005747842300,1.66784228515625,-0.02301502227783203,0.0013561509549617767,-0.0037801340222358704
1772656005767601200,1.68760107421875,-0.026607513427734375,-0.0023869574069976807,0.005978204309940338
1772656005787360300,1.7073603515625,-0.021820068359375,-0.00008610635995864868,9.834766387939453e-7
1772656005807119000,1.727119140625,-0.019426345825195312,-0.004847187548875809,0.008501522243022919
1772656005826878200,1.746878173828125,-0.02780628204345703,-0.007211474701762199,0.0014449059963226318
1772656005846637000,1.766636962890625,-0.02660846710205078,-0.009574688971042633,0.005159340798854828
1772656005866396200,1.786396240234375,-0.025411605834960938,-0.00245768204331398,0.00264614075422287
1772656005886155000,1.806155029296875,-0.015836715698242188,-0.000045454129576683044,-0.0020880550146102905
1772656005905914000,1.8259140625,-0.019426345825195312,-0.004752567037940025,-0.0020929351449012756
1772656005925673000,1.8456728515625,-0.021821022033691406,-0.007064074277877808,0.005139105021953583
1772656005945431800,1.865431884765625,-0.021820068359375,0.00019582174718379974,0.006325773894786835
1772656005965191000,1.88519091796875,-0.023016929626464844,-0.002059193328022957,0.003863885998725891
1772656005984950000,1.904949951171875,-0.021820068359375,-0.004431458190083504,0.0037959814071655273
1772656006004708900,1.924708984375,-0.02541065216064453,0.0013950280845165253,0.00013957172632217407
1772656006024467700,1.9444677734375,-0.014636993408203125,-0.004450341686606407,0.0037219077348709106
1772656006044226800,1.964226806640625,-0.021819114685058594,-0.0033504925668239594,0.0000652894377708435
1772656006063985700,1.983985595703125,-0.024213790893554688,-0.004585085436701775,0.004902966320514679
1772656006083744800,2.003744873046875,-0.019425392150878906,-0.005758397281169891,0.003697432577610016
1772656006103503600,2.023503662109375,-0.023015975952148438,-0.006872508674860001,-0.0010962337255477905
1772656006123262700,2.0432626953125,-0.019423484802246094,-0.005417130887508392,0.00009410828351974487
1772656006143021600,2.063021484375,-0.02660655975341797,-0.0018057487905025482,0.003676369786262512
1772656006162780700,2.08278076171875,-0.01702880859375,-0.011532515287399292,0.000019803643226623535
1772656006182539500,2.10253955078125,-0.017027854919433594,-0.004387721419334412,-0.0025563687086105347
1772656006202298600,2.122298583984375,-0.02421092987060547,-0.0032877102494239807,-0.006149254739284515
1772656006222057500,2.142057373046875,-0.024211883544921875,0.00020381808280944824,0.0011443495750427246
1772656006241816600,2.161816650390625,-0.02181720733642578,0.0001634303480386734,0.00113726407289505
1772656006261575400,2.181575439453125,-0.021818161010742188,-0.003405783325433731,0.002267301082611084
1772656006281334300,2.201334228515625,-0.02181720733642578,-0.003444245085120201,-0.0036624521017074585
1772656006301093400,2.22109326171875,-0.0194244384765625,-0.0009712614119052887,-0.004802815616130829
1772656006320852200,2.240852294921875,-0.02301502227783203,0.003952858969569206,0.004764169454574585
1772656006340611300,2.260611328125,-0.017030715942382812,-0.0021301843225955963,-0.0023041293025016785
1772656006360370200,2.2803701171875,-0.026607513427734375,0.0013020988553762436,0.001398324966430664
1772656006380129300,2.30012939453125,-0.021819114685058594,-0.00818958692252636,-0.006981663405895233
1772656006399888100,2.31988818359375,-0.024211883544921875,-0.002124059945344925,0.000016883015632629395
1772656006419647200,2.339647216796875,-0.0194244384765625,-0.002103002741932869,0.0024620965123176575
1772656006439406000,2.359406005859375,-0.02660655975341797,-0.005729684606194496,0.0000025033950805664062
1772656006459165200,2.379165283203125,-0.019423484802246094,-0.0010417439043521881,0.0023286864161491394
1772656006478924000,2.398924072265625,-0.02301502227783203,0.0014301352202892303,-0.0012673810124397278
1772656006498683100,2.41868310546875,-0.02301502227783203,-0.0033953338861465454,-0.003723651170730591
1772656006518442000,2.43844189453125,-0.02181720733642578,-0.003373924642801285,-0.0001977980136871338
1772656006538201000,2.458201171875,-0.02301502227783203,0.00023597478866577148,0.00469864159822464
1772656006557960000,2.4779599609375,-0.026607513427734375,-0.00004062056541442871,0.0024740025401115417
1772656006577718800,2.49771875,-0.023016929626464844,-0.004864811897277832,0.0013880059123039246
1772656006597478000,2.517477783203125,-0.021819114685058594,-0.00011635199189186096,0.0025176405906677246
1772656006617236700,2.53723681640625,-0.019425392150878906,-0.00846923142671585,-0.001078672707080841
1772656006636995800,2.556995849609375,-0.02062225341796875,-0.007365871220827103,0.0024446994066238403
1772656006656754700,2.576754638671875,-0.021820068359375,-0.0037523843348026276,0.0023772045969963074
1772656006676513800,2.596513671875,-0.021818161010742188,-0.0048089418560266495,-0.0012785345315933228
1772656006696272600,2.616272705078125,-0.018227577209472656,0.0010752249509096146,-0.0012837275862693787
1772656006716031700,2.63603173828125,-0.01822662353515625,0.000016722828149795532,-0.002484336495399475
1772656006735790600,2.65579052734375,-0.025409698486328125,-0.0025328658521175385,0.0010997802019119263
1772656006755549700,2.6755498046875,-0.024213790893554688,-0.001493506133556366,-0.004887297749519348
1772656006775308500,2.69530859375,-0.019425392150878906,-0.002787824720144272,0.005933359265327454
1772656006795067600,2.715067626953125,-0.019425392150878906,-0.006295280531048775,-0.0037051066756248474
1772656006814826500,2.734826416015625,-0.023014068603515625,-0.001368444412946701,0.0010757595300674438
1772656006834585600,2.754585693359375,-0.023014068603515625,-0.0024849623441696167,0.00692962110042572
1772656006854344400,2.774344482421875,-0.019422531127929688,-0.003659956157207489,0.0008779391646385193
1772656006874103600,2.794103515625,-0.020620346069335938,-0.0012457109987735748,0.004517585039138794
1772656006893862400,2.8138623046875,-0.02181720733642578,-0.00499061681330204,-0.0026683583855628967
1772656006913621500,2.83362158203125,-0.021819114685058594,-0.004906784743070602,0.0022891685366630554
1772656006933380400,2.85338037109375,-0.014635086059570312,-0.00829312577843666,-0.000051915645599365234
1772656006953139200,2.87313916015625,-0.01702880859375,-0.0058741942048072815,-0.0013722404837608337
1772656006972898300,2.892898193359375,-0.020620346069335938,-0.0023197289556264877,0.0022108107805252075
1772656006992657200,2.9126572265625,-0.02181720733642578,-0.00343472883105278,0.0033391043543815613
1772656007012416300,2.932416259765625,-0.019422531127929688,0.003703063353896141,0.005661770701408386
1772656007032175000,2.952175048828125,-0.02181720733642578,-0.003398001194000244,0.004571974277496338
1772656007051934200,2.971934326171875,-0.02899932861328125,-0.00702332891523838,-0.003719821572303772
1772656007071693000,2.991693115234375,-0.025407791137695312,-0.003409668803215027,-0.00028430670499801636
1772656007091452200,3.0114521484375,-0.02540874481201172,-0.0034462884068489075,0.004611097276210785
1772656007111211000,3.0312109375,-0.02301502227783203,-0.004619915038347244,0.0022673606872558594
1772656007130970000,3.05097021484375,-0.02421092987060547,-0.0021458007395267487,0.0010627210140228271
1772656007150729000,3.07072900390625,-0.020620346069335938,-0.004456149414181709,0.0021922215819358826
1772656007170488000,3.090488037109375,-0.02061748504638672,-0.0009042993187904358,0.004397667944431305
1772656007190247000,3.110246826171875,-0.02660369873046875,0.0027615707367658615,0.005641289055347443
1772656007210006000,3.130006103515625,-0.021814346313476562,-0.0006914809346199036,0.0007275938987731934
1772656007229764900,3.149764892578125,-0.020616531372070312,-0.000732196494936943,0.001856684684753418
1772656007249524000,3.16952392578125,-0.01702594757080078,-0.0030452050268650055,-0.001620665192604065
1772656007269282800,3.18928271484375,-0.02420806884765625,-0.0003949124366044998,-0.00162515789270401
1772656007289042000,3.2090419921875,-0.023012161254882812,-0.0017486624419689178,0.0019574910402297974
1772656007308800800,3.22880078125,-0.01822376251220703,-0.006628433242440224,0.003263130784034729
1772656007328559900,3.248559814453125,-0.02181720733642578,-0.007915947586297989,-0.002666182816028595
1772656007348318700,3.268318603515625,-0.023014068603515625,-0.0019104108214378357,0.00097646564245224
1772656007368077800,3.288077880859375,-0.018224716186523438,-0.006612882018089294,0.004556111991405487
1772656007387836700,3.307836669921875,-0.02421092987060547,0.0029794294387102127,-0.0013745203614234924
1772656007407595800,3.327595703125,-0.017027854919433594,-0.0005925148725509644,-0.0014384463429450989
1772656007427354600,3.347354736328125,-0.021816253662109375,-0.0018276870250701904,0.0046534463763237
1772656007447113500,3.367113525390625,-0.018225669860839844,-0.0030031129717826843,0.0021910369396209717
1772656007466872600,3.38687255859375,-0.02061939239501953,0.0005471240729093552,0.0034369155764579773
1772656007486631700,3.406631591796875,-0.021816253662109375,-0.0017671510577201843,-0.00027873367071151733
1772656007506390500,3.426390625,-0.024209022521972656,-0.005273006856441498,-0.002734825015068054
1772656007526149400,3.4461494140625,-0.01822376251220703,-0.0005244556814432144,0.004495002329349518
1772656007545908500,3.465908447265625,-0.019422531127929688,-0.0017600655555725098,-0.0025722160935401917
1772656007565667300,3.485667236328125,-0.02061939239501953,-0.0030568260699510574,0.00699266791343689
1772656007585426400,3.505426513671875,-0.026605606079101562,-0.000825095921754837,0.0021408721804618835
1772656007605185300,3.525185302734375,-0.02301311492919922,-0.006728654727339745,0.005664102733135223
1772656007624944400,3.5449443359375,-0.02181720733642578,-0.002102501690387726,0.0009317994117736816
1772656007644703200,3.564703125,-0.023014068603515625,-0.004476822912693024,0.003379121422767639
1772656007664462300,3.58446240234375,-0.02061939239501953,0.000266052782535553,-0.006191261112689972
1772656007684221200,3.60422119140625,-0.025407791137695312,-0.004561392590403557,0.0033790990710258484
1772656007703980300,3.623980224609375,-0.021818161010742188,0.003828594461083412,0.002296231687068939
1772656007723739100,3.6437392578125,-0.027803421020507812,-0.0008850544691085815,-0.0011176839470863342
1772656007743498200,3.663498291015625,-0.018227577209472656,-0.0009305160492658615,0.0012725144624710083
1772656007763257000,3.683257080078125,-0.024213790893554688,0.006257584318518639,-0.0010037943720817566
1772656007783016200,3.70301611328125,-0.019423484802246094,0.0014821048825979233,0.00246419757604599
1772656007802775000,3.722775146484375,-0.02301502227783203,-0.0022699087858200073,0.0071228742599487305
1772656007822534100,3.7425341796875,-0.025409698486328125,-0.001057671383023262,-0.007175121456384659
1772656007842293000,3.76229296875,-0.019423484802246094,-0.003551747649908066,-0.0012493133544921875
1772656007862052000,3.782052001953125,-0.020621299743652344,-0.0012010633945465088,0.0011415407061576843
1772656007881811000,3.80181103515625,-0.02660655975341797,-0.002439865842461586,0.008251965045928955
1772656007901570000,3.821570068359375,-0.02301502227783203,0.002240775153040886,-0.001324579119682312
1772656007921329000,3.841328857421875,-0.025409698486328125,-0.0037852413952350616,-0.009633980691432953
1772656007941088000,3.861087890625,-0.027805328369140625,-0.006157293915748596,0.004781477153301239
1772656007960846800,3.880846923828125,-0.020623207092285156,-0.0025480967015028,0.0011871159076690674
1772656007980606000,3.90060595703125,-0.026607513427734375,-0.005039984360337257,-0.0035981684923171997
1772656008000364800,3.92036474609375,-0.019425392150878906,-0.00507768988609314,0.0011868178844451904
1772656008020124000,3.9401240234375,-0.021821022033691406,-0.00027448125183582306,-0.0011481419205665588
1772656008039882800,3.9598828125,-0.020623207092285156,-0.002591622993350029,0.0014198720455169678
1772656008059641900,3.979641845703125,-0.021821975708007812,-0.002455625683069229,-0.0008564218878746033
1772656008079400700,3.999400634765625,-0.025411605834960938,-0.0073378849774599075,-0.0021115466952323914
1772656008099159800,4.019159912109375,-0.024214744567871094,-0.00839068740606308,0.0050619617104530334
1772656008118918700,4.038918701171875,-0.02541065216064453,-0.0022696461528539658,-0.004628203809261322
1772656008138677800,4.058677734375,-0.02062225341796875,-0.004583103582262993,0.00613519549369812
1772656008158436600,4.0784365234375,-0.021819114685058594,-0.005579682067036629,0.006243370473384857
1772656008178195700,4.09819580078125,-0.018228530883789062,-0.0019124243408441544,-0.006975304335355759
1772656008197954600,4.11795458984375,-0.021821022033691406,0.0040225740522146225,-0.0008720457553863525
1772656008217713700,4.137713623046875,-0.021821022033691406,-0.004394687712192535,0.0028319954872131348
1772656008237472500,4.157472412109375,-0.024214744567871094,-0.0009064208716154099,0.0015716999769210815
1772656008257231600,4.177231689453125,-0.027805328369140625,-0.002144942060112953,-0.0031544864177703857
1772656008276990500,4.196990478515625,-0.024214744567871094,0.0027136094868183136,0.004020512104034424
1772656008296749600,4.21674951171875,-0.023019790649414062,-0.0021156836301088333,0.0017999038100242615
1772656008316508400,4.23650830078125,-0.02182292938232422,-0.000960981473326683,-0.0018491148948669434
1772656008336267300,4.256267333984375,-0.026610374450683594,0.0002495329827070236,-0.0007121637463569641
1772656008356026400,4.2760263671875,-0.029005050659179688,-0.009417649358510971,0.0028727948665618896
1772656008375785500,4.295785400390625,-0.024216651916503906,-0.003412347286939621,0.0017900019884109497
1772656008395544300,4.31554443359375,-0.02182292938232422,-0.0008847210556268692,0.0006492882966995239
1772656008415303200,4.33530322265625,-0.027808189392089844,-0.0007509533315896988,-0.0004896670579910278
1772656008435062300,4.355062255859375,-0.024216651916503906,-0.003066655248403549,0.0042905136942863464
1772656008454821000,4.374821044921875,-0.0290069580078125,-0.004420468583703041,-0.00038055330514907837
1772656008474580200,4.394580322265625,-0.02780914306640625,-0.0031460747122764587,0.0008722841739654541
1772656008494339000,4.414339111328125,-0.02302265167236328,-0.001991415396332741,-0.00020797550678253174
1772656008514098200,4.43409814453125,-0.020627975463867188,0.006391715258359909,0.0033760592341423035
1772656008533857000,4.45385693359375,-0.027810096740722656,-0.005437484011054039,-0.0002164691686630249
1772656008553616100,4.4736162109375,-0.025415420532226562,-0.0030249562114477158,0.00097714364528656
1772656008573375000,4.493375,-0.021823883056640625,0.0030287038534879684,0.0010328516364097595
1772656008593134000,4.513134033203125,-0.023021697998046875,-0.003954887390136719,0.007005877792835236
1772656008612893000,4.532892822265625,-0.029005050659179688,-0.002739774063229561,0.0033483728766441345
1772656008632652000,4.552652099609375,-0.024217605590820312,0.0008059851825237274,0.009317733347415924
1772656008652411000,4.572410888671875,-0.029006004333496094,-0.0040201228111982346,-0.00020072609186172485
1772656008672170000,4.592169921875,-0.02541637420654297,0.004367504268884659,0.0021884292364120483
1772656008691928800,4.6119287109375,-0.02302074432373047,-0.0016008447855710983,0.0058279260993003845
1772656008711688000,4.63168798828125,-0.026610374450683594,-0.00038860179483890533,0.0020541250705718994
1772656008731446800,4.65144677734375,-0.023018836975097656,0.0008209086954593658,-0.0027318522334098816
1772656008751206000,4.671205810546875,-0.02406787872314453,-0.0062781330198049545,0.0021102726459503174
1772656008770964700,4.69096484375,-0.027810096740722656,-0.001413494348526001,0.002223469316959381
1772656008790723800,4.710723876953125,-0.02526569366455078,0.0009340960532426834,0.001022838056087494
1772656008810482700,4.730482666015625,-0.02182292938232422,-0.0002475809305906296,0.005622856318950653
1772656008830241800,4.75024169921875,-0.02526378631591797,-0.0025046896189451218,0.002085760235786438
1772656008850000600,4.770000732421875,-0.02646160125732422,-0.0014087911695241928,-0.0003095269203186035
1772656008869759700,4.789759765625,-0.023019790649414062,-0.0026449989527463913,0.0020798593759536743
1772656008889518600,4.8095185546875,-0.024216651916503906,-0.0025087930262088776,-0.0015700682997703552
1772656008909277700,4.829277587890625,-0.027807235717773438,-0.0038634222000837326,0.004346810281276703
1772656008929036500,4.84903662109375,-0.026610374450683594,-0.006115427240729332,0.0008114352822303772
1772656008948795400,4.86879541015625,-0.02780628204345703,-0.003759002313017845,0.007920078933238983
1772656008968554500,4.888554443359375,-0.024214744567871094,-0.007146699354052544,0.007846102118492126
1772656008988313600,4.908313720703125,-0.023016929626464844,-0.005748460069298744,0.0006016716361045837
1772656009008072400,4.928072509765625,-0.024213790893554688,-0.0010028202086687088,0.0017940998077392578
1772656009027831300,4.947831298828125,-0.024213790893554688,-0.0009857863187789917,0.0017305165529251099
1772656009047590400,4.96759033203125,-0.023015975952148438,-0.004673851653933525,0.0017255619168281555
1772656009067349200,4.987349365234375,-0.024211883544921875,-0.002024175599217415,0.0016620755195617676
1772656009087108400,5.0071083984375,-0.02660655975341797,-0.0019467324018478394,0.00171671062707901
1772656009106867200,5.0268671875,-0.027805328369140625,-0.0030654966831207275,0.0006351470947265625
1772656009126626300,5.046626220703125,-0.025409698486328125,0.0017920322716236115,-0.0006221979856491089
1772656009146385200,5.06638525390625,-0.027805328369140625,0.0004897192120552063,0.0017670542001724243
1772656009166144300,5.086144287109375,-0.031395912170410156,0.0003259461373090744,-0.0018227919936180115
1772656009185903000,5.105903076171875,-0.02780437469482422,-0.0009730830788612366,0.0028997287154197693
1772656009205662200,5.125662109375,-0.03139495849609375,-0.006874315440654755,-0.001887485384941101
1772656009225421000,5.145421142578125,-0.027803421020507812,-0.004399577155709267,0.0040298327803611755
1772656009245180200,5.16518017578125,-0.027803421020507812,0.0015969052910804749,0.0016310662031173706
1772656009264939000,5.18493896484375,-0.02301502227783203,-0.004255102947354317,0.00042400509119033813
1772656009284698000,5.204697998046875,-0.031394004821777344,-0.0031665172427892685,0.006386086344718933
1772656009304457000,5.22445703125,-0.029001235961914062,-0.005723465234041214,-0.003137744963169098
1772656009324215800,5.2442158203125,-0.02421283721923828,0.00026703067123889923,-0.0019490420818328857
1772656009343975000,5.263974853515625,-0.03139495849609375,-0.0021184775978326797,0.004076272249221802
1772656009363733800,5.283733642578125,-0.025409698486328125,0.00380668044090271,0.008778341114521027
1772656009383492900,5.303492919921875,-0.029000282287597656,-0.00205167755484581,0.002835303544998169
1772656009403251700,5.323251708984375,-0.02899932861328125,-0.0031786635518074036,0.0016235113143920898
1772656009423010800,5.3430107421875,-0.02660655975341797,-0.0068130213767290115,0.0003543272614479065
1772656009442769700,5.362769775390625,-0.026605606079101562,-0.0020163841545581818,0.006257370114326477
1772656009462528800,5.38252880859375,-0.026605606079101562,-0.005591563880443573,-0.0009348466992378235
1772656009482287600,5.40228759765625,-0.02540874481201172,0.0004573892802000046,0.003952890634536743
1772656009502046700,5.422046630859375,-0.025407791137695312,-0.004436882212758064,0.00028987228870391846
1772656009521805600,5.4418056640625,-0.027802467346191406,-0.007832450792193413,-0.0021719038486480713
1772656009541564700,5.461564697265625,-0.021816253662109375,-0.0030339863151311874,0.003794632852077484
1772656009561323500,5.481323486328125,-0.025407791137695312,-0.0043963175266981125,-0.001063026487827301
1772656009581082400,5.501082275390625,-0.023012161254882812,-0.0007988512516021729,0.0036474615335464478
1772656009600841500,5.520841552734375,-0.0254058837890625,-0.004318155348300934,-0.003599606454372406
1772656009620600300,5.540600341796875,-0.028998374938964844,0.0004749298095703125,0.0024878084659576416
1772656009640359400,5.560359375,-0.02660369873046875,-0.0041237324476242065,0.0037251561880111694
1772656009660118300,5.5801181640625,-0.028998374938964844,-0.0005267206579446793,0.007350154221057892
1772656009679877400,5.59987744140625,-0.02660369873046875,-0.0005799643695354462,0.007265754044055939
1772656009699636200,5.61963623046875,-0.02061939239501953,-0.001768510788679123,-0.0022591501474380493
1772656009719395300,5.639395263671875,-0.024209022521972656,0.0006280951201915741,0.001317150890827179
1772656009739154200,5.659154296875,-0.02301311492919922,-0.0029527731239795685,0.0013618767261505127
1772656009758913300,5.678913330078125,-0.03019428253173828,-0.004018718376755714,0.0049911439418792725
1772656009778672000,5.698672119140625,-0.017027854919433594,-0.0041246917098760605,0.0013855472207069397
1772656009798431000,5.718430908203125,-0.025407791137695312,-0.0018993914127349854,0.004955701529979706
1772656009818190000,5.738190185546875,-0.030196189880371094,0.0004987102001905441,0.0025448277592658997
1772656009837949000,5.757948974609375,-0.030196189880371094,0.0016987770795822144,0.003782428801059723
1772656009857708000,5.7777080078125,-0.024209022521972656,-0.0006891544908285141,-0.0034646540880203247
1772656009877467000,5.797466796875,-0.028997421264648438,-0.0006833802908658981,0.006029106676578522
1772656009897226000,5.81722607421875,-0.028998374938964844,-0.0005585998296737671,-0.003434419631958008
1772656009916984800,5.83698486328125,-0.03139209747314453,-0.00413709320127964,0.00014435499906539917
1772656009936743700,5.85674365234375,-0.02899646759033203,0.0007126480340957642,0.0049108341336250305
1772656009956502800,5.876502685546875,-0.028998374938964844,-0.006452204659581184,-0.0022200271487236023
1772656009976261600,5.89626171875,-0.025406837463378906,-0.002790464088320732,0.0014160722494125366
1772656009996020700,5.916020751953125,-0.027801513671875,0.0019980538636446,0.00749322772026062
1772656010015779600,5.935779541015625,-0.030195236206054688,-0.0014669913798570633,-0.003345191478729248
1772656010035538700,5.95553857421875,-0.031391143798828125,0.002065969631075859,-0.001020476222038269
1772656010055297500,5.975297607421875,-0.027800559997558594,-0.005160411819815636,0.001300029456615448
1772656010075056400,5.995056396484375,-0.03258800506591797,0.0032760128378868103,0.009648583829402924
1772656010094815500,6.0148154296875,-0.028997421264648438,0.004350876435637474,0.007228463888168335
1772656010114574300,6.03457421875,-0.02660369873046875,-0.0029397085309028625,-0.00223744660615921
1772656010134333400,6.05433349609375,-0.027801513671875,-0.005496796220541,-0.002186410129070282
1772656010154092300,6.07409228515625,-0.028997421264648438,-0.0018371623009443283,0.0013902857899665833
1772656010173851400,6.093851318359375,-0.03139305114746094,-0.001828288659453392,-0.0032851696014404297
1772656010193610200,6.1136103515625,-0.026605606079101562,-0.0018190424889326096,-0.001977674663066864
1772656010213369000,6.133369140625,-0.02421092987060547,-0.004141451790928841,0.0002852976322174072
1772656010233128200,6.153128173828125,-0.031391143798828125,0.0008272789418697357,-0.004624612629413605
1772656010252887000,6.172886962890625,-0.02660369873046875,-0.0004224088042974472,0.007319912314414978
1772656010272646100,6.192646240234375,-0.024209976196289062,-0.0005943663418292999,-0.0010104328393936157
1772656010292405000,6.212405029296875,-0.026604652404785156,-0.004232378676533699,0.008596062660217285
1772656010312163800,6.232163818359375,-0.030195236206054688,-0.0018293578177690506,0.003729410469532013
1772656010331923000,6.2519228515625,-0.023012161254882812,-0.0006266012787818909,0.0037690773606300354
1772656010351681800,6.271681884765625,-0.0254058837890625,-0.004264501854777336,0.0001061856746673584
1772656010371441000,6.29144091796875,-0.021816253662109375,-0.0031156428158283234,0.0012887120246887207
1772656010391199700,6.31119970703125,-0.028997421264648438,-0.003221530467271805,0.0024101510643959045
1772656010410958600,6.33095849609375,-0.026601791381835938,0.0006097350269556046,0.005918197333812714
1772656010430717700,6.3507177734375,-0.025404930114746094,-0.0028520487248897552,0.0058355554938316345
1772656010450476500,6.3704765625,-0.026599884033203125,0.0008020475506782532,0.003363661468029022
1772656010470235600,6.390235595703125,-0.028993606567382812,-0.007497865706682205,0.0032269060611724854
1772656010489994500,6.409994384765625,-0.027797698974609375,-0.0004273671656847,-0.0027055665850639343
1772656010509753600,6.429753662109375,-0.02899456024169922,-0.00042035989463329315,0.000872194766998291
1772656010529512400,6.449512451171875,-0.02899456024169922,-0.0027444344013929367,0.0008585155010223389
1772656010549271300,6.469271240234375,-0.02899456024169922,0.0019859280437231064,0.0020395293831825256
1772656010569030400,6.489030517578125,-0.02420520782470703,-0.003926923498511314,0.007996849715709686
1772656010588789200,6.508789306640625,-0.02779674530029297,-0.0015248358249664307,0.0033082962036132812
1772656010608548400,6.52854833984375,-0.028995513916015625,-0.005397031083703041,0.0058558061718940735
1772656010628307200,6.54830712890625,-0.027797698974609375,-0.00305064395070076,0.005773022770881653
1772656010648066000,6.568066162109375,-0.024207115173339844,-0.006505344063043594,-0.005002371966838837
1772656010667825200,6.5878251953125,-0.028995513916015625,-0.0028438959270715714,0.0046709999442100525
1772656010687584000,6.607583984375,-0.03019237518310547,-0.005162965506315231,0.005785122513771057
1772656010707342800,6.6273427734375,-0.026599884033203125,-0.00036910176277160645,0.0009828433394432068
1772656010727102000,6.64710205078125,-0.02660083770751953,-0.006336526945233345,0.002222493290901184
1772656010746860800,6.66686083984375,-0.030191421508789062,-0.002497708424925804,0.0045953914523124695
1772656010766620000,6.686619873046875,-0.027797698974609375,-0.002604614943265915,-0.00014497339725494385
1772656010786378800,6.706378662109375,-0.02899646759033203,-0.002771204337477684,0.0035453513264656067
1772656010806137600,6.7261376953125,-0.026602745056152344,-0.0005486663430929184,0.00824536383152008
1772656010825896700,6.745896728515625,-0.02420806884765625,0.0018457211554050446,0.0023022517561912537
1772656010845655600,6.765655517578125,-0.033783912658691406,-0.00048405490815639496,0.004674233496189117
1772656010865414400,6.785414306640625,-0.026599884033203125,0.0006577745079994202,0.002087324857711792
1772656010885173500,6.805173583984375,-0.026599884033203125,-0.0004134383052587509,0.0008811354637145996
1772656010904932400,6.824932373046875,-0.030191421508789062,-0.0016009751707315445,-0.002652868628501892
1772656010924691200,6.844691162109375,-0.031388282775878906,-0.0015324000269174576,0.002123408019542694
1772656010944450300,6.8644501953125,-0.026599884033203125,-0.005046863108873367,0.00683102011680603
1772656010964209200,6.884209228515625,-0.030190467834472656,-0.003716234117746353,0.0008369460701942444
1772656010983968300,6.90396826171875,-0.02540302276611328,-0.006031559780240059,0.0008871406316757202
1772656011003727000,6.92372705078125,-0.026597976684570312,0.0036617647856473923,-0.0027058422565460205
1772656011023486000,6.94348583984375,-0.0313873291015625,-0.0022529419511556625,-0.0002593994140625
1772656011043245000,6.9632451171875,-0.03018951416015625,0.002536548301577568,0.0008692443370819092
1772656011063004000,6.98300390625,-0.026597976684570312,-0.0009276531636714935,0.0008601024746894836
1772656011082762800,7.0027626953125,-0.024204254150390625,-0.004561837762594223,0.0031810179352760315
1772656011102521900,7.02252197265625,-0.03258228302001953,-0.003291606903076172,-0.0016701370477676392
1772656011122280700,7.04228076171875,-0.03138542175292969,0.0017962642014026642,0.0007744282484054565
1772656011142039600,7.06203955078125,-0.030188560485839844,-0.0005899704992771149,-0.00042910873889923096
1772656011161798700,7.081798583984375,-0.02061176300048828,-0.003030303865671158,0.002012699842453003
1772656011181557500,7.1015576171875,-0.027794837951660156,-0.003016475588083267,-0.0003876239061355591
1772656011201316400,7.12131640625,-0.027794837951660156,-0.003120817244052887,0.004384219646453857
1772656011221075500,7.141075439453125,-0.03258228302001953,-0.0030476655811071396,-0.0014865770936012268
1772656011240834300,7.160834228515625,-0.03258228302001953,-0.0030358098447322845,-0.0038802921772003174
1772656011260593200,7.18059326171875,-0.02540111541748047,-0.004277177155017853,0.005735434591770172
1772656011280352300,7.200352294921875,-0.03258514404296875,0.0029063615947961807,0.002368919551372528
1772656011300111000,7.220111083984375,-0.028993606567382812,-0.0005593635141849518,-0.00003265589475631714
1772656011319870200,7.2398701171875,-0.0313873291015625,0.004225481301546097,0.0047378093004226685
1772656011339629000,7.259629150390625,-0.030191421508789062,-0.0041975174099206924,0.002390541136264801
1772656011359388000,7.279387939453125,-0.02899456024169922,-0.0017926190048456192,0.004826359450817108
1772656011379146800,7.299146728515625,-0.026597976684570312,0.0007244162261486053,0.0010480135679244995
1772656011398905900,7.31890576171875,-0.03018951416015625,-0.0017194673418998718,0.010534919798374176
1772656011418664700,7.338664794921875,-0.03617382049560547,-0.004217119887471199,0.0020842254161834717
1772656011438423800,7.358423828125,-0.03018951416015625,0.0005168747156858444,0.004579417407512665
1772656011458182700,7.3781826171875,-0.030190467834472656,-0.001925719901919365,-0.0024863407015800476
1772656011477941500,7.39794140625,-0.0313873291015625,-0.0006024222820997238,0.0010951608419418335
1772656011497700400,7.417700439453125,-0.028992652893066406,-0.0031012408435344696,-0.0001087188720703125
1772656011517459500,7.43745947265625,-0.033782005310058594,-0.005535930395126343,0.0023321956396102905
1772656011537218300,7.45721826171875,-0.033782005310058594,-0.004382804036140442,-0.0024582594633102417
1772656011556977200,7.47697705078125,-0.028992652893066406,-0.0029954947531223297,0.008171550929546356
1772656011576736300,7.496736328125,-0.033782005310058594,-0.004413558170199394,0.0010977908968925476
1772656011596495000,7.5164951171875,-0.024206161499023438,-0.0008157752454280853,-0.00004774332046508789
1772656011616254000,7.53625390625,-0.030191421508789062,-0.0030794255435466766,-0.0011316090822219849
1772656011636013000,7.556012939453125,-0.033782005310058594,-0.0031252019107341766,0.0025059133768081665
1772656011655772000,7.57577197265625,-0.03019237518310547,-0.005737317726016045,0.006076313555240631
1772656011675530800,7.59553076171875,-0.031388282775878906,-0.003271099179983139,0.0035484135150909424
1772656011695289900,7.615289794921875,-0.03018951416015625,0.0016970783472061157,0.005862966179847717
1772656011715048700,7.635048583984375,-0.026599884033203125,-0.005526119843125343,-0.0012646913528442383
1772656011734807600,7.6548076171875,-0.02899456024169922,-0.006701396778225899,0.002373307943344116
1772656011754566400,7.67456640625,-0.02660083770751953,0.0015027020126581192,0.000030837953090667725
1772656011774325500,7.694325439453125,-0.03138923645019531,-0.002137191593647003,0.0024710819125175476
1772656011794084400,7.71408447265625,-0.028993606567382812,0.00038140080869197845,0.0035938695073127747
1772656011813843200,7.73384326171875,-0.03617668151855469,-0.0031374115496873856,-0.002452634274959564
1772656011833602300,7.753602294921875,-0.030191421508789062,-0.004259651526808739,0.0059652179479599
1772656011853361200,7.773361083984375,-0.03617572784423828,-0.002872014418244362,0.0023614391684532166
1772656011873120000,7.7931201171875,-0.028993606567382812,-0.0016651283949613571,0.003602251410484314
1772656011892878800,7.81287890625,-0.026597976684570312,0.0007334370166063309,0.005916565656661987
1772656011912638000,7.832637939453125,-0.03378105163574219,-0.0017107147723436356,-0.0012706741690635681
1772656011932396800,7.852396728515625,-0.03258323669433594,0.0007470492273569107,0.0011134669184684753
1772656011952155600,7.87215576171875,-0.03018951416015625,-0.001579001545906067,-0.0000911131501197815
1772656011971914800,7.891914794921875,-0.02540302276611328,-0.0017465800046920776,-0.00003915280103683472
1772656011991673600,7.911673583984375,-0.025402069091796875,-0.005320895463228226,0.0022828057408332825
1772656012011432400,7.931432373046875,-0.02659893035888672,0.0029391199350357056,-0.000059470534324645996
1772656012031191300,7.95119140625,-0.031388282775878906,0.0018045827746391296,0.0023814886808395386
1772656012050950400,7.970950439453125,-0.02300739288330078,-0.004106100648641586,-0.00007894635200500488
1772656012070709200,7.990709228515625,-0.031386375427246094,0.0006870981305837631,-0.00008603930473327637
1772656012090468000,8.010468017578125,-0.03258514404296875,-0.0017562136054039001,0.0012191981077194214
1772656012110227000,8.03022705078125,-0.028993606567382812,-0.00425383634865284,0.000014565885066986084
1772656012129986000,8.049986083984376,-0.024504661560058594,0.001733453944325447,-0.0023812875151634216
1772656012149745000,8.069744873046876,-0.03273487091064453,-0.0007716678082942963,-0.003577679395675659
1772656012169503700,8.089503662109376,-0.03138923645019531,-0.0032711178064346313,0.002453744411468506
1772656012189262600,8.1092626953125,-0.026749610900878906,0.0003847610205411911,0.004711642861366272
1772656012209021700,8.129021728515625,-0.0267486572265625,0.0015247613191604614,0.0010515376925468445
1772656012228780500,8.148780517578125,-0.03153800964355469,0.00033173710107803345,0.0024129152297973633
1772656012248539400,8.168539306640625,-0.02779674530029297,-0.004382070153951645,0.005923792719841003
1772656012268298200,8.18829833984375,-0.030191421508789062,-0.006636966019868851,0.00476759672164917
1772656012288057300,8.208057373046875,-0.031388282775878906,-0.0006442144513130188,0.000031210482120513916
1772656012307816200,8.227816162109375,-0.033782005310058594,-0.010189931839704514,0.004801534116268158
1772656012327575000,8.247574951171876,-0.030193328857421875,0.0002334192395210266,0.004901260137557983
1772656012347334000,8.267333984375,-0.02779865264892578,-0.0009554345160722733,0.00016463547945022583
1772656012367093000,8.287093017578124,-0.02899646759033203,-0.0011252164840698242,0.0037987008690834045
1772656012386851800,8.306851806640625,-0.02779865264892578,-0.0011757072061300278,0.008500859141349792
1772656012406610700,8.326610595703125,-0.026601791381835938,0.001162959262728691,0.0036380067467689514
1772656012426369500,8.34636962890625,-0.02899456024169922,0.0012249201536178589,0.0011154934763908386
1772656012446128600,8.366128662109375,-0.031388282775878906,-0.007132316008210182,-0.0012830868363380432
1772656012465887500,8.385887451171875,-0.026599884033203125,-0.0035273339599370956,-0.005047492682933807
1772656012485646300,8.405646240234375,-0.02420520782470703,-0.002319350838661194,0.005705393850803375
1772656012505405200,8.4254052734375,-0.026000022888183594,-0.0011740345507860184,-0.0014811456203460693
1772656012525164000,8.4451640625,-0.03198528289794922,-0.0010480023920536041,0.0056803300976753235
1772656012544923100,8.464923095703124,-0.03318309783935547,-0.0010990221053361893,-0.0002526193857192993
1772656012564682000,8.484681884765624,-0.028395652770996094,-0.004793327301740646,0.00570804625749588
1772656012584440800,8.50444091796875,-0.031986236572265625,-0.0034670159220695496,-0.0038722604513168335
1772656012604199700,8.52419970703125,-0.03662300109863281,-0.004649575799703598,0.00328962504863739
1772656012623958500,8.54395849609375,-0.03916645050048828,-0.0023043397814035416,-0.002760671079158783
1772656012643717600,8.563717529296875,-0.030638694763183594,-0.0071313995867967606,0.005533933639526367
1772656012663476500,8.5834765625,-0.029590606689453125,-0.00119854137301445,-0.0029102638363838196
1772656012683235300,8.6032353515625,-0.025999069213867188,0.002272866666316986,0.0018021166324615479
1772656012702994200,8.622994140625,-0.03138542175292969,-0.0025066323578357697,0.0005316808819770813
1772656012722753000,8.6427529296875,-0.03138446807861328,-0.0025558099150657654,0.0028473958373069763
1772656012742512000,8.66251220703125,-0.028989791870117188,0.001095963642001152,0.005157724022865295
1772656012762271000,8.68227099609375,-0.03258037567138672,0.0021731052547693253,0.0027444809675216675
1772656012782029800,8.70202978515625,-0.027791976928710938,0.0000779908150434494,0.0028434619307518005
1772656012801788700,8.72178857421875,-0.02898883819580078,-0.005889769643545151,0.004018411040306091
1772656012821547500,8.741547607421875,-0.028990745544433594,0.0011745207011699677,0.001666836440563202
1772656012841306600,8.761306640625,-0.03377723693847656,-0.004854416474699974,0.003979794681072235
1772656012861065500,8.7810654296875,-0.028990745544433594,0.0010735206305980682,0.00527045875787735
1772656012880824300,8.80082421875,-0.028989791870117188,-0.004777582362294197,0.0028572753071784973
1772656012900583200,8.820583251953124,-0.03138256072998047,-0.004704760387539864,0.003913678228855133
1772656012920342000,8.840342041015624,-0.032878875732421875,0.0049231406301259995,0.0025796666741371155
1772656012940100900,8.860100830078125,-0.025547027587890625,-0.0010573286563158035,-0.0020980536937713623
1772656012959859700,8.879859619140625,-0.03153228759765625,0.0014548562467098236,0.001476876437664032
1772656012979618800,8.899618896484375,-0.030336380004882812,-0.0055925920605659485,-0.0007505267858505249
1772656012999377700,8.919377685546875,-0.02539825439453125,-0.003187796100974083,-0.0007613152265548706
1772656013019136500,8.939136474609375,-0.031383514404296875,-0.003176240250468254,0.004004918038845062
1772656013038895400,8.958895263671875,-0.0280914306640625,0.0014940481632947922,0.001476585865020752
1772656013058654200,8.978654296875,-0.031681060791015625,0.002745620906352997,0.00259505957365036
1772656013078413000,8.9984130859375,-0.031681060791015625,0.00178426131606102,-0.0021415352821350098
1772656013098172200,9.018172119140624,-0.03063201904296875,-0.005205022171139717,0.0013153553009033203
1772656013117931000,9.037930908203125,-0.03197765350341797,-0.005012152716517448,-0.002223864197731018
1772656013137689900,9.05768994140625,-0.034371376037597656,-0.0003381781280040741,0.0013514533638954163
1772656013157448700,9.07744873046875,-0.034371376037597656,0.0008011609315872192,-0.0012298598885536194
1772656013177207600,9.09720751953125,-0.0355682373046875,-0.0027217119932174683,-0.003628171980381012
1772656013196966400,9.11696630859375,-0.028385162353515625,0.004570391029119492,0.0012625381350517273
1772656013216725500,9.1367255859375,-0.02958202362060547,0.0009212102741003036,-0.0000061765313148498535
1772656013236484400,9.156484375,-0.02958202362060547,-0.0038556214421987534,-0.000019118189811706543
1772656013256243200,9.1762431640625,-0.01881122589111328,-0.0034174416214227676,-0.003540337085723877
1772656013276002000,9.196001953125,-0.03183746337890625,-0.00647813081741333,0.002529442310333252
1772656013295761000,9.215760986328124,-0.049942970275878906,-0.0031718499958515167,0.004913583397865295
1772656013315519700,9.235519775390625,-0.04634571075439453,0.00685102678835392,0.008279122412204742
1772656013335278600,9.255278564453125,-0.017612457275390625,-0.002079412341117859,-0.0013804063200950623
1772656013355037400,9.275037353515625,-0.02359771728515625,-0.006552126258611679,0.001058042049407959
