time,seconds_elapsed,z,y,x
1772651027683850200,0.188850341796875,10.033703804016113,-1.5314065217971802,0.35413774847984314
1772651027693727700,0.198727783203125,10.053443908691406,-1.5619150400161743,0.42352959513664246
1772651027703605000,0.20860498046875,10.04865837097168,-1.591825246810913,0.50907301902771
1772651027713482500,0.218482421875,9.987043380737305,-1.6271194219589233,0.6035895347595215
1772651027723359700,0.22835986328125,9.76989459991455,-1.6390835046768188,0.6777670383453369
1772651027733237200,0.2382373046875,9.482755661010742,-1.5966109037399292,0.7501499056816101
1772651027743114500,0.248114501953125,9.143573760986328,-1.5092729330062866,0.7836494445800781
1772651027752992000,0.257991943359375,8.746963500976562,-1.4602199792861938,0.8321040868759155
1772651027762869200,0.267869140625,8.250452041625977,-1.5044872760772705,0.9134600162506104
1772651027772746500,0.27774658203125,7.882555961608887,-1.4638092517852783,1.0546365976333618
1772651027782624000,0.2876240234375,7.968697547912598,-1.3202399015426636,1.3417752981185913
1772651027792501200,0.297501220703125,8.34138011932373,-1.3214362859725952,1.5900306701660156
1772651027802378800,0.307378662109375,8.536395072937012,-1.5074782371520996,1.7365909814834595
1772651027812256000,0.317256103515625,8.661419868469238,-1.7479569911956787,1.7437695264816284
1772651027822133500,0.327133544921875,8.688339233398438,-1.9513468742370605,1.6618152856826782
1772651027832010800,0.3370107421875,8.679366111755371,-2.0614166259765625,1.5990036725997925
1772651027841888000,0.346887939453125,8.691329956054688,-2.052443504333496,1.5702898502349854
1772651027851765500,0.356765625,8.82233715057373,-2.008774518966675,1.5643078088760376
1772651027861642800,0.366642822265625,8.97248649597168,-1.9986051321029663,1.5708880424499512
1772651027871520300,0.376520263671875,9.027522087097168,-1.922034740447998,1.5912270545959473
1772651027881397500,0.3863974609375,9.148957252502441,-1.7994025945663452,1.6654045581817627
1772651027891275000,0.39627490234375,9.446864128112793,-1.7216359376907349,1.6857435703277588
1772651027901152300,0.40615234375,9.738788604736328,-1.8113667964935303,1.6564314365386963
1772651027911029800,0.41602978515625,9.915857315063477,-1.9669002294540405,1.578664779663086
1772651027920907000,0.425906982421875,9.988240242004395,-2.162513494491577,1.4925230741500854
1772651027930784300,0.4357841796875,10.043872833251953,-2.3228325843811035,1.4225330352783203
1772651027940661800,0.445661865234375,10.220941543579102,-2.45204496383667,1.3232308626174927
1772651027950539000,0.4555390625,10.49073314666748,-2.520838737487793,1.2610175609588623
1772651027960416500,0.46541650390625,10.887343406677246,-2.4568307399749756,1.3184453248977661
1772651027970293800,0.475293701171875,11.386246681213379,-2.3820550441741943,1.451246976852417
1772651027980171300,0.485171142578125,11.804990768432617,-2.4113669395446777,1.4811571836471558
1772651027990048500,0.495048583984375,12.015559196472168,-2.544766902923584,1.4362918138504028
1772651027999926000,0.504926025390625,12.185449600219727,-2.651247501373291,1.4608181715011597
1772651028009803300,0.51480322265625,11.9730863571167,-2.730808734893799,1.4195420742034912
1772651028019680500,0.524680419921875,11.461620330810547,-2.717050075531006,1.311864972114563
1772651028029558000,0.53455810546875,10.844870567321777,-2.672184705734253,1.2729816436767578
1772651028039435300,0.544435302734375,10.25324535369873,-2.6775684356689453,1.3872389793395996
1772651028049312800,0.554312744140625,9.842277526855469,-2.5980072021484375,1.7096717357635498
1772651028059190000,0.56418994140625,9.598808288574219,-2.4113669395446777,2.1230318546295166
1772651028069067500,0.574067626953125,9.512067794799805,-2.1619153022766113,2.5286152362823486
1772651028078944800,0.58394482421875,9.712467193603516,-1.9453648328781128,2.909074068069458
1772651028088822000,0.593822021484375,9.923035621643066,-1.8131613731384277,3.226123094558716
1772651028098699500,0.603699462890625,9.992427825927734,-1.7748762369155884,3.4642090797424316
1772651028108576800,0.61357666015625,9.868598937988281,-1.8167506456375122,3.593421459197998
1772651028118454300,0.623454345703125,9.562915802001953,-1.8747764825820923,3.6119658946990967
1772651028128331500,0.63333154296875,9.223732948303223,-1.9154545068740845,3.5300116539001465
1772651028138209000,0.643208984375,8.798408508300781,-1.9896320104599,3.404388427734375
1772651028148086300,0.653086181640625,8.254639625549316,-2.069791555404663,3.211168050765991
1772651028157963800,0.6629638671875,7.6666035652160645,-2.1547367572784424,2.988037347793579
1772651028167841000,0.672841064453125,7.148557662963867,-2.2719850540161133,2.7433712482452393
1772651028177704700,0.68270458984375,6.7351975440979,-2.341377019882202,2.5525436401367188
1772651028187595800,0.692595703125,6.476772785186768,-2.2983062267303467,2.4221346378326416
1772651028197473000,0.70247314453125,6.495316982269287,-2.2085752487182617,2.3473589420318604
1772651028207350500,0.7123505859375,6.824928283691406,-2.1984057426452637,2.2576282024383545
1772651028217227800,0.722227783203125,7.345367431640625,-2.237887382507324,2.122433662414551
1772651028227105300,0.732105224609375,7.963912010192871,-2.283350944519043,1.9016958475112915
1772651028236982500,0.741982421875,8.499305725097656,-2.389233350753784,1.6265212297439575
1772651028246859800,0.75185986328125,8.83370304107666,-2.5292134284973145,1.317248821258545
1772651028256737300,0.7617373046875,8.860024452209473,-2.688336133956909,1.0612168312072754
1772651028266614500,0.771614501953125,8.669196128845215,-2.8414769172668457,0.8967102766036987
1772651028276492000,0.781491943359375,8.36590576171875,-2.919243574142456,0.8721838593482971
1772651028286369300,0.791369384765625,7.984251022338867,-2.936591625213623,0.9475577473640442
1772651028296246800,0.801246826171875,7.726424217224121,-2.8342983722686768,1.2693923711776733
1772651028306124000,0.8111240234375,7.551149845123291,-2.520838737487793,1.441077470779419
1772651028316001300,0.821001220703125,7.6767730712890625,-2.3515465259552,1.6217355728149414
1772651028325878800,0.830878662109375,8.195417404174805,-2.1607189178466797,1.9519450664520264
1772651028335756000,0.840756103515625,8.712865829467773,-1.9728822708129883,2.1816561222076416
1772651028345633500,0.850633544921875,9.173483848571777,-1.805384635925293,2.276172637939453
1772651028355510800,0.8605107421875,9.641280174255371,-1.7030915021896362,2.306680917739868
1772651028365388300,0.87038818359375,10.020543098449707,-1.6707884073257446,2.2881367206573486
1772651028375265500,0.880265625,10.288538932800293,-1.6534404754638672,2.270190477371216
1772651028385143000,0.89014306640625,10.216754913330078,-1.6606189012527466,2.266003131866455
1772651028395020300,0.900020263671875,9.760323524475098,-1.6534404754638672,2.2295124530792236
1772651028404897500,0.9098974609375,9.151350021362305,-1.6037893295288086,2.1619153022766113
1772651028414775000,0.919775146484375,8.49152946472168,-1.5619150400161743,2.090130567550659
1772651028424652300,0.92965234375,7.960920810699463,-1.5068800449371338,2.0368902683258057
1772651028434529800,0.93952978515625,7.648059368133545,-1.4656038284301758,1.9848463535308838
1772651028444407000,0.949406982421875,7.633702278137207,-1.537388563156128,1.9334007501602173
1772651028454284500,0.959284423828125,7.894520282745361,-1.7084753513336182,1.953141450881958
1772651028464161800,0.969161865234375,8.309076309204102,-1.9058831930160522,2.103889226913452
1772651028474039000,0.9790390625,8.813364028930664,-1.9250258207321167,2.414358139038086
1772651028483916500,0.98891650390625,9.41755199432373,-1.7383856773376465,2.7553353309631348
1772651028493793800,0.998793701171875,10.098309516906738,-1.5343974828720093,3.10109806060791
1772651028503657500,1.008657470703125,10.817353248596191,-1.3992030620574951,3.4570305347442627
1772651028513548500,1.018548583984375,11.397612571716309,-1.2831511497497559,3.6873397827148438
1772651028523426000,1.028426025390625,11.79601764678955,-1.1545369625091553,3.765106439590454
1772651028533289500,1.03828955078125,12.003594398498535,-1.1611171960830688,3.745365619659424
1772651028543180800,1.048180908203125,12.071191787719727,-1.3142578601837158,3.6610186100006104
1772651028553058000,1.05805810546875,12.062817573547363,-1.6325032711029053,3.531208038330078
1772651028562935300,1.067935302734375,11.906685829162598,-2.104487419128418,3.3744781017303467
1772651028572812800,1.077812744140625,11.600403785705566,-2.6452653408050537,3.3092737197875977
1772651028582690000,1.08768994140625,11.636296272277832,-3.0795626640319824,3.542573928833008
1772651028592567600,1.097567626953125,11.912667274475098,-3.229114055633545,4.0079779624938965
1772651028602444800,1.10744482421875,12.101700782775879,-3.1316065788269043,4.439284324645996
1772651028612322300,1.117322265625,12.046067237854004,-3.005385160446167,4.409972190856934
1772651028622199600,1.127199462890625,11.861222267150879,-3.040081262588501,3.8321053981781006
1772651028632076800,1.137076904296875,11.643474578857422,-3.3433713912963867,2.868396043777466
1772651028641954300,1.146954345703125,11.104491233825684,-3.909274101257324,1.7611174583435059
1772651028651818000,1.15681787109375,10.214361190795898,-4.636692047119141,0.600000262260437
1772651028661709000,1.166708984375,9.381659507751465,-5.2977094650268555,-0.3415754437446594
1772651028671586300,1.17658642578125,8.991629600524902,-5.691926956176758,-0.747757077217102
1772651028681450000,1.186449951171875,8.922835350036621,-5.798407554626465,-0.6251249313354492
1772651028691341000,1.196341064453125,9.276374816894531,-5.639883041381836,-0.17288143932819366
1772651028701218300,1.20621826171875,10.001998901367188,-5.277370452880859,0.3206382393836975
1772651028711095800,1.216095703125,10.597213745117188,-4.797011375427246,0.6526423692703247
1772651028720973000,1.22597314453125,10.954341888427734,-4.41057014465332,0.7926225066184998
1772651028730850600,1.2358505859375,11.01296615600586,-4.171886444091797,0.7471588850021362
1772651028740727800,1.245727783203125,10.479965209960938,-4.152743816375732,0.4911268353462219
1772651028750605000,1.25560498046875,9.495916366577148,-4.339384078979492,0.06819544732570648
1772651028760482600,1.265482666015625,8.433503150939941,-4.559523582458496,-0.3236292600631714
1772651028770346000,1.275345947265625,7.573283672332764,-4.602594375610352,-0.5635097622871399
1772651028780237300,1.2852373046875,7.0301127433776855,-4.457230567932129,-0.6149554252624512
1772651028790114600,1.295114501953125,6.771687984466553,-4.299902439117432,-0.48454657196998596
1772651028799978200,1.304978271484375,6.740581512451172,-4.121038913726807,-0.24825534224510193
1772651028809869300,1.314869384765625,6.9720869064331055,-3.9122650623321533,0.04426721855998039
1772651028819746600,1.32474658203125,7.568498134613037,-3.6807594299316406,0.33738797903060913
1772651028829624000,1.3346240234375,8.353941917419434,-3.527618885040283,0.600000262260437
1772651028839501300,1.344501220703125,9.06401252746582,-3.4582269191741943,0.8679963946342468
1772651028849378800,1.35437890625,9.559925079345703,-3.334996461868286,0.9960124492645264
1772651028859242200,1.3642421875,9.89850902557373,-3.139981508255005,1.057029366493225
1772651028869133300,1.37413330078125,10.13180923461914,-2.8791637420654297,1.1252248287200928
1772651028879010800,1.3840107421875,10.149755477905273,-2.6398816108703613,1.158724308013916
1772651028888888000,1.39388818359375,9.857831001281738,-2.4646072387695312,1.1934202909469604
1772651028898765600,1.403765625,9.388837814331055,-2.365903377532959,1.1850453615188599
1772651028908642800,1.413642822265625,8.891729354858398,-2.2821545600891113,1.1455638408660889
1772651028918520300,1.423520263671875,8.339585304260254,-2.218146562576294,1.0582258701324463
1772651028928397600,1.4333974609375,7.801798343658447,-2.221137523651123,0.9320043921470642
1772651028938275000,1.443275146484375,7.3746795654296875,-2.2169501781463623,0.8045865893363953
1772651028948152300,1.45315234375,7.110870838165283,-2.163111686706543,0.7860422134399414
1772651028958029600,1.463029541015625,7.0031938552856445,-2.08713960647583,0.8333004713058472
1772651028967907000,1.472906982421875,7.0061845779418945,-2.0889341831207275,0.8859425783157349
1772651028977784300,1.482784423828125,7.0683979988098145,-2.11405873298645,0.9475577473640442
1772651028987661800,1.492661865234375,7.197610378265381,-2.132004976272583,1.0211371183395386
1772651028997539000,1.5025390625,7.386643409729004,-2.1260228157043457,1.1156535148620605
1772651029007416300,1.512416259765625,7.558328628540039,-2.1361923217773438,1.179661512374878
1772651029017293800,1.5222939453125,7.621140003204346,-2.160120725631714,1.2131611108779907
1772651029027171000,1.532171142578125,7.692326545715332,-2.1786649227142334,1.2340983152389526
1772651029037048600,1.542048583984375,7.737790107727051,-2.221137523651123,1.2299108505249023
1772651029046925800,1.55192578125,7.678567886352539,-2.3198416233062744,1.1928220987319946
1772651029056803000,1.561802978515625,7.555337429046631,-2.4993033409118652,1.1593226194381714
1772651029066680600,1.5716806640625,7.448258876800537,-2.685943365097046,1.1425727605819702
1772651029076557800,1.581557861328125,7.344171047210693,-2.83669114112854,1.1665010452270508
1772651029086435300,1.591435302734375,7.291528701782227,-2.926422119140625,1.2484551668167114
1772651029096312600,1.6013125,7.323832035064697,-2.939582586288452,1.4033905267715454
1772651029106189800,1.61118994140625,7.405188083648682,-2.93001127243042,1.5936198234558105
1772651029116067300,1.6210673828125,7.550551891326904,-2.899502754211426,1.7856439352035522
1772651029125944600,1.630944580078125,7.829914093017578,-2.8247270584106445,2.0099709033966064
1772651029135822000,1.640822021484375,8.0955171585083,-2.8175487518310547,2.1469600200653076
1772651029145699300,1.65069921875,8.25105094909668,-2.9216363430023193,2.159522533416748
1772651029155576800,1.660576904296875,8.397012710571289,-3.06999135017395,2.048854351043701
1772651029165454000,1.6704541015625,8.6033935546875,-3.2213375568389893,1.8801604509353638
1772651029175331300,1.680331298828125,8.894720077514648,-3.345165967941284,1.721037745475769
1772651029185208800,1.690208740234375,9.172286987304688,-3.4337005615234375,1.591825246810913
1772651029195086000,1.700086181640625,9.437292098999023,-3.4480574131011963,1.4985052347183228
1772651029204963600,1.709963623046875,9.856635093688965,-3.3128628730773926,1.4787644147872925
1772651029214827000,1.719826904296875,10.465009689331055,-3.1202406883239746,1.490728497505188
1772651029224718300,1.72971826171875,11.168499946594238,-2.837289333343506,1.6235301494598389
1772651029234595600,1.739595703125,11.880364418029785,-2.712862730026245,1.867598056793213
1772651029244459300,1.749459228515625,12.497713088989258,-2.956930637359619,1.7964116334915161
1772651029254350300,1.759350341796875,12.972089767456055,-3.300898790359497,1.7886348962783813
1772651029264227600,1.7692275390625,12.9290189743042,-3.8315072059631348,1.963310956954956
1772651029274105000,1.77910498046875,12.330215454101562,-4.439284324645996,2.2600209712982178
1772651029283982300,1.788982421875,11.672786712646484,-4.7605204582214355,2.6183462142944336
1772651029293859600,1.798859619140625,11.327024459838867,-4.728217601776123,3.11246395111084
1772651029303737000,1.808737060546875,11.706286430358887,-4.438685894012451,3.582653760910034
1772651029313614300,1.8186142578125,12.717852592468262,-4.078566074371338,3.7058839797973633
1772651029323491800,1.828491943359375,13.819746971130371,-3.809373617172241,3.4229328632354736
1772651029333355300,1.838355224609375,14.583057403564453,-3.862015724182129,2.6386852264404297
1772651029343246300,1.848246337890625,14.983855247497559,-4.155734539031982,1.674975872039795
1772651029353123800,1.858123779296875,14.69791316986084,-4.618147850036621,0.8159525394439697
1772651029362987500,1.867987548828125,13.37288761138916,-5.127220630645752,-0.06041877344250679
1772651029372878600,1.877878662109375,11.429317474365234,-5.490331649780273,-0.6329016089439392
1772651029382755800,1.887755859375,9.54915714263916,-5.4514479637146,-0.8003991842269897
1772651029392619500,1.89761962890625,7.981259822845459,-5.149952411651611,-0.5617151260375977
1772651029402510600,1.907510498046875,6.879364967346191,-4.672584533691406,0.11425728350877762
1772651029412387800,1.917387939453125,6.154938220977783,-4.144967079162598,0.9834501147270203
1772651029422251500,1.92725146484375,5.642873764038086,-3.606581926345825,1.8735800981521606
1772651029432142600,1.937142578125,5.3246283531188965,-3.104687452316284,2.6015963554382324
1772651029442020000,1.94702001953125,5.185844898223877,-2.8695926666259766,3.0759735107421875
1772651029451883500,1.956883544921875,5.217549800872803,-2.7876384258270264,3.4133615493774414
1772651029461774600,1.966774658203125,5.36351203918457,-2.802593469619751,3.572484254837036
1772651029471652000,1.976652099609375,5.525625705718994,-2.933600664138794,3.5090744495391846
1772651029481529300,1.986529296875,5.731408596038818,-3.077768087387085,3.31884503364563
1772651029491406800,1.99640673828125,5.962913990020752,-3.166900873184204,3.1214370727539062
1772651029501284000,2.0062841796875,6.223731517791748,-3.2781670093536377,2.871387243270874
1772651029511161300,2.016161376953125,6.571887493133545,-3.3547372817993164,2.6608188152313232
1772651029521038800,2.026038818359375,6.997809886932373,-3.436093330383301,2.4765713214874268
1772651029530916000,2.035916015625,7.458428382873535,-3.5461630821228027,2.3096721172332764
1772651029540779800,2.04577978515625,8.055437088012695,-3.5443685054779053,2.204986095428467
1772651029550670800,2.0556708984375,8.446663856506348,-3.452843189239502,2.1930220127105713
1772651029560548400,2.06554833984375,8.57767105102539,-3.3032915592193604,2.262413740158081
1772651029570425600,2.075425537109375,8.503493309020996,-3.181257724761963,2.321038007736206
1772651029580302800,2.085302734375,8.237890243530273,-3.153740167617798,2.321636199951172
1772651029590180400,2.095180419921875,7.889734268188477,-3.184248685836792,2.2779672145843506
1772651029600057600,2.1050576171875,7.488338470458984,-3.232105255126953,2.194218397140503
1772651029609935000,2.11493505859375,7.165307521820068,-3.2656047344207764,2.0578274726867676
1772651029619812400,2.124812255859375,7.007979393005371,-3.2452657222747803,1.965105652809143
1772651029629689600,2.134689697265625,6.966702938079834,-3.2129626274108887,1.8693926334381104
1772651029639567000,2.144567138671875,7.091129779815674,-3.2207393646240234,1.7479569911956787
1772651029649444400,2.1544443359375,7.4464640617370605,-3.184846878051758,1.6576279401779175
1772651029659321600,2.164321533203125,7.733004570007324,-3.1992039680480957,1.4829518795013428
1772651029669199000,2.17419921875,8.02373218536377,-3.1202406883239746,1.399801254272461
1772651029679076400,2.184076416015625,8.446065902709961,-2.944368362426758,1.444068431854248
1772651029688953900,2.193953857421875,8.915657043457031,-2.772084951400757,1.5433706045150757
1772651029698831000,2.2038310546875,9.297910690307617,-2.6213371753692627,1.6857435703277588
1772651029708708600,2.21370849609375,9.535996437072754,-2.438286304473877,1.8400806188583374
1772651029718585900,2.2235859375,9.66640567779541,-2.190030813217163,1.994417667388916
1772651029728463000,2.233463134765625,9.725627899169922,-1.9357935190200806,2.1535403728485107
1772651029738340600,2.243340576171875,9.710672378540039,-1.7030915021896362,2.3156540393829346
1772651029748217900,2.2532177734375,9.643074989318848,-1.511067509651184,2.4472594261169434
1772651029758095400,2.263095458984375,9.585647583007812,-1.353141188621521,2.53399920463562
1772651029767972600,2.27297265625,9.568299293518066,-1.207179069519043,2.5591237545013428
1772651029777849900,2.282849853515625,9.522237777709961,-1.1653046607971191,2.530410051345825
1772651029787727400,2.292727294921875,9.479166984558105,-1.2233306169509888,2.4119651317596436
1772651029797604600,2.3026044921875,9.585049629211426,-1.3154542446136475,2.2480568885803223
1772651029807482000,2.312482177734375,9.704689979553223,-1.5032907724380493,2.011167526245117
1772651029817359400,2.322359375,9.726225852966309,-1.693520188331604,1.7581263780593872
1772651029827236600,2.332236572265625,9.762118339538574,-1.7928223609924316,1.5990036725997925
1772651029837114000,2.342114013671875,9.848259925842285,-1.7665013074874878,1.5846468210220337
1772651029846991400,2.351991455078125,9.920044898986816,-1.7629120349884033,1.6767704486846924
1772651029856868900,2.361868896484375,9.951150894165039,-1.8885352611541748,1.740180253982544
1772651029866746000,2.37174609375,9.995418548583984,-2.155334949493408,1.7258232831954956
1772651029876623400,2.381623291015625,10.16171932220459,-2.4735803604125977,1.6450655460357666
1772651029886500900,2.3915009765625,10.456036567687988,-2.6973092555999756,1.5391831398010254
1772651029896378000,2.401378173828125,10.836495399475098,-2.7559335231781006,1.5050854682922363
1772651029906255600,2.411255615234375,11.206785202026367,-2.751147747039795,1.5990036725997925
1772651029916132900,2.4211328125,11.386246681213379,-2.750549554824829,1.8317056894302368
1772651029926010000,2.431010009765625,11.193624496459961,-2.87198543548584,2.228914260864258
1772651029935887600,2.4408876953125,10.694122314453125,-3.1561331748962402,2.648256540298462
1772651029945764900,2.450764892578125,10.3016996383667,-3.511467218399048,3.0370900630950928
1772651029955642400,2.460642333984375,10.363314628601074,-3.7196428775787354,3.480360507965088
1772651029965519600,2.47051953125,10.773085594177246,-3.8392839431762695,3.741776466369629
1772651029975396900,2.48039697265625,11.145768165588379,-4.044468402862549,3.606581926345825
1772651029985274400,2.4902744140625,11.475976943969727,-4.430909156799316,2.999403238296509
1772651029995151600,2.500151611328125,11.812767028808594,-4.776073932647705,2.1505494117736816
1772651030005029000,2.510029052734375,12.051451683044434,-4.999803066253662,1.3232308626174927
1772651030014892500,2.519892578125,12.020344734191895,-5.2630133628845215,0.48454657196998596
1772651030024784000,2.529783935546875,11.618948936462402,-5.663811206817627,-0.381655216217041
1772651030034661000,2.5396611328125,11.138589859008789,-5.792425632476807,-0.893121063709259
1772651030044524800,2.54952490234375,10.740782737731934,-5.505286693572998,-0.8997012972831726
1772651030054416000,2.559415771484375,10.321440696716309,-4.97348165512085,-0.529412031173706
1772651030064293000,2.569293212890625,9.963713645935059,-4.460221290588379,-0.0849452018737793
1772651030074170400,2.57917041015625,9.518050193786621,-3.892524242401123,0.3367897868156433
1772651030084048000,2.5890478515625,8.919844627380371,-3.5090744495391846,0.5569294691085815
1772651030093925000,2.598925048828125,8.274380683898926,-3.3535408973693848,0.5916253924369812
1772651030103788800,2.608788818359375,7.529016494750977,-3.3236305713653564,0.5246263742446899
1772651030113680000,2.618679931640625,6.738188743591309,-3.3128628730773926,0.4223332107067108
1772651030123557000,2.62855712890625,6.052644729614258,-3.2781670093536377,0.35832518339157104
1772651030133420800,2.6384208984375,5.542973518371582,-3.218346357345581,0.34277185797691345
1772651030143312000,2.648311767578125,5.26899528503418,-3.219542980194092,0.3367897868156433
1772651030153189400,2.658189453125,5.31685209274292,-3.3164522647857666,0.35413774847984314
1772651030163066600,2.668066650390625,5.678168296813965,-3.4893336296081543,0.35892340540885925
1772651030172944100,2.677944091796875,6.288337707519531,-3.641875982284546,0.389431893825531
1772651030182821400,2.6878212890625,7.031309127807617,-3.7363924980163574,0.47557350993156433
1772651030192685000,2.69768505859375,7.915457248687744,-3.7818562984466553,0.5659025311470032
1772651030202576100,2.707576171875,8.797212600708008,-3.85483717918396,0.5994020700454712
1772651030212453400,2.717453369140625,9.523433685302734,-3.8566319942474365,0.5946164131164551
1772651030222317000,2.727317138671875,10.03848934173584,-3.762713670730591,0.5407779216766357
1772651030232208100,2.7372080078125,10.325029373168945,-3.6233317852020264,0.5144568681716919
1772651030242085400,2.74708544921875,10.39083194732666,-3.511467218399048,0.46839502453804016
1772651030251963000,2.756962890625,10.086943626403809,-3.4438700675964355,0.42352959513664246
1772651030261840100,2.766840087890625,9.564111709594727,-3.424727439880371,0.37507495284080505
1772651030271717400,2.77671728515625,8.95693302154541,-3.384049415588379,0.381655216217041
1772651030281595000,2.786594970703125,8.38863754272461,-3.2823543548583984,0.4899304509162903
1772651030291472100,2.79647216796875,7.941180229187012,-3.0652058124542236,0.6969096064567566
1772651030301349600,2.806349609375,7.656434059143066,-2.8187451362609863,0.9194421172142029
1772651030311227000,2.816226806640625,7.506284713745117,-2.700300455093384,1.109073281288147
1772651030321104100,2.826104248046875,7.434499740600586,-2.6805596351623535,1.2382856607437134
1772651030330981600,2.835981689453125,7.4015984535217285,-2.730210542678833,1.2819547653198242
1772651030340859000,2.84585888671875,7.41834831237793,-2.806781053543091,1.246660590171814
1772651030350736100,2.855736083984375,7.490133285522461,-2.9144580364227295,1.1880364418029785
1772651030360613600,2.865613525390625,7.600203037261963,-2.974278450012207,1.1473584175109863
1772651030370491000,2.875490966796875,7.731808185577393,-2.956930637359619,1.170688509941101
1772651030380368400,2.885368408203125,7.81974458694458,-2.8839495182037354,1.277169108390808
1772651030390245600,2.89524560546875,7.858029365539551,-2.8354947566986084,1.3668999671936035
1772651030400123100,2.905123046875,7.891529083251953,-2.7936203479766846,1.4093725681304932
1772651030410000400,2.91500048828125,7.943572998046875,-2.7768707275390625,1.394417405128479
1772651030419877600,2.924877685546875,8.044071197509766,-2.7696921825408936,1.3441680669784546
1772651030429755100,2.934755126953125,8.26839828491211,-2.7463622093200684,1.2430713176727295
1772651030439632400,2.94463232421875,8.657232284545898,-2.772084951400757,1.1324033737182617
1772651030449510000,2.954510009765625,8.994620323181152,-2.764308452606201,1.0660024881362915
1772651030459387100,2.96438720703125,9.275776863098145,-2.6608188152313232,1.064207911491394
1772651030469264400,2.974264404296875,9.461220741271973,-2.4424736499786377,1.1210373640060425
1772651030479142000,2.984141845703125,9.52941608428955,-2.239083766937256,1.1330015659332275
1772651030489019100,2.99401904296875,9.512067794799805,-2.08713960647583,1.1096714735031128
1772651030498896400,3.003896484375,9.45882797241211,-2.001596212387085,1.0995019674301147
1772651030508774000,3.01377392578125,9.485149383544922,-1.9722840785980225,1.1497513055801392
1772651030518651100,3.023651123046875,9.628718376159668,-1.9256240129470825,1.2580264806747437
1772651030528528600,3.033528564453125,9.843474388122559,-1.8610178232192993,1.4111671447753906
1772651030538406000,3.043406005859375,10.104291915893555,-1.7850457429885864,1.5882359743118286
1772651030548283400,3.053283447265625,10.40040397644043,-1.7509479522705078,1.7874385118484497
1772651030558160600,3.06316064453125,10.682756423950195,-1.7718851566314697,1.9579271078109741
1772651030568038000,3.073037841796875,10.917253494262695,-1.8771693706512451,2.0650060176849365
1772651030577915400,3.082915283203125,11.070992469787598,-2.0297117233276367,2.0446670055389404
1772651030587792600,3.092792724609375,11.260025024414062,-2.179263114929199,1.9956140518188477
1772651030597670000,3.102669921875,11.405987739562988,-2.3515465259552,1.8897316455841064
1772651030607547400,3.11254736328125,11.48076343536377,-2.4993033409118652,1.8741782903671265
1772651030617424600,3.122424560546875,11.55553913116455,-2.637488842010498,1.8658034801483154
1772651030627302100,3.13230224609375,11.424531936645508,-2.77866530418396,1.848455548286438
1772651030637179400,3.142179443359375,10.924431800842285,-3.0412776470184326,1.8388842344284058
1772651030647056600,3.152056640625,10.200004577636719,-3.445066452026367,1.7910277843475342
1772651030656934100,3.16193408203125,9.561718940734863,-3.96789813041687,1.705484390258789
1772651030666811400,3.171811279296875,9.369096755981445,-4.196412563323975,1.8610178232192993
1772651030676689000,3.18168896484375,9.404989242553711,-4.249652862548828,1.7874385118484497
1772651030686566100,3.191566162109375,9.818349838256836,-4.425525665283203,1.6468602418899536
1772651030696443400,3.201443359375,10.452447891235352,-4.618147850036621,1.4727823734283447
1772651030706321000,3.21132080078125,11.044671058654785,-4.807778835296631,1.1252248287200928
1772651030716198100,3.2211982421875,11.532208442687988,-4.94775915145874,0.7549355626106262
1772651030726075400,3.231075439453125,11.852249145507812,-5.111069202423096,0.4863412082195282
1772651030735953000,3.240952880859375,11.804990768432617,-5.251647472381592,0.28534409403800964
1772651030745830100,3.250830078125,11.33659553527832,-5.321039199829102,0.14476576447486877
1772651030755707600,3.260707763671875,10.688738822937012,-5.264808177947998,0.04187439754605293
1772651030765585000,3.2705849609375,10.02173900604248,-5.175076961517334,-0.01136590726673603
1772651030775462100,3.280462158203125,9.403194427490234,-5.100899696350098,0.01196411345154047
1772651030785325800,3.290325927734375,8.817551612854004,-5.002195835113525,0.10827522724866867
1772651030795217000,3.300216796875,8.270193099975586,-4.7796630859375,0.36729827523231506
1772651030805094400,3.310094482421875,7.698906898498535,-4.516452789306641,0.7004988193511963
1772651030814957800,3.319957763671875,7.17069149017334,-4.2987060546875,0.9672985672950745
1772651030824849000,3.329848876953125,6.588038921356201,-4.222135543823242,1.2424731254577637
1772651030834726400,3.339726318359375,6.1435723304748535,-4.126422882080078,1.4602199792861938
1772651030844589800,3.34958984375,5.882754325866699,-3.9696927070617676,1.7383856773376465
1772651030854481200,3.359481201171875,5.9060845375061035,-3.658625841140747,2.0853450298309326
1772651030864358400,3.3693583984375,6.237490653991699,-3.3104701042175293,2.4287149906158447
1772651030874235600,3.379235595703125,6.806982040405273,-2.994617462158203,2.5872395038604736
1772651030884113200,3.389113037109375,7.358527660369873,-2.789433002471924,2.585444927215576
1772651030893990400,3.398990478515625,7.88076114654541,-2.7487549781799316,2.423929452896118
1772651030903854000,3.40885400390625,8.597412109375,-2.7768707275390625,2.2091734409332275
1772651030913745200,3.4187451171875,9.213563919067383,-2.874378204345703,2.012363910675049
1772651030923622400,3.428622314453125,9.567103385925293,-2.981456995010376,1.8526428937911987
1772651030933500000,3.4385,9.638887405395508,-3.0586254596710205,1.7198412418365479
1772651030943377200,3.448377197265625,9.452247619628906,-3.07417893409729,1.6468602418899536
1772651030953254700,3.458254638671875,9.022137641906738,-2.9856443405151367,1.6474584341049194
1772651030963132000,3.4681318359375,8.472386360168457,-2.8342983722686768,1.7102699279785156
1772651030973009200,3.478009033203125,7.9728851318359375,-2.7284159660339355,1.7395820617675781
1772651030982886700,3.48788671875,7.571488857269287,-2.6913273334503174,1.7688941955566406
1772651030992764000,3.497763916015625,7.359126091003418,-2.713460922241211,1.815554141998291
1772651031002641200,3.50764111328125,7.411767959594727,-2.720041036605835,1.867598056793213
1772651031012518700,3.5175185546875,7.638488292694092,-2.7529425621032715,1.8197416067123413
1772651031022396000,3.52739599609375,7.9728851318359375,-2.8390841484069824,1.7001005411148071
1772651031032273200,3.537273193359375,8.273782730102539,-2.912663459777832,1.5780665874481201
1772651031042150700,3.547150634765625,8.527421951293945,-2.936591625213623,1.4793626070022583
1772651031052028000,3.55702783203125,8.69491958618164,-3.0113673210144043,1.3465609550476074
1772651031061905400,3.566905517578125,8.764310836791992,-3.1334011554718018,1.2616157531738281
1772651031071782700,3.57678271484375,8.70209789276123,-3.2004003524780273,1.205384373664856
1772651031081660000,3.586659912109375,8.585447311401367,-3.2135608196258545,1.1868400573730469
1772651031091537400,3.596537353515625,8.446663856506348,-3.184846878051758,1.2083754539489746
1772651031101414700,3.60641455078125,8.291728973388672,-3.2201411724090576,1.311864972114563
1772651031111292200,3.616292236328125,8.21276569366455,-3.228515863418579,1.445863127708435
1772651031121169400,3.62616943359375,8.274978637695312,-3.187239646911621,1.5619150400161743
1772651031131046700,3.636046630859375,8.398807525634766,-3.07417893409729,1.5960127115249634
1772651031140924200,3.645924072265625,8.580063819885254,-2.9694929122924805,1.5200406312942505
1772651031150801400,3.655801513671875,8.803792953491211,-2.8313074111938477,1.3800604343414307
1772651031160679000,3.665678955078125,9.017950057983398,-2.664407968521118,1.2891331911087036
1772651031170556200,3.67555615234375,9.28893756866455,-2.4538395404815674,1.26699960231781
1772651031180433400,3.685433349609375,9.515059471130371,-2.210968017578125,1.3208380937576294
1772651031190311000,3.695310791015625,9.574281692504883,-2.0099709033966064,1.4333007335662842
1772651031200188200,3.705188232421875,9.392427444458008,-1.9669002294540405,1.490728497505188
1772651031210065400,3.7150654296875,9.061020851135254,-2.0542383193969727,1.4949159622192383
1772651031219943000,3.72494287109375,8.734400749206543,-2.1948165893554688,1.6002001762390137
1772651031229820200,3.734820068359375,8.601598739624023,-2.2307088375091553,1.9250258207321167
1772651031239697700,3.74469775390625,8.752346992492676,-2.1481566429138184,2.5124638080596924
1772651031249575000,3.754574951171875,9.218947410583496,-2.050050735473633,3.152543783187866
1772651031259452200,3.7644521484375,9.591629981994629,-2.3647069931030273,3.528815269470215
1772651031269329700,3.77432958984375,9.488738059997559,-3.1411778926849365,3.1794631481170654
1772651031279207000,3.78420703125,9.192625999450684,-4.043870449066162,2.4681966304779053
1772651031289070600,3.794070556640625,9.05862808227539,-4.753940582275391,1.7724833488464355
1772651031298961700,3.803961669921875,9.209376335144043,-5.14875602722168,1.089930772781372
1772651031308839000,3.8138388671875,9.407382011413574,-5.407779216766357,0.35054850578308105
1772651031318702600,3.82370263671875,9.784252166748047,-5.566901683807373,-0.46839502453804016
1772651031328593700,3.83359375,10.50927734375,-5.492724418640137,-0.9822536706924438
1772651031338471000,3.843470947265625,11.432308197021484,-5.243870735168457,-1.0546365976333618
1772651031348334600,3.85333447265625,12.07358455657959,-4.968098163604736,-0.8859425783157349
1772651031358225700,3.8632255859375,12.308679580688477,-4.500301361083984,-0.44386860728263855
1772651031368103200,3.873103271484375,11.94197940826416,-3.7609190940856934,0.2315055876970291
1772651031377980400,3.88298046875,10.85563850402832,-3.195016384124756,0.6753742098808289
1772651031387857700,3.892857666015625,9.44327449798584,-2.9563324451446533,0.7950153350830078
1772651031397735200,3.902735107421875,8.0081787109375,-2.9665019512176514,0.747757077217102
1772651031407598600,3.9125986328125,6.7447686195373535,-3.094517946243286,0.592223584651947
1772651031417489700,3.92248974609375,5.863611698150635,-3.2757742404937744,0.4061816334724426
1772651031427367200,3.9323671875,5.505885124206543,-3.445066452026367,0.3284149169921875
1772651031437230800,3.94223095703125,5.566303730010986,-3.6089746952056885,0.35114672780036926
1772651031447122000,3.952121826171875,6.0161542892456055,-3.6879379749298096,0.43130627274513245
1772651031456999200,3.961999267578125,6.80458927154541,-3.7495529651641846,0.42412781715393066
1772651031466876400,3.97187646484375,7.791030406951904,-3.789034605026245,0.3732803463935852
1772651031476754000,3.98175390625,8.974879264831543,-3.6335012912750244,0.45284169912338257
1772651031486631200,3.991631103515625,10.096514701843262,-3.4432718753814697,0.4546363055706024
1772651031496494800,4.001494873046875,11.070393562316895,-3.249453067779541,0.4007977843284607
1772651031506386000,4.011385986328125,11.712268829345703,-3.1334011554718018,0.3284149169921875
1772651031516263200,4.02126318359375,12.046067237854004,-3.032304525375366,0.28594231605529785
1772651031526126800,4.031126953125,12.04786205291748,-2.9036903381347656,0.2632105052471161
1772651031536018000,4.041017822265625,11.675179481506348,-2.8103702068328857,0.16331014037132263
1772651031545895200,4.050895263671875,10.922039031982422,-2.6985056400299072,0.1698904037475586
1772651031555772700,4.060772705078125,9.954142570495605,-2.5489542484283447,0.23389841616153717
1772651031565650000,4.07064990234375,8.950352668762207,-2.4400808811187744,0.28893333673477173
1772651031575527200,4.080527099609375,8.280961036682129,-2.2121646404266357,0.4582255482673645
1772651031585390800,4.090390869140625,7.850851058959961,-1.9878374338150024,0.6526423692703247
1772651031595282000,4.100281982421875,7.482356548309326,-1.801795482635498,0.7884350419044495
1772651031605159400,4.110159423828125,7.259823799133301,-1.7407784461975098,0.8027920126914978
1772651031615036700,4.12003662109375,7.427321434020996,-1.80717933177948,0.7836494445800781
1772651031624914000,4.129913818359375,7.501499176025391,-1.8867406845092773,0.6436693072319031
1772651031634791400,4.13979150390625,7.368099212646484,-1.9579271078109741,0.4660021960735321
1772651031644668700,4.149668701171875,7.079165935516357,-2.00518536567688,0.381655216217041
1772651031654546000,4.1595458984375,6.785446643829346,-2.05603289604187,0.4001995921134949
1772651031664423400,4.16942333984375,6.544369697570801,-2.0679969787597656,0.527019202709198
1772651031674300700,4.17930078125,6.460621356964111,-2.002194404602051,0.6867401003837585
1772651031684178200,4.18917822265625,6.553342819213867,-1.832902193069458,0.9230313301086426
1772651031694055400,4.199055419921875,6.811169624328613,-1.607378602027893,1.179661512374878
1772651031703932700,4.2089326171875,7.042675018310547,-1.451246976852417,1.441077470779419
1772651031713810200,4.21881005859375,7.221538543701172,-1.3513466119766235,1.6444673538208008
1772651031723687400,4.2286875,7.310073375701904,-1.2855439186096191,1.7461622953414917
1772651031733564700,4.238564697265625,7.29810905456543,-1.1838489770889282,1.8861424922943115
1772651031743442200,4.248442138671875,7.431509017944336,-1.0995019674301147,1.9369899034500122
1772651031753319400,4.2583193359375,7.669594764709473,-1.0660024881362915,1.8664016723632812
1772651031763197000,4.268197021484375,7.963313579559326,-1.1210373640060425,1.6660027503967285
1772651031773074200,4.27807421875,8.209774017333984,-1.319043517112732,1.3453645706176758
1772651031782951400,4.287951416015625,8.331808090209961,-1.5278172492980957,0.9415757060050964
1772651031792829000,4.297828857421875,8.441878318786621,-1.669592022895813,0.5042873620986938
1772651031802706200,4.3077060546875,8.636893272399902,-1.7443677186965942,0.0849452018737793
1772651031812583400,4.31758349609375,8.822935104370117,-1.80717933177948,-0.33439695835113525
1772651031822447000,4.327447021484375,9.049654960632324,-1.8323038816452026,-0.7950153350830078
1772651031832338200,4.337338134765625,9.246464729309082,-1.8113667964935303,-1.2203395366668701
1772651031842215700,4.347215576171875,9.29611587524414,-1.7623138427734375,-1.597209095954895
1772651031852079000,4.3570791015625,9.047262191772461,-1.7808582782745361,-1.933998942375183
1772651031861970200,4.36697021484375,8.827122688293457,-1.932204246520996,-2.249253273010254
1772651031871847700,4.37684765625,9.011968612670898,-2.1930220127105713,-2.4017956256866455
1772651031881725000,4.386724853515625,8.852845191955566,-2.4011974334716797,-2.404188632965088
1772651031891602200,4.396602294921875,8.447860717773438,-2.575873613357544,-2.2983062267303467
1772651031901479700,4.406479736328125,8.129016876220703,-2.7182464599609375,-1.8161523342132568
1772651031911357000,4.41635693359375,8.147561073303223,-2.8755745887756348,-1.0498509407043457
1772651031921234400,4.426234375,8.71346378326416,-3.0454649925231934,-0.3403790295124054
1772651031931111700,4.436111572265625,10.036096572875977,-3.384049415588379,0.2392822653055191
1772651031940975000,4.44597509765625,11.262417793273926,-3.8763725757598877,0.6047859191894531
1772651031950866400,4.455866455078125,11.582457542419434,-4.545764923095703,0.6197410821914673
1772651031960743700,4.46574365234375,11.418549537658691,-5.288137912750244,0.6281159520149231
1772651031970607400,4.475607421875,11.143973350524902,-5.9407806396484375,0.7908278703689575
1772651031980498400,4.48549853515625,11.204392433166504,-6.420541286468506,1.2430713176727295
1772651031990375700,4.495375732421875,12.06221866607666,-6.773482799530029,1.9537396430969238
1772651032000239400,4.5052392578125,13.547563552856445,-6.900302410125732,2.909672260284424
1772651032010130400,4.51513037109375,15.140584945678711,-6.593422889709473,3.8985064029693604
1772651032020007700,4.525007568359375,15.951153755187988,-5.956333637237549,4.408775806427002
1772651032029871400,4.534871337890625,16.4315128326416,-4.946562767028809,4.027718544006348
1772651032039762400,4.544762451171875,17.551353454589844,-5.54596471786499,5.000999450683594
1772651032049639700,4.5546396484375,15.802799224853516,-5.817550182342529,2.973680257797241
1772651032059503400,4.56450341796875,14.656038284301758,-6.209972858428955,0.503689169883728
1772651032069394400,4.57439453125,13.619946479797363,-6.592226505279541,-0.23210379481315613
1772651032079271700,4.584271728515625,12.527024269104004,-6.31944465637207,-0.43549370765686035
1772651032089135400,4.59413525390625,11.408978462219238,-5.653043270111084,-0.3690928816795349
1772651032099026400,4.6040263671875,10.233504295349121,-4.706682205200195,0.24526432156562805
1772651032108903700,4.613903564453125,9.377471923828125,-3.6843485832214355,1.0121639966964722
1772651032118767400,4.623767333984375,8.839685440063477,-2.836092948913574,1.6157535314559937
1772651032128658400,4.633658447265625,8.492127418518066,-2.2923240661621094,2.0309081077575684
1772651032138536000,4.643535888671875,8.340781211853027,-2.03629207611084,2.1547367572784424
1772651032148399400,4.6533994140625,8.380861282348633,-1.9417755603790283,2.05603289604187
1772651032158290400,4.66329052734375,8.569295883178711,-1.9040886163711548,1.8837496042251587
1772651032168168000,4.67316796875,8.791230201721191,-1.9938194751739502,1.6666009426116943
1772651032178045200,4.683045166015625,8.891729354858398,-2.1720848083496094,1.451246976852417
1772651032187922400,4.69292236328125,8.961718559265137,-2.337787628173828,1.2861422300338745
1772651032197800000,4.702800048828125,9.121439933776855,-2.3617160320281982,1.2239288091659546
1772651032207677200,4.71267724609375,9.185447692871094,-2.26959228515625,1.1371889114379883
1772651032217554400,4.722554443359375,9.10110092163086,-2.124826431274414,1.028315544128418
1772651032227432000,4.732431884765625,8.94975471496582,-1.9357935190200806,0.9385846853256226
1772651032237309200,4.74230908203125,8.659625053405762,-1.6893328428268433,0.8662018179893494
1772651032247186400,4.7521865234375,8.254639625549316,-1.4889339208602905,0.7962117195129395
1772651032257064000,4.76206396484375,7.795815944671631,-1.3435698747634888,0.7154539823532104
1772651032266941200,4.771941162109375,7.408178806304932,-1.1754741668701172,0.6915257573127747
1772651032276818700,4.781818603515625,7.125227451324463,-0.9583254456520081,0.7926225066184998
1772651032286696000,4.791696044921875,6.964908599853516,-0.8638089895248413,0.7830511927604675
1772651032296573200,4.8015732421875,7.000202655792236,-0.7603194117546082,0.865005373954773
1772651032306450700,4.81145068359375,7.15513801574707,-0.6017948985099792,0.9607182741165161
1772651032316328000,4.821327880859375,7.424330234527588,-0.4498506486415863,0.9864411354064941
1772651032326205200,4.831205078125,7.825726509094238,-0.45643091201782227,0.885344386100769
1772651032336082700,4.841082763671875,8.1553373336792,-0.5682953596115112,0.7992027401924133
1772651032345960000,4.8509599609375,8.373085021972656,-0.7172485589981079,0.6406782865524292
1772651032355837200,4.860837158203125,8.481359481811523,-0.7986045479774475,0.5401797294616699
1772651032365714700,4.870714599609375,8.59322452545166,-0.8368897438049316,0.5024927258491516
1772651032375592000,4.880592041015625,8.632107734680176,-0.9002995491027832,0.5312066078186035
1772651032385469400,4.890469482421875,8.689535140991211,-0.9589236974716187,0.6035895347595215
1772651032395346700,4.9003466796875,9.026923179626465,-0.9954141974449158,0.6693921089172363
1772651032405224000,4.910223876953125,9.468399047851562,-0.9708877801895142,0.8201399445533752
1772651032415101400,4.920101318359375,9.862616539001465,-0.9349954724311829,0.9373882412910461
1772651032424978700,4.929978759765625,10.192826271057129,-1.0007981061935425,0.9200403094291687
1772651032434856000,4.93985595703125,10.429716110229492,-1.215553879737854,0.8165507316589355
1772651032444733400,4.9497333984375,10.591231346130371,-1.5696916580200195,0.6693921089172363
1772651032454610700,4.959610595703125,10.764710426330566,-1.9722840785980225,0.6275177597999573
1772651032464488200,4.96948828125,10.931012153625488,-2.2923240661621094,0.7872386574745178
1772651032474365400,4.979365478515625,11.033305168151855,-2.6297121047973633,1.1024930477142334
1772651032484242700,4.98924267578125,10.878968238830566,-3.19860577583313,1.576271891593933
1772651032494120200,4.9991201171875,10.794621467590332,-3.8356947898864746,2.376671075820923
1772651032503983600,5.008983642578125,11.365907669067383,-3.9900317192077637,3.7836508750915527
1772651032513874700,5.018874755859375,12.473784446716309,-3.8841493129730225,5.387440204620361
1772651032523752200,5.028752197265625,13.253844261169434,-3.9451663494110107,6.037689685821533
1772651032533615600,5.03861572265625,13.73779296875,-4.095315933227539,5.07517671585083
1772651032543506700,5.048506591796875,14.484354019165039,-4.478765964508057,3.5605201721191406
1772651032553384200,5.05838427734375,15.079567909240723,-4.749752998352051,1.8837496042251587
1772651032563247600,5.06824755859375,14.913865089416504,-5.260620594024658,-0.14057832956314087
1772651032573138700,5.078138671875,13.862817764282227,-5.881557941436768,-1.8843477964401245
1772651032583016200,5.08801611328125,12.075977325439453,-6.244668960571289,-2.7361927032470703
1772651032592879600,5.097879638671875,10.160523414611816,-6.023332595825195,-2.252842426300049
1772651032602771000,5.10777099609375,8.46580696105957,-5.240880012512207,-1.048654556274414
1772651032612648200,5.117648193359375,6.758527755737305,-4.2933220863342285,0.19920247793197632
1772651032622511600,5.12751171875,5.325825214385986,-3.4570305347442627,1.1850453615188599
1772651032632403000,5.13740283203125,4.457828521728516,-2.933600664138794,1.8807586431503296
1772651032642280200,5.1472802734375,4.049253940582275,-2.846860647201538,2.1649062633514404
1772651032652143900,5.157143798828125,4.048057556152344,-3.033500909805298,2.076371908187866
1772651032662035000,5.167034912109375,4.743771076202393,-3.372683525085449,1.7581263780593872
1772651032671912200,5.176912109375,5.860620975494385,-3.8697924613952637,1.4536397457122803
1772651032681775900,5.18677587890625,7.2095746994018555,-4.333401679992676,1.296311616897583
1772651032691667000,5.1966669921875,8.822935104370117,-4.697110652923584,1.1126625537872314
1772651032701544200,5.206544189453125,10.560124397277832,-4.961517810821533,0.9421738982200623
1772651032711407900,5.216407958984375,12.022737503051758,-5.175076961517334,0.7651050686836243
1772651032721299000,5.226298828125,12.975679397583008,-5.2283172607421875,0.5210371017456055
1772651032731176200,5.23617626953125,13.370494842529297,-5.020740032196045,0.3774677813053131
1772651032741039900,5.246039794921875,13.037294387817383,-4.598406791687012,0.4983053207397461
1772651032750931000,5.255930908203125,12.225528717041016,-4.11505651473999,0.7657032608985901
1772651032760808200,5.26580810546875,11.135000228881836,-3.617947816848755,1.057627558708191
1772651032770671900,5.275671875,10.085148811340332,-3.139383316040039,1.3710874319076538
1772651032780563000,5.28556298828125,9.214759826660156,-2.688336133956909,1.72941255569458
1772651032790440200,5.295440185546875,8.61894702911377,-2.301297187805176,2.0303099155426025
1772651032800303900,5.305303955078125,8.168498039245605,-2.004587173461914,2.2719850540161133
1772651032810195000,5.31519482421875,7.778468132019043,-1.786242127418518,2.3569302558898926
1772651032820072400,5.325072509765625,7.45782995223999,-1.6737794876098633,2.2642083168029785
1772651032829935900,5.334935791015625,7.252047061920166,-1.7270197868347168,2.0368902683258057
1772651032839827000,5.344826904296875,7.288537979125977,-1.929213285446167,1.7455641031265259
1772651032849704400,5.354704345703125,7.459026336669922,-2.184048891067505,1.4877375364303589
1772651032859581700,5.364581787109375,7.645666599273682,-2.3784656524658203,1.327418327331543
1772651032869459000,5.374458984375,7.8388872146606445,-2.417947292327881,1.3196417093276978
1772651032879336400,5.38433642578125,8.051848411560059,-2.3192434310913086,1.389033555984497
1772651032889213700,5.394213623046875,8.163712501525879,-2.2169501781463623,1.4835500717163086
1772651032899091000,5.404091064453125,8.158329010009766,-2.149951219558716,1.5493526458740234
1772651032908968400,5.413968505859375,8.003393173217773,-2.1517457962036133,1.6785650253295898
1772651032918845700,5.423845703125,7.810173034667969,-2.2372891902923584,1.7682958841323853
1772651032928723000,5.433722900390625,7.610372543334961,-2.3407788276672363,1.7892330884933472
1772651032938600400,5.443600341796875,7.467401027679443,-2.4113669395446777,1.721037745475769
1772651032948477700,5.453477783203125,7.409973621368408,-2.4364917278289795,1.5308083295822144
1772651032958355200,5.463355224609375,7.454838752746582,-2.503490686416626,1.2580264806747437
1772651032968232400,5.473232421875,7.58644437789917,-2.5674986839294434,0.9786644577980042
1772651032978109700,5.483109619140625,7.63609504699707,-2.6225335597991943,0.7339983582496643
1772651032987987200,5.4929873046875,7.631309509277344,-2.6668007373809814,0.5557330846786499
1772651032997864400,5.502864501953125,7.695915699005127,-2.740978240966797,0.5443671345710754
1772651033007741700,5.51274169921875,7.852047443389893,-2.8588249683380127,0.6430711150169373
1772651033017619200,5.522619140625,8.191828727722168,-2.9413771629333496,0.8303094506263733
1772651033027496400,5.532496337890625,8.655437469482422,-2.8869404792785645,1.0803594589233398
1772651033037374000,5.5423740234375,9.163912773132324,-2.706880569458008,1.308275818824768
1772651033047251200,5.552251220703125,9.597611427307129,-2.4335005283355713,1.5206388235092163
1772651033057128400,5.56212841796875,9.92841911315918,-2.0919251441955566,1.709073543548584
1772651033067006000,5.572005859375,10.27896785736084,-1.8023936748504639,1.8999011516571045
1772651033076883200,5.58188330078125,10.502696990966797,-1.5852450132369995,2.063809633255005
1772651033086760400,5.591760498046875,10.48534870147705,-1.4386845827102661,2.1672990322113037
1772651033096638000,5.601637939453125,10.28195858001709,-1.3663017749786377,2.152942180633545
1772651033106515200,5.61151513671875,10.140782356262207,-1.2598211765289307,2.118844509124756
1772651033116392700,5.621392822265625,10.101899147033691,-1.1186445951461792,2.108076810836792
1772651033126270000,5.63127001953125,10.118050575256348,-1.0049854516983032,2.073380708694458
1772651033136147200,5.641147216796875,10.192228317260742,-0.9493523836135864,2.09431791305542
1772651033146024700,5.651024658203125,10.247262954711914,-1.0199406147003174,2.163709878921509
1772651033155902000,5.66090185546875,10.15573787689209,-1.31365966796875,2.1744775772094727
1772651033165779200,5.670779296875,10.020543098449707,-1.740180253982544,2.0452651977539062
1772651033175656700,5.68065673828125,10.177870750427246,-2.1649062633514404,1.937588095664978
1772651033185534000,5.690533935546875,10.65105152130127,-2.342573404312134,1.9160526990890503
1772651033195411500,5.700411376953125,11.171490669250488,-2.3258235454559326,1.9519450664520264
1772651033205288700,5.710288818359375,11.582457542419434,-2.294118642807007,1.9094724655151367
1772651033215166000,5.720166015625,11.900105476379395,-2.328814744949341,1.8323038816452026
1772651033225043500,5.73004345703125,12.249457359313965,-2.6111676692962646,1.6175481081008911
1772651033234920700,5.739920654296875,12.387044906616211,-2.9724838733673096,1.4225330352783203
1772651033244798000,5.7497978515625,11.883954048156738,-3.2650065422058105,1.1988041400909424
1772651033254675500,5.759675537109375,10.986644744873047,-3.5120654106140137,0.9403793215751648
1772651033264552700,5.769552734375,10.009775161743164,-3.6227335929870605,0.9403793215751648
1772651033274416400,5.77941650390625,9.243474006652832,-3.497708559036255,1.1515458822250366
1772651033284307500,5.789307373046875,8.61176872253418,-3.1722846031188965,1.5056836605072021
1772651033294184700,5.799184814453125,8.053044319152832,-3.1244282722473145,1.7168502807617188
1772651033304048400,5.80904833984375,7.6737823486328125,-3.1794631481170654,1.83828604221344
1772651033313939500,5.818939453125,7.499704360961914,-3.188436269760132,2.0027925968170166
1772651033323817000,5.82881689453125,7.519444942474365,-3.169891834259033,2.1960129737854004
1772651033333694200,5.838694091796875,7.622336387634277,-3.160320520401001,2.400599241256714
1772651033343571500,5.848571533203125,7.708477973937988,-3.170490026473999,2.538186550140381
1772651033353449000,5.858448974609375,7.727620601654053,-3.2727832794189453,2.5633113384246826
1772651033363326200,5.868326171875,7.65164852142334,-3.4097721576690674,2.5148565769195557
1772651033373203700,5.87820361328125,7.530212879180908,-3.4683964252471924,2.4089741706848145
1772651033383081000,5.8880810546875,7.475177764892578,-3.469592809677124,2.282752752304077
1772651033392958200,5.897958251953125,7.525427341461182,-3.500101327896118,2.1062822341918945
1772651033402835700,5.907835693359375,7.72104024887085,-3.5748770236968994,1.9106688499450684
1772651033412713000,5.917712890625,8.050651550292969,-3.6634113788604736,1.731805443763733
1772651033422590200,5.927590087890625,8.406583786010742,-3.783052682876587,1.5361921787261963
1772651033432467700,5.9374677734375,8.74337387084961,-3.9122650623321533,1.357926845550537
1772651033442345000,5.947344970703125,9.011369705200195,-4.032504558563232,1.1982059478759766
1772651033452222500,5.957222412109375,9.157332420349121,-4.089334011077881,1.1748759746551514
1772651033462099700,5.967099609375,9.128618240356445,-4.009174346923828,1.3334003686904907
1772651033471977000,5.97697705078125,8.925228118896484,-3.6993038654327393,1.6666009426116943
1772651033481854500,5.9868544921875,8.62014389038086,-3.2380871772766113,2.0709879398345947
1772651033491731700,5.996731689453125,8.385048866271973,-2.6865415573120117,2.499901533126831
1772651033501609200,6.006609130859375,8.094321250915527,-2.18045973777771,2.9150562286376953
1772651033511486500,6.016486572265625,7.761718273162842,-1.9004993438720703,3.163909673690796
1772651033521363700,6.02636376953125,7.45782995223999,-1.705484390258789,3.232105255126953
1772651033531241200,6.0362412109375,7.153941631317139,-1.6259230375289917,3.1657042503356934
1772651033541118500,6.046118408203125,6.957729816436768,-1.6660027503967285,3.057429075241089
1772651033550996000,6.055995849609375,6.888338088989258,-1.730010747909546,2.884547710418701
1772651033560873200,6.065873291015625,6.884150981903076,-1.795215129852295,2.7942185401916504
1772651033570750500,6.07575048828125,6.981658458709717,-1.8089739084243774,2.796013355255127
1772651033580628000,6.0856279296875,7.094120979309082,-1.8059829473495483,2.82951283454895
1772651033590505200,6.095505126953125,7.127620220184326,-1.8221344947814941,2.8390841484069824
1772651033600382700,6.1053828125,7.173084259033203,-1.9040886163711548,2.775076150894165
1772651033610260000,6.115260009765625,7.280761241912842,-1.9782661199569702,2.6709883213043213
1772651033620137200,6.12513720703125,7.608577728271484,-2.104487419128418,2.5351955890655518
1772651033630014700,6.1350146484375,8.086544036865234,-2.268994092941284,2.3922245502471924
1772651033639892000,6.14489208984375,8.598010063171387,-2.4329023361206055,2.2342982292175293
1772651033649769500,6.15476953125,9.086145401000977,-2.592623233795166,2.038684844970703
1772651033659633000,6.1646328125,9.546764373779297,-2.6763720512390137,1.8448662757873535
1772651033669524000,6.17452392578125,9.978668212890625,-2.726621389389038,1.6265212297439575
1772651033679401500,6.1844013671875,10.317851066589355,-2.7696921825408936,1.4572290182113647
1772651033689278700,6.19427880859375,10.479965209960938,-2.8187451362609863,1.3070793151855469
1772651033699156200,6.20415625,10.465607643127441,-2.8241288661956787,1.2400803565979004
1772651033709033500,6.214033447265625,10.315458297729492,-2.826521635055542,1.3052847385406494
1772651033718910700,6.22391064453125,10.088738441467285,-2.775674343109131,1.4673985242843628
1772651033728788200,6.233788330078125,9.739984512329102,-2.6554348468780518,1.7198412418365479
1772651033738665500,6.24366552734375,9.388239860534668,-2.4610180854797363,1.9914265871047974
1772651033748543000,6.25354296875,9.239884376525879,-2.246262311935425,2.287538528442383
1772651033758420200,6.263420166015625,9.356534957885742,-2.105085611343384,2.5495524406433105
1772651033768297700,6.273297607421875,9.608379364013672,-2.1367905139923096,2.6566312313079834
1772651033778175000,6.283175048828125,9.885947227478027,-2.355733871459961,2.6195425987243652
1772651033788052200,6.29305224609375,10.116255760192871,-2.6398816108703613,2.447857618331909
1772651033797929700,6.3029296875,10.246066093444824,-2.9802606105804443,2.2408783435821533
1772651033807807000,6.312806884765625,10.187442779541016,-3.318246841430664,2.08713960647583
1772651033817684500,6.3226845703125,9.985847473144531,-3.6400814056396484,2.1774685382843018
1772651033827561700,6.332561767578125,9.693922996520996,-3.91705060005188,2.493321180343628
1772651033837425400,6.34242529296875,9.171091079711914,-4.43330192565918,2.8600213527679443
1772651033847316500,6.35231640625,8.260622024536133,-5.402395248413086,3.2093734741210938
1772651033857193700,6.36219384765625,7.481758117675781,-6.433103561401367,3.1896326541900635
1772651033867057400,6.372057373046875,7.960920810699463,-6.839883327484131,2.874976396560669
1772651033876948500,6.381948486328125,10.009177207946777,-6.596413612365723,2.851048231124878
1772651033886826000,6.391825927734375,12.510872840881348,-6.273382663726807,2.995215654373169
1772651033896689400,6.401689453125,14.764911651611328,-6.160920143127441,2.6261229515075684
1772651033906580500,6.41158056640625,16.282560348510742,-6.126822471618652,1.7886348962783813
1772651033916458000,6.4214580078125,16.360925674438477,-6.495316982269287,0.6622136831283569
1772651033926321400,6.4313212890625,15.684952735900879,-6.917052268981934,-0.2793620526790619
1772651033936212700,6.441212646484375,13.800604820251465,-7.133004188537598,-0.9302098155021667
1772651033946090000,6.451090087890625,11.736795425415039,-6.752545356750488,-1.2598211765289307
1772651033955953700,6.46095361328125,10.13180923461914,-6.058627128601074,-1.1850453615188599
1772651033965844700,6.4708447265625,8.918049812316895,-5.346762180328369,-0.8159525394439697
1772651033975722000,6.480721923828125,8.020143508911133,-4.683351993560791,-0.43549370765686035
1772651033985585700,6.490585693359375,7.392625331878662,-4.095914363861084,-0.12921242415905
1772651033995476700,6.500476806640625,6.908677101135254,-3.6329028606414795,0.13220344483852386
1772651034005354000,6.51035400390625,6.511468410491943,-3.297907829284668,0.363709032535553
1772651034015217700,6.5202177734375,6.269195556640625,-3.0544381141662598,0.5288137793540955
1772651034025108700,6.530108642578125,6.15134859085083,-2.8677978515625,0.623330295085907
1772651034034986200,6.539986328125,6.138786315917969,-2.699702262878418,0.6975077986717224
1772651034044863500,6.549863525390625,6.391827583312988,-2.550748825073242,0.7525427341461182
1772651034054741000,6.559740966796875,6.976274490356445,-2.5112674236297607,0.6281159520149231
1772651034064618200,6.5696181640625,7.726424217224121,-2.5770699977874756,0.4307080805301666
1772651034074482000,6.57948193359375,8.49571704864502,-2.6386852264404297,0.1782652884721756
1772651034084373000,6.589373046875,9.147761344909668,-2.7385854721069336,-0.08315058797597885
1772651034094250200,6.599250244140625,9.551549911499023,-2.823530673980713,-0.3361915946006775
1772651034104127700,6.609127685546875,9.68494987487793,-2.9006991386413574,-0.48095735907554626
1772651034114005000,6.6190048828125,9.683155059814453,-2.943770170211792,-0.49710890650749207
1772651034123882500,6.628882568359375,9.510273933410645,-2.9246275424957275,-0.4492524564266205
1772651034133759700,6.638759765625,9.144769668579102,-2.7774689197540283,-0.3565305769443512
1772651034143637200,6.64863720703125,8.766703605651855,-2.5363919734954834,-0.2027917206287384
1772651034153514500,6.658514404296875,8.405387878417969,-2.362314224243164,-0.046061836183071136
1772651034163392000,6.66839208984375,8.059026718139648,-2.2331018447875977,0.11126625537872314
1772651034173269200,6.678269287109375,7.8317084312438965,-2.1134605407714844,0.23748764395713806
1772651034183146500,6.688146484375,7.618747234344482,-2.015354871749878,0.3607180118560791
1772651034193024000,6.69802392578125,7.394420146942139,-1.9507486820220947,0.4540380835533142
1772651034202901200,6.7079013671875,7.272386074066162,-1.953141450881958,0.5210371017456055
1772651034212778800,6.71777880859375,7.246663570404053,-2.0273189544677734,0.5365904569625854
1772651034222656000,6.727656005859375,7.256234645843506,-2.11824631690979,0.4875376224517822
1772651034232533500,6.737533447265625,7.3645100593566895,-2.221137523651123,0.373878538608551
1772651034242410800,6.74741064453125,7.567899703979492,-2.355135679244995,0.259621262550354
1772651034252288300,6.757288330078125,7.897511005401611,-2.4670002460479736,0.1788634955883026
1772651034262165500,6.76716552734375,8.306683540344238,-2.565704107284546,0.16151553392410278
1772651034272043000,6.77704296875,8.619544982910156,-2.6261229515075684,0.2063809484243393
1772651034281920300,6.786920166015625,8.8109712600708,-2.648256540298462,0.3128615617752075
1772651034291797500,6.796797607421875,8.983254432678223,-2.60339093208313,0.42831525206565857
1772651034301675000,6.806675048828125,9.109476089477539,-2.5806591510772705,0.5515456199645996
1772651034311552300,6.81655224609375,9.164510726928711,-2.589034080505371,0.6089733839035034
1772651034321429800,6.8264296875,9.157930374145508,-2.6297121047973633,0.5808576941490173
1772651034331307000,6.83630712890625,9.18425178527832,-2.737389087677002,0.5485545992851257
1772651034341184500,6.8461845703125,9.258428573608398,-2.799602508544922,0.5222335457801819
1772651034351061800,6.856061767578125,9.30867862701416,-2.822932481765747,0.5802595019340515
1772651034360939300,6.865939208984375,9.313464164733887,-2.7978079319000244,0.6652047038078308
1772651034370816500,6.87581640625,9.349356651306152,-2.6632115840911865,0.7902296781539917
1772651034380694000,6.885694091796875,9.387042999267578,-2.472982168197632,0.9906286001205444
1772651034390571300,6.8955712890625,9.384052276611328,-2.287538528442383,1.1958130598068237
1772651034400448800,6.90544873046875,9.32183837890625,-2.103889226913452,1.4087743759155273
1772651034410326000,6.915325927734375,9.21416187286377,-1.9956140518188477,1.581655740737915
1772651034420203300,6.925203369140625,9.118449211120605,-1.9232312440872192,1.724626898765564
1772651034430080800,6.935080810546875,9.118449211120605,-1.8502501249313354,1.8687944412231445
1772651034439958000,6.9449580078125,9.268598556518555,-1.7832510471343994,2.0608184337615967
1772651034449835500,6.95483544921875,9.531808853149414,-1.698904037475586,2.2857437133789062
1772651034459712800,6.964712646484375,9.902098655700684,-1.6648063659667969,2.4741785526275635
1772651034469590300,6.97459033203125,10.28195858001709,-1.7012969255447388,2.5663022994995117
1772651034479467500,6.984467529296875,10.665409088134766,-1.8783657550811768,2.6045875549316406
1772651034489345000,6.994344970703125,11.072188377380371,-2.104487419128418,2.448455810546875
1772651034499222300,7.00422216796875,11.32104206085205,-2.3946173191070557,2.2337000370025635
1772651034509099800,7.014099853515625,11.441879272460938,-2.6488547325134277,2.266601324081421
1772651034518977000,7.02397705078125,11.230114936828613,-2.8498518466949463,2.524427890777588
1772651034528854500,7.0338544921875,10.728219985961914,-3.0215368270874023,2.9856443405151367
1772651034538731800,7.043731689453125,10.251450538635254,-3.239283561706543,3.3708889484405518
1772651034548609300,7.053609375,9.912267684936523,-3.576671600341797,3.6400814056396484
1772651034558486500,7.063486572265625,10.201799392700195,-3.716651678085327,3.8261234760284424
1772651034568364000,7.073364013671875,11.00459098815918,-3.731606960296631,3.6873397827148438
1772651034578227500,7.0832275390625,11.987442970275879,-3.7489547729492188,3.2380871772766113
1772651034588118500,7.093118408203125,13.063614845275879,-3.7848472595214844,2.555534601211548
1772651034597996000,7.10299609375,14.005788803100586,-3.875774383544922,1.6307085752487183
1772651034607859700,7.112859619140625,14.215161323547363,-4.052245140075684,0.576670229434967
1772651034617750800,7.122750732421875,13.83530044555664,-4.319045066833496,-0.27038896083831787
1772651034627628300,7.132628173828125,12.975679397583008,-4.601995944976807,-0.8548358678817749
1772651034637491700,7.14249169921875,11.510075569152832,-4.934598445892334,-1.2083754539489746
1772651034647383000,7.152383056640625,9.693324089050293,-5.18823766708374,-1.3088740110397339
1772651034657260300,7.16226025390625,7.926225185394287,-5.219942569732666,-1.1521440744400024
1772651034667124000,7.1721240234375,6.50907564163208,-4.9190449714660645,-0.8488538265228271
1772651034677015000,7.18201513671875,5.5998029708862305,-4.405784606933594,-0.38644084334373474
1772651034686892300,7.191892333984375,5.224130153656006,-4.005585193634033,0.22133609652519226
1772651034696756000,7.201755859375,5.24327278137207,-3.7298123836517334,0.8781659007072449
1772651034706647000,7.21164697265625,5.410770416259766,-3.5395829677581787,1.4829518795013428
1772651034716524500,7.221524658203125,5.563910961151123,-3.3744781017303467,2.0243279933929443
1772651034726388200,7.23138818359375,5.8719868659973145,-3.177668571472168,2.51425838470459
1772651034736279300,7.241279296875,6.399604320526123,-2.998805046081543,2.8325037956237793
1772651034746156500,7.251156494140625,6.960721015930176,-2.991626501083374,2.870789051055908
1772651034756034000,7.261033935546875,7.605587005615234,-3.064009428024292,2.7212376594543457
1772651034765911300,7.270911376953125,8.310273170471191,-3.1094729900360107,2.454437732696533
1772651034775788800,7.280788818359375,8.97368335723877,-3.1794631481170654,2.1122641563415527
1772651034785652500,7.290652587890625,9.635298728942871,-3.2231321334838867,1.7312071323394775
1772651034795543600,7.30054345703125,10.14616584777832,-3.211766242980957,1.5314065217971802
1772651034805420800,7.3104208984375,10.109675407409668,-3.149552822113037,1.5284154415130615
1772651034815298300,7.32029833984375,9.631709098815918,-3.0346972942352295,1.5361921787261963
1772651034825175600,7.330175537109375,9.06700325012207,-2.8354947566986084,1.6007983684539795
1772651034835053000,7.340052978515625,8.712865829467773,-2.551945447921753,1.7060825824737549
1772651034844930300,7.349930419921875,8.585447311401367,-2.2881367206573486,1.9040886163711548
1772651034854807800,7.359807861328125,8.358129501342773,-2.1684954166412354,2.0656042098999023
1772651034864685000,7.36968505859375,8.088338851928711,-2.05603289604187,2.225325107574463
1772651034874562600,7.3795625,7.863413333892822,-1.9639091491699219,2.42093825340271
1772651034884440000,7.389440185546875,7.636693477630615,-1.9513468742370605,2.6213371753692627
1772651034894317300,7.3993173828125,7.506284713745117,-1.9932212829589844,2.7487549781799316
1772651034904194600,7.409194580078125,7.551748275756836,-2.0404794216156006,2.8139593601226807
1772651034914072000,7.419072021484375,7.668398380279541,-2.032702922821045,2.80558443069458
1772651034923949300,7.42894921875,7.806583881378174,-2.008774518966675,2.7595226764678955
1772651034933826800,7.438826904296875,8.002795219421387,-1.9710876941680908,2.6703901290893555
1772651034943704300,7.448704345703125,8.248658180236816,-2.0093727111816406,2.562713146209717
1772651034953581600,7.45858154296875,8.444869041442871,-2.1164517402648926,2.4562325477600098
1772651034963459000,7.468458984375,8.602795600891113,-2.2600209712982178,2.3784656524658203
1772651034973336300,7.47833642578125,8.722436904907227,-2.3910279273986816,2.321636199951172
1772651034983213800,7.4882138671875,8.742177963256836,-2.5764718055725098,2.163709878921509
1772651034993091000,7.498091064453125,8.639883995056152,-2.709871530532837,1.92741858959198
1772651035002968600,7.507968505859375,8.522636413574219,-2.7768707275390625,1.688136339187622
1772651035012845800,7.517845703125,8.46760082244873,-2.7523441314697266,1.542174220085144
1772651035022723300,7.527723388671875,8.474181175231934,-2.6350958347320557,1.5625132322311401
1772651035032600600,7.5376005859375,8.459226608276367,-2.438286304473877,1.7491533756256104
1772651035042478000,7.54747802734375,8.415556907653809,-2.276770830154419,1.9381862878799438
1772651035052355300,7.557355224609375,8.441878318786621,-2.155334949493408,2.100898265838623
1772651035062232800,7.56723291015625,8.585447311401367,-2.173879384994507,2.1505494117736816
1772651035072110000,7.577110107421875,8.929415702819824,-2.224726915359497,2.1643080711364746
1772651035081987600,7.586987548828125,9.290732383728027,-2.3084757328033447,2.242672920227051
1772651035091864800,7.59686474609375,9.515657424926758,-2.393420934677124,2.3258235454559326
1772651035101742300,7.606742431640625,9.638289451599121,-2.500499725341797,2.276770830154419
1772651035111619800,7.616619873046875,9.7005033493042,-2.66560435295105,2.163709878921509
1772651035121497000,7.6264970703125,9.6795654296875,-2.746960401535034,2.111665964126587
1772651035131374600,7.63637451171875,9.6466646194458,-2.8384859561920166,2.100898265838623
1772651035141251800,7.646251953125,9.5802640914917,-2.9359934329986572,2.1643080711364746
1772651035151129300,7.65612939453125,9.497113227844238,-3.0616166591644287,2.268994092941284
1772651035161006600,7.666006591796875,9.400203704833984,-3.201596736907959,2.365903377532959
1772651035170884000,7.675884033203125,9.241081237792969,-3.4570305347442627,2.4400808811187744
1772651035180761300,7.68576123046875,8.975478172302246,-3.8865420818328857,2.4885356426239014
1772651035190638800,7.695638916015625,8.645866394042969,-4.440480709075928,2.5525436401367188
1772651035200516000,7.70551611328125,8.428119659423828,-4.876572608947754,2.705684185028076
1772651035210393600,7.7153935546875,8.742775917053223,-5.150550842285156,2.9383862018585205
1772651035220271000,7.72527099609375,9.627521514892578,-5.310271739959717,3.074777126312256
1772651035230134500,7.735134521484375,10.744970321655273,-5.347360610961914,2.9760732650756836
1772651035240025600,7.745025634765625,11.654840469360352,-5.43290376663208,2.667997360229492
1772651035249903000,7.754903076171875,12.222537994384766,-5.532206058502197,2.2480568885803223
1772651035259766800,7.764766845703125,12.487543106079102,-5.549553871154785,1.7874385118484497
1772651035269657900,7.774657958984375,12.078370094299316,-5.5758748054504395,1.4482558965682983
1772651035279535400,7.784535400390625,10.953145980834961,-5.556732177734375,1.1665010452270508
1772651035289398800,7.794398681640625,9.502496719360352,-5.458028316497803,1.0372886657714844
1772651035299290000,7.8042900390625,8.300702095031738,-5.280959606170654,1.1282159090042114
1772651035309167400,7.81416748046875,7.602595806121826,-5.103292465209961,1.2478569746017456
1772651035319031000,7.824031005859375,7.423133850097656,-4.965705394744873,1.220937728881836
1772651035328922000,7.833922119140625,7.548757076263428,-4.833501815795898,1.0378868579864502
1772651035338799600,7.843799560546875,7.740781307220459,-4.590630054473877,0.9182456731796265
1772651035348677000,7.853677001953125,8.35154914855957,-3.8356947898864746,1.072582721710205
1772651035358554400,7.863554443359375,7.571488857269287,-3.4672000408172607,1.0145567655563354
1772651035368431900,7.873431884765625,9.166903495788574,-3.3535408973693848,1.2436695098876953
1772651035378295300,7.88329541015625,10.04686450958252,-3.387040376663208,1.6983058452606201
1772651035388186600,7.8931865234375,10.14018440246582,-3.304488182067871,1.7419748306274414
1772651035398063900,7.90306396484375,10.25204849243164,-3.3960134983062744,1.4422738552093506
1772651035407941400,7.91294140625,9.80518913269043,-3.6909289360046387,0.8584251403808594
1772651035417818600,7.922818603515625,9.068798065185547,-3.710669755935669,0.12741780281066895
1772651035427696000,7.932696044921875,8.255836486816406,-3.7603209018707275,-0.2763710021972656
1772651035437559800,7.942559814453125,7.444669246673584,-3.9248273372650146,-0.44805604219436646
1772651035447451000,7.952450927734375,6.942774772644043,-3.981656789779663,-0.4983053207397461
