time,seconds_elapsed,z,y,x
1772651027777816300,0.28281640625,-1.6946377754211426,0.2948007583618164,0.5937342047691345
1772651027797570800,0.30257080078125,-1.1703643798828125,0.2545264959335327,0.8734221458435059
1772651027817325600,0.32232568359375,-0.9172000885009766,-0.1870102882385254,0.7198982238769531
1772651027837080300,0.342080322265625,-0.8836517333984375,-0.3873405456542969,0.4134058952331543
1772651027856835000,0.3618349609375,-0.6427364349365234,-0.3170039653778076,0.20768415927886963
1772651027876589800,0.38158984375,-0.42048168182373047,-0.14964520931243896,0.09382903575897217
1772651027896344600,0.401344482421875,0.11862468719482422,-0.012288093566894531,-0.01576673984527588
1772651027916099300,0.421099365234375,0.5088033676147461,-0.2458329200744629,-0.24940931797027588
1772651027935854000,0.44085400390625,0.7178354263305664,-0.4609798192977905,-0.44687366485595703
1772651027955608800,0.46060888671875,1.305953025817871,-0.3933539390563965,-0.5013303756713867
1772651027975363600,0.480363525390625,2.24648380279541,-0.10620474815368652,-0.2597341537475586
1772651027995118300,0.500118408203125,2.777252197265625,-0.15109682083129883,-0.1987377405166626
1772651028014872800,0.519872802734375,2.3969173431396484,-0.19928407669067383,-0.17660772800445557
1772651028034627600,0.539627685546875,1.2168874740600586,-0.12227129936218262,-0.09177863597869873
1772651028054382300,0.55938232421875,0.3749990463256836,0.06099104881286621,0.6082371473312378
1772651028074137000,0.57913720703125,0.25779056549072266,0.5135762691497803,1.4797283411026
1772651028093891800,0.598891845703125,0.5926427841186523,0.7396072149276733,2.112818956375122
1772651028113646600,0.618646484375,0.3317289352416992,0.5967199802398682,2.329533576965332
1772651028133401300,0.6384013671875,-0.3998403549194336,0.3522205352783203,2.1350088119506836
1772651028153156000,0.658156005859375,-1.4810905456542969,0.043732643127441406,1.7326947450637817
1772651028172897000,0.67789697265625,-2.525635242462158,-0.2559220790863037,1.2925699949264526
1772651028192665300,0.697665283203125,-2.994509696960449,-0.23471784591674805,1.0724989175796509
1772651028212420000,0.717420166015625,-2.394481658935547,-0.16904854774475098,0.9172265529632568
1772651028232174800,0.7371748046875,-1.241257667541504,-0.2452392578125,0.5098167657852173
1772651028251929600,0.7569296875,-0.6249465942382812,-0.5058879852294922,-0.05248093605041504
1772651028271684400,0.776684326171875,-0.9604053497314453,-0.7895619869232178,-0.3312152624130249
1772651028291439000,0.796439208984375,-1.628753662109375,-0.7948615550994873,-0.061559081077575684
1772651028311193600,0.816193603515625,-1.865767002105713,-0.29999804496765137,0.4112340211868286
1772651028330948400,0.8359482421875,-1.0094327926635742,0.1537940502166748,0.9772502183914185
1772651028350703000,0.855703125,-0.038748741149902344,0.5455251932144165,1.2182369232177734
1772651028370457900,0.875457763671875,0.7148151397705078,0.674572229385376,1.2298983335494995
1772651028390212600,0.895212646484375,0.5360221862792969,0.6549181938171387,1.2584972381591797
1772651028409967400,0.91496728515625,-0.6550779342651367,0.6726418733596802,1.2329384088516235
1772651028429722000,0.93472216796875,-1.6915545463562012,0.726688027381897,1.21953547000885
1772651028449476600,0.9544765625,-1.7401628494262695,0.5767490863800049,1.2124342918395996
1772651028469231400,0.9742314453125,-0.9427194595336914,0.287866473197937,1.537768006324768
1772651028488986000,0.993986083984375,0.25939369201660156,0.5882452726364136,2.201484203338623
1772651028508740900,1.013740966796875,1.6166133880615234,0.9257194995880127,2.873626470565796
1772651028528481800,1.033481689453125,2.4147472381591797,1.153921127319336,3.131678342819214
1772651028548250400,1.05325048828125,2.5815858840942383,0.8606057167053223,3.061802387237549
1772651028568005000,1.073005126953125,2.262845993041992,-0.0438687801361084,2.8950119018554688
1772651028587759600,1.092759521484375,2.2771739959716797,-0.836524248123169,3.39208722114563
1772651028607514400,1.112514404296875,2.567108154296875,-0.777987003326416,4.10796594619751
1772651028627269000,1.13226904296875,2.2348575592041016,-0.9333367347717285,3.1283159255981445
1772651028647010000,1.152010009765625,1.126495361328125,-2.0707242488861084,1.053411602973938
1772651028666778600,1.171778564453125,-0.3623991012573242,-3.359027862548828,-0.6342613697052002
1772651028686533400,1.191533447265625,-0.45287322998046875,-3.597773551940918,-0.480745404958725
1772651028706288000,1.2112880859375,0.7537546157836914,-2.8879446983337402,0.4034857749938965
1772651028726043000,1.23104296875,1.4354791641235352,-2.1519906520843506,0.6717947721481323
1772651028745797400,1.25079736328125,0.42543697357177734,-2.169389486312866,0.2019689828157425
1772651028765538300,1.270538330078125,-1.5733709335327148,-2.5670645236968994,-0.4510739743709564
1772651028785307000,1.290306884765625,-2.6803088188171387,-2.3859951496124268,-0.48168179392814636
1772651028805061600,1.3100615234375,-2.721622943878174,-2.008267879486084,-0.02005055919289589
1772651028824816400,1.32981640625,-1.609715461730957,-1.562990665435791,0.46661514043807983
1772651028844571100,1.349571044921875,-0.2530803680419922,-1.335608959197998,0.7912973165512085
1772651028864325600,1.36932568359375,0.4520292282104492,-0.9555931091308594,0.8161303997039795
1772651028884080400,1.389080322265625,0.4355955123901367,-0.5351696014404297,0.8191788196563721
1772651028903835100,1.408835205078125,-0.4384126663208008,-0.3617115020751953,0.7887353301048279
1772651028923590000,1.42858984375,-1.520120620727539,-0.3115881681442261,0.6386914849281311
1772651028943344600,1.4483447265625,-2.3584909439086914,-0.3295830488204956,0.4566268026828766
1772651028963099400,1.468099365234375,-2.603679656982422,-0.2664201259613037,0.5109811425209045
1772651028982854000,1.48785400390625,-2.4795141220092773,-0.3293036222457886,0.6057561635971069
1772651029002608600,1.507608642578125,-2.141843318939209,-0.35347306728363037,0.7375636100769043
1772651029022363400,1.52736328125,-1.9583377838134766,-0.40028154850006104,0.7933778762817383
1772651029042118100,1.5471181640625,-1.9069108963012695,-0.5066620111465454,0.7680233716964722
1772651029061873000,1.566872802734375,-2.1129212379455566,-0.8298132419586182,0.6919124722480774
1772651029081627600,1.586627685546875,-2.2928686141967773,-1.1074674129486084,0.7157385349273682
1772651029101382100,1.606382080078125,-2.2383127212524414,-1.1372408866882324,0.9406819343566895
1772651029121137000,1.626136962890625,-1.8989362716674805,-1.030355453491211,1.241380214691162
1772651029140891600,1.6458916015625,-1.3985204696655273,-0.9898346662521362,1.395519733428955
1772651029160646400,1.665646484375,-1.049459457397461,-1.1916680335998535,1.1257126331329346
1772651029180401200,1.685401123046875,-0.4879770278930664,-1.3293578624725342,0.759874165058136
1772651029200156000,1.705156005859375,0.16106224060058594,-1.1846497058868408,0.5484122633934021
1772651029219910400,1.724910400390625,1.3738021850585938,-0.6286039352416992,0.5691823959350586
1772651029239651300,1.7446513671875,2.78926944732666,-0.3371434211730957,0.800287127494812
1772651029259420000,1.764419921875,3.582859992980957,-0.9612481594085693,0.8245187997817993
1772651029279174700,1.784174560546875,2.653313636779785,-1.9296643733978271,1.3813190460205078
1772651029298929400,1.803929443359375,2.2045469284057617,-1.7968592643737793,2.277503252029419
1772651029318684200,1.82368408203125,4.019412994384766,-0.964972734451294,2.4777116775512695
1772651029338438700,1.843438720703125,5.591224670410156,-0.8645589351654053,1.057092547416687
1772651029358179600,1.8631796875,4.850375175476074,-1.6997113227844238,-0.700047492980957
1772651029377948200,1.8829482421875,1.2631359100341797,-2.3910937309265137,-1.7163928747177124
1772651029397703000,1.902702880859375,-1.8487496376037598,-1.9574217796325684,-1.1171021461486816
1772651029417443800,1.92244384765625,-3.426652431488037,-1.0385127067565918,0.6378203630447388
1772651029437212400,1.94221240234375,-4.103755474090576,-0.2368764877319336,2.129074811935425
1772651029456967000,1.961966796875,-4.086920738220215,-0.09373688697814941,2.83542799949646
1772651029476721700,1.9817216796875,-3.755971908569336,-0.3218104839324951,2.7850801944732666
1772651029496476400,2.001476318359375,-3.287592887878418,-0.5211505889892578,2.3921220302581787
1772651029516231200,2.021231201171875,-2.5841455459594727,-0.6514101028442383,1.9727749824523926
1772651029535972000,2.04097216796875,-1.6009883880615234,-0.7720284461975098,1.6281274557113647
1772651029555740400,2.060740478515625,-0.8468027114868164,-0.6190531253814697,1.5542285442352295
1772651029575495200,2.0804951171875,-1.001725196838379,-0.4614272117614746,1.618438720703125
1772651029595250000,2.10025,-1.700021743774414,-0.5568125247955322,1.5391062498092651
1772651029615004700,2.120004638671875,-2.3116064071655273,-0.6275722980499268,1.3513710498809814
1772651029634759400,2.139759521484375,-2.3670520782470703,-0.5682597160339355,1.1992502212524414
1772651029654514000,2.159513916015625,-1.795177936553955,-0.4972505569458008,0.9953585267066956
1772651029674268700,2.1792685546875,-1.135660171508789,-0.28548455238342285,0.8606744408607483
1772651029694023400,2.1990234375,-0.24837207794189453,0.10303902626037598,1.0653640031814575
1772651029713778200,2.218778076171875,0.25670433044433594,0.5261385440826416,1.395543098449707
1772651029733533000,2.238532958984375,0.37717342376708984,1.0393370389938354,1.7482781410217285
1772651029753287400,2.258287353515625,0.27064990997314453,1.424041748046875,2.041191577911377
1772651029773042200,2.278042236328125,0.1961050033569336,1.6587824821472168,2.1361594200134277
1772651029792797000,2.297796875,0.17826080322265625,1.5682170391082764,1.9753800630569458
1772651029812551700,2.3175517578125,0.35814952850341797,1.236879587173462,1.6019660234451294
1772651029832306400,2.337306396484375,0.4428291320800781,1.046427607536316,1.3868708610534668
1772651029852061000,2.35706103515625,0.5661277770996094,0.981658935546875,1.570676565170288
1772651029871815700,2.376815673828125,0.7020969390869141,0.47179436683654785,1.5885101556777954
1772651029891570400,2.3965703125,1.2621049880981445,0.03532600402832031,1.4415677785873413
1772651029911325200,2.4163251953125,1.8997249603271484,-0.030390262603759766,1.6549949645996094
1772651029931080000,2.436079833984375,1.5303621292114258,-0.35024333000183105,2.4241509437561035
1772651029950834700,2.455834716796875,0.9103565216064453,-0.9819953441619873,3.2786076068878174
1772651029970589200,2.475589111328125,1.5399808883666992,-1.2981188297271729,3.685987710952759
1772651029990344000,2.495343994140625,2.232778549194336,-1.9334995746612549,2.5472311973571777
1772651030010084900,2.5150849609375,2.629786491394043,-2.4422380924224854,0.8584723472595215
1772651030029853400,2.534853515625,1.971632957458496,-3.0417563915252686,-0.6393609046936035
1772651030049608200,2.554608154296875,1.1131868362426758,-2.5907788276672363,-0.6350818872451782
1772651030069362700,2.57436279296875,0.30258655548095703,-1.604949712753296,0.3040151000022888
1772651030089117400,2.594117431640625,-0.871307373046875,-0.9780027866363525,0.856867790222168
1772651030108872200,2.6138720703125,-2.36576509475708,-0.9989972114562988,0.8649617433547974
1772651030128613000,2.633613037109375,-3.7211685180664062,-1.0290193557739258,0.8483425378799438
1772651030148381400,2.65338134765625,-4.228316307067871,-1.0740008354187012,0.9182407855987549
1772651030168136200,2.67313623046875,-3.5264687538146973,-1.3247883319854736,0.9526622295379639
1772651030187877000,2.692877197265625,-2.0203733444213867,-1.4367282390594482,1.0201679468154907
1772651030207645700,2.712645751953125,-0.3187532424926758,-1.4533789157867432,0.9658887386322021
1772651030227400400,2.732400390625,0.7128152847290039,-1.2391278743743896,0.7806426882743835
1772651030247155000,2.752155029296875,0.7735776901245117,-1.006453037261963,0.6437857151031494
1772651030266909700,2.77190966796875,-0.20480632781982422,-0.9336903095245361,0.5856056213378906
1772651030286664400,2.79166455078125,-1.3000288009643555,-0.7035698890686035,0.8330804109573364
1772651030306419200,2.811419189453125,-1.881110668182373,-0.28038573265075684,1.2679396867752075
1772651030326174000,2.831174072265625,-2.038907051086426,-0.2044205665588379,1.4993140697479248
1772651030345928400,2.850928466796875,-1.992354393005371,-0.31936120986938477,1.4276061058044434
1772651030365683200,2.87068310546875,-1.7653727531433105,-0.3678445816040039,1.3418707847595215
1772651030385438000,2.89043798828125,-1.5739283561706543,-0.19588732719421387,1.486240029335022
1772651030405192700,2.910192626953125,-1.4727368354797363,-0.04385185241699219,1.551828145980835
1772651030424947500,2.929947509765625,-1.207320213317871,0.0728752613067627,1.4197289943695068
1772651030444702200,2.9497021484375,-0.5087413787841797,0.15597939491271973,1.1909829378128052
1772651030464456700,2.969456787109375,0.06145286560058594,0.45856261253356934,1.158364176750183
1772651030484211500,2.98921142578125,0.2393789291381836,0.9236159324645996,1.172967791557312
1772651030503966200,3.00896630859375,0.21457576751708984,1.1697030067443848,1.156259298324585
1772651030523720700,3.028720703125,0.5003461837768555,1.325454592704773,1.3204634189605713
1772651030543475500,3.048475341796875,1.035079002380371,1.501991629600525,1.603682041168213
1772651030563230200,3.068230224609375,1.5976381301879883,1.4827051162719727,1.8477160930633545
1772651030582985000,3.08798486328125,1.972855567932129,1.223414421081543,1.7816978693008423
1772651030602739700,3.10773974609375,2.2503814697265625,0.8951902389526367,1.5778815746307373
1772651030622494200,3.127494140625,2.285008430480957,0.5748209953308105,1.5083017349243164
1772651030642249000,3.1472490234375,1.3417119979858398,-0.003322601318359375,1.4596465826034546
1772651030662003700,3.167003662109375,0.24664878845214844,-0.8388757705688477,1.423053503036499
1772651030681758500,3.186758544921875,0.41919994354248047,-1.0261211395263672,1.3176906108856201
1772651030701513200,3.20651318359375,1.5976505279541016,-1.3018300533294678,0.8120466470718384
1772651030721267700,3.226267822265625,2.572871208190918,-1.5552442073822021,0.012190163135528564
1772651030741022500,3.2460224609375,2.4560546875,-1.8200299739837646,-0.49504560232162476
1772651030760777200,3.265777099609375,1.226365089416504,-1.7975993156433105,-0.7216885089874268
1772651030780518100,3.28551806640625,-0.038550376892089844,-1.6692171096801758,-0.6170292496681213
1772651030800286700,3.30528662109375,-1.189894676208496,-1.314570426940918,-0.04193103313446045
1772651030820041200,3.325041259765625,-2.3264360427856445,-0.9991819858551025,0.6101333498954773
1772651030839782100,3.3447822265625,-3.217928886413574,-0.8523197174072266,1.1442787647247314
1772651030859550700,3.36455078125,-3.16359806060791,-0.298565149307251,1.8186166286468506
1772651030879305500,3.384305419921875,-2.1327004432678223,0.35190844535827637,2.1563985347747803
1772651030899046400,3.40404638671875,-0.9438610076904297,0.5693490505218506,1.876456618309021
1772651030918814700,3.423814697265625,0.23418617248535156,0.472867488861084,1.4671473503112793
1772651030938569500,3.443569580078125,0.39716053009033203,0.3519463539123535,1.2007911205291748
1772651030958324200,3.46332421875,-0.40936851501464844,0.4871866703033447,1.199310302734375
1772651030978079000,3.483078857421875,-1.393592357635498,0.6654808521270752,1.290770173072815
1772651030997833500,3.50283349609375,-1.7790675163269043,0.6647458076477051,1.394303798675537
1772651031017588200,3.522588134765625,-1.3469858169555664,0.6171648502349854,1.319998860359192
1772651031037343000,3.542343017578125,-0.7386722564697266,0.5239641666412354,1.0871330499649048
1772651031057097700,3.56209765625,-0.3997163772583008,0.4017603397369385,0.857607364654541
1772651031076852200,3.581852294921875,-0.47804927825927734,0.2875998020172119,0.7608680725097656
1772651031096607000,3.60160693359375,-0.7431631088256836,0.32079052925109863,0.8598458170890808
1772651031116361700,3.62136181640625,-0.8516473770141602,0.36313486099243164,1.1526679992675781
1772651031136116500,3.641116455078125,-0.5816326141357422,0.6155788898468018,1.2599077224731445
1772651031155871000,3.66087109375,-0.13370132446289062,0.9587793350219727,1.0846502780914307
1772651031175625700,3.680625732421875,0.37764835357666016,1.4247410297393799,1.0839765071868896
1772651031195380500,3.70038037109375,0.4661216735839844,1.7885141372680664,1.295293927192688
1772651031215135200,3.72013525390625,-0.1211862564086914,1.6498239040374756,1.4169766902923584
1772651031234889700,3.7398896484375,-0.34163475036621094,1.5861074924468994,2.0943217277526855
1772651031254644500,3.75964453125,0.3939981460571289,1.584566354751587,3.1913323402404785
1772651031274399200,3.779399169921875,0.3417043685913086,0.22634291648864746,2.6429567337036133
1772651031294154000,3.799154052734375,0.16234493255615234,-1.0705347061157227,1.2231323719024658
1772651031313895000,3.81889501953125,0.6709423065185547,-1.502561092376709,-0.28512540459632874
1772651031333663200,3.838663330078125,2.095709800720215,-1.276712417602539,-1.272930383682251
1772651031353418000,3.85841796875,3.3299379348754883,-0.6160192489624023,-0.951958179473877
1772651031373172700,3.8781728515625,2.4920597076416016,0.5413033962249756,0.15441948175430298
1772651031392927500,3.897927490234375,-0.25054073333740234,0.905524730682373,0.5149753093719482
1772651031412682000,3.917681884765625,-2.7175722122192383,0.5818848609924316,0.34975510835647583
1772651031432423000,3.9374228515625,-3.484625816345215,0.24615740776062012,0.31792140007019043
1772651031452191500,3.95719140625,-2.56972074508667,0.15027832984924316,0.4854314625263214
1772651031471946200,3.9769462890625,-0.5387735366821289,0.2882192134857178,0.4456498622894287
1772651031491687200,3.996687255859375,1.7112445831298828,0.759103536605835,0.3384281396865845
1772651031511455500,4.01645556640625,3.0376949310302734,1.0822312831878662,0.09390653669834137
1772651031531210200,4.036210205078125,3.0231428146362305,1.3119087219238281,-0.04387575387954712
1772651031550965000,4.055965087890625,1.570286750793457,1.4856860637664795,-0.00962403416633606
1772651031570719500,4.075719482421875,-0.2989997863769531,1.6857171058654785,0.2494792342185974
1772651031590474200,4.09547412109375,-1.3001928329467773,2.0032386779785156,0.6732146739959717
1772651031610229000,4.11522900390625,-1.6783723831176758,1.9966440200805664,0.7833502292633057
1772651031629983700,4.134983642578125,-1.6541190147399902,1.686199426651001,0.5366106033325195
1772651031649738200,4.15473828125,-2.2270140647888184,1.3969824314117432,0.33958685398101807
1772651031669493000,4.174492919921875,-2.7125701904296875,1.240799903869629,0.5328600406646729
1772651031689247700,4.194247802734375,-2.571146011352539,1.4463077783584595,0.9561787843704224
1772651031709002500,4.21400244140625,-2.151549816131592,1.6747392416000366,1.4058411121368408
1772651031728757000,4.233757080078125,-2.003819465637207,1.764984130859375,1.6191015243530273
1772651031748511700,4.25351171875,-1.769200325012207,1.8740935325622559,1.6423826217651367
1772651031768266500,4.2732666015625,-1.2309999465942383,1.7388776540756226,1.2066487073898315
1772651031788021200,4.293021240234375,-0.9195995330810547,1.3947126865386963,0.41643962264060974
1772651031807775700,4.312775634765625,-0.5608806610107422,1.2664234638214111,-0.41379010677337646
1772651031827530500,4.332530517578125,-0.1326446533203125,1.25437331199646,-1.2646207809448242
1772651031847271400,4.352271484375,-0.1141357421875,1.293879508972168,-1.9695274829864502
1772651031867040000,4.3720400390625,-0.3866596221923828,0.945338249206543,-2.450326442718506
1772651031886794500,4.39179443359375,-0.6899919509887695,0.41846156120300293,-2.343236207962036
1772651031906549200,4.41154931640625,-1.2287607192993164,0.017676830291748047,-1.2178233861923218
1772651031926304000,4.431303955078125,0.0045928955078125,-0.4387702941894531,0.4262029528617859
1772651031946058800,4.451058837890625,2.0575103759765625,-1.4725370407104492,1.3578511476516724
1772651031965799400,4.47079931640625,1.9227428436279297,-2.918978691101074,1.6725573539733887
1772651031985568000,4.490568115234375,2.287144660949707,-3.8891654014587402,2.6466779708862305
1772651032005322800,4.51032275390625,5.00191593170166,-3.98935866355896,4.345549583435059
1772651032025063700,4.530063720703125,6.840483665466309,-2.651784896850586,4.905069351196289
1772651032044832000,4.54983203125,7.327577590942383,-2.84709095954895,4.5259785652160645
1772651032064586800,4.569586669921875,4.802228927612305,-3.521278142929077,0.6631543636322021
1772651032084327700,4.58932763671875,2.6406002044677734,-3.0848188400268555,0.15366360545158386
1772651032104096000,4.609095947265625,0.47423267364501953,-1.3026764392852783,1.1678342819213867
1772651032123850800,4.628850830078125,-0.6693429946899414,0.3277428150177002,2.2815489768981934
1772651032143591700,4.648591796875,-0.9646282196044922,0.9468460083007812,2.4636452198028564
1772651032163360000,4.668360107421875,-0.6170368194580078,1.081317663192749,2.054459571838379
1772651032183114800,4.68811474609375,-0.3332252502441406,0.8890664577484131,1.594183087348938
1772651032202869500,4.707869384765625,-0.07230663299560547,0.928412675857544,1.3633009195327759
1772651032222624300,4.727624267578125,-0.17684078216552734,1.2801620960235596,1.1367782354354858
1772651032242378800,4.747378662109375,-0.7332296371459961,1.7542917728424072,0.9732695817947388
1772651032262133500,4.767133544921875,-1.5834097862243652,2.0975871086120605,0.8512771725654602
1772651032281888300,4.78688818359375,-2.135077953338623,2.458606004714966,0.9508371353149414
1772651032301643000,4.80664306640625,-2.0967140197753906,2.7039408683776855,1.091164231300354
1772651032321397500,4.8263974609375,-1.5453777313232422,2.942106008529663,1.1229060888290405
1772651032341152300,4.84615234375,-0.9086017608642578,2.745246410369873,0.9175353050231934
1772651032360907000,4.865906982421875,-0.6460742950439453,2.5419156551361084,0.7440605163574219
1772651032380661500,4.88566162109375,-0.5386514663696289,2.384204149246216,0.8153884410858154
1772651032400416300,4.905416259765625,0.029387474060058594,2.277848243713379,1.0043656826019287
1772651032420171000,4.9251708984375,0.7875804901123047,2.2310361862182617,1.1897681951522827
1772651032439925800,4.94492578125,1.2485761642456055,1.7431581020355225,1.009280800819397
1772651032459680300,4.96468017578125,1.5668954849243164,0.9463915824890137,0.9881688356399536
1772651032479435000,4.98443505859375,1.6605730056762695,0.1204230785369873,1.6305429935455322
1772651032499176000,5.004176025390625,1.778402328491211,-0.8929650783538818,3.3120670318603516
1772651032518944300,5.0239443359375,3.564725875854492,-0.880481481552124,5.777177333831787
1772651032538699000,5.043698974609375,4.828354835510254,-1.207137107849121,4.207497596740723
1772651032558440000,5.06343994140625,5.727447509765625,-1.8874802589416504,0.7245250344276428
1772651032578208500,5.08320849609375,3.6796369552612305,-3.0015616416931152,-2.334266185760498
1772651032597963000,5.102962890625,-0.02366352081298828,-2.7177140712738037,-1.4546170234680176
1772651032617704000,5.122703857421875,-3.3446364402770996,-1.1456425189971924,1.1031173467636108
1772651032637472500,5.142472412109375,-5.165434837341309,-0.2919270992279053,2.5576491355895996
1772651032657227000,5.16222705078125,-5.02888298034668,-0.625314474105835,2.4543399810791016
1772651032676968200,5.18196826171875,-2.8664464950561523,-1.4270515441894531,1.8219852447509766
1772651032696736500,5.201736572265625,0.3296213150024414,-2.001255989074707,1.2999268770217896
1772651032716491300,5.2214912109375,3.1670217514038086,-2.268399238586426,0.6773221492767334
1772651032736232200,5.241232177734375,3.872225761413574,-1.8865442276000977,0.21705424785614014
1772651032756000500,5.26100048828125,2.3238067626953125,-1.0518109798431396,0.46642300486564636
1772651032775755300,5.28075537109375,0.26346397399902344,-0.2282733917236328,0.9564732909202576
1772651032795496200,5.30049609375,-1.0141983032226562,0.44475507736206055,1.5057613849639893
1772651032815264500,5.320264404296875,-1.802229404449463,0.8222405910491943,1.6627109050750732
1772651032835019300,5.340019287109375,-2.1549758911132812,0.6928002834320068,1.1975972652435303
1772651032854774000,5.35977392578125,-1.872725486755371,0.20288896560668945,0.5880191922187805
1772651032874528800,5.37952880859375,-1.4738454818725586,0.07393836975097656,0.36626899242401123
1772651032894283300,5.399283203125,-1.2503852844238281,0.22191357612609863,0.377718448638916
1772651032914038000,5.4190380859375,-1.4967193603515625,0.19618010520935059,0.4951843023300171
1772651032933792800,5.438792724609375,-1.8554940223693848,0.03413224220275879,0.4955536127090454
1772651032953547500,5.458547607421875,-1.9482078552246094,-0.009521961212158203,0.13122427463531494
1772651032973302000,5.478302001953125,-1.7511115074157715,-0.06762075424194336,-0.40799856185913086
1772651032993056800,5.498056884765625,-1.6757278442382812,-0.09737777709960938,-0.7209265232086182
1772651033012811500,5.5178115234375,-1.286787986755371,-0.1997222900390625,-0.5589238405227661
1772651033032566300,5.537566162109375,-0.36401844024658203,-0.0043735504150390625,-0.15234720706939697
1772651033052320800,5.55732080078125,0.521759033203125,0.6010735034942627,0.20145165920257568
1772651033072075500,5.577075439453125,1.176553726196289,1.2229938507080078,0.5045996904373169
1772651033091830300,5.596830322265625,1.1903772354125977,1.5519908666610718,0.6317613124847412
1772651033111584800,5.616584716796875,0.9476757049560547,1.8038352727890015,0.5443451404571533
1772651033131339500,5.636339599609375,1.002518653869629,2.0616707801818848,0.4809896945953369
1772651033151094300,5.65609423828125,1.0697355270385742,1.9164625406265259,0.5339618921279907
1772651033170849000,5.67584912109375,0.9942550659179688,1.1981792449951172,0.33867740631103516
1772651033190603500,5.695603515625,1.8454160690307617,0.91725754737854,0.2646925449371338
1772651033210358300,5.715358154296875,2.719736099243164,1.0342719554901123,0.15151917934417725
1772651033230113000,5.735113037109375,3.3366966247558594,0.6145529747009277,-0.2832190990447998
1772651033249867800,5.75486767578125,2.47183895111084,0.021790504455566406,-0.8148435354232788
1772651033269608700,5.774608642578125,0.6664352416992188,-0.17386674880981445,-0.8950235843658447
1772651033289377000,5.794376953125,-0.6295223236083984,0.2189333438873291,-0.35457098484039307
1772651033309131800,5.8141318359375,-1.3732867240905762,0.1834864616394043,-0.05301964282989502
1772651033328886500,5.833886474609375,-1.3813133239746094,0.22098755836486816,0.3198702335357666
1772651033348641300,5.853641357421875,-1.2242894172668457,0.18702149391174316,0.5684852600097656
1772651033368395800,5.873395751953125,-1.3416390419006348,0.0008900165557861328,0.4891636371612549
1772651033388150500,5.893150634765625,-1.4159765243530273,0.010980606079101562,0.24679923057556152
1772651033407905300,5.9129052734375,-1.0028867721557617,-0.03884148597717285,-0.09685182571411133
1772651033427660000,5.932659912109375,-0.27915477752685547,-0.17174077033996582,-0.4468367099761963
1772651033447414800,5.952414794921875,0.26030731201171875,-0.3062007427215576,-0.6928611993789673
1772651033467169300,5.972169189453125,0.21764278411865234,-0.05796456336975098,-0.3641808032989502
1772651033486924000,5.991924072265625,-0.30674266815185547,0.8465030193328857,0.44776809215545654
1772651033506678800,6.0116787109375,-0.8911104202270508,1.7638146877288818,1.238397479057312
1772651033526433500,6.03143359375,-1.5266079902648926,2.1273796558380127,1.438076138496399
1772651033546188300,6.051188232421875,-1.918351173400879,2.094395160675049,1.254201889038086
1772651033565942800,6.07094287109375,-1.9103736877441406,2.008824348449707,1.1295346021652222
1772651033585697500,6.090697509765625,-1.727160930633545,2.0306859016418457,1.2200013399124146
1772651033605452300,6.110452392578125,-1.5942535400390625,1.9582005739212036,1.148942232131958
1772651033625207000,6.13020703125,-0.9396171569824219,1.8026585578918457,0.9256625175476074
1772651033644961800,6.1499619140625,0.09975433349609375,1.5866146087646484,0.6350486278533936
1772651033664716300,6.16971630859375,1.0637922286987305,1.5011529922485352,0.27171409130096436
1772651033684471000,6.189470947265625,1.7285575866699219,1.4835174083709717,-0.032370686531066895
1772651033704225800,6.209225830078125,1.725973129272461,1.488717794418335,-0.06649923324584961
1772651033723980500,6.22898046875,1.234787940979004,1.5964205265045166,0.3444671630859375
1772651033743735300,6.2487353515625,0.6083850860595703,1.9282293319702148,0.969514012336731
1772651033763489800,6.26848974609375,0.7466106414794922,2.11553955078125,1.489728569984436
1772651033783244500,6.28824462890625,1.2298812866210938,1.680204153060913,1.4738458395004272
1772651033802999300,6.307999267578125,1.3996143341064453,0.9483914375305176,1.1688905954360962
1772651033822754000,6.327754150390625,0.9658117294311523,0.21382427215576172,1.4152677059173584
1772651033842508800,6.3475087890625,-0.21074390411376953,-1.0250039100646973,2.1943509578704834
1772651033862249700,6.367249755859375,-1.2065916061401367,-2.739180564880371,2.224017381668091
1772651033882018000,6.38701806640625,2.3987293243408203,-2.4026641845703125,2.0547497272491455
1772651033901772800,6.406772705078125,6.725605010986328,-2.0051560401916504,1.2149343490600586
1772651033921513700,6.426513671875,7.222384452819824,-2.589261531829834,-0.865456223487854
1772651033941282300,6.4462822265625,3.9019927978515625,-2.945466995239258,-2.062680959701538
1772651033961037000,6.466037109375,0.5797662734985352,-1.8390312194824219,-1.7831642627716064
1772651033980778000,6.485778076171875,-1.3081374168395996,-0.6512937545776367,-0.865929365158081
1772651034000546300,6.50554638671875,-2.3668179512023926,0.14316201210021973,-0.186265230178833
1772651034020301000,6.525301025390625,-2.9193758964538574,0.5219316482543945,0.2138080894947052
1772651034040055800,6.545055908203125,-2.8971519470214844,0.7734239101409912,0.3777536451816559
1772651034059810600,6.564810546875,-1.8153681755065918,0.8425979614257812,0.1803402304649353
1772651034079565300,6.5845654296875,-0.33701324462890625,0.7192740440368652,-0.31117093563079834
1772651034099320000,6.604320068359375,0.4600248336791992,0.5460548400878906,-0.7808513641357422
1772651034119074800,6.62407470703125,0.42365169525146484,0.4334073066711426,-0.8453563451766968
1772651034138829600,6.64382958984375,-0.2464609146118164,0.6333918571472168,-0.6347832679748535
1772651034158584300,6.663584228515625,-1.0041570663452148,0.898613691329956,-0.3015200197696686
1772651034178338800,6.6833388671875,-1.5431413650512695,1.0419540405273438,-0.013647347688674927
1772651034198093600,6.703093505859375,-1.9585003852844238,1.0873088836669922,0.2020110785961151
1772651034217848300,6.722848388671875,-2.051647663116455,0.9345688819885254,0.24878212809562683
1772651034237603000,6.74260302734375,-1.8361172676086426,0.7222898006439209,0.05156499147415161
1772651034257357800,6.76235791015625,-1.1900510787963867,0.5196373462677002,-0.141642764210701
1772651034277112600,6.782112548828125,-0.5642509460449219,0.42617201805114746,-0.13544440269470215
1772651034296867300,6.801867431640625,-0.218719482421875,0.4995155334472656,-0.0030994415283203125
1772651034316622000,6.8216220703125,-0.08569812774658203,0.5188941955566406,0.012608766555786133
1772651034336376800,6.841376953125,-0.0052013397216796875,0.4026510715484619,-0.12284845113754272
1772651034356131300,6.86113134765625,0.10115909576416016,0.3920176029205322,-0.10706359148025513
1772651034375886000,6.880885986328125,0.16729068756103516,0.6418919563293457,0.08379638195037842
1772651034395640800,6.900640869140625,0.15593814849853516,1.0039515495300293,0.4186859726905823
1772651034415395600,6.9203955078125,-0.025934219360351562,1.2337925434112549,0.7001389861106873
1772651034435150300,6.940150390625,0.014971733093261719,1.3923401832580566,0.9408783912658691
1772651034454905000,6.959905029296875,0.5613832473754883,1.5646570920944214,1.2746416330337524
1772651034474659800,6.979659912109375,1.3454246520996094,1.4999010562896729,1.388771414756775
1772651034494414600,6.99941455078125,2.0918798446655273,1.0681512355804443,1.050816297531128
1772651034514169300,7.01916943359375,2.2414236068725586,0.5630292892456055,1.0232611894607544
1772651034533924000,7.038924072265625,1.400923728942871,0.16721200942993164,1.736475944519043
1772651034553678800,7.058678955078125,1.0012779235839844,-0.2949221134185791,2.213313102722168
1772651034573419800,7.078419677734375,2.5101184844970703,-0.24539875984191895,1.8596882820129395
1772651034593188400,7.098188232421875,4.622442245483398,-0.18915414810180664,0.4124194383621216
1772651034612943000,7.117943115234375,5.131758689880371,-0.5191667079925537,-1.5715181827545166
1772651034632684000,7.13768408203125,3.293856620788574,-1.2213072776794434,-2.7220053672790527
1772651034652452600,7.15745263671875,-0.23171329498291016,-1.8338630199432373,-2.7933950424194336
1772651034672207400,7.177207275390625,-3.0636062622070312,-1.4289143085479736,-2.022578239440918
1772651034691948300,7.1969482421875,-3.927684783935547,-0.7097840309143066,-0.7463090419769287
1772651034711716900,7.216716796875,-3.6938295364379883,-0.34488964080810547,0.4854224920272827
1772651034731471600,7.2364716796875,-3.045651435852051,0.0014710426330566406,1.353500485420227
1772651034751226400,7.256226318359375,-1.8781909942626953,0.08674168586730957,1.4011117219924927
1772651034770981000,7.275981201171875,-0.4850778579711914,0.04475760459899902,0.8360854387283325
1772651034790736000,7.29573583984375,0.7959222793579102,0.050176143646240234,0.15769410133361816
1772651034810490600,7.31549072265625,0.7850580215454102,0.20099639892578125,0.06021225452423096
1772651034830245400,7.335245361328125,-0.20511817932128906,0.5754258632659912,0.18600010871887207
1772651034850000100,7.355000244140625,-0.6406993865966797,0.9872782230377197,0.5054762363433838
1772651034869755000,7.3747548828125,-1.157421588897705,1.1363282203674316,0.8218640089035034
1772651034889509600,7.394509521484375,-1.5772428512573242,1.113985538482666,1.1528995037078857
1772651034909264400,7.414264404296875,-1.541834831237793,1.017463207244873,1.232674241065979
1772651034929019100,7.43401904296875,-1.23919677734375,1.0574955940246582,1.0807642936706543
1772651034948774000,7.45377392578125,-0.7813997268676758,0.992546558380127,0.804142951965332
1772651034968528600,7.473528564453125,-0.4466590881347656,0.7436923980712891,0.5725908279418945
1772651034988283400,7.493283447265625,-0.40073108673095703,0.44563817977905273,0.21485495567321777
1772651035008038100,7.5130380859375,-0.5796012878417969,0.353940486907959,-0.24931550025939941
1772651035027793000,7.53279296875,-0.5905332565307617,0.6197245121002197,-0.22885096073150635
1772651035047547600,7.552547607421875,-0.6109905242919922,0.9854462146759033,0.12923789024353027
1772651035067302400,7.572302490234375,-0.2645606994628906,1.0543286800384521,0.2729368209838867
1772651035087057200,7.59205712890625,0.3905982971191406,0.9389495849609375,0.4189411401748657
1772651035106812000,7.61181201171875,0.6528863906860352,0.7123653888702393,0.38215863704681396
1772651035126566700,7.631566650390625,0.6336040496826172,0.48369407653808594,0.29675793647766113
1772651035146321700,7.65132177734375,0.49147605895996094,0.24669790267944336,0.43891727924346924
1772651035166076400,7.671076416015625,0.25493431091308594,-0.1132974624633789,0.6658461093902588
1772651035185831200,7.6908310546875,-0.26659202575683594,-0.9591946601867676,0.8220325708389282
1772651035205586000,7.7105859375,-0.4771699905395508,-1.7813127040863037,1.098690390586853
1772651035225326800,7.730326904296875,1.1705055236816406,-2.02903151512146,1.1902577877044678
1772651035245095400,7.750095458984375,2.9706811904907227,-2.121750831604004,0.5084682703018188
1772651035264850200,7.76985009765625,3.3267440795898438,-2.1945931911468506,-0.3721656799316406
1772651035284591000,7.789591064453125,1.2422456741333008,-2.1819000244140625,-0.8289402723312378
1772651035304359700,7.809359619140625,-1.0621728897094727,-1.8850319385528564,-0.6424825191497803
1772651035324114400,7.829114501953125,-1.5285587310791016,-1.5395252704620361,-0.5985934734344482
1772651035343869400,7.848869384765625,-0.9598207473754883,-0.7795519828796387,-0.6283478736877441
1772651035363624000,7.8686240234375,-0.6272706985473633,0.05009794235229492,-0.4914708137512207
1772651035383379000,7.88837890625,1.0995101928710938,0.11807465553283691,0.09342420101165771
1772651035403133700,7.9081337890625,1.0143375396728516,-0.10297322273254395,-0.4136706590652466
1772651035422888400,7.927888427734375,-0.39165401458740234,-0.3536844253540039,-1.537564992904663
1772651035442643200,7.947643310546875,-1.8951940536499023,-0.6425566673278809,-1.8845980167388916
