time,seconds_elapsed,z,y,x
1772651027654218200,0.15921826171875,9.800403594970703,-1.801795482635498,0.22013968229293823
1772651027673973000,0.178972900390625,9.966704368591309,-1.6259230375289917,0.31764721870422363
1772651027693727700,0.198727783203125,10.067203521728516,-1.6103696823120117,0.4582255482673645
1772651027703605000,0.20860498046875,10.062417030334473,-1.6402798891067505,0.5437689423561096
1772651027713482500,0.218482421875,10.000802040100098,-1.6755740642547607,0.6376872062683105
1772651027723359700,0.22835986328125,9.783653259277344,-1.6875381469726562,0.7124629616737366
1772651027733237200,0.2382373046875,9.497113227844238,-1.6450655460357666,0.784247636795044
1772651027743114500,0.248114501953125,9.157930374145508,-1.557727575302124,0.8183453679084778
1772651027752992000,0.257991943359375,8.761320114135742,-1.5086746215820312,0.8668000102043152
1772651027762869200,0.267869140625,8.264211654663086,-1.552941918373108,0.9475577473640442
1772651027772746500,0.27774658203125,7.89631462097168,-1.5122638940811157,1.0893324613571167
1772651027782624000,0.2876240234375,7.982456207275391,-1.3680963516235352,1.3758729696273804
1772651027792501200,0.297501220703125,8.35573673248291,-1.3692927360534668,1.6247265338897705
1772651027802378800,0.307378662109375,8.550153732299805,-1.555932879447937,1.771286964416504
1772651027812256000,0.317256103515625,8.675178527832031,-1.7964116334915161,1.7778671979904175
1772651027822133500,0.327133544921875,8.70209789276123,-1.999801516532898,1.6965112686157227
1772651027832010800,0.3370107421875,8.693124771118164,-2.1098713874816895,1.633699655532837
1772651027841888000,0.346887939453125,8.70508861541748,-2.100898265838623,1.6049858331680298
1772651027851765500,0.356765625,8.836095809936523,-2.0572292804718018,1.5990036725997925
1772651027861642800,0.366642822265625,8.986245155334473,-2.0470597743988037,1.6055840253829956
1772651027871520300,0.376520263671875,9.041280746459961,-1.970489501953125,1.6259230375289917
1772651027881397500,0.3863974609375,9.162715911865234,-1.8478572368621826,1.7001005411148071
1772651027891275000,0.39627490234375,9.460622787475586,-1.7700905799865723,1.7198412418365479
1772651027901152300,0.40615234375,9.752547264099121,-1.8598214387893677,1.6911274194717407
1772651027911029800,0.41602978515625,9.92961597442627,-2.015354871749878,1.6133606433868408
1772651027920907000,0.425906982421875,10.001998901367188,-2.210968017578125,1.5272190570831299
1772651027930784300,0.4357841796875,10.057631492614746,-2.3712873458862305,1.456630825996399
1772651027940661800,0.445661865234375,10.235299110412598,-2.500499725341797,1.3573286533355713
1772651027950539000,0.4555390625,10.50508975982666,-2.569293260574341,1.2951152324676514
1772651027960416500,0.46541650390625,10.901700019836426,-2.5052852630615234,1.3525429964065552
1772651027970293800,0.475293701171875,11.400603294372559,-2.430509567260742,1.4859428405761719
1772651027980171300,0.485171142578125,11.81874942779541,-2.459223508834839,1.5158531665802002
1772651027990048500,0.495048583984375,12.029317855834961,-2.593221426010132,1.4709876775741577
1772651027999926000,0.504926025390625,12.19920825958252,-2.699702262878418,1.4949159622192383
1772651028009803300,0.51480322265625,11.986845016479492,-2.779263496398926,1.454237937927246
1772651028019680500,0.524680419921875,11.47537899017334,-2.765504837036133,1.3459627628326416
1772651028029558000,0.53455810546875,10.859227180480957,-2.720639228820801,1.3076776266098022
1772651028039435300,0.544435302734375,10.267004013061523,-2.7260231971740723,1.4213366508483887
1772651028049312800,0.554312744140625,9.856635093688965,-2.6464617252349854,1.7443677186965942
1772651028059190000,0.56418994140625,9.612566947937012,-2.4598217010498047,2.1577277183532715
1772651028069067500,0.574067626953125,9.5264253616333,-2.210369825363159,2.562713146209717
1772651028078944800,0.58394482421875,9.726823806762695,-1.9938194751739502,2.943770170211792
1772651028088822000,0.593822021484375,9.93679428100586,-1.8610178232192993,3.2608189582824707
1772651028098699500,0.603699462890625,10.006186485290527,-1.82273268699646,3.4983067512512207
1772651028108576800,0.61357666015625,9.882357597351074,-1.8652052879333496,3.627519130706787
1772651028118454300,0.623454345703125,9.576674461364746,-1.9232312440872192,3.6460635662078857
1772651028128331500,0.63333154296875,9.238089561462402,-1.9639091491699219,3.5647075176239014
1772651028138209000,0.643208984375,8.812766075134277,-2.0380866527557373,3.438486099243164
1772651028148086300,0.653086181640625,8.26839828491211,-2.11824631690979,3.245863914489746
1772651028157963800,0.6629638671875,7.680960655212402,-2.2031915187835693,3.022733211517334
1772651028167841000,0.672841064453125,7.16231632232666,-2.3198416233062744,2.778067111968994
1772651028177704700,0.68270458984375,6.748956203460693,-2.38983154296875,2.5872395038604736
1772651028187595800,0.692595703125,6.491129398345947,-2.3467607498168945,2.4568307399749756
1772651028197473000,0.70247314453125,6.509674072265625,-2.2570300102233887,2.3814568519592285
1772651028207350500,0.7123505859375,6.838686943054199,-2.2468605041503906,2.2923240661621094
1772651028217227800,0.722227783203125,7.359126091003418,-2.286342144012451,2.1571295261383057
1772651028227105300,0.732105224609375,7.978269100189209,-2.33180570602417,1.9357935190200806
1772651028236982500,0.741982421875,8.51306438446045,-2.4370899200439453,1.6612170934677124
1772651028246859800,0.75185986328125,8.847461700439453,-2.5776681900024414,1.3519448041915894
1772651028256737300,0.7617373046875,8.873783111572266,-2.736790895462036,1.0959128141403198
1772651028266614500,0.771614501953125,8.683553695678711,-2.8893332481384277,0.9308080077171326
1772651028276492000,0.781491943359375,8.37966537475586,-2.967100143432617,0.9068797826766968
1772651028286369300,0.791369384765625,7.99800968170166,-2.984447956085205,0.9822536706924438
1772651028296246800,0.801246826171875,7.740182876586914,-2.882154941558838,1.3040883541107178
1772651028306124000,0.8111240234375,7.564908981323242,-2.569293260574341,1.475175142288208
1772651028316001300,0.821001220703125,7.6911301612854,-2.3994028568267822,1.6564314365386963
1772651028325878800,0.830878662109375,8.209176063537598,-2.2091734409332275,1.9866410493850708
1772651028335756000,0.840756103515625,8.727222442626953,-2.0213370323181152,2.2163519859313965
1772651028345633500,0.850633544921875,9.187840461730957,-1.85383939743042,2.310270309448242
1772651028355510800,0.8605107421875,9.655637741088867,-1.7515461444854736,2.341377019882202
1772651028365388300,0.87038818359375,10.034899711608887,-1.719243049621582,2.3222343921661377
1772651028375265500,0.880265625,10.302297592163086,-1.7018951177597046,2.3048863410949707
1772651028385143000,0.89014306640625,10.231111526489258,-1.709073543548584,2.300100803375244
1772651028395020300,0.900020263671875,9.774680137634277,-1.7018951177597046,2.2642083168029785
1772651028404897500,0.9098974609375,9.165108680725098,-1.6522440910339355,2.196611166000366
1772651028414775000,0.919775146484375,8.505288124084473,-1.6103696823120117,2.1242282390594482
1772651028424652300,0.92965234375,7.975277900695801,-1.5553346872329712,2.0709879398345947
1772651028434529800,0.93952978515625,7.661818027496338,-1.5140584707260132,2.0195422172546387
1772651028444407000,0.949406982421875,7.6474609375,-1.5858432054519653,1.9680966138839722
1772651028454284500,0.959284423828125,7.908278942108154,-1.7563318014144897,1.9878374338150024
1772651028464161800,0.969161865234375,8.323433876037598,-1.9543378353118896,2.138585329055786
1772651028474039000,0.9790390625,8.827720642089844,-1.973480463027954,2.449054002761841
1772651028483916500,0.98891650390625,9.43190860748291,-1.786242127418518,2.7900311946868896
1772651028493793800,0.998793701171875,10.112068176269531,-1.5828521251678467,3.135794162750244
1772651028503657500,1.008657470703125,10.831111907958984,-1.4476577043533325,3.4917263984680176
1772651028513548500,1.018548583984375,11.411371231079102,-1.3310075998306274,3.721437454223633
1772651028523426000,1.028426025390625,11.809776306152344,-1.2023934125900269,3.799802303314209
1772651028533289500,1.03828955078125,12.017951965332031,-1.2095718383789062,3.7800614833831787
1772651028543180800,1.048180908203125,12.08495044708252,-1.3627125024795532,3.6957144737243652
1772651028553058000,1.05805810546875,12.076576232910156,-1.6809579133987427,3.565305709838867
1772651028562935300,1.067935302734375,11.921042442321777,-2.152942180633545,3.4091739654541016
1772651028572812800,1.077812744140625,11.614761352539062,-2.6937201023101807,3.3439695835113525
1772651028582690000,1.08768994140625,11.650054931640625,-3.1280174255371094,3.5772697925567627
1772651028592567600,1.097567626953125,11.92642593383789,-3.277568817138672,4.0420756340026855
1772651028602444800,1.10744482421875,12.115459442138672,-3.1800613403320312,4.473979949951172
1772651028612322300,1.117322265625,12.059825897216797,-3.053839921951294,4.444668292999268
1772651028622199600,1.127199462890625,11.874980926513672,-3.088535785675049,3.8668015003204346
1772651028632076800,1.137076904296875,11.657233238220215,-3.3918261528015137,2.9030921459198
1772651028641954300,1.146954345703125,11.118250846862793,-3.957728624343872,1.7958134412765503
1772651028651818000,1.15681787109375,10.228718757629395,-4.685146808624268,0.6340979933738708
1772651028661709000,1.166708984375,9.396016120910645,-5.346164226531982,-0.3068794906139374
1772651028671586300,1.17658642578125,9.005388259887695,-5.73978328704834,-0.7136593461036682
1772651028681450000,1.186449951171875,8.936594009399414,-5.846263885498047,-0.5904290080070496
1772651028691341000,1.196341064453125,9.290133476257324,-5.687739372253418,-0.13878370821475983
1772651028701218300,1.20621826171875,10.01575756072998,-5.325825214385986,0.35533416271209717
1772651028711095800,1.216095703125,10.611570358276367,-4.845465660095215,0.6867401003837585
1772651028720973000,1.22597314453125,10.968100547790527,-4.459024906158447,0.8267202377319336
1772651028730850600,1.2358505859375,11.026724815368652,-4.220340728759766,0.7812566161155701
1772651028740727800,1.245727783203125,10.49372386932373,-4.201198577880859,0.5258227586746216
1772651028750605000,1.25560498046875,9.509675025939941,-4.387838363647461,0.10229317098855972
1772651028760482600,1.265482666015625,8.447261810302734,-4.607379913330078,-0.28953152894973755
1772651028770346000,1.275345947265625,7.587640762329102,-4.6510491371154785,-0.5288137793540955
1772651028780237300,1.2852373046875,7.044469833374023,-4.505684852600098,-0.5802595019340515
1772651028790114600,1.295114501953125,6.785446643829346,-4.3483567237854,-0.4504488706588745
1772651028799978200,1.304978271484375,6.754340171813965,-4.168895244598389,-0.21355941891670227
1772651028809869300,1.314869384765625,6.985845565795898,-3.960719585418701,0.07896314561367035
1772651028819746600,1.32474658203125,7.58225679397583,-3.7292141914367676,0.3720839321613312
1772651028829624000,1.3346240234375,8.367700576782227,-3.5754752159118652,0.6346961855888367
1772651028839501300,1.344501220703125,9.077771186828613,-3.5060834884643555,0.9026923179626465
1772651028849378800,1.35437890625,9.573683738708496,-3.383451223373413,1.0307083129882812
1772651028859242200,1.3642421875,9.91286563873291,-3.188436269760132,1.0917253494262695
1772651028869133300,1.37413330078125,10.145567893981934,-2.927020311355591,1.1599208116531372
1772651028879010800,1.3840107421875,10.163514137268066,-2.688336133956909,1.1928220987319946
1772651028888888000,1.39388818359375,9.871589660644531,-2.5124638080596924,1.2281162738800049
1772651028898765600,1.403765625,9.403194427490234,-2.414358139038086,1.2191431522369385
1772651028908642800,1.413642822265625,8.906085968017578,-2.3306093215942383,1.179661512374878
1772651028918520300,1.423520263671875,8.353343963623047,-2.266601324081421,1.0929217338562012
1772651028928397600,1.4333974609375,7.816154956817627,-2.26959228515625,0.966102123260498
1772651028938275000,1.443275146484375,7.3884382247924805,-2.2654049396514893,0.8392825126647949
1772651028948152300,1.45315234375,7.125227451324463,-2.211566209793091,0.8201399445533752
1772651028958029600,1.463029541015625,7.017550468444824,-2.135594129562378,0.8679963946342468
1772651028967907000,1.472906982421875,7.020541667938232,-2.1373889446258545,0.9200403094291687
1772651028977784300,1.482784423828125,7.082755088806152,-2.162513494491577,0.9822536706924438
1772651028987661800,1.492661865234375,7.211369037628174,-2.18045973777771,1.0558329820632935
1772651028997539000,1.5025390625,7.400402069091797,-2.1744775772094727,1.150349497795105
1772651029007416300,1.512416259765625,7.572685241699219,-2.1846470832824707,1.2143574953079224
1772651029017293800,1.5222939453125,7.634898662567139,-2.2085752487182617,1.2478569746017456
1772651029027171000,1.532171142578125,7.706085205078125,-2.2271196842193604,1.2687941789627075
1772651029037048600,1.542048583984375,7.752147197723389,-2.26959228515625,1.2646067142486572
1772651029046925800,1.55192578125,7.692924976348877,-2.3682961463928223,1.2275179624557495
1772651029056803000,1.561802978515625,7.569096088409424,-2.547757863998413,1.1940184831619263
1772651029066680600,1.5716806640625,7.462615489959717,-2.734398126602173,1.1772687435150146
1772651029076557800,1.581557861328125,7.357929706573486,-2.884547710418701,1.2005987167358398
1772651029086435300,1.591435302734375,7.3058857917785645,-2.974876642227173,1.2831511497497559
1772651029096312600,1.6013125,7.33759069442749,-2.9874391555786133,1.4374881982803345
1772651029106189800,1.61118994140625,7.418946743011475,-2.978466033935547,1.628315806388855
1772651029116067300,1.6210673828125,7.564908981323242,-2.947359323501587,1.8197416067123413
1772651029125944600,1.630944580078125,7.844270706176758,-2.8725836277008057,2.0446670055389404
1772651029135822000,1.640822021484375,8.10987377166748,-2.8654050827026367,2.1816561222076416
1772651029145699300,1.65069921875,8.26540756225586,-2.9700911045074463,2.194218397140503
1772651029155576800,1.660576904296875,8.411369323730469,-3.118446111679077,2.0829520225524902
1772651029165454000,1.6704541015625,8.617152214050293,-3.269792079925537,1.9148563146591187
1772651029175331300,1.680331298828125,8.908478736877441,-3.393620729446411,1.755135416984558
1772651029185208800,1.690208740234375,9.186046600341797,-3.4821550846099854,1.6265212297439575
1772651029195086000,1.700086181640625,9.451051712036133,-3.4965121746063232,1.5326029062271118
1772651029204963600,1.709963623046875,9.870991706848145,-3.3613176345825195,1.5128620862960815
1772651029214827000,1.719826904296875,10.479366302490234,-3.1686954498291016,1.5254244804382324
1772651029224718300,1.72971826171875,11.182856559753418,-2.885145902633667,1.6582261323928833
1772651029234595600,1.739595703125,11.894721031188965,-2.761317253112793,1.9022940397262573
1772651029244459300,1.749459228515625,12.51147174835205,-3.004786968231201,1.8305093050003052
1772651029254350300,1.759350341796875,12.985848426818848,-3.349353551864624,1.82273268699646
1772651029264227600,1.7692275390625,12.942777633666992,-3.8799619674682617,1.9974087476730347
1772651029274105000,1.77910498046875,12.343974113464355,-4.487739086151123,2.2947168350219727
1772651029283982300,1.788982421875,11.68714427947998,-4.8089752197265625,2.6524438858032227
1772651029293859600,1.798859619140625,11.341381072998047,-4.77667236328125,3.146561861038208
1772651029303737000,1.808737060546875,11.720643043518066,-4.487140655517578,3.6167514324188232
1772651029313614300,1.8186142578125,12.732209205627441,-4.126422882080078,3.7405800819396973
1772651029323491800,1.828491943359375,13.834104537963867,-3.857828378677368,3.4576287269592285
1772651029333355300,1.838355224609375,14.596816062927246,-3.910470485687256,2.6733810901641846
1772651029343246300,1.848246337890625,14.998211860656738,-4.204189300537109,1.7096717357635498
1772651029353123800,1.858123779296875,14.71226978302002,-4.666004180908203,0.8506484627723694
1772651029362987500,1.867987548828125,13.386646270751953,-5.175675392150879,-0.025722842663526535
1772651029372878600,1.877878662109375,11.443674087524414,-5.5387864112854,-0.5982056856155396
1772651029382755800,1.887755859375,9.562915802001953,-5.499902725219727,-0.7657032608985901
1772651029392619500,1.89761962890625,7.995616912841797,-5.197809219360352,-0.527019202709198
1772651029402510600,1.907510498046875,6.893722057342529,-4.721039295196533,0.14895321428775787
1772651029412387800,1.917387939453125,6.168696880340576,-4.193421840667725,1.01814603805542
1772651029422251500,1.92725146484375,5.656632900238037,-3.655036687850952,1.908276081085205
1772651029432142600,1.937142578125,5.338387489318848,-3.153141975402832,2.6356940269470215
1772651029442020000,1.94702001953125,5.19960355758667,-2.9180471897125244,3.1106693744659424
1772651029451883500,1.956883544921875,5.231308460235596,-2.836092948913574,3.4480574131011963
1772651029461774600,1.966774658203125,5.377270698547363,-2.851048231124878,3.607180118560791
1772651029471652000,1.976652099609375,5.539384365081787,-2.981456995010376,3.5437703132629395
1772651029481529300,1.986529296875,5.745765209197998,-3.126222848892212,3.3535408973693848
1772651029491406800,1.99640673828125,5.97727108001709,-3.215355396270752,3.1561331748962402
1772651029501284000,2.0062841796875,6.237490653991699,-3.3266217708587646,2.906083106994629
1772651029511161300,2.016161376953125,6.586244106292725,-3.4031920433044434,2.695514678955078
1772651029521038800,2.026038818359375,7.011568546295166,-3.4845480918884277,2.5112674236297607
1772651029530916000,2.035916015625,7.472784996032715,-3.594019651412964,2.3437697887420654
1772651029540779800,2.04577978515625,8.069794654846191,-3.5928232669830322,2.2396819591522217
1772651029550670800,2.0556708984375,8.46042251586914,-3.500699520111084,2.227717876434326
1772651029560548400,2.06554833984375,8.59202766418457,-3.3517463207244873,2.297109842300415
1772651029570425600,2.075425537109375,8.517251968383789,-3.2297122478485107,2.355733871459961
1772651029580302800,2.085302734375,8.252246856689453,-3.202194929122925,2.3563320636749268
1772651029590180400,2.095180419921875,7.903493404388428,-3.232703447341919,2.3126630783081055
1772651029600057600,2.1050576171875,7.502097129821777,-3.280559778213501,2.228914260864258
1772651029609935000,2.11493505859375,7.179664134979248,-3.314059257507324,2.0919251441955566
1772651029619812400,2.124812255859375,7.021738052368164,-3.2937204837799072,1.9992033243179321
1772651029629689600,2.134689697265625,6.981060028076172,-3.2614171504974365,1.9040886163711548
1772651029639567000,2.144567138671875,7.104888439178467,-3.2691938877105713,1.7820546627044678
1772651029649444400,2.1544443359375,7.460821151733398,-3.2333016395568848,1.6923238039016724
1772651029659321600,2.164321533203125,7.746763229370117,-3.2476584911346436,1.5170495510101318
1772651029669199000,2.17419921875,8.038089752197266,-3.1686954498291016,1.4344971179962158
1772651029679076400,2.184076416015625,8.459824562072754,-2.99222469329834,1.4787644147872925
1772651029688953900,2.193953857421875,8.930013656616211,-2.820539712905884,1.5780665874481201
1772651029698831000,2.2038310546875,9.31166934967041,-2.6697919368743896,1.7204394340515137
1772651029708708600,2.21370849609375,9.549755096435547,-2.486142635345459,1.8747764825820923
1772651029718585900,2.2235859375,9.68076229095459,-2.23848557472229,2.029113531112671
1772651029728463000,2.233463134765625,9.739984512329102,-1.984248161315918,2.1882362365722656
1772651029738340600,2.243340576171875,9.724431037902832,-1.7509479522705078,2.3503501415252686
1772651029748217900,2.2532177734375,9.657432556152344,-1.5595221519470215,2.4819552898406982
1772651029758095400,2.263095458984375,9.599406242370605,-1.4015958309173584,2.568695068359375
1772651029767972600,2.27297265625,9.58205795288086,-1.2556337118148804,2.593221426010132
1772651029777849900,2.282849853515625,9.53659439086914,-1.2131611108779907,2.5645077228546143
1772651029787727400,2.292727294921875,9.493523597717285,-1.2717852592468262,2.4460630416870117
1772651029797604600,2.3026044921875,9.598808288574219,-1.363310694694519,2.2821545600891113
1772651029807482000,2.312482177734375,9.718449592590332,-1.5517455339431763,2.045863389968872
1772651029817359400,2.322359375,9.740582466125488,-1.7419748306274414,1.7922241687774658
1772651029827236600,2.332236572265625,9.776474952697754,-1.841277003288269,1.633699655532837
1772651029837114000,2.342114013671875,9.862018585205078,-1.8149559497833252,1.6193426847457886
1772651029846991400,2.351991455078125,9.93380355834961,-1.8113667964935303,1.7114664316177368
1772651029856868900,2.361868896484375,9.965508460998535,-1.9369899034500122,1.7748762369155884
1772651029866746000,2.37174609375,10.009775161743164,-2.203789710998535,1.76051926612854
1772651029876623400,2.381623291015625,10.175477981567383,-2.5220351219177246,1.679761528968811
1772651029886500900,2.3915009765625,10.470394134521484,-2.7457640171051025,1.573280930519104
1772651029896378000,2.401378173828125,10.85025405883789,-2.8043880462646484,1.5391831398010254
1772651029906255600,2.411255615234375,11.22054386138916,-2.799602508544922,1.633699655532837
1772651029916132900,2.4211328125,11.400005340576172,-2.799004316329956,1.8664016723632812
1772651029926010000,2.431010009765625,11.207383155822754,-2.9204399585723877,2.2636101245880127
1772651029935887600,2.4408876953125,10.707880973815918,-3.204587697982788,2.682952404022217
1772651029945764900,2.450764892578125,10.316056251525879,-3.559921979904175,3.0717861652374268
1772651029955642400,2.460642333984375,10.37767219543457,-3.768097400665283,3.514458179473877
1772651029965519600,2.47051953125,10.786844253540039,-3.8877387046813965,3.775874137878418
1772651029975396900,2.48039697265625,11.159526824951172,-4.092923164367676,3.64127779006958
1772651029985274400,2.4902744140625,11.490334510803223,-4.479363918304443,3.033500909805298
1772651029995151600,2.500151611328125,11.826525688171387,-4.824528694152832,2.1852452754974365
1772651030005029000,2.510029052734375,12.065210342407227,-5.048257350921631,1.3573286533355713
1772651030014892500,2.519892578125,12.034103393554688,-5.311468124389648,0.519242525100708
1772651030024784000,2.529783935546875,11.632707595825195,-5.712265968322754,-0.34695929288864136
1772651030034661000,2.5396611328125,11.152348518371582,-5.840281963348389,-0.8590233325958252
1772651030044524800,2.54952490234375,10.754541397094727,-5.553741455078125,-0.865005373954773
1772651030054416000,2.559415771484375,10.335199356079102,-5.021936416625977,-0.494716078042984
1772651030064293000,2.569293212890625,9.978070259094238,-4.508676052093506,-0.05024927482008934
1772651030074170400,2.57917041015625,9.5324068069458,-3.94097900390625,0.37148571014404297
1772651030084048000,2.5890478515625,8.933603286743164,-3.5575289726257324,0.5916253924369812
1772651030093925000,2.598925048828125,8.288139343261719,-3.4019956588745117,0.625723123550415
1772651030103788800,2.608788818359375,7.5427751541137695,-3.3720853328704834,0.5593222975730896
1772651030113680000,2.618679931640625,6.751947402954102,-3.3613176345825195,0.4570291340351105
1772651030123557000,2.62855712890625,6.066403388977051,-3.3266217708587646,0.3924229145050049
1772651030133420800,2.6384208984375,5.55733060836792,-3.266801118850708,0.3768695592880249
1772651030143312000,2.648311767578125,5.282754421234131,-3.2679975032806396,0.37088751792907715
1772651030153189400,2.658189453125,5.330610752105713,-3.3649067878723145,0.388235479593277
1772651030163066600,2.668066650390625,5.691926956176758,-3.5377883911132812,0.3936193287372589
1772651030172944100,2.677944091796875,6.302096843719482,-3.690330743789673,0.42352959513664246
1772651030182821400,2.6878212890625,7.045666217803955,-3.7848472595214844,0.5102694034576416
1772651030192685000,2.69768505859375,7.929215908050537,-3.830310821533203,0.6005984544754028
1772651030202576100,2.707576171875,8.8109712600708,-3.903291940689087,0.633499801158905
1772651030212453400,2.717453369140625,9.537193298339844,-3.9050865173339844,0.6287141442298889
1772651030222317000,2.727317138671875,10.05284595489502,-3.8111681938171387,0.5754738450050354
1772651030232208100,2.7372080078125,10.338788032531738,-3.671786308288574,0.5491527915000916
1772651030242085400,2.74708544921875,10.405189514160156,-3.559323787689209,0.5030909776687622
1772651030251963000,2.756962890625,10.101301193237305,-3.4923245906829834,0.4582255482673645
1772651030261840100,2.766840087890625,9.57787036895752,-3.473181962966919,0.4097708761692047
1772651030271717400,2.77671728515625,8.971290588378906,-3.432504177093506,0.4163511395454407
1772651030281595000,2.786594970703125,8.402397155761719,-3.3308091163635254,0.5246263742446899
1772651030291472100,2.79647216796875,7.954938888549805,-3.1136605739593506,0.7310073375701904
1772651030301349600,2.806349609375,7.670193195343018,-2.8666014671325684,0.9535398483276367
1772651030311227000,2.816226806640625,7.52004337310791,-2.7487549781799316,1.1437692642211914
1772651030321104100,2.826104248046875,7.448258876800537,-2.7290141582489014,1.2729816436767578
1772651030330981600,2.835981689453125,7.41535758972168,-2.77866530418396,1.3160524368286133
1772651030340859000,2.84585888671875,7.432106971740723,-2.8552355766296387,1.280758261680603
1772651030350736100,2.855736083984375,7.503891944885254,-2.9629125595092773,1.2221341133117676
1772651030360613600,2.865613525390625,7.613961696624756,-3.022135019302368,1.1820544004440308
1772651030370491000,2.875490966796875,7.7455668449401855,-3.004786968231201,1.205384373664856
1772651030380368400,2.885368408203125,7.833503246307373,-2.9318058490753174,1.3112667798995972
1772651030390245600,2.89524560546875,7.871788501739502,-2.8833513259887695,1.4009976387023926
1772651030400123100,2.905123046875,7.905287742614746,-2.8420751094818115,1.4434702396392822
1772651030410000400,2.91500048828125,7.957331657409668,-2.8253252506256104,1.4291132688522339
1772651030419877600,2.924877685546875,8.057829856872559,-2.8181469440460205,1.3782658576965332
1772651030429755100,2.934755126953125,8.282156944274902,-2.794816732406616,1.277169108390808
1772651030439632400,2.94463232421875,8.671588897705078,-2.820539712905884,1.1665010452270508
1772651030449510000,2.954510009765625,9.008378982543945,-2.812762975692749,1.100698471069336
1772651030459387100,2.96438720703125,9.289535522460938,-2.709273338317871,1.098903775215149
1772651030469264400,2.974264404296875,9.474979400634766,-2.4909284114837646,1.155733346939087
1772651030479142000,2.984141845703125,9.543174743652344,-2.287538528442383,1.1670992374420166
1772651030489019100,2.99401904296875,9.5264253616333,-2.135594129562378,1.1443674564361572
1772651030498896400,3.003896484375,9.473184585571289,-2.050050735473633,1.1341979503631592
1772651030508774000,3.01377392578125,9.499505996704102,-2.0207388401031494,1.1838489770889282
1772651030518651100,3.023651123046875,9.642477035522461,-1.97407865524292,1.292722463607788
1772651030528528600,3.033528564453125,9.857831001281738,-1.9094724655151367,1.445863127708435
1772651030538406000,3.043406005859375,10.118050575256348,-1.832902193069458,1.622931957244873
1772651030548283400,3.053283447265625,10.414162635803223,-1.7988044023513794,1.8215361833572388
1772651030558160600,3.06316064453125,10.696515083312988,-1.8197416067123413,1.9926230907440186
1772651030568038000,3.073037841796875,10.931012153625488,-1.9256240129470825,2.0997018814086914
1772651030577915400,3.082915283203125,11.08475112915039,-2.0781664848327637,2.0793628692626953
1772651030587792600,3.092792724609375,11.273783683776855,-2.227717876434326,2.0303099155426025
1772651030597670000,3.102669921875,11.420344352722168,-2.400001049041748,1.923829436302185
1772651030607547400,3.11254736328125,11.49512004852295,-2.547757863998413,1.908874273300171
1772651030617424600,3.122424560546875,11.569297790527344,-2.685943365097046,1.8999011516571045
1772651030627302100,3.13230224609375,11.438888549804688,-2.827120065689087,1.8831514120101929
1772651030637179400,3.142179443359375,10.938190460205078,-3.0897321701049805,1.8735800981521606
1772651030647056600,3.152056640625,10.213763236999512,-3.493520975112915,1.8251254558563232
1772651030656934100,3.16193408203125,9.575477600097656,-4.016352653503418,1.740180253982544
1772651030666811400,3.171811279296875,9.383454322814941,-4.244867324829102,1.8957136869430542
1772651030676689000,3.18168896484375,9.418747901916504,-4.298107624053955,1.8221344947814941
1772651030686566100,3.191566162109375,9.832706451416016,-4.473979949951172,1.6815561056137085
1772651030696443400,3.201443359375,10.466206550598145,-4.66660213470459,1.5074782371520996
1772651030706321000,3.21132080078125,11.059027671813965,-4.856233596801758,1.1593226194381714
1772651030716198100,3.2211982421875,11.545967102050781,-4.996213912963867,0.7896314859390259
1772651030726075400,3.231075439453125,11.866007804870605,-5.159523963928223,0.5210371017456055
1772651030735953000,3.240952880859375,11.81874942779541,-5.299503803253174,0.3194418251514435
1772651030745830100,3.250830078125,11.350354194641113,-5.3694939613342285,0.17946170270442963
1772651030755707600,3.260707763671875,10.702497482299805,-5.313262462615967,0.07657032459974289
1772651030765585000,3.2705849609375,10.036096572875977,-5.223531723022461,0.023330021649599075
1772651030775462100,3.280462158203125,9.416953086853027,-5.149354457855225,0.046061836183071136
1772651030785325800,3.290325927734375,8.831908226013184,-5.050650596618652,0.1423729509115219
1772651030795217000,3.300216796875,8.283951759338379,-4.828117847442627,0.4019941985607147
1772651030805094400,3.310094482421875,7.712665557861328,-4.564907550811768,0.735194742679596
1772651030814957800,3.319957763671875,7.184450149536133,-4.347160339355469,1.0013962984085083
1772651030824849000,3.329848876953125,6.601797580718994,-4.270590305328369,1.277169108390808
1772651030834726400,3.339726318359375,6.1573309898376465,-4.17427921295166,1.4943177700042725
1772651030844589800,3.34958984375,5.897111415863037,-4.0181474685668945,1.7730815410614014
1772651030854481200,3.359481201171875,5.920441627502441,-3.707080364227295,2.1200408935546875
1772651030864358400,3.3693583984375,6.251249313354492,-3.3589248657226562,2.462812662124634
1772651030874235600,3.379235595703125,6.820741176605225,-3.0424740314483643,2.6219353675842285
1772651030884113200,3.389113037109375,7.372286796569824,-2.837887763977051,2.620140790939331
1772651030893990400,3.398990478515625,7.894520282745361,-2.7972097396850586,2.4580271244049072
1772651030903854000,3.40885400390625,8.611170768737793,-2.8253252506256104,2.2438695430755615
1772651030913745200,3.4187451171875,9.227322578430176,-2.922234535217285,2.0470597743988037
1772651030923622400,3.428622314453125,9.580862045288086,-3.029911756515503,1.8873388767242432
1772651030933500000,3.4385,9.652647018432617,-3.1070802211761475,1.7545372247695923
1772651030943377200,3.448377197265625,9.466604232788086,-3.122633457183838,1.6815561056137085
1772651030953254700,3.458254638671875,9.035896301269531,-3.033500909805298,1.6821542978286743
1772651030963132000,3.4681318359375,8.486145973205566,-2.8827531337738037,1.7443677186965942
1772651030973009200,3.478009033203125,7.9866437911987305,-2.7768707275390625,1.7736797332763672
1772651030982886700,3.48788671875,7.585247993469238,-2.7397818565368652,1.8035900592803955
1772651030992764000,3.497763916015625,7.372884750366211,-2.761915445327759,1.8496519327163696
1772651031002641200,3.50764111328125,7.425527095794678,-2.768495798110962,1.9022940397262573
1772651031012518700,3.5175185546875,7.6528449058532715,-2.8013970851898193,1.85383939743042
1772651031022396000,3.52739599609375,7.987242221832275,-2.8869404792785645,1.7341982126235962
1772651031032273200,3.537273193359375,8.288139343261719,-2.960519790649414,1.612762451171875
1772651031042150700,3.547150634765625,8.541180610656738,-2.984447956085205,1.5140584707260132
1772651031052028000,3.55702783203125,8.708678245544434,-3.0592236518859863,1.3806586265563965
1772651031061905400,3.566905517578125,8.778069496154785,-3.1818559169769287,1.2957134246826172
1772651031071782700,3.57678271484375,8.71645450592041,-3.248854875564575,1.2394821643829346
1772651031081660000,3.586659912109375,8.59920597076416,-3.2620155811309814,1.2215359210968018
1772651031091537400,3.596537353515625,8.46042251586914,-3.2333016395568848,1.2430713176727295
1772651031101414700,3.60641455078125,8.305487632751465,-3.2685956954956055,1.3465609550476074
1772651031111292200,3.616292236328125,8.22712230682373,-3.276970624923706,1.4799607992172241
1772651031121169400,3.62616943359375,8.289336204528809,-3.235694408416748,1.5966109037399292
1772651031131046700,3.636046630859375,8.413164138793945,-3.122633457183838,1.6307085752487183
1772651031140924200,3.645924072265625,8.594420433044434,-3.0173492431640625,1.5547364950180054
1772651031150801400,3.655801513671875,8.817551612854004,-2.8797619342803955,1.4141582250595093
1772651031160679000,3.665678955078125,9.031708717346191,-2.712862730026245,1.323829174041748
1772651031170556200,3.67555615234375,9.30329418182373,-2.5022943019866943,1.3010972738265991
1772651031180433400,3.685433349609375,9.528818130493164,-2.259422779083252,1.3549357652664185
1772651031190311000,3.695310791015625,9.588040351867676,-2.0584256649017334,1.4673985242843628
1772651031200188200,3.705188232421875,9.406784057617188,-2.015354871749878,1.5248262882232666
1772651031210065400,3.7150654296875,9.074779510498047,-2.1026928424835205,1.5290136337280273
1772651031219943000,3.72494287109375,8.748757362365723,-2.2432711124420166,1.6348960399627686
1772651031229820200,3.734820068359375,8.615358352661133,-2.2791635990142822,1.9591234922409058
1772651031239697700,3.74469775390625,8.766703605651855,-2.196611166000366,2.5465614795684814
1772651031249575000,3.754574951171875,9.233304023742676,-2.0985054969787598,3.187239646911621
1772651031259452200,3.7644521484375,9.605388641357422,-2.4131617546081543,3.562912940979004
1772651031269329700,3.77432958984375,9.502496719360352,-3.1896326541900635,3.2141590118408203
1772651031279207000,3.78420703125,9.20698356628418,-4.091726779937744,2.5022943019866943
1772651031289070600,3.794070556640625,9.072386741638184,-4.802394866943359,1.80717933177948
1772651031298961700,3.803961669921875,9.223134994506836,-5.197210788726807,1.124626636505127
1772651031308839000,3.8138388671875,9.421140670776367,-5.456233978271484,0.3852444589138031
1772651031318702600,3.82370263671875,9.79801082611084,-5.6153564453125,-0.4342973232269287
1772651031328593700,3.83359375,10.523036003112793,-5.541179180145264,-0.9475577473640442
1772651031338471000,3.843470947265625,11.446066856384277,-5.292325496673584,-1.0205388069152832
1772651031348334600,3.85333447265625,12.087942123413086,-5.016552448272705,-0.851844847202301
1772651031358225700,3.8632255859375,12.323036193847656,-4.548755645751953,-0.4091726839542389
1772651031368103200,3.873103271484375,11.955738067626953,-3.809373617172241,0.26620152592658997
1772651031377980400,3.88298046875,10.8699951171875,-3.243471145629883,0.7100701332092285
1772651031387857700,3.892857666015625,9.457033157348633,-3.0041887760162354,0.8291130661964417
1772651031397735200,3.902735107421875,8.02193832397461,-3.014956474304199,0.7824530005455017
1772651031407598600,3.9125986328125,6.758527755737305,-3.142972469329834,0.6263213157653809
1772651031417489700,3.92248974609375,5.877968788146973,-3.3242287635803223,0.4408775866031647
1772651031427367200,3.9323671875,5.520241737365723,-3.493520975112915,0.36311084032058716
1772651031437230800,3.94223095703125,5.580062389373779,-3.6574294567108154,0.3858426511287689
1772651031447122000,3.952121826171875,6.029912948608398,-3.7363924980163574,0.4660021960735321
1772651031456999200,3.961999267578125,6.818347930908203,-3.7980077266693115,0.4588237404823303
1772651031466876400,3.97187646484375,7.804789066314697,-3.837489366531372,0.40797626972198486
1772651031476754000,3.98175390625,8.989236831665039,-3.6819558143615723,0.4875376224517822
1772651031486631200,3.991631103515625,10.110872268676758,-3.4917263984680176,0.4893322288990021
1772651031496494800,4.001494873046875,11.084152221679688,-3.297907829284668,0.43549370765686035
1772651031506386000,4.011385986328125,11.726625442504883,-3.1818559169769287,0.36311084032058716
1772651031516263200,4.02126318359375,12.0604248046875,-3.080759048461914,0.3200400173664093
1772651031526126800,4.031126953125,12.06221866607666,-2.9521448612213135,0.29730820655822754
1772651031536018000,4.041017822265625,11.68893814086914,-2.8588249683380127,0.19800607860088348
1772651031545895200,4.050895263671875,10.936395645141602,-2.746960401535034,0.20398813486099243
1772651031555772700,4.060772705078125,9.967901229858398,-2.5974090099334717,0.2679961323738098
1772651031565650000,4.07064990234375,8.964710235595703,-2.4885356426239014,0.32303106784820557
1772651031575527200,4.080527099609375,8.295317649841309,-2.2606191635131836,0.49292147159576416
1772651031585390800,4.090390869140625,7.864609718322754,-2.03629207611084,0.6873382925987244
1772651031595282000,4.100281982421875,7.496713161468506,-1.8502501249313354,0.8225327730178833
1772651031605159400,4.110159423828125,7.274180889129639,-1.7886348962783813,0.8368897438049316
1772651031615036700,4.12003662109375,7.441678524017334,-1.8550357818603516,0.8177471160888672
1772651031624914000,4.129913818359375,7.51585578918457,-1.934597134590149,0.6777670383453369
1772651031634791400,4.13979150390625,7.381857872009277,-2.0063817501068115,0.5006981492042542
1772651031644668700,4.149668701171875,7.09292459487915,-2.053640127182007,0.4163511395454407
1772651031654546000,4.1595458984375,6.799205780029297,-2.104487419128418,0.4342973232269287
1772651031664423400,4.16942333984375,6.558128833770752,-2.1164517402648926,0.5617151260375977
1772651031674300700,4.17930078125,6.474380016326904,-2.0506489276885986,0.7214360237121582
1772651031684178200,4.18917822265625,6.567699909210205,-1.8807586431503296,0.9571290612220764
1772651031694055400,4.199055419921875,6.824928283691406,-1.6558332443237305,1.2137593030929565
1772651031703932700,4.2089326171875,7.056434154510498,-1.4997016191482544,1.4757733345031738
1772651031713810200,4.21881005859375,7.235297679901123,-1.399801254272461,1.6791633367538452
1772651031723687400,4.2286875,7.323832035064697,-1.3334003686904907,1.7808582782745361
1772651031733564700,4.238564697265625,7.311867713928223,-1.2323036193847656,1.9202401638031006
1772651031743442200,4.248442138671875,7.445267677307129,-1.1479566097259521,1.9710876941680908
1772651031753319400,4.2583193359375,7.6839518547058105,-1.114457130432129,1.9010975360870361
1772651031763197000,4.268197021484375,7.977670669555664,-1.1694921255111694,1.700698733329773
1772651031773074200,4.27807421875,8.22413158416748,-1.3674981594085693,1.3794622421264648
1772651031782951400,4.287951416015625,8.345566749572754,-1.576271891593933,0.9762716293334961
1772651031792829000,4.297828857421875,8.455636978149414,-1.7180466651916504,0.5389832854270935
1772651031802706200,4.3077060546875,8.651249885559082,-1.7928223609924316,0.11964113265275955
1772651031812583400,4.31758349609375,8.83669376373291,-1.8556339740753174,-0.2997010350227356
1772651031822447000,4.327447021484375,9.063413619995117,-1.8807586431503296,-0.7603194117546082
1772651031832338200,4.337338134765625,9.260223388671875,-1.8598214387893677,-1.1856436729431152
1772651031842215700,4.347215576171875,9.309874534606934,-1.810768485069275,-1.5625132322311401
1772651031852079000,4.3570791015625,9.061020851135254,-1.8293129205703735,-1.8999011516571045
1772651031861970200,4.36697021484375,8.841479301452637,-1.9806588888168335,-2.214557409286499
1772651031871847700,4.37684765625,9.025727272033691,-2.241476535797119,-2.3676979541778564
1772651031881725000,4.386724853515625,8.86660385131836,-2.4496521949768066,-2.369492530822754
1772651031891602200,4.396602294921875,8.46161937713623,-2.624328136444092,-2.2636101245880127
1772651031901479700,4.406479736328125,8.143373489379883,-2.7667012214660645,-1.781456470489502
1772651031911357000,4.41635693359375,8.161917686462402,-2.9240293502807617,-1.0157532691955566
1772651031921234400,4.426234375,8.727222442626953,-3.0939197540283203,-0.30568310618400574
1772651031931111700,4.436111572265625,10.050453186035156,-3.43190598487854,0.27397820353507996
1772651031940975000,4.44597509765625,11.276176452636719,-3.9248273372650146,0.638883650302887
1772651031950866400,4.455866455078125,11.59681510925293,-4.593621253967285,0.6544370055198669
1772651031960743700,4.46574365234375,11.432308197021484,-5.336592674255371,0.6622136831283569
1772651031970607400,4.475607421875,11.158329963684082,-5.989234924316406,0.8249256014823914
1772651031980498400,4.48549853515625,11.218151092529297,-6.468996047973633,1.277767300605774
1772651031990375700,4.495375732421875,12.075977325439453,-6.821937561035156,1.9878374338150024
1772651032000239400,4.5052392578125,13.561322212219238,-6.9481587409973145,2.944368362426758
1772651032010130400,4.51513037109375,15.154942512512207,-6.6418776512146,3.9332022666931152
1772651032020007700,4.525007568359375,15.965511322021484,-6.004788398742676,4.443471431732178
1772651032029871400,4.534871337890625,16.44527244567871,-4.995017051696777,4.061816215515137
1772651032039762400,4.544762451171875,17.565113067626953,-5.594419479370117,5.0356950759887695
1772651032049639700,4.5546396484375,15.816557884216309,-5.865406513214111,3.0077781677246094
1772651032059503400,4.56450341796875,14.669797897338867,-6.257829189300537,0.5383850932121277
1772651032069394400,4.57439453125,13.634303092956543,-6.640681266784668,-0.19740787148475647
1772651032079271700,4.584271728515625,12.5413818359375,-6.367899417877197,-0.4007977843284607
1772651032089135400,4.59413525390625,11.423335075378418,-5.700900077819824,-0.33439695835113525
1772651032099026400,4.6040263671875,10.247262954711914,-4.755136966705322,0.2793620526790619
1772651032108903700,4.613903564453125,9.391230583190918,-3.7328033447265625,1.046859860420227
1772651032118767400,4.623767333984375,8.854042053222656,-2.884547710418701,1.6504493951797485
1772651032128658400,4.633658447265625,8.50588607788086,-2.3407788276672363,2.0650060176849365
1772651032138536000,4.643535888671875,8.35453987121582,-2.084746837615967,2.1894326210021973
1772651032148399400,4.6533994140625,8.394619941711426,-1.9902302026748657,2.090728759765625
1772651032158290400,4.66329052734375,8.583054542541504,-1.9525432586669922,1.9178473949432373
1772651032168168000,4.67316796875,8.804988861083984,-2.042274236679077,1.7012969255447388
1772651032178045200,4.683045166015625,8.906085968017578,-2.2205393314361572,1.4859428405761719
1772651032187922400,4.69292236328125,8.975478172302246,-2.386242389678955,1.3202399015426636
1772651032197800000,4.702800048828125,9.135796546936035,-2.410170555114746,1.2580264806747437
1772651032207677200,4.71267724609375,9.19980525970459,-2.317448616027832,1.171286702156067
1772651032217554400,4.722554443359375,9.115457534790039,-2.173281192779541,1.0630114078521729
1772651032227432000,4.732431884765625,8.963513374328613,-1.984248161315918,0.9732806086540222
1772651032237309200,4.74230908203125,8.673383712768555,-1.7377874851226807,0.9002995491027832
1772651032247186400,4.7521865234375,8.268997192382812,-1.537388563156128,0.8309076428413391
1772651032257064000,4.76206396484375,7.809575080871582,-1.3920245170593262,0.7501499056816101
1772651032266941200,4.771941162109375,7.421937465667725,-1.2239288091659546,0.7262216806411743
1772651032276818700,4.781818603515625,7.139584541320801,-1.0067801475524902,0.8273184299468994
1772651032286696000,4.791696044921875,6.979265213012695,-0.9122636318206787,0.8171489238739014
1772651032296573200,4.8015732421875,7.014559745788574,-0.8087740540504456,0.8991031050682068
1772651032306450700,4.81145068359375,7.168896675109863,-0.6502495408058167,0.99481600522995
1772651032316328000,4.821327880859375,7.438687324523926,-0.4983053207397461,1.0211371183395386
1772651032326205200,4.831205078125,7.839485168457031,-0.5048855543136597,0.9194421172142029
1772651032336082700,4.841082763671875,8.169694900512695,-0.6167500615119934,0.833898663520813
1772651032345960000,4.8509599609375,8.387441635131836,-0.7651050686836243,0.6747759580612183
1772651032355837200,4.860837158203125,8.495118141174316,-0.8470591902732849,0.5748756527900696
1772651032365714700,4.870714599609375,8.606983184814453,-0.885344386100769,0.537188708782196
1772651032375592000,4.880592041015625,8.645866394042969,-0.9487541913986206,0.5659025311470032
1772651032385469400,4.890469482421875,8.703293800354004,-1.007378339767456,0.6376872062683105
1772651032395346700,4.9003466796875,9.040681838989258,-1.043868899345398,0.7034898400306702
1772651032405224000,4.910223876953125,9.482157707214355,-1.0193424224853516,0.8542376756668091
1772651032415101400,4.920101318359375,9.876974105834961,-0.9834501147270203,0.97148597240448
1772651032424978700,4.929978759765625,10.206584930419922,-1.0492527484893799,0.9541380405426025
1772651032434856000,4.93985595703125,10.444072723388672,-1.2640085220336914,0.8506484627723694
1772651032444733400,4.9497333984375,10.604990005493164,-1.618146300315857,0.7034898400306702
1772651032454610700,4.959610595703125,10.779067993164062,-2.0207388401031494,0.6616154313087463
1772651032464488200,4.96948828125,10.945368766784668,-2.3401806354522705,0.8219345808029175
1772651032474365400,4.979365478515625,11.047063827514648,-2.678166627883911,1.1371889114379883
1772651032484242700,4.98924267578125,10.89272689819336,-3.2470602989196777,1.6109678745269775
1772651032494120200,4.9991201171875,10.808380126953125,-3.8841493129730225,2.410768747329712
1772651032503983600,5.008983642578125,11.380264282226562,-4.037888050079346,3.8183467388153076
1772651032513874700,5.018874755859375,12.488141059875488,-3.9326040744781494,5.42153787612915
1772651032523752200,5.028752197265625,13.267602920532227,-3.9930226802825928,6.072385787963867
1772651032533615600,5.03861572265625,13.75214958190918,-4.143172264099121,5.109274387359619
1772651032543506700,5.048506591796875,14.498112678527832,-4.527220249176025,3.5952160358428955
1772651032553384200,5.05838427734375,15.093925476074219,-4.798207759857178,1.9178473949432373
1772651032563247600,5.06824755859375,14.927623748779297,-5.30847692489624,-0.10588239878416061
1772651032573138700,5.078138671875,13.87657642364502,-5.9300127029418945,-1.8496519327163696
1772651032583016200,5.08801611328125,12.09033489227295,-6.293123722076416,-2.7020950317382812
1772651032592879600,5.097879638671875,10.17428207397461,-6.071787357330322,-2.218146562576294
1772651032602771000,5.10777099609375,8.479565620422363,-5.288736343383789,-1.0139585733413696
1772651032612648200,5.117648193359375,6.772286415100098,-4.3417768478393555,0.23330020904541016
1772651032622511600,5.12751171875,5.340181827545166,-3.5054850578308105,1.2191431522369385
1772651032632403000,5.13740283203125,4.471587181091309,-2.982055187225342,1.9154545068740845
1772651032642280200,5.1472802734375,4.063611030578613,-2.894717216491699,2.1996021270751953
1772651032652143900,5.157143798828125,4.061816215515137,-3.081955671310425,2.1104695796966553
1772651032662035000,5.167034912109375,4.7575297355651855,-3.421138286590576,1.7922241687774658
1772651032671912200,5.176912109375,5.874379634857178,-3.9182469844818115,1.4883357286453247
1772651032681775900,5.18677587890625,7.223333358764648,-4.381856441497803,1.3310075998306274
1772651032691667000,5.1966669921875,8.83669376373291,-4.744967460632324,1.1473584175109863
1772651032701544200,5.206544189453125,10.573883056640625,-5.00997257232666,0.9768698215484619
1772651032711407900,5.216407958984375,12.03649616241455,-5.222933769226074,0.7992027401924133
1772651032721299000,5.226298828125,12.9894380569458,-5.276174068450928,0.5557330846786499
1772651032731176200,5.23617626953125,13.384851455688477,-5.069194793701172,0.41156548261642456
1772651032741039900,5.246039794921875,13.051053047180176,-4.646861553192139,0.5330012440681458
1772651032750931000,5.255930908203125,12.239886283874512,-4.1629133224487305,0.7998009920120239
1772651032760808200,5.26580810546875,11.149356842041016,-3.666402578353882,1.0923235416412354
1772651032770671900,5.275671875,10.098908424377441,-3.187838077545166,1.4051851034164429
1772651032780563000,5.28556298828125,9.22851848602295,-2.736790895462036,1.7641085386276245
1772651032790440200,5.295440185546875,8.632705688476562,-2.349153518676758,2.0650060176849365
1772651032800303900,5.305303955078125,8.182855606079102,-2.053041934967041,2.306680917739868
1772651032810195000,5.31519482421875,7.792226791381836,-1.8340985774993896,2.3916261196136475
1772651032820072400,5.325072509765625,7.472187042236328,-1.7222341299057007,2.2989044189453125
1772651032829935900,5.334935791015625,7.266404151916504,-1.7748762369155884,2.0709879398345947
1772651032839827000,5.344826904296875,7.302894592285156,-1.9776679277420044,1.7802600860595703
1772651032849704400,5.354704345703125,7.472784996032715,-2.2325034141540527,1.5224334001541138
1772651032859581700,5.364581787109375,7.659425258636475,-2.4263222217559814,1.3615161180496216
1772651032869459000,5.374458984375,7.853243827819824,-2.466402053833008,1.3537393808364868
1772651032879336400,5.38433642578125,8.065607070922852,-2.3670997619628906,1.423729419708252
1772651032889213700,5.394213623046875,8.177471160888672,-2.2654049396514893,1.5176477432250977
1772651032899091000,5.404091064453125,8.172685623168945,-2.1984057426452637,1.5840486288070679
1772651032908968400,5.413968505859375,8.01775074005127,-2.200200319290161,1.7132610082626343
1772651032918845700,5.423845703125,7.824530124664307,-2.2857437133789062,1.8029918670654297
1772651032928723000,5.433722900390625,7.624729156494141,-2.389233350753784,1.8239290714263916
1772651032938600400,5.443600341796875,7.4811601638793945,-2.459223508834839,1.755733609199524
1772651032948477700,5.453477783203125,7.423732280731201,-2.4849462509155273,1.5655041933059692
1772651032958355200,5.463355224609375,7.46919584274292,-2.551945447921753,1.2921242713928223
1772651032968232400,5.473232421875,7.600203037261963,-2.6159534454345703,1.0133603811264038
1772651032978109700,5.483109619140625,7.6498541831970215,-2.6709883213043213,0.768694281578064
1772651032987987200,5.4929873046875,7.645068168640137,-2.7152554988861084,0.5904290080070496
1772651032997864400,5.502864501953125,7.70967435836792,-2.789433002471924,0.5790630578994751
1772651033007741700,5.51274169921875,7.8658061027526855,-2.9066812992095947,0.6771687865257263
1772651033017619200,5.522619140625,8.205587387084961,-2.9898319244384766,0.865005373954773
1772651033027496400,5.532496337890625,8.669196128845215,-2.9353952407836914,1.1150553226470947
1772651033037374000,5.5423740234375,9.177671432495117,-2.7553353309631348,1.3423734903335571
1772651033047251200,5.552251220703125,9.611370086669922,-2.4819552898406982,1.5547364950180054
1772651033057128400,5.56212841796875,9.942177772521973,-2.1403799057006836,1.7437695264816284
1772651033067006000,5.572005859375,10.292726516723633,-1.8508483171463013,1.934597134590149
1772651033076883200,5.58188330078125,10.51645565032959,-1.633699655532837,2.097907304763794
1772651033086760400,5.591760498046875,10.49970531463623,-1.4871392250061035,2.2019951343536377
1772651033096638000,5.601637939453125,10.296316146850586,-1.414756417274475,2.1876380443573
1772651033106515200,5.61151513671875,10.154541015625,-1.3076776266098022,2.1535403728485107
1772651033116392700,5.621392822265625,10.115657806396484,-1.1670992374420166,2.142772674560547
1772651033126270000,5.63127001953125,10.13180923461914,-1.0534402132034302,2.108076810836792
1772651033136147200,5.641147216796875,10.205986976623535,-0.9978070259094238,2.128415822982788
1772651033146024700,5.651024658203125,10.261021614074707,-1.0683952569961548,2.1984057426452637
1772651033155902000,5.66090185546875,10.169496536254883,-1.3621143102645874,2.2091734409332275
1772651033165779200,5.670779296875,10.034899711608887,-1.7880367040634155,2.079961061477661
1772651033175656700,5.68065673828125,10.191629409790039,-2.2133610248565674,1.9716858863830566
1772651033185534000,5.690533935546875,10.664810180664062,-2.390429735183716,1.950150489807129
1772651033195411500,5.700411376953125,11.185847282409668,-2.3736801147460938,1.9866410493850708
1772651033205288700,5.710288818359375,11.596217155456543,-2.341975212097168,1.9441684484481812
1772651033215166000,5.720166015625,11.914462089538574,-2.3772692680358887,1.866999864578247
1772651033225043500,5.73004345703125,12.263813972473145,-2.6596224308013916,1.6522440910339355
1772651033234920700,5.739920654296875,12.400803565979004,-3.0209386348724365,1.4572290182113647
1772651033244798000,5.7497978515625,11.897712707519531,-3.3134610652923584,1.2335001230239868
1772651033254675500,5.759675537109375,11.000404357910156,-3.5605201721191406,0.9744769930839539
1772651033264552700,5.769552734375,10.02413272857666,-3.6711881160736084,0.9744769930839539
1772651033274416400,5.77941650390625,9.257232666015625,-3.545564889907837,1.186241865158081
1772651033284307500,5.789307373046875,8.62612533569336,-3.2207393646240234,1.5397813320159912
1772651033294184700,5.799184814453125,8.067401885986328,-3.1728827953338623,1.7515461444854736
1772651033304048400,5.80904833984375,7.688138961791992,-3.2279176712036133,1.872383713722229
1772651033313939500,5.818939453125,7.514061450958252,-3.2368907928466797,2.0374884605407715
1772651033323817000,5.82881689453125,7.533204078674316,-3.218346357345581,2.2307088375091553
1772651033333694200,5.838694091796875,7.63609504699707,-3.208775281906128,2.434697151184082
1772651033343571500,5.848571533203125,7.7222371101379395,-3.218944549560547,2.572882652282715
1772651033353449000,5.858448974609375,7.741977691650391,-3.321237802505493,2.5974090099334717
1772651033363326200,5.868326171875,7.666005611419678,-3.4576287269592285,2.5489542484283447
1772651033373203700,5.87820361328125,7.543971538543701,-3.5162527561187744,2.4430718421936035
1772651033383081000,5.8880810546875,7.488936901092529,-3.518047571182251,2.316850423812866
1772651033392958200,5.897958251953125,7.539186000823975,-3.5479576587677,2.1409780979156494
1772651033402835700,5.907835693359375,7.734799385070801,-3.6227335929870605,1.9453648328781128
1772651033412713000,5.917712890625,8.064410209655762,-3.7118661403656006,1.7665013074874878
1772651033422590200,5.927590087890625,8.420342445373535,-3.8315072059631348,1.5708880424499512
1772651033432467700,5.9374677734375,8.757730484008789,-3.960719585418701,1.3920245170593262
1772651033442345000,5.947344970703125,9.025128364562988,-4.0803608894348145,1.2329018115997314
1772651033452222500,5.957222412109375,9.1716890335083,-4.137190341949463,1.2089736461639404
1772651033462099700,5.967099609375,9.142974853515625,-4.05703067779541,1.3680963516235352
1772651033471977000,5.97697705078125,8.938986778259277,-3.747758388519287,1.7012969255447388
1772651033481854500,5.9868544921875,8.634500503540039,-3.2865419387817383,2.1056840419769287
1772651033491731700,5.996731689453125,8.398807525634766,-2.7349963188171387,2.534597396850586
1772651033501609200,6.006609130859375,8.108677864074707,-2.228914260864258,2.94975209236145
1772651033511486500,6.016486572265625,7.775477409362793,-1.948355793952942,3.198007345199585
1772651033521363700,6.02636376953125,7.471588611602783,-1.7533408403396606,3.266801118850708
1772651033531241200,6.0362412109375,7.167700290679932,-1.674377679824829,3.1998021602630615
1772651033541118500,6.046118408203125,6.9720869064331055,-1.714457392692566,3.091526746749878
1772651033550996000,6.055995849609375,6.902695178985596,-1.7778671979904175,2.9186453819274902
1772651033560873200,6.065873291015625,6.898507595062256,-1.843071699142456,2.8289146423339844
1772651033570750500,6.07575048828125,6.9960150718688965,-1.856830358505249,2.830709218978882
1772651033580628000,6.0856279296875,7.10847806930542,-1.85383939743042,2.864208698272705
1772651033590505200,6.095505126953125,7.141977310180664,-1.8705891370773315,2.8737800121307373
1772651033600382700,6.1053828125,7.187440872192383,-1.9519450664520264,2.80977201461792
1772651033610260000,6.115260009765625,7.2951178550720215,-2.0267207622528076,2.705684185028076
1772651033620137200,6.12513720703125,7.622336387634277,-2.152942180633545,2.569293260574341
1772651033630014700,6.1350146484375,8.100900650024414,-2.316850423812866,2.4263222217559814
1772651033639892000,6.14489208984375,8.612366676330566,-2.4813570976257324,2.268994092941284
1772651033649769500,6.15476953125,9.09990406036377,-2.641077995300293,2.073380708694458
1772651033659633000,6.1646328125,9.56052303314209,-2.7248268127441406,1.8795621395111084
1772651033669524000,6.17452392578125,9.993025779724121,-2.775076150894165,1.6612170934677124
1772651033679401500,6.1844013671875,10.332208633422852,-2.8181469440460205,1.4913266897201538
1772651033689278700,6.19427880859375,10.494321823120117,-2.867199659347534,1.3411771059036255
1772651033699156200,6.20415625,10.479965209960938,-2.8725836277008057,1.2747762203216553
1772651033709033500,6.214033447265625,10.329814910888672,-2.874378204345703,1.339382529258728
1772651033718910700,6.22391064453125,10.102497100830078,-2.8241288661956787,1.5014961957931519
1772651033728788200,6.233788330078125,9.753743171691895,-2.7038896083831787,1.7545372247695923
1772651033738665500,6.24366552734375,9.402596473693848,-2.5088746547698975,2.025524377822876
1772651033748543000,6.25354296875,9.254241943359375,-2.2947168350219727,2.321636199951172
1772651033758420200,6.263420166015625,9.370891571044922,-2.1535403728485107,2.5842485427856445
1772651033768297700,6.273297607421875,9.622138023376465,-2.1852452754974365,2.6907291412353516
1772651033778175000,6.283175048828125,9.89970588684082,-2.403590440750122,2.65423846244812
1772651033788052200,6.29305224609375,10.130014419555664,-2.688336133956909,2.4819552898406982
1772651033797929700,6.3029296875,10.259825706481934,-3.0281169414520264,2.2755744457244873
1772651033807807000,6.312806884765625,10.201201438903809,-3.366701364517212,2.121835470199585
1772651033817684500,6.3226845703125,9.999606132507324,-3.6885361671447754,2.2121646404266357
1772651033827561700,6.332561767578125,9.707681655883789,-3.965505361557007,2.528017044067383
1772651033837425400,6.34242529296875,9.185447692871094,-4.481756687164307,2.894717216491699
1772651033847316500,6.35231640625,8.274978637695312,-5.450850009918213,3.243471145629883
1772651033857193700,6.36219384765625,7.496115207672119,-6.481558322906494,3.2237303256988525
1772651033867057400,6.372057373046875,7.974679470062256,-6.888338088989258,2.909672260284424
1772651033876948500,6.381948486328125,10.02293586730957,-6.64486837387085,2.885145902633667
1772651033886826000,6.391825927734375,12.525230407714844,-6.321238994598389,3.029911756515503
1772651033896689400,6.401689453125,14.778671264648438,-6.209374904632568,2.6602206230163574
1772651033906580500,6.41158056640625,16.29631805419922,-6.175277233123779,1.82273268699646
1772651033916458000,6.4214580078125,16.374683380126953,-6.543771743774414,0.6969096064567566
1772651033926321400,6.4313212890625,15.699309349060059,-6.964908599853516,-0.24466611444950104
1772651033936212700,6.441212646484375,13.814363479614258,-7.181458950042725,-0.8955138921737671
1772651033946090000,6.451090087890625,11.750554084777832,-6.8004021644592285,-1.2251251935958862
1772651033955953700,6.46095361328125,10.145567893981934,-6.107081413269043,-1.150349497795105
1772651033965844700,6.4708447265625,8.931808471679688,-5.395216941833496,-0.7812566161155701
1772651033975722000,6.480721923828125,8.034500122070312,-4.731208801269531,-0.4007977843284607
1772651033985585700,6.490585693359375,7.406982421875,-4.144368648529053,-0.09451649338006973
1772651033995476700,6.500476806640625,6.923034191131592,-3.6813576221466064,0.1663011759519577
1772651034005354000,6.51035400390625,6.5252275466918945,-3.346362352371216,0.39840495586395264
1772651034015217700,6.5202177734375,6.283552169799805,-3.1028928756713867,0.5635097622871399
1772651034025108700,6.530108642578125,6.165705680847168,-2.915654420852661,0.6574280261993408
1772651034034986200,6.539986328125,6.153143405914307,-2.748156785964966,0.7316055297851562
1772651034044863500,6.549863525390625,6.405586242675781,-2.599203586578369,0.786640465259552
1772651034054741000,6.559740966796875,6.990631580352783,-2.5597219467163086,0.6628118753433228
1772651034064618200,6.5696181640625,7.740781307220459,-2.6255247592926025,0.4654040038585663
1772651034074482000,6.57948193359375,8.509475708007812,-2.6871397495269775,0.21236300468444824
1772651034084373000,6.589373046875,9.161520004272461,-2.7870402336120605,-0.048454657196998596
1772651034094250200,6.599250244140625,9.565308570861816,-2.871387243270874,-0.30149564146995544
1772651034104127700,6.609127685546875,9.698708534240723,-2.9485557079315186,-0.4468596279621124
1772651034114005000,6.6190048828125,9.696913719177246,-2.991626501083374,-0.4630111753940582
1772651034123882500,6.628882568359375,9.524630546569824,-2.9730820655822754,-0.41515472531318665
1772651034133759700,6.638759765625,9.159127235412598,-2.825923442840576,-0.32183465361595154
1772651034143637200,6.64863720703125,8.780462265014648,-2.5848467350006104,-0.16869398951530457
1772651034153514500,6.658514404296875,8.419744491577148,-2.410170555114746,-0.01136590726673603
1772651034163392000,6.66839208984375,8.073383331298828,-2.2815563678741455,0.1459621787071228
1772651034173269200,6.678269287109375,7.8454670906066895,-2.1619153022766113,0.2715853750705719
1772651034183146500,6.688146484375,7.63310432434082,-2.063809633255005,0.39541393518447876
1772651034193024000,6.69802392578125,7.408178806304932,-1.9992033243179321,0.48873403668403625
1772651034202901200,6.7079013671875,7.2867431640625,-2.001596212387085,0.5557330846786499
1772651034212778800,6.71777880859375,7.260422229766846,-2.0757737159729004,0.5712863802909851
1772651034222656000,6.727656005859375,7.270591735839844,-2.166700839996338,0.5222335457801819
1772651034232533500,6.737533447265625,7.378268718719482,-2.26959228515625,0.40797626972198486
1772651034242410800,6.74741064453125,7.581658363342285,-2.403590440750122,0.29431718587875366
1772651034252288300,6.757288330078125,7.911269664764404,-2.5154547691345215,0.21296121180057526
1772651034262165500,6.76716552734375,8.320442199707031,-2.6141586303710938,0.19561325013637543
1772651034272043000,6.77704296875,8.633902549743652,-2.674577474594116,0.24047867953777313
1772651034281920300,6.786920166015625,8.824729919433594,-2.6967110633850098,0.34695929288864136
1772651034291797500,6.796797607421875,8.997013092041016,-2.651845693588257,0.4630111753940582
1772651034301675000,6.806675048828125,9.123832702636719,-2.6291139125823975,0.5862415432929993
1772651034311552300,6.81655224609375,9.17886734008789,-2.637488842010498,0.6430711150169373
1772651034321429800,6.8264296875,9.1716890335083,-2.678166627883911,0.615553617477417
1772651034331307000,6.83630712890625,9.1986083984375,-2.785843849182129,0.5832505226135254
1772651034341184500,6.8461845703125,9.272786140441895,-2.848057270050049,0.5569294691085815
1772651034351061800,6.856061767578125,9.32303524017334,-2.871387243270874,0.6143572330474854
1772651034360939300,6.865939208984375,9.327820777893066,-2.8462624549865723,0.6999006271362305
1772651034370816500,6.87581640625,9.363115310668945,-2.7116663455963135,0.8243274092674255
1772651034380694000,6.885694091796875,9.400801658630371,-2.521436929702759,1.0253244638442993
1772651034390571300,6.8955712890625,9.398408889770508,-2.335394859313965,1.2305090427398682
1772651034400448800,6.90544873046875,9.33559799194336,-2.152343988418579,1.4434702396392822
1772651034410326000,6.915325927734375,9.227920532226562,-2.0440688133239746,1.6163517236709595
1772651034420203300,6.925203369140625,9.132805824279785,-1.9716858863830566,1.7593228816986084
1772651034430080800,6.935080810546875,9.132805824279785,-1.898106575012207,1.903490424156189
1772651034439958000,6.9449580078125,9.282955169677734,-1.8317056894302368,2.0955145359039307
1772651034449835500,6.95483544921875,9.545567512512207,-1.7473586797714233,2.3198416233062744
1772651034459712800,6.964712646484375,9.915857315063477,-1.7132610082626343,2.5088746547698975
1772651034469590300,6.97459033203125,10.296316146850586,-1.7491533756256104,2.600399971008301
1772651034479467500,6.984467529296875,10.679167747497559,-1.9262222051620483,2.6392834186553955
1772651034489345000,6.994344970703125,11.085947036743164,-2.152942180633545,2.482553482055664
1772651034499222300,7.00422216796875,11.33539867401123,-2.4424736499786377,2.2683959007263184
1772651034509099800,7.014099853515625,11.45563793182373,-2.6973092555999756,2.30069899559021
1772651034518977000,7.02397705078125,11.243873596191406,-2.8977081775665283,2.558525562286377
1772651034528854500,7.0338544921875,10.741978645324707,-3.06999135017395,3.0203404426574707
1772651034538731800,7.043731689453125,10.265807151794434,-3.28773832321167,3.404986619949341
1772651034548609300,7.053609375,9.926026344299316,-3.624528169631958,3.6741790771484375
1772651034558486500,7.063486572265625,10.216156005859375,-3.765106439590454,3.8608193397521973
1772651034568364000,7.073364013671875,11.018349647521973,-3.7800614833831787,3.7220356464385986
1772651034578227500,7.0832275390625,12.001800537109375,-3.7974095344543457,3.2727832794189453
1772651034588118500,7.093118408203125,13.077972412109375,-3.8333017826080322,2.5902304649353027
1772651034597996000,7.10299609375,14.020146369934082,-3.924229145050049,1.6654045581817627
1772651034607859700,7.112859619140625,14.229517936706543,-4.100101470947266,0.6107679605484009
1772651034617750800,7.122750732421875,13.849059104919434,-4.367499351501465,-0.2356930375099182
1772651034627628300,7.132628173828125,12.9894380569458,-4.649852752685547,-0.8207381963729858
1772651034637491700,7.14249169921875,11.523834228515625,-4.983053207397461,-1.1736794710159302
1772651034647383000,7.152383056640625,9.707083702087402,-5.236692428588867,-1.2741780281066895
1772651034657260300,7.16226025390625,7.93998384475708,-5.267798900604248,-1.1174482107162476
1772651034667124000,7.1721240234375,6.522834300994873,-4.967499732971191,-0.8147560954093933
1772651034677015000,7.18201513671875,5.613562107086182,-4.454239368438721,-0.3517449200153351
1772651034686892300,7.191892333984375,5.2384867668151855,-4.053441524505615,0.2554338276386261
1772651034696756000,7.201755859375,5.257031440734863,-3.7782669067382812,0.9128618240356445
1772651034706647000,7.21164697265625,5.424529075622559,-3.5880374908447266,1.5176477432250977
1772651034716524500,7.221524658203125,5.577669620513916,-3.4229328632354736,2.0584256649017334
1772651034726388200,7.23138818359375,5.885745525360107,-3.226123094558716,2.548356056213379
1772651034736279300,7.241279296875,6.413960933685303,-3.046661376953125,2.8666014671325684
1772651034746156500,7.251156494140625,6.975078105926514,-3.039483070373535,2.9048867225646973
1772651034756034000,7.261033935546875,7.619943618774414,-3.11246395111084,2.7559335231781006
1772651034765911300,7.270911376953125,8.324031829833984,-3.1579277515411377,2.489133834838867
1772651034775788800,7.280788818359375,8.987442016601562,-3.2279176712036133,2.1469600200653076
1772651034785652500,7.290652587890625,9.649057388305664,-3.2715866565704346,1.765903115272522
1772651034795543600,7.30054345703125,10.159924507141113,-3.260220766067505,1.5655041933059692
1772651034805420800,7.3104208984375,10.123434066772461,-3.198007345199585,1.5625132322311401
1772651034815298300,7.32029833984375,9.645467758178711,-3.0831520557403564,1.5702898502349854
1772651034825175600,7.330175537109375,9.080761909484863,-2.8839495182037354,1.6354942321777344
1772651034835053000,7.340052978515625,8.726624488830566,-2.600399971008301,1.7407784461975098
1772651034844930300,7.349930419921875,8.59920597076416,-2.3365912437438965,1.9387845993041992
1772651034854807800,7.359807861328125,8.371888160705566,-2.2169501781463623,2.1003000736236572
1772651034864685000,7.36968505859375,8.102097511291504,-2.104487419128418,2.2600209712982178
1772651034874562600,7.3795625,7.877171993255615,-2.012363910675049,2.455035924911499
1772651034884440000,7.389440185546875,7.651050567626953,-1.999801516532898,2.6560330390930176
1772651034894317300,7.3993173828125,7.52004337310791,-2.0416758060455322,2.7834508419036865
1772651034904194600,7.409194580078125,7.565506935119629,-2.0889341831207275,2.848057270050049
1772651034914072000,7.419072021484375,7.682755470275879,-2.0811574459075928,2.840280532836914
1772651034923949300,7.42894921875,7.820940971374512,-2.0572292804718018,2.7942185401916504
1772651034933826800,7.438826904296875,8.01655387878418,-2.0195422172546387,2.7050859928131104
1772651034943704300,7.448704345703125,8.26241683959961,-2.0578274726867676,2.596810817718506
1772651034953581600,7.45858154296875,8.458627700805664,-2.1649062633514404,2.490330219268799
1772651034963459000,7.468458984375,8.616554260253906,-2.3084757328033447,2.4125633239746094
1772651034973336300,7.47833642578125,8.736793518066406,-2.4394826889038086,2.3563320636749268
1772651034983213800,7.4882138671875,8.756534576416016,-2.6249263286590576,2.1984057426452637
1772651034993091000,7.498091064453125,8.653642654418945,-2.758326292037964,1.9615163803100586
1772651035002968600,7.507968505859375,8.536395072937012,-2.8253252506256104,1.7222341299057007
1772651035012845800,7.517845703125,8.481359481811523,-2.8007988929748535,1.576870083808899
1772651035022723300,7.527723388671875,8.487939834594727,-2.6835505962371826,1.597209095954895
1772651035032600600,7.5376005859375,8.47298526763916,-2.486142635345459,1.7832510471343994
1772651035042478000,7.54747802734375,8.429914474487305,-2.324627161026001,1.9722840785980225
1772651035052355300,7.557355224609375,8.455636978149414,-2.203789710998535,2.135594129562378
1772651035062232800,7.56723291015625,8.59920597076416,-2.222334146499634,2.1852452754974365
1772651035072110000,7.577110107421875,8.94377326965332,-2.273181438446045,2.1990039348602295
1772651035081987600,7.586987548828125,9.305088996887207,-2.3569302558898926,2.2773690223693848
1772651035091864800,7.59686474609375,9.530014038085938,-2.441277265548706,2.3605196475982666
1772651035101742300,7.606742431640625,9.652048110961914,-2.5489542484283447,2.311466693878174
1772651035111619800,7.616619873046875,9.714859962463379,-2.7140591144561768,2.1984057426452637
1772651035121497000,7.6264970703125,9.693324089050293,-2.795415163040161,2.146361827850342
1772651035131374600,7.63637451171875,9.660423278808594,-2.8863422870635986,2.135594129562378
1772651035141251800,7.646251953125,9.594022750854492,-2.9838497638702393,2.1990039348602295
1772651035151129300,7.65612939453125,9.510871887207031,-3.1100711822509766,2.3030917644500732
1772651035161006600,7.666006591796875,9.413962364196777,-3.250051259994507,2.400001049041748
1772651035170884000,7.675884033203125,9.255437850952148,-3.5048868656158447,2.4747767448425293
1772651035180761300,7.68576123046875,8.989236831665039,-3.9349968433380127,2.5226333141326904
1772651035190638800,7.695638916015625,8.660223007202148,-4.488935470581055,2.5872395038604736
1772651035200516000,7.70551611328125,8.441878318786621,-4.925027370452881,2.740380048751831
1772651035210393600,7.7153935546875,8.756534576416016,-5.198407173156738,2.9730820655822754
1772651035220271000,7.72527099609375,9.641280174255371,-5.358726501464844,3.1094729900360107
1772651035230134500,7.735134521484375,10.758728981018066,-5.395814895629883,3.0101709365844727
1772651035240025600,7.745025634765625,11.668600082397461,-5.481358528137207,2.702693223953247
1772651035249903000,7.754903076171875,12.236894607543945,-5.580660820007324,2.2821545600891113
1772651035259766800,7.764766845703125,12.501301765441895,-5.598008632659912,1.8215361833572388
1772651035269657900,7.774657958984375,12.092727661132812,-5.624329566955566,1.482353687286377
1772651035279535400,7.784535400390625,10.966904640197754,-5.605186939239502,1.2005987167358398
1772651035289398800,7.794398681640625,9.516255378723145,-5.50648307800293,1.0719845294952393
1772651035299290000,7.8042900390625,8.314460754394531,-5.329414367675781,1.1623135805130005
1772651035309167400,7.81416748046875,7.616354465484619,-5.151747226715088,1.28255295753479
1772651035319031000,7.824031005859375,7.436892986297607,-5.014159679412842,1.2556337118148804
1772651035328922000,7.833922119140625,7.562515735626221,-4.881956577301025,1.072582721710205
1772651035338799600,7.843799560546875,7.754539966583252,-4.639084815979004,0.9523434042930603
1772651035348677000,7.853677001953125,8.36590576171875,-3.8841493129730225,1.1072787046432495
1772651035358554400,7.863554443359375,7.585247993469238,-3.5150563716888428,1.0492527484893799
1772651035368431900,7.873431884765625,9.180662155151367,-3.4019956588745117,1.277767300605774
1772651035378295300,7.88329541015625,10.060623168945312,-3.434896945953369,1.7324036359786987
1772651035388186600,7.8931865234375,10.153943061828613,-3.352942705154419,1.7766708135604858
1772651035398063900,7.90306396484375,10.265807151794434,-3.4438700675964355,1.4763715267181396
1772651035407941400,7.91294140625,9.81954574584961,-3.7393836975097656,0.893121063709259
1772651035417818600,7.922818603515625,9.08255672454834,-3.759124279022217,0.1621137410402298
1772651035427696000,7.932696044921875,8.270193099975586,-3.8087754249572754,-0.24167509377002716
1772651035437559800,7.942559814453125,7.458428382873535,-3.9732820987701416,-0.4133601188659668
1772651035447451000,7.952450927734375,6.957131862640381,-4.030111312866211,-0.46360939741134644
