time,seconds_elapsed,z,y,x
1772556448906033700,0.09403369140625,-9.242284763157366,-2.3524368404857814,-2.283986112333089
1772556448916017000,0.104016845703125,-9.239317730045318,-2.3599657746858895,-2.2882193659886716
1772556448925999900,0.113999755859375,-9.236804870441555,-2.3696587550520896,-2.2883489837177096
1772556448935982600,0.123982666015625,-9.23368176998496,-2.3843643028832973,-2.285673919289559
1772556448945965800,0.1339658203125,-9.229445739850402,-2.405253507785499,-2.280892676362395
1772556448955948800,0.14394873046875,-9.224292594870924,-2.4321431221462784,-2.273211766470969
1772556448965931800,0.153931884765625,-9.218707488214969,-2.4633453390091655,-2.262244966776669
1772556448975914800,0.163914794921875,-9.213329886829852,-2.4955539564356206,-2.248809731142223
1772556448985897700,0.173897705078125,-9.208934866741298,-2.5252386083424088,-2.2336229756653307
1772556448995881000,0.183880859375,-9.205983615720271,-2.54952812320739,-2.218143813113123
1772556449005864000,0.193864013671875,-9.204871270564198,-2.5665841796874997,-2.203039182961732
1772556449015846000,0.203845947265625,-9.205684925034642,-2.576123576927185,-2.188455361814052
1772556449025828900,0.213828857421875,-9.20807503504157,-2.5790932403877376,-2.1748599671818316
1772556449035811800,0.223811767578125,-9.211374076586962,-2.576894269038737,-2.1634674894213677
1772556449045794800,0.233794921875,-9.215132552337646,-2.5715090688690543,-2.153848158813268
1772556449055777800,0.24377783203125,-9.218689952558279,-2.5654902469709513,-2.145787309693545
1772556449065760800,0.2537607421875,-9.221471692231297,-2.5615026386395097,-2.1385861461430786
1772556449075743700,0.26374365234375,-9.222934165999293,-2.5620737165257332,-2.1315825509913267
1772556449085726700,0.273726806640625,-9.223121797525883,-2.5678517154052853,-2.1238051949881016
1772556449095709700,0.283709716796875,-9.222129279357194,-2.579050278028846,-2.114525617728382
1772556449105693000,0.29369287109375,-9.220136059713363,-2.5954315039873124,-2.1031424923181534
1772556449115675600,0.303675537109375,-9.217084270927309,-2.616832603934407,-2.0899577243134377
1772556449125658600,0.31365869140625,-9.213032949709891,-2.6419085930019617,-2.0762277435161174
1772556449135640800,0.323640869140625,-9.208106599223614,-2.6691706939369437,-2.0631728855013844
1772556449145623800,0.333623779296875,-9.202343797913192,-2.6972785980463025,-2.0523004860922693
1772556449155606800,0.343606689453125,-9.195964910531043,-2.7259470586478707,-2.042993582434207
1772556449165589800,0.35358984375,-9.189396638056635,-2.7562913435071703,-2.031804372160882
1772556449175573000,0.363572998046875,-9.182566499775648,-2.7896324720948935,-2.0171283426851034
1772556449185555700,0.3735556640625,-9.175385063838958,-2.8268349522858855,-1.9979228530861437
1772556449195538400,0.383538330078125,-9.167830702936648,-2.8682483281701803,-1.9734275865159927
1772556449205521700,0.393521728515625,-9.15993965742588,-2.9131717580020426,-1.9440470321223138
1772556449215504600,0.403504638671875,-9.151891375526786,-2.959686256417632,-1.911421212197095
1772556449225487600,0.413487548828125,-9.143949476611613,-3.0046003338992593,-1.8790803466930985
1772556449235470600,0.423470703125,-9.1365143581748,-3.0436873126626014,-1.8521493774086235
1772556449245453600,0.43345361328125,-9.130521839761734,-3.071657561866939,-1.8354498792812226
1772556449255435800,0.443435791015625,-9.127314568153023,-3.081853669449687,-1.83430801576972
1772556449265418500,0.45341845703125,-9.128169139155744,-3.0698151488706467,-1.8501755931176245
1772556449275401500,0.4634013671875,-9.13337956728041,-3.0355501834362744,-1.8807440421216188
1772556449285384700,0.473384765625,-9.14136472081542,-2.9851176347941157,-1.9222160163253545
1772556449295367700,0.48336767578125,-9.14897402677536,-2.930306432676315,-1.9697624881371854
1772556449305350700,0.4933505859375,-9.153094321575761,-2.885308184042573,-2.0164938441738487
1772556449315333600,0.503333740234375,-9.151587424144148,-2.8629399926289913,-2.054851047357917
1772556449325316600,0.513316650390625,-9.14373028090298,-2.8705501753717657,-2.0790673508562145
1772556449335299800,0.5232998046875,-9.130044869899749,-2.9087326065108177,-2.0861301288492977
1772556449345282600,0.533282470703125,-9.111796681025623,-2.9727450599551197,-2.075653012368083
1772556449355265500,0.543265625,-9.090063572645187,-3.0556869625359773,-2.050343214544654
1772556449365248800,0.553248779296875,-9.065656861141324,-3.149679835963249,-2.0158776119716464
1772556449375231700,0.563231689453125,-9.039244655033945,-3.247734552001953,-1.9785487289220094
1772556449385214500,0.57321435546875,-9.011685032457112,-3.343662777405977,-1.9441807415045798
1772556449395197700,0.58319775390625,-8.984258096349238,-3.432176050378382,-1.9166797172471879
1772556449405179600,0.5931796875,-8.95894654496014,-3.5085958577141163,-1.8966854153580963
1772556449415162600,0.60316259765625,-8.937754703849553,-3.569444294169545,-1.8830800838537514
1772556449425145600,0.6131455078125,-8.922303452217578,-3.6123306652158496,-1.8745552704840898
1772556449435128600,0.623128662109375,-8.913753066015243,-3.6355636567652225,-1.8703128106087445
1772556449445111600,0.633111572265625,-8.912450166723131,-3.639106443938613,-1.8696315503463148
1772556449455094500,0.643094482421875,-8.918438593482971,-3.623876141580939,-1.870658555306494
1772556449465077800,0.653077880859375,-8.931054329428076,-3.5924651042729616,-1.8710535459734499
1772556449475060700,0.663060791015625,-8.949144112870096,-3.5484523595452306,-1.868606445082277
1772556449485043500,0.67304345703125,-8.970842734459042,-3.496742630574107,-1.8620308660842477
1772556449495026700,0.683026611328125,-8.993550240829586,-3.4430762145772573,-1.8524748099707067
1772556449505009700,0.693009765625,-9.014932636076212,-3.3932352020874617,-1.8404687303565441
1772556449514992600,0.70299267578125,-9.033146338158845,-3.352498118029535,-1.8257628902643919
1772556449524975600,0.7129755859375,-9.046876757347583,-3.324557679441571,-1.808789251370728
1772556449534958600,0.72295849609375,-9.055720573538542,-3.3098642604395745,-1.7913968025431035
1772556449544941600,0.732941650390625,-9.060598993229865,-3.3054198482513426,-1.774858924718201
1772556449554924800,0.7429248046875,-9.063176150241494,-3.3062460699424148,-1.7601034002654254
1772556449564907500,0.752907470703125,-9.065054219073057,-3.3073706900581716,-1.7482783763065932
1772556449574890500,0.762890380859375,-9.067592213118076,-3.304665522752702,-1.740212851011753
1772556449584872700,0.772872802734375,-9.071667499732971,-3.2954721624717114,-1.7364024989433586
1772556449594855400,0.78285546875,-9.077642482489347,-3.2793308827489613,-1.7357377514243124
1772556449604838700,0.792838623046875,-9.085968412286043,-3.256257465675473,-1.735612809870392
1772556449614821600,0.802821533203125,-9.096732382884621,-3.226904237680137,-1.734050821250677
1772556449624804600,0.8128046875,-9.10928615950942,-3.1934520499333736,-1.7300721268780528
1772556449634787600,0.82278759765625,-9.122480572125315,-3.1590611200317738,-1.7236792109705508
1772556449644770600,0.8327705078125,-9.13504136301279,-3.127061761441827,-1.7154862599037586
1772556449654753800,0.84275390625,-9.146132081347703,-3.0996859709993,-1.7060490078642963
1772556449664736500,0.852736572265625,-9.15527692631185,-3.078179364851117,-1.6959069685563444
1772556449674719500,0.862719482421875,-9.162301710382103,-3.063069181741774,-1.685296581084281
1772556449684702700,0.87270263671875,-9.167574682348967,-3.0534801001414653,-1.673983452170342
1772556449694685700,0.882685791015625,-9.17170959019661,-3.04775500049293,-1.6617219364903866
1772556449704668400,0.89266845703125,-9.175342393741012,-3.043912061329186,-1.6486591874301433
1772556449714651600,0.902651611328125,-9.179151722896098,-3.0400033634528514,-1.6346052353754639
1772556449724634600,0.912634521484375,-9.18300956736803,-3.0361542868092655,-1.6200260904029011
1772556449734617600,0.92261767578125,-9.185947958907484,-3.0339252125829455,-1.6074949640013276
1772556449744600600,0.9326005859375,-9.187015880399942,-3.034767508625984,-1.5997826360583305
1772556449754583600,0.94258349609375,-9.186930540204047,-3.0374159773081537,-1.5952394396707414
1772556449764566800,0.95256689453125,-9.185542300716042,-3.0410064030155537,-1.5963935781419276
1772556449774549800,0.9625498046875,-9.182229230645298,-3.0469156270593403,-1.604168011535704
1772556449784532500,0.972532470703125,-9.177007696604727,-3.056015171577036,-1.6166900778479874
1772556449794515700,0.982515625,-9.170303815051913,-3.067918083077669,-1.6321121033854782
1772556449804498700,0.992498779296875,-9.162611506983637,-3.0822835852995514,-1.6481689196951685
1772556449814480600,1.002480712890625,-9.154389622083306,-3.0988202940806744,-1.662782551459223
1772556449824463600,1.012463623046875,-9.146023944798111,-3.1171962009876966,-1.6744323649816215
1772556449834446600,1.022446533203125,-9.137804982507229,-3.137301708166301,-1.6817362582542001
1772556449844429800,1.032429931640625,-9.12991452151835,-3.1591680875375867,-1.6836553897485136
1772556449854412500,1.04241259765625,-9.12246888168752,-3.1826331342771645,-1.6798199032388625
1772556449864395500,1.0523955078125,-9.115172879460454,-3.2080858477026224,-1.670985585528612
1772556449874378800,1.062378662109375,-9.108344494745134,-3.2340017947256565,-1.6582134899780154
1772556449884361500,1.072361572265625,-9.102612673094868,-3.257389392314851,-1.6438487184084951
1772556449894344400,1.082344482421875,-9.098964087459445,-3.2748218808919187,-1.6293478993691504
1772556449904327700,1.09232763671875,-9.098252139797806,-3.2835365177452562,-1.6157279548175632
1772556449914310700,1.102310546875,-9.1012279407382,-3.281628930558264,-1.602794531225413
1772556449924293600,1.112293701171875,-9.108310592475533,-3.2684201971560713,-1.5894922743208706
1772556449934276600,1.122276611328125,-9.11881795796454,-3.245317553988099,-1.5765340085484087
1772556449944259600,1.132259521484375,-9.131082980775833,-3.2168007768169042,-1.5639385847389697
1772556449954242800,1.142242919921875,-9.143157449451088,-3.188449419340491,-1.5514026360318063
1772556449964225500,1.1522255859375,-9.153045221737028,-3.1655250553488727,-1.5399984678335488
1772556449974208500,1.16220849609375,-9.159049430587887,-3.1524019544035196,-1.5311964449577034
1772556449984191700,1.172191650390625,-9.159238815680146,-3.1530498969182372,-1.5287258170604705
1772556449994174700,1.1821748046875,-9.151858642300963,-3.170831052802503,-1.5361306864894926
1772556450004157400,1.192157470703125,-9.136036803790926,-3.2078762966051695,-1.5533026244342327
1772556450014140700,1.202140625,-9.112709704217314,-3.2630361660301683,-1.5752768480941652
1772556450024123600,1.21212353515625,-9.084113724330066,-3.331999519880116,-1.5959448114611208
1772556450034106600,1.222106689453125,-9.050776687395572,-3.41115167478919,-1.6179823096156118
1772556450044089600,1.232089599609375,-9.01389277163446,-3.4974914031147954,-1.6394143892228603
1772556450054072600,1.242072509765625,-8.976445961293578,-3.5861981528326865,-1.653175641941279
1772556450064055800,1.252055908203125,-8.94109992262423,-3.671732117733359,-1.6569544298276304
1772556450074038500,1.26203857421875,-8.910722320017218,-3.748690269729495,-1.648251191151142
1772556450084021500,1.272021484375,-8.88738820618093,-3.8137612923160193,-1.6247893592819571
1772556450094004700,1.282004638671875,-8.871582149761915,-3.866253111575544,-1.5866627499833703
1772556450103987700,1.29198779296875,-8.862332675379514,-3.9077696555733676,-1.5358328725866972
1772556450113970400,1.301970458984375,-8.857983247998357,-3.940457580949366,-1.4762497798919676
1772556450123953700,1.31195361328125,-8.857284159818292,-3.965446476255357,-1.4121382499873638
1772556450133936600,1.3219365234375,-8.858951216247677,-3.9846436364173887,-1.346099843673408
1772556450143919600,1.331919677734375,-8.861897206571697,-3.9998900131270285,-1.2798584621332585
1772556450153902600,1.341902587890625,-8.865750959390402,-4.011568468222022,-1.2149758747909218
1772556450163885600,1.351885498046875,-8.871339573177695,-4.017945017516613,-1.151450474211201
1772556450173868500,1.36186865234375,-8.879095009610056,-4.017759139555692,-1.0907193074598909
1772556450183852000,1.37185205078125,-8.889515865859389,-4.00948347864151,-1.034858961615339
1772556450193835000,1.3818349609375,-8.902280070364474,-3.9932024981871246,-0.9869775587607175
1772556450203818000,1.39181787109375,-8.9163115183264,-3.970778192672133,-0.950103579871729
1772556450213801000,1.401801025390625,-8.929477289369702,-3.9466745557680722,-0.9265963744908571
1772556450223784000,1.411783935546875,-8.939242896580696,-3.9266792309656737,-0.917339082128182
1772556450233767000,1.421766845703125,-8.943751898437737,-3.9154654707729812,-0.9213099585205315
1772556450243750100,1.431750244140625,-8.942248508137464,-3.915447935116291,-0.935864334378019
1772556450253732900,1.44173291015625,-8.93492737146914,-3.927056832106411,-0.9569114332556724
1772556450263716000,1.451716064453125,-8.922727815109491,-3.94954134337604,-0.9779744603548198
1772556450273698000,1.461697998046875,-8.906400365164876,-3.982237159797549,-0.9940829337865114
1772556450283681000,1.471680908203125,-8.88733092303574,-4.022715885180235,-1.001746819477901
1772556450293664000,1.4816640625,-8.866522528284788,-4.069315723791719,-0.9979152054257691
1772556450303647000,1.49164697265625,-8.844521124356985,-4.120857110458612,-0.9815110369831324
1772556450313630200,1.501630126953125,-8.821537723654508,-4.176465015912056,-0.9528872192408889
1772556450323613000,1.511613037109375,-8.798506392157078,-4.236346360900998,-0.9000204291891306
1772556450333596000,1.521595947265625,-8.780100966894626,-4.294705903150141,-0.7973131381042301
1772556450343579100,1.5315791015625,-8.767081326323748,-4.346091514733433,-0.6481933476734906
1772556450353562000,1.54156201171875,-8.756894863352178,-4.39033573012948,-0.4605720136845484
1772556450363544800,1.551544921875,-8.745672043070197,-4.430201292049884,-0.23857677399404345
1772556450373528000,1.561528076171875,-8.729788245239853,-4.467772605553269,0.013580429958528838
1772556450383511000,1.571510986328125,-8.70631501519382,-4.504117884393036,0.2887739795103669
1772556450393494000,1.581493896484375,-8.673961728599666,-4.538182066558301,0.5811040805997326
1772556450403477000,1.59147705078125,-8.632225112110376,-4.56821976968646,0.886813741613552
1772556450413460000,1.6014599609375,-8.580734578847885,-4.592787516970932,1.2031973203223199
1772556450423443200,1.611443115234375,-8.52124720161259,-4.609329778710007,1.5207916630603373
1772556450433426000,1.621426025390625,-8.46578425758779,-4.6094379152595994,1.8038747374527155
1772556450443409000,1.631408935546875,-8.427451896584033,-4.587225791190565,2.026278448346257
1772556450453392100,1.64139208984375,-8.407569384506344,-4.548242272801697,2.190125925374776
1772556450463376100,1.651376220703125,-8.40118114477396,-4.49954107799679,2.3118561160333453
1772556450473359000,1.661359130859375,-8.403022973248362,-4.446204040084779,2.4064212363906203
1772556450483341800,1.671341796875,-8.409436931943892,-4.393468475197255,2.4797575446277857
1772556450493325000,1.681324951171875,-8.417644788318873,-4.346434921343624,2.5341958217799663
1772556450503308000,1.69130810546875,-8.425072307971119,-4.3095805239379406,2.5721701631262897
1772556450513291000,1.701291015625,-8.42794523305893,-4.286831808774173,2.600616213148832
1772556450523274000,1.71127392578125,-8.422839434352516,-4.278981679795682,2.6299194645226
1772556450533257000,1.721257080078125,-8.408858255273103,-4.28417895617783,2.6659514396294948
1772556450543240200,1.731240234375,-8.386513736996054,-4.300919078576564,2.709034794552624
1772556450553223000,1.741222900390625,-8.357976793819665,-4.327492028203606,2.7545266719222066
1772556450563206000,1.751205810546875,-8.32527396313548,-4.363583332282304,2.7963071275532245
1772556450573189000,1.761189208984375,-8.290774312162398,-4.410285462224484,2.8253903064355255
1772556450583172000,1.771172119140625,-8.25740688008964,-4.468049961189926,2.8323385181382297
1772556450593154800,1.78115478515625,-8.229052892264724,-4.535132908120751,2.808138142861426
1772556450603138000,1.791137939453125,-8.21014886983037,-4.605861225816607,2.747705593730509
1772556450613121000,1.80112109375,-8.203913774833083,-4.671799678887426,2.6533894796982405
1772556450623104000,1.81110400390625,-8.20861917604506,-4.726485793320834,2.5395439048096535
1772556450633087000,1.8210869140625,-8.219756071609257,-4.76809352273345,2.4230729498535393
1772556450643070000,1.831070068359375,-8.233791026702523,-4.797241291284561,2.315500902276486
1772556450653053000,1.841052978515625,-8.246631219053269,-4.817358196640014,2.2263233201764523
1772556450663036200,1.8510361328125,-8.253241577103733,-4.833673079364002,2.165638549850136
1772556450673019000,1.861018798828125,-8.249988128265738,-4.850866206227242,2.139434287405014
1772556450683002000,1.871002197265625,-8.234927337256073,-4.872185473109782,2.148992389345169
1772556450692985000,1.880985107421875,-8.207763435998558,-4.899584352166951,2.1902242711827156
1772556450702967800,1.8909677734375,-8.16926448625624,-4.934355513557791,2.255134404119104
1772556450712951000,1.900950927734375,-8.12068487200439,-4.978561150509119,2.332120028644055
1772556450722934000,1.91093408203125,-8.065774885687231,-5.032973124176263,2.404754472222179
1772556450732917000,1.9209169921875,-8.009275584352016,-5.095654329016805,2.460933017170429
1772556450742900000,1.93089990234375,-7.953450236755609,-5.163004110190272,2.5012784715622662
1772556450752883000,1.940883056640625,-7.898520376694202,-5.231771356946229,2.5322557936280963
1772556450762866000,1.950865966796875,-7.8454007809251545,-5.298309237214923,2.5589026852741834
1772556450772849200,1.96084912109375,-7.7966528243690725,-5.358509146633744,2.5824343675091863
1772556450782831900,1.970831787109375,-7.7547940428048365,-5.409522710034251,2.6020406929939983
1772556450792814800,1.98081494140625,-7.721435963082313,-5.450394818648696,2.615914904567599
1772556450802798000,1.990798095703125,-7.6973893170624965,-5.481296737390756,2.6222087440147996
1772556450812781000,2.000781005859375,-7.681041993373632,-5.503469406232237,2.6237010283991693
1772556450822764000,2.010763916015625,-7.6701266316056245,-5.517366414159536,2.6264462354540825
1772556450832747000,2.0207470703125,-7.663913163918257,-5.522026807186007,2.6347750878602265
1772556450842730000,2.03072998046875,-7.662787959280609,-5.515851917943358,2.650933026456833
1772556450852713200,2.040713134765625,-7.667185901978612,-5.49803744431138,2.675112358945608
1772556450862696000,2.050696044921875,-7.677469395583867,-5.469685794574022,2.7035867582798003
1772556450872679000,2.060678955078125,-7.693997921058535,-5.433156099078059,2.7301272669419645
1772556450882662100,2.070662109375,-7.714598810538649,-5.392752777019143,2.7520111819699404
1772556450892644900,2.080644775390625,-7.734056959724426,-5.354073794534802,2.772840619508922
1772556450902627800,2.0906279296875,-7.748827827876806,-5.320094952565431,2.7969001250103114
1772556450912611000,2.100611083984375,-7.758732551297545,-5.291593080702424,2.8233830582663417
1772556450922594000,2.110593994140625,-7.765491962429881,-5.268595066952705,2.8477047218352554
1772556450932576800,2.12057666015625,-7.771655745756625,-5.250745522007346,2.863811222505569
1772556450942560000,2.13056005859375,-7.7787623628914355,-5.238559994173049,2.8668323238924143
1772556450952544000,2.1405439453125,-7.785617635613679,-5.234167896693944,2.8562258819431063
1772556450962527000,2.15052685546875,-7.790864888617396,-5.237680873250961,2.8354028741449118
1772556450972510200,2.16051025390625,-7.793866993042826,-5.247742248538136,2.8084198824122546
1772556450982493000,2.170492919921875,-7.795144173371791,-5.261108510589599,2.7797216111943124
1772556450992476000,2.180475830078125,-7.796162995025515,-5.2742766197204585,2.7517700666904448
1772556451002459100,2.190459228515625,-7.798516864675283,-5.285079168763756,2.7242358708158134
1772556451012442000,2.200442138671875,-7.80227183329463,-5.293414450910687,2.697164908538759
1772556451022424800,2.2104248046875,-7.806155396729707,-5.3000061042606825,2.6728756859347222
1772556451032408000,2.220407958984375,-7.808640199282765,-5.305414685305952,2.6548241886764763
1772556451042391000,2.23039111328125,-7.809304800671338,-5.30927954404056,2.6451258014827963
1772556451052373800,2.240373779296875,-7.8091107394039625,-5.30998915361464,2.6442747376114126
1772556451062357000,2.25035693359375,-7.808895635348558,-5.3057899483591315,2.6533228442028163
1772556451072340000,2.260340087890625,-7.808752427485585,-5.294983307662606,2.6752418305441736
1772556451082323200,2.2703232421875,-7.809156332111359,-5.276281529802084,2.7107775465667245
1772556451092306000,2.280305908203125,-7.810248219001292,-5.250030651736259,2.7581854866907
1772556451102289000,2.290288818359375,-7.812139147314429,-5.218729504543543,2.8117136632606385
1772556451112272100,2.300272216796875,-7.814180297753214,-5.185938411054015,2.866185550421476
1772556451122255000,2.310255126953125,-7.815282121515273,-5.154470090600848,2.9194509844020007
1772556451132237800,2.32023779296875,-7.814392479199171,-5.125727980241179,2.971963261927664
1772556451142221000,2.330220947265625,-7.811025048592686,-5.1002375651538365,3.0242107510372995
1772556451152204000,2.3402041015625,-7.805262831804156,-5.078544204261899,3.075165569987893
1772556451162187000,2.35018701171875,-7.797099399092793,-5.0609740607798095,3.124446610507369
1772556451172170000,2.360169921875,-7.785161708539724,-5.0488879016667605,3.1733857057213783
1772556451182154000,2.370154052734375,-7.767399841877817,-5.043845231324434,3.224517342543602
1772556451192137500,2.380137451171875,-7.742653523156046,-5.046913386723399,3.2787758792147037
1772556451202120400,2.390120361328125,-7.714512885820866,-5.056631647661328,3.329736835645139
1772556451212103700,2.400103759765625,-7.690698294991255,-5.06874995547831,3.366201356950402
1772556451222086400,2.41008642578125,-7.6784636673182245,-5.078512640079856,3.3793922624349593
1772556451232069400,2.4200693359375,-7.680185084283352,-5.083626037570834,3.36777196726799
1772556451242052600,2.430052490234375,-7.693892707118391,-5.083932911562919,3.3358699315726756
1772556451252035600,2.44003564453125,-7.715166965815424,-5.080940744009614,3.290991217665374
1772556451262018600,2.4500185546875,-7.739294275856017,-5.076896437054872,3.240190420232713
1772556451272001500,2.46000146484375,-7.763174917659163,-5.0732957822144025,3.188286045472324
1772556451281984500,2.469984619140625,-7.782861030381918,-5.072624166563153,3.1410090382516382
1772556451291967500,2.479967529296875,-7.79352446321547,-5.076918064364791,3.107452805608511
1772556451301950500,2.489950439453125,-7.79188371027112,-5.087683204007148,3.093931352995336
1772556451311933400,2.499933349609375,-7.775616466081142,-5.106492533895373,3.103854781116545
1772556451321916700,2.509916748046875,-7.7429001913934945,-5.133731838476658,3.1404902750745416
1772556451331899400,2.5198994140625,-7.692948119744658,-5.168395155578851,3.205717657266557
1772556451341882400,2.52988232421875,-7.626816482189297,-5.208785033634305,3.2970614774897693
1772556451351865600,2.539865478515625,-7.548157371494174,-5.251819873240589,3.4079452799633145
1772556451361849600,2.549849609375,-7.462537774136662,-5.294356700196862,3.5285549421593543
1772556451371832600,2.55983251953125,-7.377575179383158,-5.333097642001509,3.6468937368139622
1772556451381815600,2.569815673828125,-7.300869540843367,-5.365691167092323,3.7519393346533176
1772556451391798500,2.579798583984375,-7.238115270766616,-5.390354483705758,3.837205588528514
1772556451401781500,2.589781494140625,-7.191496142932772,-5.40618567456603,3.9020407565325494
1772556451411764500,2.599764404296875,-7.159650221338867,-5.413560002726316,3.9500831951677795
1772556451421747500,2.60974755859375,-7.140400161945819,-5.413260142996907,3.9851831501215695
1772556451431730400,2.61973046875,-7.1318994601041075,-5.405438655591011,4.0109383536249394
1772556451441713700,2.629713623046875,-7.133606264021992,-5.390090279811621,4.028520187544823
1772556451451696400,2.6396962890625,-7.146937454760074,-5.367120323112607,4.035553739443421
1772556451461679400,2.649679443359375,-7.1736156183272595,-5.336366872930526,4.028996572884917
1772556451471662600,2.65966259765625,-7.214696401256322,-5.298011131051182,4.006196419794858
1772556451481645600,2.6696455078125,-7.269537413990498,-5.25338522286117,3.965621540561318
1772556451491628300,2.679628173828125,-7.335935593527555,-5.205419356593489,3.9061534525483843
1772556451501611500,2.689611572265625,-7.410649765989184,-5.1571711662530895,3.828345990246534
1772556451511594500,2.699594482421875,-7.490902283355593,-5.1103562235862015,3.7337674258857962
1772556451521578500,2.70957861328125,-7.572601492398976,-5.066398423916101,3.6273540468245744
1772556451531561700,2.719561767578125,-7.6505387185603375,-5.02654513695538,3.517595448988676
1772556451541544400,2.72954443359375,-7.7202382777303455,-4.992476278614998,3.4122549598559737
1772556451551527400,2.73952734375,-7.7784490591585635,-4.9666170302152635,3.3164488995268937
1772556451561510700,2.7495107421875,-7.822436669445038,-4.9516620376676315,3.234334095419943
1772556451571493400,2.759493408203125,-7.8515195560663935,-4.94823381678462,3.1684397737517953
1772556451581476400,2.769476318359375,-7.867892598718404,-4.954790983343124,3.117161714196205
1772556451591459600,2.77945947265625,-7.875869568946957,-4.968442492076754,3.07500307290256
1772556451601442600,2.789442626953125,-7.881101039859652,-4.986116095933318,3.0327003469631073
1772556451611425300,2.79942529296875,-7.888418669396638,-5.00446423805058,2.9830466737389565
1772556451621408500,2.809408447265625,-7.898838356602192,-5.021034849101305,2.9271050062865016
1772556451631391500,2.8193916015625,-7.910251146498322,-5.034982710433006,2.8718042670860884
1772556451641374500,2.82937451171875,-7.921431881204247,-5.044949977695942,2.8230788146227597
1772556451651357400,2.839357421875,-7.93328773869276,-5.049104174765944,2.782062621362507
1772556451661341400,2.849341552734375,-7.947671653354168,-5.046749136072397,2.745036959043145
1772556451671324400,2.859324462890625,-7.966418439400195,-5.038523744040727,2.705519479908049
1772556451681307600,2.8693076171875,-7.989850752913951,-5.026200853562354,2.6589418531283733
1772556451691290600,2.87929052734375,-8.016969645985961,-5.011333539298176,2.6048256475374103
1772556451701273300,2.8892734375,-8.046105724099277,-4.995449156945943,2.5448089857310054
1772556451711256600,2.899256591796875,-8.076170022973418,-4.979197110325098,2.4806170840665698
1772556451721239600,2.909239501953125,-8.106931656461954,-4.9621740793317555,2.4134761233381927
1772556451731222300,2.91922216796875,-8.137798503890632,-4.944513334956765,2.344868304927647
1772556451741205500,2.92920556640625,-8.167145009884237,-4.927789579170942,2.2770636195935308
1772556451751188500,2.9391884765625,-8.193017702287435,-4.913949854388833,2.2131290536910293
1772556451761171500,2.94917138671875,-8.21481101642251,-4.903768652114272,2.154141004280001
1772556451771154400,2.959154541015625,-8.232576974737643,-4.897321083410084,2.100310629893094
1772556451781137400,2.969137451171875,-8.246344218805431,-4.8948862574785945,2.0514101131238043
1772556451791121400,2.979121337890625,-8.256676812249422,-4.896502460503578,2.005475606553256
1772556451801104600,2.989104736328125,-8.264875900796055,-4.901793552649021,1.9582203727729617
1772556451811087600,2.999087646484375,-8.270583172526955,-4.911596569260954,1.9089406474277375
1772556451821070300,3.0090703125,-8.272844103196263,-4.926224814072251,1.8608434098653495
1772556451831053600,3.019053466796875,-8.269995728027821,-4.945938399323821,1.8207813024595378
1772556451841036500,3.02903662109375,-8.261027408674359,-4.9708536448717116,1.793437222329527
1772556451851019300,3.039019287109375,-8.247382914203405,-4.999131644850969,1.7775668685026467
1772556451861002500,3.04900244140625,-8.233792195746302,-5.026682499599456,1.762815874094516
1772556451870985500,3.0589853515625,-8.22836783261001,-5.0474119838953015,1.7285782350584864
1772556451880968400,3.068968505859375,-8.238332761785388,-5.055719208991527,1.655281382048875
1772556451890951400,3.078951416015625,-8.265026122921705,-5.049067934408783,1.5383903019845484
1772556451900934400,3.088934326171875,-8.30274473594129,-5.02984651658833,1.3912097359880804
1772556451910918400,3.09891845703125,-8.34332867526412,-5.003249017041921,1.2356178999990224
1772556451920901600,3.108901611328125,-8.37967658445239,-4.975408823958039,1.0939419958334415
1772556451930884600,3.118884521484375,-8.4063307826221,-4.9530397557616235,0.9855863966632634
1772556451940867300,3.128867431640625,-8.421565176632999,-4.9400598626792425,0.9183878605287522
1772556451950850600,3.1388505859375,-8.427589843749999,-4.935899820390343,0.8848740787878632
1772556451960833500,3.14883349609375,-8.426371700131893,-4.938632460224628,0.8812261507395655
1772556451970816500,3.15881640625,-8.418641398140787,-4.9476697531610725,0.9041158087439835
1772556451980799500,3.168799560546875,-8.403874037119746,-4.963754041999578,0.9520674272906035
1772556451990782500,3.178782470703125,-8.381325520703196,-4.988104639402032,1.021066510041058
1772556452000765400,3.188765380859375,-8.351027997595072,-5.021967161515355,1.100254247720167
1772556452010749700,3.198749755859375,-8.315681374403834,-5.0639907782524824,1.1729561305113136
1772556452020732400,3.208732421875,-8.276706039321422,-5.115097280633449,1.2256821238528937
1772556452030715400,3.21871533203125,-8.234256306126714,-5.176188001412153,1.2547851034142077
1772556452040698600,3.22869873046875,-8.187970940291882,-5.249203553262353,1.2543439355179666
1772556452050681600,3.238681640625,-8.141046107509732,-5.327815902206301,1.22805973970443
1772556452060664300,3.248664306640625,-8.098214096999168,-5.405398908102512,1.170890357087925
1772556452070647600,3.2586474609375,-8.060511850592494,-5.478671065062284,1.0875213882014154
1772556452080630500,3.268630615234375,-8.029176801130175,-5.543065503561496,0.9884973156739025
1772556452090613500,3.278613525390625,-8.006203337299823,-5.59449466202557,0.8790447881124913
1772556452100596500,3.288596435546875,-7.992830645507573,-5.6302662326306105,0.7649498415727168
1772556452110579500,3.298579345703125,-7.989980516773461,-5.648557676124573,0.6514519110780209
1772556452120563500,3.3085634765625,-7.998276051431894,-5.648313930496573,0.5427003348601982
1772556452130546700,3.318546630859375,-8.017886760830878,-5.629111801898479,0.443818958739005
1772556452140529400,3.328529296875,-8.04844965687692,-5.591352856868506,0.36003691553957756
1772556452150512400,3.338512451171875,-8.088406988734006,-5.53714663490653,0.29675372621789575
1772556452160495600,3.34849560546875,-8.135283306199312,-5.4700236482262605,0.25766967006400227
1772556452170478600,3.358478515625,-8.186637645861506,-5.393683920389414,0.23983621773691846
1772556452180461300,3.36846142578125,-8.240634608986973,-5.311001545527577,0.23576677634092047
1772556452190443500,3.378443603515625,-8.29492967827618,-5.225663687720894,0.23867453528009352
1772556452200426500,3.388426513671875,-8.3462939548105,-5.143029243654013,0.24291873045479878
1772556452210409500,3.398409423828125,-8.392125147137046,-5.067888370212912,0.24314694972010328
1772556452220393500,3.4083935546875,-8.431482759535312,-5.0024780326694245,0.23601013837642967
1772556452230376400,3.41837646484375,-8.46513134663701,-4.946152334335446,0.21797142753452062
1772556452240359400,3.428359375,-8.493941261535882,-4.89778490152955,0.18723080030139536
1772556452250342700,3.4383427734375,-8.517645962250231,-4.857973407883942,0.1420644194259774
1772556452260325400,3.448325439453125,-8.53479115831852,-4.829170214986801,0.08266966151073575
1772556452270308600,3.45830859375,-8.544021928000449,-4.8135099967792625,0.014039869872044072
1772556452280291600,3.46829150390625,-8.545067637661099,-4.811318916475773,-0.05843106854881625
1772556452290274300,3.4782744140625,-8.538387136983872,-4.821782442823052,-0.12940151073774322
1772556452300257500,3.488257568359375,-8.525379771372675,-4.842550505563617,-0.19489788259686902
1772556452310241500,3.498241455078125,-8.508851830419898,-4.868754621878266,-0.25505367887932806
1772556452320224500,3.508224609375,-8.49180132689774,-4.895267073489725,-0.3099280093612149
1772556452330207500,3.51820751953125,-8.477097094240785,-4.917343003958464,-0.3590993789611384
1772556452340190500,3.5281904296875,-8.467946404057741,-4.930042326533794,-0.39867885394915936
1772556452350173400,3.53817333984375,-8.466759240099787,-4.929494629523158,-0.4294835228618234
1772556452360156400,3.548156494140625,-8.474017832925915,-4.91434732927382,-0.45890835478864606
1772556452370139600,3.5581396484375,-8.488208855363727,-4.886793551915884,-0.48984483338743445
1772556452380122400,3.568122314453125,-8.507347855597734,-4.850160103784502,-0.5209287941655144
1772556452390105600,3.578105712890625,-8.529760762935876,-4.807425708429515,-0.5497550391446798
1772556452400089600,3.588089599609375,-8.553837219572067,-4.761575519141554,-0.5741552843751385
1772556452410072600,3.598072509765625,-8.577727798247336,-4.716118128563464,-0.5926257011651992
1772556452420055300,3.60805517578125,-8.59954390873611,-4.674691893197596,-0.6045584598148241
1772556452430038500,3.61803857421875,-8.61783769031763,-4.640145480473339,-0.6101720253802836
1772556452440021500,3.628021484375,-8.631208044022321,-4.6150089933902025,-0.6118226786641404
1772556452450004500,3.63800439453125,-8.638751883530617,-4.600760103285312,-0.6126663264140486
1772556452459987500,3.647987548828125,-8.640326585501432,-4.597656292051076,-0.6137589439563453
1772556452469970400,3.657970458984375,-8.636296307072042,-4.605047863607108,-0.6150608203351497
1772556452479953400,3.667953369140625,-8.62798265223503,-4.620485378974676,-0.6159655871551484
1772556452489937700,3.677937744140625,-8.616964414614438,-4.640972578947246,-0.6161858057770878
1772556452499920600,3.687920654296875,-8.604142926964164,-4.664748299071192,-0.6158227446183562
1772556452509903400,3.6979033203125,-8.58971341959536,-4.691315695740283,-0.6154371063016355
1772556452519886600,3.707886474609375,-8.573796888539194,-4.720077095322311,-0.6174645935412496
1772556452529869600,3.71786962890625,-8.557851715910434,-4.747766481758654,-0.6263172506257891
1772556452539852300,3.727852294921875,-8.544255152234435,-4.7695302775382995,-0.6462735585920513
1772556452549835500,3.73783544921875,-8.535196816509961,-4.781363923195004,-0.6777572958100587
1772556452559818500,3.747818603515625,-8.532730134135484,-4.779777530786395,-0.7187695435475557
1772556452569801500,3.757801513671875,-8.538084939166904,-4.763031563168764,-0.7648662549424916
1772556452579785500,3.767785400390625,-8.551865042716264,-4.731092702594399,-0.8079317819479852
1772556452589768400,3.7777685546875,-8.573726745912433,-4.685736142042279,-0.8399229572314768
1772556452599751400,3.78775146484375,-8.6020041613698,-4.630717142392695,-0.8557846162952483
1772556452609734700,3.797734619140625,-8.633566005325317,-4.572118822951615,-0.8530274265415966
1772556452619717600,3.807717529296875,-8.66468536621034,-4.516917452472448,-0.8313102463826537
1772556452629700400,3.817700439453125,-8.69189953635037,-4.471535172957181,-0.7916055741123854
1772556452639683600,3.82768359375,-8.712048590409756,-4.441351339356601,-0.7382339763436466
1772556452649666600,3.83766650390625,-8.722115810915827,-4.4306285775512455,-0.6816231043927371
1772556452659650600,3.847650634765625,-8.718850087118149,-4.444307851074636,-0.6325899011544883
1772556452669633300,3.85763330078125,-8.699825068652629,-4.486531958819926,-0.5953681317411362
1772556452679616500,3.867616455078125,-8.664104351451993,-4.558277636864781,-0.5707784283531829
1772556452689599500,3.877599609375,-8.61306331552267,-4.6556586914256215,-0.5571081053212285
1772556452699582500,3.88758251953125,-8.55054753037691,-4.7702822649493815,-0.5503919488087297
1772556452709565400,3.8975654296875,-8.481342476725578,-4.892678518301248,-0.5467271426908672
1772556452719548400,3.90754833984375,-8.41089414501488,-5.013214530739188,-0.5430672684764489
1772556452729532400,3.917532470703125,-8.344748478934168,-5.1230865258216856,-0.5380945215651766
1772556452739515600,3.927515625,-8.287579315513373,-5.21580631057322,-0.5308251881493256
1772556452749498600,3.93749853515625,-8.24276519127488,-5.287341268476844,-0.5207965460879728
1772556452759481300,3.9474814453125,-8.21273830180168,-5.335049360591173,-0.5084921776469796
1772556452769464600,3.957464599609375,-8.199150505954027,-5.3571331821054216,-0.4954160211158916
1772556452779447600,3.967447509765625,-8.20334211242497,-5.351785391336679,-0.48369317888990043
1772556452789430500,3.977430419921875,-8.225415412545203,-5.318667550110817,-0.47402748838942493
1772556452799413500,3.98741357421875,-8.263972814476489,-5.259198877575993,-0.46686607232745736
1772556452809394700,3.997394775390625,-8.315851470273733,-5.177064784246683,-0.463676811299473
1772556452819377400,4.00737744140625,-8.37691647208929,-5.077529474261403,-0.4651328553266823
1772556452829360400,4.0173603515625,-8.442619655099511,-4.966839148533344,-0.472295330834575
1772556452839343600,4.027343505859375,-8.508131114929913,-4.852418111844361,-0.4859269292913377
1772556452849326600,4.03732666015625,-8.568631468600033,-4.742773788037896,-0.5050053584445268
1772556452859310300,4.047310302734375,-8.620666776263713,-4.645025069208443,-0.5274787272656336
1772556452869293600,4.05729345703125,-8.66215029477477,-4.5642102417841555,-0.5527395713808014
1772556452879276500,4.067276611328125,-8.691952727842331,-4.503674232278764,-0.5807428826045244
1772556452889259500,4.077259521484375,-8.710634631958603,-4.463231747253239,-0.6122007912615314
1772556452899242500,4.087242431640625,-8.719165144416689,-4.4415036073088645,-0.6477534949515015
1772556452909225500,4.0972255859375,-8.719159299197793,-4.435978121885657,-0.6846457401495426
1772556452919208400,4.10720849609375,-8.712495749655366,-4.443429606935382,-0.7202298984237014
1772556452929192400,4.1171923828125,-8.701398017057777,-4.459669086335599,-0.7532608650837093
1772556452939175700,4.12717578125,-8.68816619504094,-4.480600522944331,-0.7812601211868226
1772556452949158400,4.137158447265625,-8.674743818888068,-4.502870514680445,-0.802097522836551
1772556452959141400,4.147141357421875,-8.66291601845026,-4.5235313176542515,-0.8135952145371586
1772556452969124600,4.15712451171875,-8.65414877462685,-4.539911082307994,-0.8156591613296419
1772556452979107600,4.167107666015625,-8.649435774630307,-4.550068611446023,-0.8090255685340613
1772556452989090600,4.177090576171875,-8.64911370306909,-4.552924585399031,-0.796305641562119
1772556452999074600,4.187074462890625,-8.653018893814087,-4.548059901972115,-0.7815376229539513
1772556453009057500,4.1970576171875,-8.661320858213305,-4.534412192630768,-0.7687740760359912
1772556453019040500,4.20704052734375,-8.674056421145796,-4.511613500845432,-0.759255721584335
1772556453029023500,4.2170234375,-8.690987682202458,-4.4803348577454685,-0.7508087226912379
1772556453039006500,4.22700634765625,-8.710757381555437,-4.443222101664543,-0.7422090905196964
1772556453048989400,4.236989501953125,-8.73333980024159,-4.4007349590688944,-0.7298581429906189
1772556453058972700,4.24697265625,-8.757613825276493,-4.355294811886549,-0.7113269724566489
1772556453068956700,4.256956787109375,-8.782404567661882,-4.309232733413577,-0.6857644419811666
1772556453078939400,4.266939453125,-8.806200453791021,-4.26503498750776,-0.656271732449904
1772556453088922600,4.276922607421875,-8.827322736796736,-4.225965836662054,-0.6244796599350869
1772556453098905600,4.286905517578125,-8.844036555710435,-4.195389788873493,-0.5933815245011821
1772556453108888300,4.296888427734375,-8.854682452887296,-4.176412701202929,-0.5679435702534392
1772556453118871600,4.30687158203125,-8.857728396454453,-4.172256750567257,-0.5507359399408102
1772556453128854500,4.3168544921875,-8.851852782419323,-4.185873480248451,-0.54180751420632
1772556453138838500,4.326838623046875,-8.835543452653289,-4.220312340945005,-0.5408489713724702
1772556453148821500,4.336821533203125,-8.808792223849892,-4.275123250801861,-0.5466960899654776
1772556453158804500,4.346804443359375,-8.772872184684871,-4.3463469507992265,-0.5624619970371947
1772556453168787500,4.356787353515625,-8.731205710822342,-4.425219996505976,-0.5948619357846677
1772556453178770400,4.3667705078125,-8.690170520600676,-4.4980710054442286,-0.6470522878795861
1772556453188753700,4.376753662109375,-8.658503462705015,-4.548412076410651,-0.7159944528110325
1772556453198737700,4.386737548828125,-8.64383605492711,-4.563146996466815,-0.7950891053792088
1772556453208721700,4.3967216796875,-8.649457986462115,-4.5378497658640145,-0.874747894636169
1772556453218704400,4.406704345703125,-8.673516322919726,-4.47789769372642,-0.9428347579125315
1772556453228687600,4.4166875,-8.709992242401837,-4.3964433993548155,-0.9887880422487855
1772556453238670600,4.426670654296875,-8.750990023222565,-4.310388333189487,-1.0055413163900375
1772556453248653600,4.436653564453125,-8.789329983010887,-4.234686903256177,-0.9927192442178726
1772556453258636500,4.446636474609375,-8.819590681239962,-4.179760258065164,-0.9564572597473859
1772556453268620500,4.45662060546875,-8.838556662994623,-4.151504177656769,-0.9029439884856343
1772556453278603500,4.466603515625,-8.844806955561042,-4.151508269309997,-0.8394965485129505
1772556453288586500,4.47658642578125,-8.838666553109883,-4.1766567390918725,-0.7771075315520167
1772556453298569500,4.486569580078125,-8.821751074144244,-4.221371494609118,-0.7260260905470699
1772556453308552400,4.496552490234375,-8.796708402824402,-4.279239746209979,-0.6902297508269548
1772556453318535700,4.50653564453125,-8.766474592602252,-4.344113492658734,-0.6693176034405827
1772556453328518700,4.5165185546875,-8.734486632189155,-4.409573514562845,-0.6593892799485475
1772556453338502700,4.526502685546875,-8.704245807704329,-4.469520910525322,-0.6556457095060497
1772556453348485400,4.5364853515625,-8.678995046591758,-4.518411490422487,-0.6552800179988145
1772556453358468600,4.546468505859375,-8.661866217136383,-4.550737596748769,-0.6582145370807498
1772556453368451600,4.55645166015625,-8.654639188492297,-4.56341704557985,-0.6654531830973923
1772556453378434600,4.5664345703125,-8.658405263027548,-4.554703285509348,-0.6760765761815011
1772556453388417500,4.57641748046875,-8.67509219393432,-4.520935163681209,-0.6886977189540863
1772556453398401500,4.586401611328125,-8.70426217431724,-4.46248472827822,-0.7017374524649233
1772556453408384500,4.596384521484375,-8.744667249941825,-4.381207251778244,-0.7114790212132036
1772556453418367700,4.60636767578125,-8.79232858030498,-4.2846398516878486,-0.7121830047640949
1772556453428351700,4.616351806640625,-8.842743008768558,-4.179793283551931,-0.711062914692983
1772556453438334500,4.62633447265625,-8.891746401390433,-4.073707529009878,-0.7156389173716307
1772556453448317400,4.6363173828125,-8.935658023831248,-3.975025036461651,-0.7235870998971163
1772556453458300700,4.64630078125,-8.971974953359364,-3.8898128508612513,-0.7371636436983943
1772556453468284700,4.65628466796875,-8.999153467664122,-3.8226454405173658,-0.756972871344164
1772556453478267400,4.666267333984375,-9.017329175823926,-3.7743066492840645,-0.7827960985824465
1772556453488250400,4.67625048828125,-9.02789440898001,-3.7421822030097243,-0.8146031494706869
1772556453498233600,4.686233642578125,-9.03291369844675,-3.722171972899139,-0.8498750269252806
1772556453508216600,4.696216552734375,-9.034401891177891,-3.7093598375990986,-0.8891654193062335
1772556453518199600,4.706199462890625,-9.034150546765327,-3.69946300522387,-0.9319226110149175
1772556453528183600,4.71618359375,-9.03429609271586,-3.688296883565187,-0.9738286657869816
1772556453538166500,4.72616650390625,-9.036793754750489,-3.671564944472909,-1.0130893206167966
1772556453548149500,4.7361494140625,-9.043177902829646,-3.6456849455460905,-1.048952003571391
1772556453558132700,4.7461328125,-9.054535747668147,-3.608635317829251,-1.0786624475065618
1772556453568115500,4.756115478515625,-9.071358872175216,-3.56061333746016,-1.096750769643858
1772556453578098400,4.766098388671875,-9.092675216448306,-3.505080835330486,-1.0991113612953574
1772556453588082400,4.77608251953125,-9.116488053712247,-3.446175057375431,-1.0880741997785865
1772556453598065700,4.786065673828125,-9.140817023804784,-3.3872181337550282,-1.0689250434767454
1772556453608048400,4.79604833984375,-9.164132432940601,-3.331030967108905,-1.0456056157529354
1772556453618031600,4.806031494140625,-9.185537624540924,-3.2796450632646676,-1.019908572177589
1772556453628014600,4.8160146484375,-9.20479411367476,-3.2335978900998827,-0.9929750456098466
1772556453637998600,4.82599853515625,-9.221966197749971,-3.192909029097855,-0.9649117843598127
1772556453647981600,4.835981689453125,-9.23759806664586,-3.1561972550332547,-0.935726094951108
1772556453657964500,4.845964599609375,-9.252161429527401,-3.1218846510648723,-0.9064914518341421
1772556453667947500,4.855947509765625,-9.265861453577875,-3.0887048505187034,-0.8798274629227817
1772556453677930500,4.865930419921875,-9.27873847080767,-3.0560794689849016,-0.8577712600678205
1772556453687913700,4.875913818359375,-9.290856778624653,-3.0235598859131336,-0.8416938393615185
1772556453697897500,4.8858974609375,-9.30235023254156,-2.990788666167855,-0.8317704112403095
1772556453707880400,4.89588037109375,-9.313219417080283,-2.9580852509617803,-0.8270770657923072
1772556453717863700,4.90586376953125,-9.323207727131248,-2.926938417547941,-0.8253577677190304
1772556453727846700,4.9158466796875,-9.33187384866774,-2.899295500601828,-0.8249811164263635
1772556453737829400,4.925829345703125,-9.338393021303414,-2.8777687284484506,-0.8265909627757966
1772556453747812600,4.9358125,-9.342297043004631,-2.864091793012619,-0.8299723488423972
1772556453757796600,4.945796630859375,-9.34351284853518,-2.8590678273707626,-0.8335985765155405
1772556453767779600,4.955779541015625,-9.342388228419422,-2.8617516596272585,-0.8369866845838725
1772556453777762600,4.965762451171875,-9.339307213538884,-2.8714851181343195,-0.8380329057011753
1772556453787745500,4.97574560546875,-9.334719301226734,-2.887531120789051,-0.8340055498812348
1772556453797728500,4.985728515625,-9.328885772767663,-2.9089395272597667,-0.8248300175178795
1772556453807712500,4.99571240234375,-9.321853974434733,-2.934742077036202,-0.8128425695389508
1772556453817695700,5.00569580078125,-9.313899800559877,-2.963212384717166,-0.8006392137870192
1772556453827678500,5.015678466796875,-9.305330709657072,-2.9926944997891782,-0.7905603759083897
1772556453837661400,5.025661376953125,-9.297622619497776,-3.0181667946979402,-0.7843878978185356
1772556453847644700,5.035644775390625,-9.293561361408234,-3.031376989404857,-0.7815697716578841
1772556453857627600,5.045627685546875,-9.295648104554415,-3.025151246757805,-0.7808814240675419
1772556453867611600,5.055611572265625,-9.304840880313515,-2.996615180364251,-0.781421741489321
1772556453877594400,5.065594482421875,-9.320285702204703,-2.9484391784772277,-0.780620142782852
1772556453887577600,5.07557763671875,-9.339391384691,-2.888476584945619,-0.7764410304673015
1772556453897560600,5.085560546875,-9.358912662240863,-2.8270307671189308,-0.7674849130082875
1772556453907543600,5.09554345703125,-9.375884839829801,-2.7746412391901014,-0.751352912570536
1772556453917527600,5.105527587890625,-9.388082058101892,-2.7389222755551335,-0.7297972796488553
1772556453927510500,5.115510498046875,-9.3938115416646,-2.724825945663452,-0.7085320810411125
1772556453937493500,5.125493408203125,-9.392107660356164,-2.7352614149600267,-0.6906798326820135
1772556453947476700,5.135476806640625,-9.382922483381629,-2.7702701844990254,-0.6758377259243279
1772556453957459500,5.14545947265625,-9.366756361478567,-2.8273645291179417,-0.6635253568399697
1772556453967442400,5.1554423828125,-9.344861340534687,-2.900923394064605,-0.6546745994515717
1772556453977426400,5.165426513671875,-9.319082756155728,-2.983922287529707,-0.649071664877981
1772556453987409700,5.17540966796875,-9.291377003106474,-3.069857234446704,-0.6455049853723496
1772556453997392600,5.185392578125,-9.264016702494025,-3.15178586833179,-0.6439165471371263
1772556454007375400,5.195375244140625,-9.239467952170967,-3.2229227668285367,-0.6445058182671666
1772556454017358600,5.205358642578125,-9.219597715052961,-3.278611044041812,-0.6481593723386526
1772556454027342600,5.215342529296875,-9.205684925034642,-3.316045287162065,-0.6554331627339124
1772556454037325600,5.22532568359375,-9.197959299218654,-3.3353368476092813,-0.6659225541748106
1772556454047308500,5.23530859375,-9.196154880145192,-3.3379926228150723,-0.6774426769029349
1772556454057291500,5.24529150390625,-9.199676040008663,-3.3262337959602473,-0.6873992766413837
1772556454067274500,5.2552744140625,-9.207817260888218,-3.3019194389149544,-0.6955636592008173
1772556454077258500,5.265258544921875,-9.22008520630896,-3.2661975526705382,-0.7016866721257567
1772556454087241700,5.27524169921875,-9.235849177151918,-3.220727594871819,-0.7045455686882138
1772556454097224400,5.285224365234375,-9.254393718624115,-3.1671155394107102,-0.7042427863493561
1772556454107207400,5.29520751953125,-9.274347542372345,-3.1082384030282495,-0.7040705715876072
1772556454117190700,5.305190673828125,-9.294005013522506,-3.0481217879787086,-0.7076764871250838
1772556454127174700,5.315174560546875,-9.311725963652133,-2.9910861878097057,-0.7180196019630879
1772556454137157400,5.325157470703125,-9.326177098330854,-2.9410891079753636,-0.7367460758734494
1772556454147140600,5.335140625,-9.33674408505261,-2.900356992353499,-0.7638841120373457
1772556454157123600,5.34512353515625,-9.343206559064983,-2.8701147065639496,-0.7983183696240186
1772556454167106600,5.3551064453125,-9.345547569233178,-2.8508348365545273,-0.8389655834414065
1772556454177089500,5.365089599609375,-9.343893372285365,-2.8430358532413837,-0.8827189465805888
1772556454187073500,5.375073486328125,-9.338470178192853,-2.847287957727909,-0.9253682209353894
1772556454197055700,5.3850556640625,-9.32978769004345,-2.8627833407625554,-0.9643253627739846
1772556454207038700,5.395038818359375,-9.318979880303145,-2.886495640261471,-0.9975696068584918
1772556454217021700,5.405021728515625,-9.307216961795092,-2.9153908953562375,-1.0230302843946963
1772556454227004700,5.415004638671875,-9.29569311273992,-2.9461782478079197,-1.0394736888691782
1772556454236988700,5.42498876953125,-9.285353505033255,-2.97595233156383,-1.0470433204058558
1772556454246972000,5.434971923828125,-9.276637114614248,-3.003271423383057,-1.0463029503673313
1772556454256954600,5.44495458984375,-9.269522314172983,-3.0275857804283497,-1.0392596077270806
1772556454266937900,5.454937744140625,-9.264021378669142,-3.0477634760603305,-1.029284741679579
1772556454276920800,5.4649208984375,-9.260113849836587,-3.063087594181299,-1.0189072861805557
1772556454286904800,5.47490478515625,-9.258030029299855,-3.0724285462394354,-1.0096790007166563
1772556454296887600,5.484887451171875,-9.258045811390875,-3.0744708657220006,-1.0032939027894288
1772556454306870800,5.494870849609375,-9.260247705349325,-3.0689035869836805,-1.0000151733797042
1772556454316853800,5.504853759765625,-9.264394888156652,-3.0562326137199998,-1.0004072414372116
1772556454326836700,5.514836669921875,-9.269865428522229,-3.038266456657648,-1.004446653021127
1772556454336820700,5.52482080078125,-9.276137348398565,-3.0171506033927202,-1.0101783285409212
1772556454346803700,5.5348037109375,-9.282631386592984,-2.9957153089150785,-1.0143110444314778
1772556454356786700,5.54478662109375,-9.288425167563558,-2.9774624438658357,-1.0150161239609121
1772556454366769700,5.554769775390625,-9.292800313907861,-2.9651936216622587,-1.0108796817433088
1772556454376754000,5.56475390625,-9.295192762002348,-2.9603996653839943,-1.0028986929267645
1772556454386736600,5.574736572265625,-9.29539500657618,-2.9634616833031178,-0.9919242213826626
1772556454396719600,5.5847197265625,-9.293573051846026,-2.9735473162487147,-0.9787263016354292
1772556454406702800,5.594702880859375,-9.290054814592004,-2.9892271159395576,-0.9642553662776946
1772556454416685800,5.604685791015625,-9.285300313541292,-3.0089138131842015,-0.9486915941819548
1772556454426669800,5.614669921875,-9.279906930065154,-3.0310400125354526,-0.930863018959388
1772556454436652500,5.624652587890625,-9.27435864828825,-3.0544892771840093,-0.9092552174590528
1772556454446635800,5.6346357421875,-9.268977539771795,-3.078356182722747,-0.8832698584616183
1772556454456618800,5.64461865234375,-9.263815042442083,-3.1019977550730107,-0.8542376791141927
1772556454466601700,5.654601806640625,-9.258750744789838,-3.1253029350757595,-0.8236541056063026
1772556454476586000,5.6645859375,-9.253771202811599,-3.148155987396836,-0.791973822902888
1772556454486568700,5.674568603515625,-9.248964679312705,-3.170051592862606,-0.7601398840077221
1772556454496551700,5.6845517578125,-9.243982214725017,-3.1915704739704727,-0.7301086106203496
1772556454506535000,5.694534912109375,-9.238651375091075,-3.2131466382235288,-0.7024229505110532
1772556454516517600,5.704517578125,-9.232446090710162,-3.2362969199255107,-0.6772782801214605
1772556454526501600,5.714501708984375,-9.224851397797465,-3.262764071090519,-0.6533529954589903
1772556454536484600,5.724484619140625,-9.215365192049742,-3.2938834319755435,-0.6306832638155668
1772556454546467800,5.7344677734375,-9.204043003046513,-3.328817382712662,-0.6123322356214747
1772556454556450800,5.744450927734375,-9.191649385419488,-3.3648128252014518,-0.601668035602942
1772556454566433800,5.754433837890625,-9.17965382719934,-3.3974107342064377,-0.601611519642733
1772556454576417800,5.764417724609375,-9.16988003668189,-3.4211572282359004,-0.6159277393627911
1772556454586400800,5.77440087890625,-9.164352213171124,-3.429826856903732,-0.6490911732960492
1772556454596383700,5.7843837890625,-9.164877113828062,-3.4179414810597897,-0.702205581433326
1772556454606366700,5.79436669921875,-9.172032830801605,-3.383757471907139,-0.7709611377514898
1772556454616350700,5.804350830078125,-9.18472689267993,-3.3307150330275297,-0.8470635497011244
1772556454626333700,5.814333740234375,-9.200518336051703,-3.26770503462404,-0.9181205148294568
1772556454636316700,5.824316650390625,-9.216639449769257,-3.2067712579727172,-0.9698234487336128
1772556454646300000,5.8342998046875,-9.23082754959762,-3.159051475420594,-0.9912628348644822
1772556454656282600,5.84428271484375,-9.24108883137107,-3.1319550864413377,-0.9815890706554055
1772556454666266600,5.8542666015625,-9.245496126419305,-3.1297751120537516,-0.9464132739864289
1772556454676249900,5.864249755859375,-9.242716724833846,-3.1539591207176447,-0.8916906269349157
1772556454686232800,5.87423291015625,-9.232070827656983,-3.2030674350187183,-0.8243864384688436
1772556454696215800,5.8842158203125,-9.213729115280508,-3.2724986986413596,-0.7538756359811872
1772556454706198800,5.89419873046875,-9.189040664225816,-3.3553479545027014,-0.6881556479666382
1772556454716182800,5.904182861328125,-9.160151254349946,-3.4440941594481465,-0.6326387817975133
1772556454726165800,5.914165771484375,-9.13006240555644,-3.530784600907564,-0.5881373767700045
1772556454736148700,5.924148681640625,-9.101691466596723,-3.608761866818368,-0.5535662314632908
1772556454746131700,5.934131591796875,-9.077540775680541,-3.6728888865530487,-0.5277571423482149
1772556454756115700,5.94411572265625,-9.059481387376785,-3.7196687579065557,-0.5101411138977855
1772556454766098700,5.9540986328125,-9.048739044088125,-3.747171681860089,-0.4994117031559348
1772556454776082000,5.96408203125,-9.04566971964538,-3.7553532347500322,-0.4935212568778544
1772556454786065000,5.97406494140625,-9.049570818737148,-3.7464506741091608,-0.48965924768745894
1772556454796047600,5.984047607421875,-9.05943345658183,-3.7231490012377497,-0.4849896484412253
1772556454806031600,5.994031494140625,-9.074348701640963,-3.687644557136297,-0.4773385491661727
1772556454816014800,6.004014892578125,-9.093252139553428,-3.642239189006388,-0.46609256720431147
1772556454825997800,6.013997802734375,-9.115062404823302,-3.5891812602967024,-0.45143885915819554
1772556454835980500,6.02398046875,-9.138321115335822,-3.5318192046523094,-0.43327527982760217
1772556454845964500,6.033964599609375,-9.161478119039534,-3.4738784723371263,-0.4121607782695442
1772556454855947800,6.04394775390625,-9.182976834142208,-3.4192262601733208,-0.39014403064213693
1772556454865930800,6.0539306640625,-9.201498579260706,-3.3712934193924067,-0.370385327607207
1772556454875914000,6.0639140625,-9.216490396687387,-3.331827378183603,-0.3544285376058891
1772556454885896700,6.073896728515625,-9.228248639020324,-3.3001480453282594,-0.34472901790104804
1772556454895880700,6.083880615234375,-9.237487592008709,-3.2742835362315175,-0.34390750891771166
1772556454905863700,6.09386376953125,-9.245459886062145,-3.2508018306180833,-0.35234040622022
1772556454915847000,6.103846923828125,-9.253211230841279,-3.226801069566607,-0.3690855335876345
1772556454925829600,6.11382958984375,-9.261661663800478,-3.1996558730095623,-0.39269535909276454
1772556454935813600,6.123813720703125,-9.271070128136873,-3.1686735825076697,-0.4208918182684108
1772556454945796600,6.133796630859375,-9.28112799629271,-3.1348724351927637,-0.45124633226078004
1772556454955779800,6.14377978515625,-9.291321473526954,-3.0999317624539136,-0.4818177038742229
1772556454965762800,6.1537626953125,-9.301085327172279,-3.0658754713341594,-0.5104949323041365
1772556454975746600,6.16374658203125,-9.309937326669692,-3.034603842496872,-0.5353804037682712
1772556454985729800,6.173729736328125,-9.317454862692951,-3.00784384586513,-0.5552453071240335
1772556454995712800,6.183712646484375,-9.323300666111708,-2.9869796292737125,-0.5695655454320833
1772556455005695700,6.19369580078125,-9.32711759405136,-2.9731466264933344,-0.579359575019963
1772556455015679700,6.2036796875,-9.32881387657523,-2.966444790767133,-0.5863612339429557
1772556455025662700,6.213662841796875,-9.328642027139663,-2.9660464390993115,-0.5910882989974692
1772556455035645700,6.223645751953125,-9.32683702354431,-2.9713065515846013,-0.5931528303118422
1772556455045628700,6.233628662109375,-9.323830827465653,-2.9810096149533987,-0.5917303962932899
1772556455055612000,6.24361181640625,-9.319812823995948,-2.9945757834911344,-0.5865030170338228
1772556455065596000,6.253595947265625,-9.314925051954388,-3.0113883866041897,-0.5780121059337631
1772556455075578600,6.26357861328125,-9.309193814826012,-3.03087693092823,-0.5683997165231034
1772556455085561900,6.273561767578125,-9.302707959938049,-3.0521430063188073,-0.5607371460059657
1772556455095544800,6.283544921875,-9.29593510480225,-3.0737028039589522,-0.555265911520645
1772556455105528800,6.29352880859375,-9.288875249418616,-3.0958404014870524,-0.5504121148139238
1772556455115511600,6.303511474609375,-9.281402137058972,-3.1192288758590814,-0.5444006725046784
1772556455125494800,6.313494873046875,-9.273412891870736,-3.1439971141517162,-0.538034754201956
1772556455135477800,6.323477783203125,-9.264639218306542,-3.170603089265525,-0.5330258034661411
1772556455145461800,6.333461669921875,-9.255106250807643,-3.1988194221854207,-0.5300459839377551
1772556455155444700,6.34344482421875,-9.245126708585023,-3.227569715851545,-0.5299191426876932
1772556455165427700,6.353427734375,-9.235068255907297,-3.2559719267323612,-0.5315525525758042
1772556455175410700,6.36341064453125,-9.22527166903615,-3.2833389493465424,-0.5333244576191529
1772556455185394700,6.373394775390625,-9.215833394083381,-3.309363617441058,-0.5356461420323699
1772556455195377700,6.383377685546875,-9.207076087132096,-3.3329660268247125,-0.5398845467871055
1772556455205360600,6.393360595703125,-9.20020269423127,-3.350720002441108,-0.547112817540206
1772556455215343600,6.403343505859375,-9.197317494183778,-3.3572128715917464,-0.5557460962530225
1772556455225327600,6.41332763671875,-9.19990458806753,-3.3493037059023973,-0.5606295209130272
1772556455235310600,6.423310546875,-9.208049316078425,-3.327267522922158,-0.5581244792895391
1772556455245293600,6.43329345703125,-9.22033070550263,-3.294890563191473,-0.5473378219351173
1772556455255276800,6.44327685546875,-9.23416809219718,-3.258795459720492,-0.5298837425807491
1772556455265259800,6.453259765625,-9.246945740705728,-3.2257749413892625,-0.5086803936954587
1772556455275243800,6.463243896484375,-9.256469940376281,-3.2018329247877,-0.486227519673109
1772556455285226500,6.4732265625,-9.261339007717371,-3.190756819500029,-0.4658897381085902
1772556455295209700,6.483209716796875,-9.260806508275866,-3.194622262756526,-0.44971294868104156
1772556455305192700,6.493192626953125,-9.254623435726762,-3.2140812887251373,-0.4381896476151421
1772556455315176700,6.5031767578125,-9.242705034396051,-3.249147925931215,-0.43107210722751915
1772556455325159400,6.513159423828125,-9.225610691732168,-3.2978011899411674,-0.4277809932602569
1772556455335142700,6.523142578125,-9.204500683686136,-3.3563568392843006,-0.4271066741952672
1772556455345125600,6.533125732421875,-9.180605428835749,-3.4211791478067632,-0.42708446236345915
1772556455355109600,6.543109619140625,-9.15542539487183,-3.488161556972563,-0.4257900021061301
1772556455365092900,6.5530927734375,-9.130860862457752,-3.55239817456156,-0.42217235959824173
1772556455375075600,6.56307568359375,-9.108568366628885,-3.6098847333684563,-0.4160512463694438
1772556455385058600,6.57305859375,-9.089978232449292,-3.657309916888177,-0.4083597420187667
1772556455395042600,6.58304248046875,-9.075922234567999,-3.6928956095322962,-0.40067167173419144
1772556455405025800,6.59302587890625,-9.066649379310011,-3.716303957648575,-0.39412816837485876
1772556455415008800,6.6030087890625,-9.06184051772356,-3.7285891464650627,-0.38865850479211655
1772556455424991500,6.612991455078125,-9.061429014313221,-3.7301521579980847,-0.3832094821386039
1772556455434975700,6.622975830078125,-9.065332451492548,-3.721221832567453,-0.377679612801224
1772556455444958700,6.632958740234375,-9.073834906899929,-3.7009634729146956,-0.3725162386886775
1772556455454941700,6.642941650390625,-9.087623778277635,-3.6674575091540813,-0.3677356533486396
1772556455464924700,6.652924560546875,-9.106758686858415,-3.6202369082957504,-0.36222887262590225
1772556455474908700,6.66290869140625,-9.130126118442416,-3.5615897812768815,-0.3553289205117151
1772556455484891600,6.6728916015625,-9.155776108005643,-3.4957740778028965,-0.34887126880493013
1772556455494874600,6.68287451171875,-9.181202810207008,-3.428686454696953,-0.3464274193167686
1772556455504857900,6.69285791015625,-9.204023713824153,-3.3665950324431058,-0.3498169886898249
1772556455514841600,6.702841552734375,-9.222039262986183,-3.3159035406038164,-0.3593870733287185
1772556455524824600,6.712824462890625,-9.233884014558791,-3.2812209342792626,-0.37330702374018726
1772556455534807800,6.722807861328125,-9.239155817481874,-3.2644793505758045,-0.3893104658948257
1772556455544790800,6.732790771484375,-9.23842048894465,-3.264446032828092,-0.4066509653395042
1772556455554774800,6.74277490234375,-9.232852333423494,-3.2779408896952864,-0.42417697741892185
1772556455564757500,6.752757568359375,-9.223940128171444,-3.300763546878099,-0.44076508759371935
1772556455574740700,6.76274072265625,-9.212989110568165,-3.329255189608037,-0.4552753320485353
1772556455584723700,6.7727236328125,-9.201159556564688,-3.3602202367141842,-0.46686746056694534
1772556455594707700,6.782707763671875,-9.189375010746717,-3.3912115873053668,-0.47482601835597305
1772556455604690400,6.7926904296875,-9.178380154001712,-3.420362862987816,-0.4783667231701314
1772556455614673700,6.802673583984375,-9.169064044123887,-3.445479768587649,-0.47677846759799863
1772556455624657700,6.81265771484375,-9.162202341660857,-3.4646588085711,-0.46965559344813224
1772556455634640600,6.822640625,-9.15809139921069,-3.4771816055357454,-0.45711854876242575
1772556455644624000,6.832623779296875,-9.156755182170867,-3.4829590198934075,-0.439559255467914
1772556455654606600,6.842606689453125,-9.158138160961865,-3.4818870067477223,-0.41875400252211836
1772556455664590600,6.852590576171875,-9.162014710134267,-3.474282669223845,-0.39652865364532913
1772556455674573600,6.862573486328125,-9.167736594912409,-3.4616946980684995,-0.37371863674838096
1772556455684556800,6.872556884765625,-9.174832106131314,-3.4452935983657835,-0.35041667161602524
1772556455694539800,6.882539794921875,-9.182911367690563,-3.4260771489813924,-0.3263757977498695
1772556455704523500,6.8925234375,-9.191890792959928,-3.404221875526011,-0.30133091620663177
1772556455714506800,6.9025068359375,-9.201480459082125,-3.380456969057023,-0.2750544105092063
1772556455724489700,6.91248974609375,-9.211592687773704,-3.3548929042115807,-0.24826999182226134
1772556455734472700,6.92247265625,-9.22207959499657,-3.3278537983775136,-0.2214165812860243
1772556455744456700,6.932456787109375,-9.232755302789807,-3.2998347415953875,-0.19419210894769057
1772556455754439700,6.942439697265625,-9.24364085394144,-3.270733734795451,-0.1667086568796076
1772556455764422700,6.952422607421875,-9.254880040836333,-3.2401302144780755,-0.13833564469381235
1772556455774405600,6.962405517578125,-9.266251914200186,-3.2085870752230283,-0.10920920205852017
1772556455784389600,6.9723896484375,-9.277482333266734,-3.176810127212107,-0.08112997605437412
1772556455794372600,6.98237255859375,-9.28789442168772,-3.146808956702053,-0.05468439740035683
1772556455804355600,6.99235546875,-9.296870924347639,-3.1205212537571785,-0.03039784167744219
1772556455814339600,7.002339599609375,-9.304052944806218,-3.0991780214771625,-0.009221455576780136
1772556455824322800,7.01232275390625,-9.309176279169321,-3.0837580417662855,0.007325085045190644
1772556455834305800,7.022305908203125,-9.312299379625916,-3.074264529494941,0.019123663384269456
1772556455844288500,7.03228857421875,-9.313664822760224,-3.0700659087613222,0.026899439351761246
1772556455854272500,7.0422724609375,-9.313926688566804,-3.069225950805843,0.031686328851711
1772556455864255700,7.052255859375,-9.31378055809438,-3.069642714913189,0.034224242981628045
1772556455874238700,7.06223876953125,-9.313702232161164,-3.06987447784245,0.0347996408499428
1772556455884221400,7.072221435546875,-9.313905645778775,-3.0692718357741833,0.03348594388589263
1772556455894205700,7.082205810546875,-9.314325332495569,-3.0680303112804888,0.030359633125481195
1772556455904188700,7.092188720703125,-9.314719300249218,-3.0668712043732405,0.026189868593588468
1772556455914171600,7.102171630859375,-9.314515302109717,-3.0675241153240203,0.021982781425723803
1772556455924155000,7.11215478515625,-9.313291313272714,-3.0712682702884075,0.017336118955438722
1772556455934139000,7.122138916015625,-9.310746889486909,-3.0789953574091196,0.012795455876586492
1772556455944121600,7.13212158203125,-9.306591523373127,-3.0915505953386426,0.007492995237046852
1772556455954104600,7.1421044921875,-9.301153716233372,-3.107880091109872,0.00023604081321755072
1772556455964088600,7.152088623046875,-9.295367534047365,-3.125123486855626,-0.011332090484380023
1772556455974071800,7.16207177734375,-9.290293299522995,-3.1400574366152285,-0.02955703433859162
1772556455984054500,7.172054443359375,-9.287445508876443,-3.1481270535632966,-0.05507217744181398
1772556455994037500,7.18203759765625,-9.287885069337486,-3.1461142524361607,-0.08683074497925117
1772556456004021800,7.192021728515625,-9.292231574109197,-3.1320714062973853,-0.12226759460405445
1772556456014004700,7.202004638671875,-9.300196853899955,-3.1067294597700235,-0.15796989023201166
1772556456023987700,7.21198779296875,-9.31065044337511,-3.073348291432857,-0.1915663270213641
1772556456033970700,7.221970703125,-9.321829424515366,-3.037355771553516,-0.21990020364001392
1772556456043954700,7.23195458984375,-9.331881447452306,-3.0047753982052203,-0.24019630148727444
1772556456053937700,7.241937744140625,-9.339145300975442,-2.981216243441403,-0.25119267433593045
1772556456063920600,7.251920654296875,-9.342591057515143,-2.9702547044441103,-0.2529079538212158
1772556456073904600,7.261904541015625,-9.342174877929686,-2.972021421855688,-0.2474714070567861
1772556456083887600,7.2718876953125,-9.338743734437227,-2.9835680672645566,-0.23783549064006654
1772556456093870600,7.28187060546875,-9.33373964253962,-2.999972674098611,-0.22770187210058793
1772556456103853800,7.291853759765625,-9.328512847802042,-3.0167487445935603,-0.2201272721278481
1772556456113837800,7.301837890625,-9.323877589216828,-3.031268852855265,-0.2170348773367703
1772556456123820800,7.31182080078125,-9.320102162331342,-3.042658554136753,-0.2198052370992489
1772556456133803500,7.321803466796875,-9.316949835780262,-3.051662529325485,-0.22844483595499768
1772556456143786800,7.331786865234375,-9.313642026406526,-3.060724372181296,-0.24170579273477194
1772556456153770800,7.341770751953125,-9.308947731110454,-3.0736887754335998,-0.2575231194664724
1772556456163753700,7.351753662109375,-9.301891382858157,-3.093710988242924,-0.27230370529526843
1772556456173736400,7.361736328125,-9.291803704085945,-3.122846189573407,-0.2839055332237854
1772556456183720700,7.371720703125,-9.278411138549446,-3.161768625424802,-0.29101852530045436
1772556456193704200,7.3817041015625,-9.26223566429615,-3.208597888877988,-0.2937200393441133
1772556456203687200,7.391687255859375,-9.24418212121129,-3.2603347981169817,-0.29274078251579777
1772556456213670100,7.401670166015625,-9.225336550965904,-3.313591756530106,-0.28924837382277474
1772556456223654100,7.411654052734375,-9.206962105363607,-3.364677800644934,-0.28491419880967583
1772556456233637000,7.42163720703125,-9.190426565626263,-3.4099273936912415,-0.28078944702986625
1772556456243620000,7.4316201171875,-9.176994252601265,-3.446269457660615,-0.27638302876446397
1772556456253604000,7.44160400390625,-9.16775179248154,-3.471190840688348,-0.2711869396924041
1772556456263587300,7.45158740234375,-9.163303580901026,-3.4833620477363465,-0.26540905041070656
1772556456273570000,7.461570068359375,-9.163854200521111,-3.4824481477618217,-0.2582860301303677
1772556456283553000,7.471552978515625,-9.169702926549315,-3.467632271423936,-0.24991675438228994
1772556456293537000,7.481537109375,-9.180709473732113,-3.4390643485873937,-0.24040935971606522
1772556456303520300,7.491520263671875,-9.196032130548357,-3.398635307565331,-0.22947008734950794
1772556456313503200,7.501503173828125,-9.214616419509053,-3.3486990180075167,-0.2178093323079869
1772556456323486200,7.511486328125,-9.235627643355727,-3.2910724662080404,-0.20594194877846164
1772556456333470200,7.52147021484375,-9.258051656609773,-3.228201876275241,-0.1938504376368597
1772556456343453200,7.531453125,-9.281094678544997,-3.162053872106969,-0.18187444263370706
1772556456353436200,7.541436279296875,-9.30376828264594,-3.095331867443025,-0.17088236236767843
1772556456363420200,7.551420166015625,-9.325185164684056,-3.0307068350583313,-0.16163305238205938
1772556456373403100,7.561403076171875,-9.34487420001626,-2.9698244963333007,-0.1544343913159333
1772556456383386000,7.57138623046875,-9.36244200541079,-2.914185611219704,-0.1502892543352209
1772556456393369000,7.581369140625,-9.377743619439006,-2.86462049306184,-0.1491782608860172
1772556456403353000,7.59135302734375,-9.390599593880772,-2.822131012378633,-0.1503290748889558
1772556456413336300,7.60133642578125,-9.401095268931984,-2.7868060164973136,-0.15329581574006004
1772556456423319000,7.611319091796875,-9.409486080658436,-2.758095470319688,-0.15769268072582782
1772556456433303000,7.621302978515625,-9.416286992844938,-2.734529301293194,-0.1620978386159055
1772556456443286300,7.631286376953125,-9.422155592617392,-2.7140622673258186,-0.16502495984267443
1772556456453269200,7.641269287109375,-9.427596322366595,-2.6950483547762034,-0.16589982471475376
1772556456463252000,7.651251953125,-9.433027115243673,-2.676054023709893,-0.16467760770972817
1772556456473236000,7.661236083984375,-9.438486549693346,-2.6569056711256502,-0.16188063393495977
1772556456483219200,7.67121923828125,-9.44379225488603,-2.638216752746701,-0.15806580662084743
1772556456493202200,7.6812021484375,-9.448619236651062,-2.621135561825335,-0.153696085370332
1772556456503186200,7.691186279296875,-9.452662959083915,-2.6067960708275435,-0.14886005264916458
1772556456513169200,7.701169189453125,-9.456003501683472,-2.5949764536961912,-0.14311947230370714
1772556456523152100,7.711152099609375,-9.458765952134131,-2.585259654062986,-0.13626022665924392
1772556456533135000,7.721135009765625,-9.461085919514298,-2.5771888680711386,-0.12779144519260152
1772556456543119000,7.731119140625,-9.462773434209822,-2.571469905902445,-0.11768708928022532
1772556456553102300,7.741102294921875,-9.463714514452219,-2.56846750921607,-0.10711251290705985
1772556456563085000,7.7510849609375,-9.463933125638961,-2.568065942677855,-0.09689673250946215
1772556456573069000,7.761069091796875,-9.463518699619174,-2.5699513180330396,-0.08689301482681185
1772556456583052000,7.771052001953125,-9.462589894336462,-2.5736829057767987,-0.0769880265445914
1772556456593035300,7.78103515625,-9.461202823892235,-2.579015791237354,-0.06855813861649948
1772556456603018200,7.791018310546875,-9.459191484069823,-2.5865333272606135,-0.06268780354468617
1772556456613002000,7.801001953125,-9.456372919517754,-2.596891931928694,-0.05952559492040891
1772556456622985200,7.810985107421875,-9.452487602517008,-2.611013688522577,-0.05890324350467417
1772556456632968200,7.82096826171875,-9.447643669617175,-2.6284716038018465,-0.05958975076437927
1772556456642952200,7.8309521484375,-9.442138642460106,-2.648153917132318,-0.060655334169277916
1772556456652935200,7.84093505859375,-9.436665764006971,-2.6675448463007805,-0.06264501014915294
1772556456662918100,7.850918212890625,-9.43284649797976,-2.6808818822577596,-0.06825904607207048
1772556456672902100,7.860902099609375,-9.433100765001774,-2.679662861856818,-0.08002680058544501
1772556456682885000,7.870885009765625,-9.440463987246154,-2.652948750193417,-0.0994440789047163
1772556456692868400,7.880868408203125,-9.456516711902617,-2.593908532203734,-0.1277320705550257
1772556456702851000,7.89085107421875,-9.480189848434925,-2.503951490163803,-0.16312783925076946
1772556456712835000,7.9008349609375,-9.508721530914306,-2.3905580429568887,-0.19958395805386825
1772556456722818000,7.910818115234375,-9.53743792231083,-2.270485702507943,-0.22924413310652597
1772556456732801300,7.92080126953125,-9.562467149627208,-2.1601874448373914,-0.2513925442895852
1772556456742785300,7.930785400390625,-9.581102291992305,-2.0751729737661777,-0.257913214762602
1772556456752768300,7.940768310546875,-9.591429040217399,-2.027982183524221,-0.24932596714859828
1772556456762751000,7.9507509765625,-9.592253216081858,-2.0254758997917173,-0.23771412928272037
1772556456772734200,7.960734130859375,-9.582771101987362,-2.0705327467449006,-0.23189532346874475
1772556456782718200,7.97071826171875,-9.562169627985357,-2.1637571200177073,-0.23118598788930103
1772556456792701200,7.980701171875,-9.530131983211636,-2.3007458162151275,-0.23138417734252287
1772556456802684200,7.99068408203125,-9.48730289531052,-2.471295421230793,-0.23273613994074985
1772556456812667100,8.000667236328125,-9.435449373954533,-2.6620468334063885,-0.23703275942243635
1772556456822650000,8.010650146484375,-9.377326855331658,-2.8596643319591877,-0.24174933961555362
1772556456832633300,8.02063330078125,-9.316734147202968,-3.051185267202556,-0.2431424927406944
1772556456842617300,8.030617431640625,-9.257951118844748,-3.2254633912220596,-0.23899068855717776
1772556456852600000,8.04060009765625,-9.205136058980226,-3.3740073545262215,-0.2278809732608497
1772556456862583000,8.0505830078125,-9.161184104529022,-3.492786586424708,-0.20864720741547643
1772556456872566300,8.060566162109374,-9.127845314028859,-3.580454933005571,-0.182107666867692
1772556456882550300,8.07055029296875,-9.106023942843079,-3.637048634625971,-0.1502967435219325
1772556456892533000,8.080532958984374,-9.095884826144575,-3.6635844671130178,-0.11580969630209728
1772556456902516200,8.09051611328125,-9.09708952575922,-3.6615024001419543,-0.0821279193168506
1772556456912500200,8.100500244140624,-9.108656044912339,-3.633169455105066,-0.053377511486294674
1772556456922483200,8.110483154296874,-9.129562054818868,-3.5805694992959496,-0.03166781366419746
1772556456932466200,8.120466064453124,-9.158025348237157,-3.507226030665636,-0.017912166419369168
1772556456942449200,8.13044921875,-9.191257171231507,-3.4192110626041887,-0.01325369249699288
1772556456952433200,8.14043310546875,-9.22614786734879,-3.323890447704494,-0.01817995964323636
1772556456962416000,8.150416015625,-9.259573751610517,-3.229507113654911,-0.031001034018269272
1772556456972399400,8.1603994140625,-9.288797508007287,-3.1442326764732598,-0.049298137784749264
1772556456982383400,8.17038330078125,-9.311898982131481,-3.0747204565688966,-0.07082740328931249
1772556456992366000,8.180365966796876,-9.328100759869814,-3.024579584349692,-0.09401331342710181
1772556457002349000,8.19034912109375,-9.337332698595523,-2.995104775801301,-0.11809195288722403
1772556457012333000,8.2003330078125,-9.340323697105049,-2.984688595727086,-0.14272380578331648
1772556457022316300,8.21031640625,-9.33826851814091,-2.9898838262826204,-0.16649762621112166
1772556457032299300,8.22029931640625,-9.3327488779366,-3.005785452030599,-0.18823703646818174
1772556457042282000,8.230281982421875,-9.325379810473322,-3.0274235756039616,-0.20586060890424995
1772556457052266200,8.240266357421875,-9.317519744622707,-3.0507682108342644,-0.21685320062693209
1772556457062249200,8.250249267578125,-9.310116190367937,-3.0730469703987238,-0.2202253804737702
1772556457072232200,8.260232177734375,-9.303688787668943,-3.0928222227096556,-0.21497339649600908
1772556457082216200,8.27021630859375,-9.298355025425552,-3.109735071326792,-0.2013114211672917
1772556457092199200,8.28019921875,-9.294141791644693,-3.123627987600863,-0.17961566738886758
1772556457102182100,8.29018212890625,-9.29086320836544,-3.134850807882845,-0.15149981743507088
1772556457112166100,8.300166259765625,-9.288573636123537,-3.1430113179847594,-0.1194533135014586
1772556457122149000,8.310149169921875,-9.287005948415398,-3.1487738270342347,-0.08441269665262661
1772556457132132000,8.320132080078125,-9.286229118824005,-3.1518384753018616,-0.04739980248329229
1772556457142115000,8.330114990234375,-9.286077727654575,-3.152624949504435,-0.010148714502266374
1772556457152099000,8.34009912109375,-9.28640330634713,-3.151574271407723,0.026074462052993474
1772556457162082300,8.350082275390625,-9.286727715995907,-3.150114135727286,0.062109757061558774
1772556457172065300,8.360065185546874,-9.286998934152722,-3.14839154971838,0.09828599491077475
1772556457182049300,8.37004931640625,-9.287128698012232,-3.146690298758447,0.1340497840681579
1772556457192032000,8.380031982421874,-9.287077844607829,-3.1451486222743985,0.16916313735963776
1772556457202018800,8.390018798828125,-9.28691184039116,-3.143640848059952,0.2029020148269832
1772556457212002800,8.4000029296875,-9.28664705197513,-3.1422005861237645,0.23484049180885774
1772556457221985500,8.409985595703125,-9.285985373196006,-3.1416680866822597,0.2660491018799133
1772556457231969500,8.419969482421875,-9.28448198289573,-3.143267923094332,0.2977355951284058
1772556457241952800,8.429952880859375,-9.281749927583336,-3.148068309113383,0.33040863346252586
1772556457251936800,8.439936767578125,-9.277868702235818,-3.1560043628096577,0.36217286812234667
1772556457261919700,8.449919677734375,-9.273428673961758,-3.165858817347884,0.3888935921896249
1772556457271902500,8.45990234375,-9.268945391067861,-3.1766961454436182,0.4069808183483779
1772556457281886500,8.469886474609375,-9.265040784844755,-3.1870345841065046,0.41498716080188747
1772556457291869700,8.47986962890625,-9.262002440062165,-3.1959798148453236,0.41401608728002753
1772556457301852700,8.489852783203125,-9.259595378920435,-3.2039658451631663,0.4060526341201737
1772556457311835600,8.499835693359374,-9.257028743302822,-3.2130300261065363,0.39274135365895924
1772556457321820000,8.50981982421875,-9.253464913341402,-3.2253853575497864,0.3750490816345438
1772556457331802600,8.519802734375,-9.247730753603577,-3.2441058401107785,0.35444943426344544
1772556457341785600,8.52978564453125,-9.23894188247025,-3.271400966532528,0.332073936326243
1772556457351769600,8.53976953125,-9.227288854077457,-3.306542130279541,0.3070835797155276
1772556457361752800,8.5497529296875,-9.214204916098714,-3.3455697800710795,0.2756269314338453
1772556457371735600,8.559735595703126,-9.202102974894641,-3.381928502914309,0.23290777018060907
1772556457381719600,8.569719482421876,-9.193923760092257,-3.407555696123838,0.1752624954143539
1772556457391702500,8.57970263671875,-9.192626706019043,-3.4140514878839254,0.1012787926517427
1772556457401685800,8.589685791015626,-9.199749105244875,-3.3962942973971364,0.013509232452418654
1772556457411669800,8.599669677734376,-9.214259861156345,-3.3557577043473716,-0.08177583620985969
1772556457421652500,8.609652587890626,-9.2326196937114,-3.3013109516277908,-0.17454981710035353
1772556457431635700,8.6196357421875,-9.249747938644886,-3.247871914646029,-0.2527274096225388
1772556457441618700,8.62961865234375,-9.260487943845988,-3.212711169415712,-0.30370831286245953
1772556457451602700,8.639602783203125,-9.25966084537208,-3.2134120111614464,-0.321008608160913
1772556457461585700,8.649585693359375,-9.243680601429938,-3.2606226751476526,-0.30511220657732335
1772556457471568600,8.659568603515625,-9.21078137139082,-3.3560593176424502,-0.2622108754239045
1772556457481552600,8.669552734375,-9.161580410370231,-3.4921477039992808,-0.20180828303983434
1772556457491535600,8.67953564453125,-9.099296095892786,-3.6545638330504295,-0.13174947123653255
1772556457501518800,8.689518798828125,-9.028362026491761,-3.828270002400875,-0.05838415153401438
1772556457511502800,8.6995029296875,-8.953944206628202,-3.999641006802022,0.011913963759253965
1772556457521485600,8.709485595703125,-8.88128988930583,-4.157843025289476,0.07360243009375408
1772556457531468500,8.719468505859375,-8.81530496674478,-4.294858463363349,0.12236853422787972
1772556457541452500,8.72945263671875,-8.760426544609665,-4.404642195640504,0.15632727412413805
1772556457551435800,8.739435791015625,-8.719853126680851,-4.483658156949281,0.17709155573872848
1772556457561418800,8.749418701171875,-8.695843305540084,-4.529669674278796,0.1865202408792451
1772556457571401500,8.7594013671875,-8.68938200057149,-4.542134603576362,0.1845089923883788
1772556457581385700,8.7693857421875,-8.699250483635067,-4.523659327948093,0.17301002204613758
1772556457591368700,8.77936865234375,-8.722745925512909,-4.478748173075914,0.15779520951854065
1772556457601351700,8.7893515625,-8.756898370483517,-4.412164115577936,0.14113227140870876
1772556457611335700,8.799335693359374,-8.797299354454875,-4.331655285362899,0.12112381313010118
1772556457621318700,8.809318603515624,-8.839610555961727,-4.245151598647237,0.10180163834891282
1772556457631301600,8.819301513671874,-8.880738685163855,-4.1587727073550225,0.08641748800324275
1772556457641285600,8.82928564453125,-8.918015984156728,-4.07845063188374,0.07492023469405248
1772556457651268600,8.8392685546875,-8.949797023820876,-4.0083582740038635,0.06765290600562002
1772556457661251800,8.849251953125,-8.975801233649253,-3.9498546471089124,0.06347325026737526
1772556457671235600,8.859235595703124,-8.996382249385118,-3.902812325426936,0.05954120348149444
1772556457681218600,8.869218505859376,-9.012695086282491,-3.8650706237927075,0.05416339203382376
1772556457691201800,8.879201904296876,-9.026336073622106,-3.8332089201077815,0.04639219634332694
1772556457701184800,8.889184814453126,-9.039019029584527,-3.8033144248425956,0.036357955658249556
1772556457711168800,8.899168701171876,-9.052188892281055,-3.7719589171141386,0.02418327116166474
1772556457721151500,8.9091513671875,-9.066886695197224,-3.736557641126215,0.00958118484657607
1772556457731134700,8.919134765625,-9.083385994577407,-3.696272392489016,-0.0072099547825200715
1772556457741118700,8.92911865234375,-9.1014716863662,-3.6514334260702133,-0.02506352459491463
1772556457751101700,8.939101806640625,-9.120545804670453,-3.603351532207429,-0.04350057568820193
1772556457761084700,8.949084716796875,-9.14015242241621,-3.553048747424781,-0.06201765833131503
1772556457771068700,8.959068603515625,-9.15991978368163,-3.501445693698525,-0.07827854127916507
1772556457781051600,8.9690517578125,-9.179560888218878,-3.449350764802098,-0.08960144266844726
1772556457791034600,8.97903466796875,-9.19837723236978,-3.3987335072427984,-0.09409626986966468
1772556457801018600,8.9890185546875,-9.21542247519493,-3.3523245150282976,-0.09107914140503853
1772556457811001900,8.999001953125,-9.2298198338598,-3.31278219371289,-0.07924497515852563
1772556457820984600,9.008984619140625,-9.24104849936068,-3.2817771068572994,-0.05785768910765182
1772556457830968600,9.018968505859375,-9.248643192273377,-3.260707430821657,-0.027831605635338926
1772556457840951800,9.028951904296875,-9.252243847113848,-3.250580296821892,0.009642436347407055
1772556457850934800,9.038934814453125,-9.251830590137839,-3.251352450238168,0.052226108394889156
1772556457860917500,9.04891748046875,-9.247515649548172,-3.262589591306448,0.09670195885603315
1772556457870901500,9.058901611328125,-9.24004312171042,-3.2821170063361524,0.14032639838592148
1772556457880884700,9.068884765625,-9.230547563612461,-3.306760449205339,0.18086774980919434
1772556457890867700,9.07886767578125,-9.220270499747992,-3.3331282316491007,0.2173876910961233
1772556457900851700,9.088851806640625,-9.210597831517457,-3.35767230579704,0.24761194803863762
1772556457910834400,9.09883447265625,-9.20231281825304,-3.3785803615301844,0.270211664919462
1772556457920817700,9.108817626953124,-9.195850928762555,-3.3950025040209293,0.2840230038573034
1772556457930801700,9.1188017578125,-9.190958480545877,-3.4078596475064753,0.2883791349738836
1772556457940784600,9.12878466796875,-9.186967949604988,-3.418967901498079,0.2840130304525606
1772556457950767900,9.138767822265624,-9.18282310488522,-3.4309646287620064,0.27316773824607954
1772556457960751900,9.148751953125,-9.177541365090011,-3.4462221113875504,0.25821614323193204
1772556457970734600,9.158734619140626,-9.170891259551048,-3.4651731878340244,0.2402296923002228
1772556457980717600,9.168717529296876,-9.163748402059078,-3.4853245799809693,0.22046925396593287
1772556457990701600,9.17870166015625,-9.157694508847595,-3.5024785438776016,0.19915495551945642
1772556458000684800,9.188684814453126,-9.154341106766461,-3.512496956805885,0.17545129598472267
1772556458010667500,9.19866748046875,-9.155160606455802,-3.511580426482856,0.14908715766961686
1772556458020650800,9.208650634765625,-9.160676739528775,-3.498246897657215,0.1210547482155729
1772556458030634800,9.218634765625,-9.170194509458542,-3.474100006133318,0.09245501460181549
1772556458040617700,9.22861767578125,-9.182537273681163,-3.4419735140323637,0.06488182929051109
1772556458050600700,9.2386005859375,-9.195269329482317,-3.4082077302917835,0.03905926877250895
1772556458060584700,9.248584716796875,-9.206237298220396,-3.3786700856402514,0.013016938298783497
1772556458070567700,9.258567626953125,-9.212874544277787,-3.360537632100284,-0.010857841160800307
1772556458080550700,9.268550537109375,-9.212584036898612,-3.361221230450272,-0.029549723248393275
1772556458090534700,9.27853466796875,-9.203542067787051,-3.3857352017208933,-0.044630785294529046
1772556458100517600,9.288517578125,-9.18446385782957,-3.436979066745937,-0.05640642172025982
1772556458110500600,9.29850048828125,-9.155158852890134,-3.5141531995803117,-0.06465211218786425
1772556458120484600,9.308484619140625,-9.116288147225976,-3.6137113059192894,-0.06905504615481477
1772556458130467600,9.318467529296875,-9.068968762168288,-3.7308357563480734,-0.07109721494033001
1772556458140450800,9.328450927734375,-9.0151769662261,-3.858988089008629,-0.07200989107214845
1772556458150434800,9.338434814453125,-8.9573619061172,-3.9913524864062664,-0.071795120376884
1772556458160417500,9.34841748046875,-8.89857946228087,-4.120765632782876,-0.07045085702792275
1772556458170400500,9.358400390625,-8.841662812316418,-4.241562049722671,-0.06733739204935263
1772556458180383700,9.3683837890625,-8.789902814462781,-4.347880736237764,-0.06265649052439257
1772556458190367700,9.37836767578125,-8.746199281814693,-4.435224673169851,-0.05624261859382968
1772556458200347100,9.38834716796875,-8.713276670899987,-4.49964424611032,-0.04894824206826742
1772556458210330400,9.398330322265625,-8.692575828176736,-4.539581996484101,-0.04134284966504201
1772556458220314400,9.408314453125,-8.685179288184642,-4.5537771105751395,-0.03403211794301169
1772556458230297300,9.41829736328125,-8.691667481160163,-4.541417102956771,-0.028818454398354513
1772556458240280300,9.4282802734375,-8.712330914482473,-4.501647987148165,-0.028982001796457914
1772556458250264300,9.438264404296875,-8.746470499971508,-4.434887696300446,-0.03748396858007181
1772556458260247300,9.448247314453125,-8.791705479970574,-4.344339118108153,-0.054956410141615196
1772556458270230300,9.458230224609375,-8.84462341568768,-4.235174102251231,-0.07952433095602318
1772556458280214300,9.46821435546875,-8.901368216216564,-4.113897792840004,-0.10895898102396168
1772556458290197200,9.478197265625,-8.957786853531003,-3.9885736693426965,-0.140445111128455
1772556458300180200,9.48818017578125,-9.01049669945538,-3.8667572617053985,-0.17182764386115595
1772556458310164200,9.498164306640625,-9.056834087738395,-3.7553541115328666,-0.20359909371305257
1772556458320147200,9.508147216796875,-9.095023240879177,-3.6598964262500404,-0.23684331953125073
1772556458330130400,9.51813037109375,-9.124562639096379,-3.583166822312772,-0.27139510255036875
1772556458340114400,9.528114501953125,-9.145804749089478,-3.525767649528384,-0.3059462097160518
1772556458350097200,9.53809716796875,-9.159913353940844,-3.485914070306718,-0.338789471784234
1772556458360080100,9.548080078125,-9.168524530419706,-3.460167634631693,-0.3684920612065121
1772556458370064400,9.558064453125,-9.173634420779347,-3.4438165115505455,-0.3936300826596096
1772556458380047400,9.56804736328125,-9.17717311629951,-3.4320223211213943,-0.4136410799551755
1772556458390030300,9.5780302734375,-9.180870801773667,-3.4203058721035715,-0.42837906875126064
1772556458400014300,9.588014404296874,-9.185793060606718,-3.4056937016442417,-0.4391425644258037
1772556458409997300,9.597997314453124,-9.192356656906009,-3.3868870021045208,-0.44717236082013695
1772556458419980300,9.607980224609374,-9.200696030706167,-3.3633506436944005,-0.45326293278019875
1772556458429964300,9.61796435546875,-9.210604845780134,-3.3353906236231325,-0.4585995080351829
1772556458439947300,9.627947265625,-9.221721283078192,-3.303787570874393,-0.46392358913477505
1772556458449930200,9.63793017578125,-9.233952988141775,-3.2685879549384116,-0.4699260809525847
1772556458459914200,9.647914306640626,-9.24724150878191,-3.2296798398733135,-0.47757853193450717
1772556458469897200,9.657897216796876,-9.261513195240497,-3.1872271840691564,-0.48615302966479207
1772556458479880400,9.66788037109375,-9.276285816958547,-3.142597768747806,-0.4949604959007352
1772556458489864400,9.677864501953126,-9.29091932246685,-3.0975244090512395,-0.5045286077782511
1772556458499847200,9.68784716796875,-9.30494317164421,-3.053455257961154,-0.5146143868543207
1772556458509830100,9.697830078125,-9.318132908084989,-3.0112922327533362,-0.5243074768183753
1772556458519813400,9.7078134765625,-9.329851402929425,-2.9733479942843317,-0.5324134071888402
1772556458529797400,9.71779736328125,-9.3396123339653,-2.9414450818061826,-0.5384486687650903
1772556458539780400,9.7277802734375,-9.346975556209683,-2.917382653695345,-0.5415823271483182
1772556458549763300,9.737763427734375,-9.351610814794897,-2.9024302914962172,-0.5419077962430193
1772556458559747300,9.747747314453125,-9.353439199265837,-2.89677387316972,-0.5406066139839589
1772556458569730300,9.757730224609375,-9.352699194553495,-2.899400130020082,-0.5393379457550123
1772556458579713300,9.76771337890625,-9.349908102530241,-2.9085987509980797,-0.5381992605812848
1772556458589697300,9.777697265625,-9.345762088766694,-2.9220225884556768,-0.5374973959222435
1772556458599680300,9.78768017578125,-9.340992390146852,-2.937271010991931,-0.5372970145119353
1772556458609663200,9.797663330078125,-9.336050257569552,-2.952866055008769,-0.5377123903797939
1772556458619647200,9.807647216796875,-9.330836322313546,-2.9687939842417834,-0.540495372161828
1772556458629630200,9.817630126953125,-9.324646235501765,-2.987247340299189,-0.5456244786785915
1772556458639613400,9.827613525390625,-9.316841114708781,-3.0105136495962737,-0.5510618108943104
1772556458649597400,9.837597412109375,-9.30723800458312,-3.039133302620053,-0.5562114122098312
1772556458659580200,9.847580078125,-9.29664529889822,-3.0703739517971873,-0.5617568809751421
1772556458669563400,9.8575634765625,-9.28683468350172,-3.098097532764077,-0.5717358386758714
1772556458679547400,9.86754736328125,-9.280283946684003,-3.1142738838002084,-0.5899286806335673
1772556458689530400,9.8775302734375,-9.279836787438391,-3.1100992284640667,-0.6183060858666897
1772556458699513000,9.88751318359375,-9.287686331894994,-3.078681176893413,-0.6564977232255041
1772556458709497000,9.8974970703125,-9.30399215452969,-3.0190047068268058,-0.7012343252483755
1772556458719480300,9.907480224609374,-9.326050257080793,-2.9378643007099625,-0.7510807445656508
1772556458729463300,9.91746337890625,-9.349396645876764,-2.8497862042844293,-0.7986796041518449
1772556458739447300,9.927447265625,-9.369275650823116,-2.775496394714713,-0.8268447183411568
1772556458749430300,9.93743017578125,-9.381234968686103,-2.7342455159157515,-0.8286854508370161
1772556458759413200,9.947413330078126,-9.3818189060539,-2.738662455575168,-0.8072083630442619
1772556458769397200,9.957397216796876,-9.369168683317303,-2.7933848103657364,-0.765550510879606
1772556458779380200,9.967380126953126,-9.343426923817395,-2.89267111402601,-0.7093709430180489
1772556458789363500,9.977363525390626,-9.30624957806766,-3.024514117898047,-0.6453000373847783
1772556458799347500,9.987347412109376,-9.260172886547446,-3.175752727113664,-0.5780811525819822
1772556458809330200,9.997330078125,-9.208122381314634,-3.334160789567232,-0.5140399114346131
1772556458819313400,10.0073134765625,-9.153494719070196,-3.4889831024885174,-0.4592531131057068
1772556458829297400,10.01729736328125,-9.099933809274434,-3.6313892936900256,-0.4178562864974141
1772556458839280400,10.0272802734375,-9.051157211145759,-3.7542525800317526,-0.39054946963787074
1772556458849263000,10.03726318359375,-9.010736937952041,-3.8516915022596714,-0.376135305968672
1772556458859247000,10.0472470703125,-8.981583324182033,-3.9195650150462984,-0.3722282520601526
1772556458869230300,10.057230224609375,-8.965777852284909,-3.955223772926628,-0.3760525961212814
1772556458879213300,10.06721337890625,-8.9637606672436,-3.958963251715898,-0.38468821292165667
1772556458889197300,10.077197265625,-8.974179769927263,-3.9341190255776044,-0.3964635890524834
1772556458899180300,10.08718017578125,-8.993896862310171,-3.8873482143133877,-0.4107569028209895
1772556458909163300,10.097163330078125,-9.018806262639165,-3.827390004695952,-0.42732806186098604
1772556458919147300,10.107147216796875,-9.045096888193488,-3.762942666965723,-0.44369781657736745
1772556458929130200,10.117130126953125,-9.06980404394865,-3.7014091708555816,-0.45674226279594
1772556458939113500,10.127113525390625,-9.090918728169799,-3.6483719926729794,-0.4636394384311512
1772556458949097500,10.137097412109375,-9.107747113373875,-3.6061443777963516,-0.463735373086296
1772556458959080200,10.147080078125,-9.120624130603671,-3.574129237115383,-0.4584732513070106
1772556458969063200,10.157063232421875,-9.130819945925474,-3.5490213916048408,-0.45050198016688225
1772556458979047400,10.16704736328125,-9.13989055660963,-3.5265403874665497,-0.44305560968369245
1772556458989030400,10.177030517578125,-9.149192053440213,-3.5030125046238303,-0.43769236561749125
1772556458999013000,10.18701318359375,-9.160003370311856,-3.475088140387833,-0.4341515512054786
1772556459008997000,10.1969970703125,-9.172799723520875,-3.4414614728569983,-0.4318200395179912
1772556459018980400,10.20698046875,-9.187604493942857,-3.401865960049629,-0.430829457578063
1772556459028963300,10.21696337890625,-9.203892196398973,-3.357437620258331,-0.43169758218210186
1772556459038947300,10.226947265625,-9.221082400652765,-3.3095588477522133,-0.4345577939188108
1772556459048930300,10.236930419921874,-9.2383608677119,-3.260395880654454,-0.4391979844074696
1772556459058913300,10.246913330078126,-9.25499811425805,-3.2120629346400498,-0.44502289116866883
1772556459068897300,10.256897216796874,-9.270383314916492,-3.1665950226679445,-0.4506218802195042
1772556459078880300,10.26688037109375,-9.284199074301123,-3.1254706928580998,-0.45327929939310996
1772556459088863500,10.276863525390626,-9.296351868909596,-3.089451284971833,-0.451132313959673
1772556459098847500,10.286847412109376,-9.306815979778767,-3.058772361330688,-0.44437900377456097
1772556459108830200,10.296830322265626,-9.315832229927182,-3.0328733654424544,-0.4328229694828391
1772556459118813200,10.306813232421876,-9.32355551765561,-3.0113907246917484,-0.4161928467972204
1772556459128797200,10.316797119140626,-9.330182242318987,-2.9937811259821054,-0.3941532297508791
1772556459138780400,10.326780517578126,-9.335905880662798,-2.979326191911101,-0.36722978618573393
1772556459148763100,10.33676318359375,-9.340654536494613,-2.9681016180634496,-0.33604430126193907
1772556459158747100,10.3467470703125,-9.344313059002161,-2.9602590878695247,-0.30176914322711523
1772556459168730400,10.35673046875,-9.346911843323706,-2.9554128168821334,-0.2667467287552543
1772556459178713300,10.36671337890625,-9.348514017823337,-2.9531349350780247,-0.23381714011048896
1772556459188697300,10.376697265625,-9.349227719050646,-2.9530984024599194,-0.2038096494575031
1772556459198683600,10.38668359375,-9.34899332577288,-2.9555972335383296,-0.17649786416189744
1772556459208667000,10.3966669921875,-9.347343805000186,-2.9621099764332173,-0.15315073558040893
1772556459218651000,10.40665087890625,-9.343882266369462,-2.973923456084728,-0.13424478605045004
1772556459228633600,10.416633544921876,-9.338127648365496,-2.9925372634008527,-0.12030505322627723
1772556459238616800,10.426616943359376,-9.32988004450202,-3.01849325017333,-0.11145833269217982
1772556459248600800,10.436600830078126,-9.319578430718183,-3.0503599222943185,-0.10555664350087754
1772556459258583800,10.446583740234376,-9.30861806076467,-3.0837901904702183,-0.1012550555831287
1772556459268566800,10.45656689453125,-9.2990494374305,-3.112596013715863,-0.09904721594108268
1772556459278550800,10.46655078125,-9.293283713510633,-3.1297137372553347,-0.10079026021612808
1772556459288533800,10.47653369140625,-9.293907398366928,-3.127592799578607,-0.1088088228303939
1772556459298516700,10.486516845703125,-9.302045696637034,-3.1027424359604714,-0.12376110283113084
1772556459308500700,10.496500732421875,-9.31684169923067,-3.057157035088539,-0.14365686711603776
1772556459318483700,10.506483642578125,-9.335853858214616,-2.9975501231268047,-0.16403983952915294
1772556459328466700,10.516466796875,-9.355360522717238,-2.935101557998359,-0.18107169314976782
1772556459338450700,10.52645068359375,-9.371482220956683,-2.8823993108585477,-0.19360650934576987
1772556459348433700,10.53643359375,-9.380883086508511,-2.8511864264711737,-0.20038544716248288
1772556459358417000,10.5464169921875,-9.381175347453356,-2.850371310696006,-0.19828526001283897
1772556459368401000,10.55640087890625,-9.371130338779091,-2.8838632459312676,-0.18878195699984207
1772556459378383600,10.566383544921875,-9.349857833647727,-2.9530718067139383,-0.1729535974174738
1772556459388366600,10.57636669921875,-9.31713863635063,-3.0557553515970706,-0.1538355851725675
1772556459398350600,10.5863505859375,-9.273553177124262,-3.186415283164382,-0.1354610299724154
1772556459408333800,10.596333740234375,-9.220788386142253,-3.3366020452395078,-0.12055565785332582
1772556459418317800,10.60631787109375,-9.16128288872838,-3.4970147255137563,-0.11027986349733546
1772556459428300800,10.61630078125,-9.098051648789644,-3.6585718996480106,-0.10338099822853691
1772556459438283800,10.62628369140625,-9.034693567600845,-3.8125451945245263,-0.09591521065882407
1772556459448267800,10.636267822265625,-8.975198591580986,-3.9508302141427993,-0.08447492083441466
1772556459458250800,10.646250732421874,-8.923640253779292,-4.066259258830547,-0.06758696919651702
1772556459468233700,10.656233642578124,-8.883447359600662,-4.153648788470029,-0.04408031180491671
1772556459478217700,10.6662177734375,-8.856433680468797,-4.211149083541334,-0.013796521536266664
1772556459488200700,10.67620068359375,-8.842751776596904,-4.239760845519602,0.023518025885696986
1772556459498183700,10.68618359375,-8.8415447388947,-4.24177978412658,0.06910649778083898
1772556459508167700,10.696167724609374,-8.851613128444551,-4.219576135624945,0.12042448748801834
1772556459518151000,10.70615087890625,-8.87164703169167,-4.175464898958802,0.17249180685831234
1772556459528133600,10.716133544921876,-8.900348810040951,-4.111694729837775,0.21940772568164393
1772556459538117600,10.72611767578125,-8.93666223243773,-4.029966002438962,0.25656678685601797
1772556459548100600,10.7361005859375,-8.9787343644917,-3.933577173785865,0.2822954494123347
1772556459558083800,10.746083740234376,-9.023743134519457,-3.8280654197394846,0.29724850573120637
1772556459568067800,10.75606787109375,-9.068596421724557,-3.720271107713878,0.3008672076850198
1772556459578050800,10.76605078125,-9.110465140160917,-3.617229835434258,0.2923286032520234
1772556459588033800,10.77603369140625,-9.147114662644267,-3.5251328587561845,0.27224739026445893
1772556459598017800,10.786017822265626,-9.177281252849102,-3.448053418467939,0.24253904695482922
1772556459608000800,10.796000732421875,-9.200749222198128,-3.3872838924676176,0.20712498455056919
1772556459617983700,10.805983642578125,-9.217827782770991,-3.3426299272269007,0.16989283987367523
1772556459627967700,10.8159677734375,-9.22933468069136,-3.3123750742167233,0.13393305322015658
1772556459637950700,10.82595068359375,-9.23645883348286,-3.293607829904556,0.10177674136967398
1772556459647933700,10.83593359375,-9.240529443922638,-3.282836845043301,0.07734847562112845
1772556459657917700,10.845917724609375,-9.242944103848934,-3.2763352080643173,0.06323926341498735
1772556459667901000,10.85590087890625,-9.244914527139066,-3.270828719602525,0.06016862836456857
1772556459677884000,10.8658837890625,-9.247362504813074,-3.263764188043773,0.06717980403457768
1772556459687867600,10.87586767578125,-9.250750393685697,-3.253788445213437,0.08281954570966772
1772556459697850600,10.8858505859375,-9.255356426176428,-3.2400270463645455,0.10483782770703547
1772556459707834600,10.895834716796875,-9.261392199209332,-3.2218007770612833,0.13039660445600748
1772556459717817900,10.90581787109375,-9.269007934910059,-3.198649326315522,0.156600008384604
1772556459727800800,10.91580078125,-9.278169146487116,-3.170712102597952,0.18039832393284885
1772556459737784800,10.925784912109375,-9.288684695282578,-3.138521605350077,0.2010003824567422
1772556459747767800,10.935767822265625,-9.3000016235888,-3.1034917930230494,0.22065491273114457
1772556459757750800,10.945750732421875,-9.311440132448077,-3.067486998184025,0.24080299867615101
1772556459767734800,10.95573486328125,-9.32217721503973,-3.0329318176314235,0.26214736346732825
1772556459777717800,10.9657177734375,-9.331452408385276,-3.00222103754729,0.2846998619392514
1772556459787700700,10.97570068359375,-9.338535644644498,-2.9778292313516137,0.30769224966578185
1772556459797684700,10.985684814453125,-9.342973919352888,-2.961383415724337,0.3308083733698353
1772556459807667700,10.995667724609374,-9.344431132423876,-2.9541406049892305,0.3536150657985359
1772556459817650700,11.005650634765624,-9.342687503626943,-2.957117867234349,0.37420276700351385
1772556459827634700,11.015634765625,-9.33799320833087,-2.969870965823531,0.39003578449469056
1772556459837617700,11.02561767578125,-9.330663888356089,-2.9916514204770324,0.39890210477840155
1772556459847600600,11.0356005859375,-9.321232627665996,-3.0208667013064026,0.39921555464174596
1772556459857584600,11.045584716796874,-9.3103903311342,-3.0551717064902184,0.3910821882750839
1772556459867567900,11.05556787109375,-9.298855960685014,-3.091906276908517,0.3765376031592488
1772556459877550800,11.06555078125,-9.286866247683763,-3.12982508867532,0.35873244534488763
1772556459887534800,11.075534912109376,-9.274804053968191,-3.1675863717928525,0.33879845880828796
1772556459897517600,11.085517578125,-9.263833747142552,-3.2019232334196563,0.31537345181815324
1772556459907501800,11.095501708984376,-9.256197553175687,-3.2268247427031396,0.28424687574105334
1772556459917484800,11.10548486328125,-9.254705268791318,-3.234691822816431,0.23997085870094595
1772556459927467800,11.1154677734375,-9.26167335423827,-3.2185648638799784,0.1806355302222073
1772556459937451800,11.12545166015625,-9.27834859470725,-3.1734666620031,0.1083424382945057
1772556459947434800,11.135434814453125,-9.3038612216264,-3.099630733680725,0.029017283172393216
1772556459957417700,11.145417724609375,-9.334889981618524,-3.004606179118156,-0.05052943771195132
1772556459967401700,11.155401611328125,-9.366261855959891,-2.9033488676458594,-0.1186875258938875
1772556459977384700,11.165384765625,-9.392883320903778,-2.8136598288923502,-0.16565653574448078
1772556459987368000,11.175367919921875,-9.410299735128879,-2.753572732198238,-0.18567947920616715
1772556459997351700,11.1853515625,-9.41527927710712,-2.7369343166083095,-0.17914657030608505
1772556460007334700,11.195334716796875,-9.406190546244382,-2.7696763102591038,-0.15120015863506123
1772556460017318000,11.20531787109375,-9.382982104614376,-2.8492262323141095,-0.10927185549857094
1772556460027302000,11.215302001953125,-9.346969710990786,-2.966656972213089,-0.05904071118002757
1772556460037284900,11.225284912109375,-9.300433585265278,-3.1100323007076978,-0.003922297428835008
1772556460047267600,11.235267578125,-9.24604791508317,-3.2677555957674977,0.05252947982221376
1772556460057251600,11.24525146484375,-9.187286514034867,-3.428222344316542,0.10696887578582391
1772556460067234800,11.25523486328125,-9.127801474887132,-3.5817847203046083,0.15633121964689342
1772556460077218800,11.26521875,-9.071591511887311,-3.7198636959567666,0.1980534788172692
1772556460087201800,11.275201904296875,-9.022291182145477,-3.8360797993689775,0.2305253137571737
1772556460097184800,11.285184814453125,-8.98259630061686,-3.92663071564883,0.25478973071351646
1772556460107168800,11.295168701171875,-8.954328237509728,-3.9894726640090346,0.2729552462728694
1772556460117151700,11.30515185546875,-8.938497631171344,-4.0239086020961405,0.2860196027683094
1772556460127134700,11.315134765625,-8.934671350881457,-4.031838518312573,0.29377374229272823
1772556460137118700,11.32511865234375,-8.941165389075875,-4.017261711427569,0.2958987533563748
1772556460147101700,11.335101806640624,-8.955750963789225,-3.984890889176726,0.2924918675223365
1772556460157084700,11.345084716796874,-8.97563815204203,-3.940607218553126,0.282700011625234
1772556460167068700,11.355068603515624,-8.99745952322781,-3.8916292526334524,0.26706476346217095
1772556460177052000,11.365052001953124,-9.018782881763578,-3.843299229228496,0.24695675379922613
1772556460187035000,11.375034912109374,-9.0376319591403,-3.800158298899233,0.2244829831193201
1772556460197014800,11.385014892578125,-9.052611501607299,-3.765566585728526,0.20277007727669552
1772556460206997800,11.394997802734375,-9.063811525535582,-3.739605922780931,0.1818129034385085
1772556460216981800,11.404981689453125,-9.072064974617957,-3.720584119185805,0.15897528614858164
1772556460226965000,11.414965087890625,-9.079029552933573,-3.7046266715973615,0.13170500190714374
1772556460236948000,11.424947998046875,-9.086376408565044,-3.687623806609213,0.09788788983812555
1772556460246932000,11.434931884765625,-9.095710054099559,-3.6654169432371853,0.056265108986850824
1772556460256915000,11.4449150390625,-9.107687492141126,-3.6359836357429622,0.005843858627663576
1772556460266898000,11.45489794921875,-9.122318659561872,-3.5987346860617397,-0.052918670936045235
1772556460276882000,11.4648818359375,-9.138934863319992,-3.5547365543812512,-0.11875186896752565
1772556460286865000,11.474864990234375,-9.157187728369236,-3.5043002063468096,-0.19022031923988833
1772556460296848000,11.484847900390625,-9.176587425366044,-3.4482851813971993,-0.2644918077016249
1772556460306832000,11.494831787109375,-9.196505593279003,-3.3882834248989817,-0.3379372754016891
1772556460316814800,11.50481494140625,-9.215780787113308,-3.3276281729280948,-0.4082387094549835
1772556460326798800,11.514798828125,-9.23343919340074,-3.2696468163415786,-0.47264619009885933
1772556460336782000,11.524781982421874,-9.248910903298855,-3.2169644429460167,-0.528365045113489
1772556460346764800,11.534764892578124,-9.262155584797263,-3.170768216699362,-0.5736554816268384
1772556460356748800,11.544748779296874,-9.2732223377347,-3.1319781750559805,-0.6069938337355851
1772556460366731800,11.554731689453124,-9.282510975083708,-3.1004367893666025,-0.6266327463157475
1772556460376715000,11.564715087890624,-9.2900606598109,-3.0762045576468107,-0.6341293856814503
1772556460386699000,11.574698974609374,-9.295907047751545,-3.0592171824887395,-0.6306218890171498
1772556460396682000,11.584681884765626,-9.299814576584101,-3.049827715113759,-0.6183723560359329
1772556460406665000,11.5946650390625,-9.301638284879923,-3.0475311286091804,-0.6020443581020459
1772556460416649000,11.60464892578125,-9.301163068583607,-3.0516575608894225,-0.5883290634172037
1772556460426632000,11.6146318359375,-9.29807913109362,-3.0622680944919582,-0.5819101362856105
1772556460436616000,11.624615966796876,-9.292460706689953,-3.0789582402691242,-0.5835843896407633
1772556460446599000,11.634598876953126,-9.284877704215049,-3.1003268992513418,-0.5911080266112462
1772556460456582000,11.644581787109376,-9.27625892895162,-3.124099404504895,-0.6011702421486378
1772556460466566000,11.65456591796875,-9.267454275727271,-3.148020086057484,-0.6120799413608387
1772556460476548900,11.664548828125,-9.259415930700301,-3.1696362900599837,-0.6220980985607951
1772556460486532000,11.674531982421875,-9.252753550201653,-3.1873785752385855,-0.6305198168821633
1772556460496516000,11.68451611328125,-9.247914877998829,-3.2000521788507696,-0.6372742595784365
1772556460506498800,11.694498779296875,-9.244841461902856,-3.207729873871803,-0.6432396707888692
1772556460516482800,11.70448291015625,-9.24311829137206,-3.211495071624219,-0.6491927339743823
1772556460526465800,11.7144658203125,-9.242064398404956,-3.2132363623335958,-0.6555444410886615
1772556460536449000,11.724448974609375,-9.241208658358454,-3.2145456913664936,-0.661168418450281
1772556460546433000,11.73443310546875,-9.240091052505374,-3.217031955224275,-0.664688555400446
1772556460556416000,11.744416015625,-9.238421073466538,-3.2213439732044935,-0.6670091073025017
1772556460566399000,11.75439892578125,-9.236586259254812,-3.2262069030657408,-0.6689123105753213
1772556460576383000,11.764383056640625,-9.235523598459363,-3.2285698328047987,-0.6721749656330793
1772556460586366000,11.774365966796875,-9.236579829514026,-3.2237627247840166,-0.6806871387168765
1772556460596349000,11.784348876953125,-9.241218010708689,-3.2066783189922567,-0.6982032869894057
1772556460606333000,11.7943330078125,-9.250175224146247,-3.1744568420842287,-0.7262664021089673
1772556460616316000,11.80431591796875,-9.263021261715888,-3.1283433256849644,-0.761764927926287
1772556460626300000,11.8142998046875,-9.278644362783432,-3.071827365475893,-0.8006364373080432
1772556460636283000,11.824282958984375,-9.295405527970194,-3.009539836128056,-0.8417208004336804
1772556460646265900,11.834265869140625,-9.311292832931876,-2.9473554748937487,-0.8850477548543363
1772556460656250000,11.84425,-9.323991570985317,-2.8925732066094874,-0.9309043008178473
1772556460666232800,11.85423291015625,-9.331400385937094,-2.8526100295335053,-0.9787555277299136
1772556460676215800,11.8642158203125,-9.331946913903952,-2.833687886920571,-1.0273098614100367
1772556460686199800,11.87419970703125,-9.324596551141143,-2.8403347775891423,-1.074606596244499
1772556460696183000,11.88418310546875,-9.309593627798558,-2.872844131527841,-1.1174142029661684
1772556460706167000,11.8941669921875,-9.288052242597937,-2.9280212443485856,-1.1528928550392388
1772556460716149800,11.904149658203124,-9.261742912343143,-3.0002357089489697,-1.1785971320729702
1772556460726133000,11.914133056640624,-9.232957547363638,-3.081588588772714,-1.1944439588937907
1772556460736117000,11.924116943359374,-9.203962339025736,-3.164818660645187,-1.2005766894951462
1772556460746100000,11.934099853515624,-9.177105896282196,-3.242818430648744,-1.1980161182921378
1772556460756083000,11.9440830078125,-9.154292591449618,-3.310343276128173,-1.1878273902982472
1772556460766067000,11.95406689453125,-9.136696144482492,-3.3643685885652896,-1.171407439764589
1772556460776050000,11.9640498046875,-9.12495309971869,-3.4031840569108724,-1.150631851304695
1772556460786034000,11.974033935546874,-9.119242905378341,-3.4263170952171085,-1.1270060610454529
1772556460796017000,11.984016845703126,-9.119657915920019,-3.4331524941951033,-1.102582471472025
1772556460805999900,11.993999755859376,-9.126062522265315,-3.4234970693603155,-1.0793672347750514
1772556460815982800,12.00398291015625,-9.138322284379601,-3.396916228687763,-1.0594408104903996
1772556460825965800,12.0139658203125,-9.156290487268567,-3.35322438647747,-1.0433661662630735
1772556460835949800,12.02394970703125,-9.179233555960655,-3.2940698944583535,-1.030124845765531
1772556460845933000,12.03393310546875,-9.205487356635928,-3.223616594311595,-1.018668216727674
1772556460855916000,12.043916015625,-9.23278511340618,-3.147233319593966,-1.0104353720419108
1772556460865899800,12.053899658203125,-9.258667742681503,-3.0713989109307525,-1.006959658755362
1772556460875882800,12.0638828125,-9.280856778135895,-3.0028005910009146,-1.0095889112804084
1772556460885867000,12.073866943359375,-9.297951705321669,-2.946470801013708,-1.018226025918126
1772556460895850000,12.08385009765625,-9.309508287602663,-2.9049700391069053,-1.0317885411940515
1772556460905833000,12.0938330078125,-9.316181774017215,-2.877544272042811,-1.0482756386797873
1772556460915817000,12.10381689453125,-9.318791079732776,-2.8622967262893915,-1.066667327677831
1772556460925800000,12.113800048828125,-9.318665407526492,-2.8558193469688296,-1.084967027543485
1772556460935783000,12.123782958984375,-9.317237420549988,-2.854451858007908,-1.1007169698610901
1772556460945767000,12.133766845703125,-9.315705973199009,-2.855051577466726,-1.1120653162188827
1772556460955750000,12.14375,-9.314895825859903,-2.8554332702606913,-1.1178557361885904
1772556460965734000,12.15373388671875,-9.315330125623941,-2.8542010981172323,-1.117383150240779
1772556460975716900,12.163716796875,-9.317330944052339,-2.850322795379162,-1.1105821649890393
1772556460985699800,12.173699951171875,-9.321161315995454,-2.8428870924204586,-1.097419024294242
1772556460995683800,12.183683837890625,-9.326886707904935,-2.8312252961993214,-1.0787641543153672
1772556461005667000,12.1936669921875,-9.334366250005363,-2.8148016924038526,-1.0568249289035796
1772556461015651000,12.203651123046875,-9.343472516524791,-2.793305315388739,-1.0331254888862371
1772556461025633800,12.2136337890625,-9.354055285337568,-2.7661615801364183,-1.0101403346180915
1772556461035616800,12.22361669921875,-9.365931016570329,-2.7329896706357597,-0.9901969591986387
1772556461045600800,12.233600830078124,-9.378913247740268,-2.693770005403459,-0.9746662856549024
1772556461055584000,12.243583984375,-9.392550727948546,-2.64967045917511,-0.9641710489951073
1772556461065568000,12.253568115234375,-9.406277055484056,-2.6028818199932573,-0.9577803250446915
1772556461075551000,12.263551025390624,-9.419593048653006,-2.555742759938538,-0.9538472964446991
1772556461085534000,12.273533935546874,-9.43187794520855,-2.5110730126067993,-0.95109237171337
1772556461095518000,12.28351806640625,-9.4428587734282,-2.4705717831313607,-0.9481992806203663
1772556461105501000,12.2935009765625,-9.452210539141296,-2.4359596116945146,-0.9445631891403347
1772556461115484000,12.30348388671875,-9.459666700366139,-2.4084165018610655,-0.9405401441693305
1772556461125468000,12.313468017578124,-9.46501682922244,-2.3887051085665822,-0.9369805519916117
1772556461135451000,12.323450927734376,-9.468032377651333,-2.3773567622087897,-0.9353720208164304
1772556461145435000,12.333434814453126,-9.468962351977824,-2.373575490104407,-0.9355591408863663
1772556461155417900,12.34341796875,-9.46822526987493,-2.3758123092457653,-0.9373418595846742
1772556461165401000,12.353401123046876,-9.466424357932805,-2.381995089533925,-0.9398383525755256
1772556461175385000,12.363385009765626,-9.464166349872945,-2.3899784895032643,-0.9423092727337032
1772556461185367800,12.373367919921876,-9.461777993431687,-2.3985450961880384,-0.9445214688904583
1772556461195351800,12.383351806640626,-9.459093284392356,-2.4080266257606446,-0.9472845038630068
1772556461205339000,12.3933388671875,-9.45612040606141,-2.418734043866396,-0.9496817011978477
1772556461215322000,12.403322021484374,-9.452902028536796,-2.4310735932186245,-0.9502157350093126
1772556461225306000,12.41330615234375,-9.449831535050272,-2.443490737851709,-0.948904798541218
1772556461235289000,12.4232890625,-9.447434995302558,-2.453518356999755,-0.9468907553050666
1772556461245273000,12.433273193359375,-9.446811310446261,-2.456461424714327,-0.945482422877103
1772556461255256000,12.443256103515624,-9.449012619882822,-2.4474210630379614,-0.9469299182716756
1772556461265239000,12.453239013671874,-9.454922720709442,-2.4217453545115886,-0.953922845898941
1772556461275223000,12.46322314453125,-9.464751456284523,-2.378335690243542,-0.9655993282325566
1772556461285206000,12.4732060546875,-9.477339135178923,-2.3211029600672424,-0.9812769359663128
1772556461295190000,12.48318994140625,-9.490149516913295,-2.255350969479233,-1.0103648640889673
1772556461305173000,12.493173095703124,-9.50104968111217,-2.1887626741975543,-1.0534491688601673
1772556461315156000,12.503156005859376,-9.509247016093134,-2.133966815779358,-1.091234709636122
1772556461325140000,12.513139892578126,-9.513049915507436,-2.1034847298845647,-1.1169671898510307
1772556461335123000,12.523123046875,-9.511346034198999,-2.104946911391616,-1.1286606963846832
1772556461345107200,12.533107177734376,-9.50401496065855,-2.140254371616244,-1.1240100940998643
1772556461355090000,12.54308984375,-9.491600884765386,-2.205797249498218,-1.1019769067943095
1772556461365073000,12.553072998046876,-9.474880636110901,-2.294166437824815,-1.0648109592214225
1772556461375057000,12.563056884765626,-9.454929734972119,-2.3964340953834355,-1.0157720568947493
1772556461385040100,12.5730400390625,-9.433024192634225,-2.503998251914978,-0.9583490648433566
1772556461395024100,12.583024169921876,-9.41039092054367,-2.6098788392737506,-0.8963575958326458
1772556461405006800,12.5930068359375,-9.38806569148898,-2.709170988152921,-0.8336636776410042
1772556461414990800,12.602990966796876,-9.367095968696475,-2.798135804285109,-0.7735224396068602
1772556461424974000,12.61297412109375,-9.348670085167884,-2.873302981211245,-0.7189450462449342
1772556461434957000,12.62295703125,-9.334290262159705,-2.930871957604587,-0.6718655343577266
1772556461444941000,12.632941162109375,-9.32547567206323,-2.9674899159058925,-0.632366979118809
1772556461454924000,12.642924072265625,-9.323251566272974,-2.9811680203855038,-0.599997910433635
