time,seconds_elapsed,z,y,x
1772556448881076700,0.06907666015625,-0.45376482605934143,-0.3292367458343506,0.0022093583829700947
1772556448891060000,0.07906005859375,-0.5013850927352905,-0.28891435265541077,-0.019401127472519875
1772556448901042700,0.089042724609375,-0.54998379945755,-0.24133539199829102,-0.05534341558814049
1772556448911025700,0.099025634765625,-0.5921155214309692,-0.19707445800304413,-0.07152558118104935
1772556448921009000,0.1090087890625,-0.6134346723556519,-0.1591039001941681,-0.05411197245121002
1772556448930991900,0.118991943359375,-0.6208619475364685,-0.13140276074409485,0.0003099919413216412
1772556448940974600,0.128974609375,-0.6282224059104919,-0.11286450177431107,0.06756199896335602
1772556448950957800,0.138957763671875,-0.626651406288147,-0.0824836939573288,0.13469922542572021
1772556448960939800,0.148939697265625,-0.6186302304267883,-0.0452905148267746,0.18434055149555206
1772556448970922800,0.1589228515625,-0.5816804766654968,-0.01104359608143568,0.2051781862974167
1772556448980905700,0.16890576171875,-0.5343363881111145,0.021044831722974777,0.18996568024158478
1772556448990889000,0.178888916015625,-0.4797269105911255,0.03701314702630043,0.1449558585882187
1772556449000872000,0.188871826171875,-0.42009395360946655,0.047877777367830276,0.08081761747598648
1772556449010854700,0.198854736328125,-0.35779649019241333,0.056418269872665405,0.012794625014066696
1772556449020838000,0.208837890625,-0.305775910615921,0.062429554760456085,-0.046232208609580994
1772556449030820900,0.21882080078125,-0.2680698037147522,0.0472378209233284,-0.09184762835502625
1772556449040803800,0.228803955078125,-0.2395867556333542,0.03711887449026108,-0.12023213505744934
1772556449050786800,0.238786865234375,-0.2181970477104187,0.02581801451742649,-0.12186864763498306
1772556449060769800,0.248769775390625,-0.21017028391361237,0.020065853372216225,-0.0979369506239891
1772556449070752000,0.258751953125,-0.2138526290655136,0.015432751737535,-0.047271907329559326
1772556449080734700,0.268734619140625,-0.22474069893360138,0.0208903681486845,0.005512476898729801
1772556449090717700,0.2787177734375,-0.25051024556159973,0.03067988157272339,0.0589783638715744
1772556449100701000,0.288700927734375,-0.28499898314476013,0.0441027469933033,0.10571577399969101
1772556449110683600,0.29868359375,-0.3339100778102875,0.04922187328338623,0.1516108363866806
1772556449120666600,0.30866650390625,-0.3830595016479492,0.03905392438173294,0.18184703588485718
1772556449130649900,0.31864990234375,-0.4319996237754822,0.017434118315577507,0.19487148523330688
1772556449140632800,0.3286328125,-0.48767539858818054,-0.024282969534397125,0.19268076121807098
1772556449150615800,0.33861572265625,-0.5216397643089294,-0.05573676526546478,0.1906445175409317
1772556449160598800,0.348598876953125,-0.5407359600067139,-0.04145662859082222,0.2047068029642105
1772556449170581800,0.358581787109375,-0.5564451217651367,-0.009895773604512215,0.2359859049320221
1772556449180565000,0.36856494140625,-0.5763216614723206,0.03301973640918732,0.2740272879600525
1772556449190546400,0.37854638671875,-0.6031255722045898,0.08003757894039154,0.3168692886829376
1772556449200529700,0.38852978515625,-0.6067612767219543,0.13037079572677612,0.35810035467147827
1772556449210512600,0.3985126953125,-0.5718709826469421,0.17621497809886932,0.3854563534259796
1772556449220495600,0.40849560546875,-0.5021347403526306,0.19492608308792114,0.38666754961013794
1772556449230478600,0.418478515625,-0.3848009407520294,0.16943909227848053,0.34931325912475586
1772556449240461600,0.428461669921875,-0.2146688848733902,0.1148512214422226,0.26380953192710876
1772556449250444500,0.438444580078125,-0.030608508735895157,0.004175037611275911,0.10430163890123367
1772556449260427800,0.448427734375,0.1259014755487442,-0.133110910654068,-0.11122798919677734
1772556449270410500,0.458410400390625,0.22410500049591064,-0.26349157094955444,-0.3404712975025177
1772556449280393700,0.468393798828125,0.24933898448944092,-0.37412992119789124,-0.5163698792457581
1772556449290376700,0.478376708984375,0.20041485130786896,-0.46133193373680115,-0.574417769908905
1772556449300359700,0.488359619140625,0.08898819237947464,-0.48869192600250244,-0.4883047044277191
1772556449310342700,0.4983427734375,-0.052445631474256516,-0.43800875544548035,-0.2681526243686676
1772556449320325600,0.50832568359375,-0.1885877549648285,-0.3254215121269226,0.03295768424868584
1772556449330307800,0.518307861328125,-0.30954107642173767,-0.17381547391414642,0.34520772099494934
1772556449340290600,0.52829052734375,-0.39835962653160095,-0.008714129216969013,0.6104742884635925
1772556449350273500,0.5382734375,-0.4444243311882019,0.1369597166776657,0.8123341798782349
1772556449360256800,0.5482568359375,-0.4496161639690399,0.23209182918071747,0.9344819188117981
1772556449370239700,0.55823974609375,-0.4255739450454712,0.2665289044380188,0.9906354546546936
1772556449380222500,0.568222412109375,-0.3823084831237793,0.24349254369735718,0.9812190532684326
1772556449390205700,0.578205810546875,-0.32503482699394226,0.18432004749774933,0.9129886031150818
1772556449400188700,0.588188720703125,-0.25855565071105957,0.12220606952905655,0.7951333522796631
1772556449410171400,0.59817138671875,-0.1780403107404709,0.0807395875453949,0.6406867504119873
1772556449420154600,0.608154541015625,-0.09816890954971313,0.05589868500828743,0.45787835121154785
1772556449430137600,0.6181376953125,-0.021805429831147194,0.03754071891307831,0.25069135427474976
1772556449440120600,0.62812060546875,0.040114663541316986,0.022373482584953308,0.041675008833408356
1772556449450103600,0.638103515625,0.09004414081573486,0.024404142051935196,-0.15958459675312042
1772556449460086500,0.64808642578125,0.11487225443124771,0.04042545333504677,-0.33356064558029175
1772556449470069800,0.65806982421875,0.12130831927061081,0.07490859925746918,-0.47441789507865906
1772556449480051500,0.668051513671875,0.11710478365421295,0.12127342820167542,-0.5634969472885132
1772556449490034700,0.67803466796875,0.09858942031860352,0.14389193058013916,-0.5886475443840027
1772556449500017700,0.688017578125,0.05974269285798073,0.1557248830795288,-0.5517353415489197
1772556449510000600,0.698000732421875,0.014417022466659546,0.16844306886196136,-0.4569060206413269
1772556449519983600,0.707983642578125,-0.038357507437467575,0.17512814700603485,-0.3222707211971283
1772556449529966600,0.717966552734375,-0.07231307774782181,0.16650988161563873,-0.17875349521636963
1772556449539949600,0.727949462890625,-0.07867563515901566,0.15491421520709991,-0.06514864414930344
1772556449549932800,0.737932861328125,-0.058457184582948685,0.14269056916236877,-0.004574245307594538
1772556449559915500,0.74791552734375,-0.029271602630615234,0.12051602452993393,0.0031907332595437765
1772556449569898500,0.7578984375,-0.006082393694669008,0.0880691409111023,-0.034097783267498016
1772556449579881700,0.7678818359375,0.01631266064941883,0.04741758108139038,-0.1035948321223259
1772556449589864700,0.77786474609375,0.034690070897340775,0.016828248277306557,-0.17600378394126892
1772556449599847700,0.78784765625,0.042399920523166656,0.0148047786206007,-0.2504279613494873
1772556449609830700,0.79783056640625,0.0443594753742218,0.032292161136865616,-0.32070744037628174
1772556449619813600,0.807813720703125,0.03689277172088623,0.0564451664686203,-0.3666805326938629
1772556449629796900,0.817796875,0.03223623335361481,0.08156809955835342,-0.37667644023895264
1772556449639779600,0.827779541015625,0.02484915778040886,0.09744186699390411,-0.35197746753692627
1772556449649762600,0.837762451171875,0.0036799560766667128,0.10472534596920013,-0.3055873513221741
1772556449659745800,0.847745849609375,-0.029153890907764435,0.10164593160152435,-0.24690912663936615
1772556449669728500,0.857728515625,-0.07407449185848236,0.0897384062409401,-0.18261775374412537
1772556449679711500,0.86771142578125,-0.12763120234012604,0.079947829246521,-0.13061100244522095
1772556449689693700,0.877693603515625,-0.1793449968099594,0.07502284646034241,-0.09830446541309357
1772556449699676400,0.887676513671875,-0.2262704223394394,0.06740833818912506,-0.08493805676698685
1772556449709659600,0.89765966796875,-0.2685590088367462,0.06308655440807343,-0.09563598036766052
1772556449719642600,0.907642578125,-0.3043457865715027,0.05757594481110573,-0.1012861430644989
1772556449729625600,0.91762548828125,-0.3321039080619812,0.02899356745183468,-0.08742092549800873
1772556449739608600,0.927608642578125,-0.33770108222961426,-0.03136058524250984,-0.0524245910346508
1772556449749591600,0.937591552734375,-0.3674786686897278,-0.06869623810052872,-0.03925313055515289
1772556449759574500,0.947574462890625,-0.38955947756767273,-0.14152170717716217,-0.03544534370303154
1772556449769557800,0.957557861328125,-0.38433462381362915,-0.21338790655136108,-0.008629441261291504
1772556449779540500,0.96754052734375,-0.36526772379875183,-0.2574397921562195,0.030846063047647476
1772556449789523700,0.977523681640625,-0.36471858620643616,-0.29035913944244385,0.06070009991526604
1772556449799506700,0.987506591796875,-0.3631747364997864,-0.30020588636398315,0.08932215720415115
1772556449809489700,0.99748974609375,-0.35837891697883606,-0.28267988562583923,0.1122003048658371
1772556449819472600,1.00747265625,-0.3558979332447052,-0.24911901354789734,0.13019315898418427
1772556449829455600,1.01745556640625,-0.3444007933139801,-0.19852827489376068,0.15288621187210083
1772556449839438600,1.0274384765625,-0.3200283348560333,-0.1316288709640503,0.17791540920734406
1772556449849421800,1.037421875,-0.3014186918735504,-0.06263541430234909,0.19748350977897644
1772556449859404500,1.047404541015625,-0.29755523800849915,-0.008503739722073078,0.2223832756280899
1772556449869387500,1.057387451171875,-0.3036815822124481,0.034387268126010895,0.227158322930336
1772556449879370800,1.067370849609375,-0.3061157166957855,0.048647429794073105,0.19985559582710266
1772556449889353500,1.077353515625,-0.31087663769721985,0.048601891845464706,0.1318991780281067
1772556449899336700,1.087336669921875,-0.3043939769268036,0.0402374342083931,0.03754125162959099
1772556449909319700,1.097319580078125,-0.2804873287677765,0.039026495069265366,-0.07468568533658981
1772556449919302700,1.107302734375,-0.24691444635391235,0.057620421051979065,-0.1938142031431198
1772556449929285600,1.11728564453125,-0.20201461017131805,0.07090826332569122,-0.29664552211761475
1772556449939268600,1.1272685546875,-0.1382521539926529,0.08994267135858536,-0.34644103050231934
1772556449949251600,1.13725146484375,-0.07022569328546524,0.11429888010025024,-0.3332493305206299
1772556449959234800,1.14723486328125,-0.00935275573283434,0.12245241552591324,-0.2625237703323364
1772556449969216500,1.157216552734375,0.039330895990133286,0.11285118758678436,-0.1483231633901596
1772556449979199700,1.16719970703125,0.05474420636892319,0.049064215272665024,0.0059724049642682076
1772556449989182700,1.1771826171875,0.02460893988609314,-0.07137857377529144,0.18848469853401184
1772556449999165400,1.18716552734375,-0.039091743528842926,-0.20468762516975403,0.39086151123046875
1772556450009148700,1.197148681640625,-0.13268373906612396,-0.29457730054855347,0.5758180618286133
1772556450019131600,1.207131591796875,-0.23455125093460083,-0.3056810796260834,0.7094370722770691
1772556450029114600,1.217114501953125,-0.32570672035217285,-0.3646022081375122,0.8093500733375549
1772556450039097600,1.22709765625,-0.3989114463329315,-0.39712366461753845,0.881583571434021
1772556450049080600,1.23708056640625,-0.48894307017326355,-0.3469025492668152,0.8963185548782349
1772556450059063600,1.2470634765625,-0.585401713848114,-0.28231585025787354,0.8475419282913208
1772556450069046800,1.257046875,-0.678124189376831,-0.18686655163764954,0.7347807884216309
1772556450079029500,1.267029541015625,-0.7589508295059204,-0.058284077793359756,0.5871524214744568
1772556450089012700,1.2770126953125,-0.820171594619751,0.07712461054325104,0.4376548230648041
1772556450098995700,1.28699560546875,-0.86275714635849,0.19992004334926605,0.312691867351532
1772556450108978400,1.296978515625,-0.8902795910835266,0.28431347012519836,0.21452002227306366
1772556450118961700,1.306961669921875,-0.8926042318344116,0.3280356526374817,0.12966185808181763
1772556450128944600,1.316944580078125,-0.8888936638832092,0.34822162985801697,0.07182838022708893
1772556450138927600,1.326927734375,-0.8856901526451111,0.35302677750587463,0.036431510001420975
1772556450148910600,1.33691064453125,-0.8716645836830139,0.34033361077308655,0.006626743823289871
1772556450158893600,1.3468935546875,-0.8548504710197449,0.3324519693851471,-0.04621090367436409
1772556450168876500,1.35687646484375,-0.8228334188461304,0.31159889698028564,-0.10717731714248657
1772556450178859800,1.36685986328125,-0.7771016359329224,0.28166523575782776,-0.19100964069366455
1772556450188843000,1.376843017578125,-0.7212388515472412,0.21750248968601227,-0.2718360424041748
1772556450198826000,1.386825927734375,-0.6491569876670837,0.12728391587734222,-0.33095023036003113
1772556450208809000,1.39680908203125,-0.5652596950531006,0.015210111625492573,-0.33993786573410034
1772556450218792000,1.4067919921875,-0.48993533849716187,-0.11301976442337036,-0.2830010652542114
1772556450228775000,1.41677490234375,-0.4436887502670288,-0.24086721241474152,-0.17715534567832947
1772556450238758100,1.426758056640625,-0.3965955376625061,-0.3402819335460663,-0.04680931568145752
1772556450248740900,1.436740966796875,-0.3799089789390564,-0.40911665558815,0.08604566752910614
1772556450258724000,1.44672412109375,-0.4178984463214874,-0.4232045114040375,0.20244471728801727
1772556450268707000,1.45670703125,-0.5021352767944336,-0.40691930055618286,0.3106271028518677
1772556450278690000,1.46668994140625,-0.6052858829498291,-0.36110201478004456,0.38412874937057495
1772556450288673000,1.476673095703125,-0.6937715411186218,-0.2738097012042999,0.44294601678848267
1772556450298656000,1.486656005859375,-0.7503458857536316,-0.1619769185781479,0.49515753984451294
1772556450308639000,1.496638916015625,-0.7802857160568237,-0.048520930111408234,0.5379558801651001
1772556450318622200,1.506622314453125,-0.7912866473197937,0.18907618522644043,0.5977928638458252
1772556450328605000,1.51660498046875,-0.8321904540061951,0.7780877947807312,0.5816863179206848
1772556450338588000,1.526587890625,-0.8891919255256653,1.271024227142334,0.5067535042762756
1772556450348571100,1.536571044921875,-0.9466208815574646,1.6750428676605225,0.4368835985660553
1772556450358553900,1.546553955078125,-0.9789716005325317,2.050827980041504,0.40957579016685486
1772556450368536800,1.556536865234375,-0.9681285619735718,2.404031753540039,0.4115172326564789
1772556450378520000,1.56652001953125,-0.9066428542137146,2.699535846710205,0.4292251169681549
1772556450388503000,1.5765029296875,-0.8066611289978027,2.9527037143707275,0.42834627628326416
1772556450398486000,1.586486083984375,-0.7049337029457092,3.169395685195923,0.4022217392921448
1772556450408469000,1.596468994140625,-0.6174517869949341,3.355504274368286,0.35859063267707825
1772556450418452000,1.606451904296875,-0.5436832904815674,3.4633824825286865,0.28325355052948
1772556450428435200,1.616435302734375,-0.48032239079475403,3.0995988845825195,0.09447963535785675
1772556450438418000,1.62641796875,-0.428199827671051,2.4030840396881104,-0.1783020943403244
1772556450448401000,1.63640087890625,-0.3073357045650482,1.770133376121521,-0.39805468916893005
1772556450458384100,1.646384033203125,-0.1553451120853424,1.356341004371643,-0.5469757318496704
1772556450468367000,1.6563671875,-0.027515513822436333,1.1101194620132446,-0.6377551555633545
1772556450478349800,1.666349853515625,0.06998893618583679,0.9090258479118347,-0.6603614091873169
1772556450488333000,1.6763330078125,0.13536767661571503,0.7164787650108337,-0.611115574836731
1772556450498316000,1.68631591796875,0.16422276198863983,0.5294212698936462,-0.49813148379325867
1772556450508299000,1.696299072265625,0.1879856139421463,0.42482081055641174,-0.3352126181125641
1772556450518282000,1.706281982421875,0.1979980319738388,0.4451497793197632,-0.1597856730222702
1772556450528265000,1.716264892578125,0.19517108798027039,0.527802586555481,-0.00731304008513689
1772556450538248000,1.726248046875,0.173810675740242,0.6072233319282532,0.13862845301628113
1772556450548231000,1.73623095703125,0.14070013165473938,0.6201063990592957,0.26449716091156006
1772556450558214000,1.7462138671875,0.13469550013542175,0.5807832479476929,0.3801009953022003
1772556450568197000,1.756197021484375,0.1778552234172821,0.45249050855636597,0.4964925944805145
1772556450578180000,1.76618017578125,0.27173829078674316,0.23931938409805298,0.601098358631134
1772556450588162800,1.776162841796875,0.37601330876350403,-0.08357532322406769,0.684258759021759
1772556450598146000,1.78614599609375,0.44275692105293274,-0.49232739210128784,0.7112903594970703
1772556450608129000,1.79612890625,0.4819887578487396,-0.8925454020500183,0.6446477174758911
1772556450618112000,1.806112060546875,0.36030811071395874,-1.1947108507156372,0.5468803644180298
1772556450628095000,1.816094970703125,0.17017439007759094,-1.3295080661773682,0.44637057185173035
1772556450638078000,1.826077880859375,-0.037220604717731476,-1.337445616722107,0.35283103585243225
1772556450648061000,1.83606103515625,-0.18394319713115692,-1.1971521377563477,0.2809853255748749
1772556450658044200,1.846044189453125,-0.22952108085155487,-0.8731972575187683,0.24450135231018066
1772556450668027000,1.85602685546875,-0.20002949237823486,-0.4315902888774872,0.24617968499660492
1772556450678010000,1.866010009765625,-0.1046752780675888,0.06437419354915619,0.27093374729156494
1772556450687993000,1.8759931640625,0.0007539408979937434,0.5116374492645264,0.32156258821487427
1772556450697976000,1.88597607421875,0.0713367611169815,0.8464383482933044,0.39549461007118225
1772556450707959000,1.895958984375,0.11774447560310364,1.033724069595337,0.5007296800613403
1772556450717942000,1.90594189453125,0.1808888167142868,1.0235167741775513,0.6138471961021423
1772556450727925000,1.915925048828125,0.23067662119865417,0.8454678654670715,0.70652836561203
1772556450737908000,1.925907958984375,0.2258371263742447,0.6476059556007385,0.7696016430854797
1772556450747891000,1.935890869140625,0.17315660417079926,0.5025712251663208,0.8102592825889587
1772556450757874000,1.9458740234375,0.09087558090686798,0.4014877676963806,0.8128138184547424
1772556450767857200,1.955857177734375,0.011579157784581184,0.31171154975891113,0.7618094682693481
1772556450777839900,1.96583984375,-0.056891512125730515,0.2161722481250763,0.6696925759315491
1772556450787823900,1.975823974609375,-0.0956125408411026,0.11580729484558105,0.5539718866348267
1772556450797807000,1.98580712890625,-0.1134306862950325,-0.0005201153689995408,0.43317273259162903
1772556450807790000,1.9957900390625,-0.11488370597362518,-0.06636304408311844,0.321920245885849
1772556450817773000,2.00577294921875,-0.13138172030448914,-0.060021523386240005,0.2197752296924591
1772556450827756000,2.015756103515625,-0.15575657784938812,-0.003919640555977821,0.10935312509536743
1772556450837739000,2.025739013671875,-0.18575549125671387,0.07737495005130768,-0.02063310705125332
1772556450847722000,2.035721923828125,-0.20410732924938202,0.17336779832839966,-0.16778260469436646
1772556450857705200,2.045705322265625,-0.223835751414299,0.21808172762393951,-0.2983406186103821
1772556450867688000,2.05568798828125,-0.23655368387699127,0.18001876771450043,-0.401720255613327
1772556450877671000,2.0656708984375,-0.2232341468334198,0.1252165138721466,-0.458172082901001
1772556450887654100,2.075654052734375,-0.16952937841415405,0.14964301884174347,-0.4493311941623688
1772556450897636900,2.085636962890625,-0.10102195292711258,0.242513045668602,-0.41095423698425293
1772556450907619800,2.095619873046875,-0.03213343396782875,0.3247746229171753,-0.36299845576286316
1772556450917603000,2.10560302734375,0.026616429910063744,0.33762651681900024,-0.31189343333244324
1772556450927586000,2.1155859375,0.0716150626540184,0.26088592410087585,-0.26295918226242065
1772556450937569000,2.125569091796875,0.10032767057418823,0.1086745485663414,-0.20209930837154388
1772556450947552000,2.135552001953125,0.14867550134658813,-0.039389483630657196,-0.11632128059864044
1772556450957535000,2.145534912109375,0.2090698629617691,-0.1295263022184372,-0.03821396455168724
1772556450967518200,2.155518310546875,0.2640015482902527,-0.1728423535823822,0.029621541500091553
1772556450977501000,2.1655009765625,0.2988860309123993,-0.17003537714481354,0.062430620193481445
1772556450987484000,2.17548388671875,0.3088909983634949,-0.14842835068702698,0.056294698268175125
1772556450997467100,2.185467041015625,0.30012041330337524,-0.14905765652656555,0.027642812579870224
1772556451007450000,2.1954501953125,0.2899910807609558,-0.15377597510814667,-0.00023968449386302382
1772556451017432800,2.205432861328125,0.284525990486145,-0.12167955935001373,-0.020301276817917824
1772556451027416000,2.215416015625,0.2665509879589081,-0.053100768476724625,-0.02672428824007511
1772556451037399000,2.22539892578125,0.21847695112228394,0.022700518369674683,-0.029077989980578423
1772556451047382000,2.235382080078125,0.14105325937271118,0.08557082712650299,-0.04325319826602936
1772556451057365000,2.245364990234375,0.054729025810956955,0.14983530342578888,-0.07722341269254684
1772556451067348000,2.255347900390625,-0.02503531239926815,0.26467159390449524,-0.13548831641674042
1772556451077332000,2.26533203125,-0.10789051651954651,0.38368454575538635,-0.2089337706565857
1772556451087315200,2.275315185546875,-0.194285586476326,0.4824659824371338,-0.2770518362522125
1772556451097298000,2.2852978515625,-0.2609761953353882,0.5170567035675049,-0.31712043285369873
1772556451107281000,2.295281005859375,-0.2973930537700653,0.5036088228225708,-0.3198222219944
1772556451117264100,2.30526416015625,-0.3058297038078308,0.4795631468296051,-0.29651156067848206
1772556451127247000,2.3152470703125,-0.3054525852203369,0.4707781672477722,-0.25903794169425964
1772556451137229800,2.325229736328125,-0.3040919899940491,0.47198909521102905,-0.21586064994335175
1772556451147213000,2.335213134765625,-0.2922390401363373,0.464444100856781,-0.16827262938022614
1772556451157196000,2.345196044921875,-0.27174681425094604,0.45635101199150085,-0.12417574226856232
1772556451167179000,2.355178955078125,-0.23472729325294495,0.47609037160873413,-0.0678299143910408
1772556451177162000,2.365161865234375,-0.18930761516094208,0.5341193079948425,0.005030178464949131
1772556451187145500,2.3751455078125,-0.14024925231933594,0.6154128313064575,0.09338480979204178
1772556451197128400,2.38512841796875,-0.10103394091129303,0.6046962738037109,0.1674630343914032
1772556451207111700,2.395111572265625,-0.08152974396944046,0.4279835522174835,0.19121123850345612
1772556451217094400,2.405094482421875,-0.07390564680099487,0.12391582131385803,0.15385960042476654
1772556451227077400,2.415077392578125,-0.06036240980029106,-0.1955077201128006,0.08635619282722473
1772556451237060600,2.425060546875,-0.04060415178537369,-0.44899991154670715,0.013201023451983929
1772556451247043600,2.435043701171875,-0.03424825146794319,-0.6113869547843933,-0.03280055522918701
1772556451257026600,2.445026611328125,-0.03362879902124405,-0.6838278770446777,-0.04469689726829529
1772556451267009500,2.455009521484375,-0.03750023618340492,-0.6981668472290039,-0.04138791933655739
1772556451276993500,2.46499365234375,-0.043539755046367645,-0.6445414423942566,-0.0002990729990415275
1772556451286976500,2.4749765625,-0.07549289613962173,-0.4840708076953888,0.0753759816288948
1772556451296959500,2.48495947265625,-0.1370002031326294,-0.2633695900440216,0.18108616769313812
1772556451306942500,2.4949423828125,-0.20228545367717743,-0.005819006823003292,0.3122130334377289
1772556451316925400,2.504925537109375,-0.27220383286476135,0.29336291551589966,0.45138075947761536
1772556451326908700,2.51490869140625,-0.35748302936553955,0.6114087700843811,0.5862536430358887
1772556451336891400,2.524891357421875,-0.44782304763793945,0.8976048827171326,0.7108120918273926
1772556451346874400,2.534874267578125,-0.5374078154563904,1.1041960716247559,0.7985352873802185
1772556451356857600,2.544857666015625,-0.6014829277992249,1.1982914209365845,0.8398286700248718
1772556451366840600,2.554840576171875,-0.6338880062103271,1.1545090675354004,0.8237076997756958
1772556451376823600,2.564823486328125,-0.6331375241279602,0.9793484807014465,0.7590352892875671
1772556451386806500,2.574806640625,-0.6210933923721313,0.7169474363327026,0.658176839351654
1772556451396789500,2.58478955078125,-0.609391987323761,0.44127941131591797,0.5386360287666321
1772556451406772700,2.594772705078125,-0.6063461303710938,0.2110493928194046,0.4277785122394562
1772556451416755500,2.60475537109375,-0.5933552384376526,0.03948775306344032,0.3186919689178467
1772556451426738400,2.614738525390625,-0.5688783526420593,-0.06962275505065918,0.20111846923828125
1772556451436721700,2.6247216796875,-0.536465585231781,-0.15527907013893127,0.07894355058670044
1772556451446705700,2.63470556640625,-0.48329102993011475,-0.2630388140678406,-0.05733706057071686
1772556451456688400,2.6446884765625,-0.41443419456481934,-0.397422730922699,-0.2036663144826889
1772556451466671400,2.65467138671875,-0.34903815388679504,-0.573090136051178,-0.34669455885887146
1772556451476654600,2.664654541015625,-0.2774382531642914,-0.7610126733779907,-0.4748522639274597
1772556451486637600,2.674637451171875,-0.19550345838069916,-0.9574873447418213,-0.5620771646499634
1772556451496620500,2.68462060546875,-0.11948885023593903,-1.1418718099594116,-0.6004871726036072
1772556451506603500,2.694603515625,-0.07493656128644943,-1.325020670890808,-0.6000120639801025
1772556451516586500,2.70458642578125,-0.07531366497278214,-1.4726815223693848,-0.5548155307769775
1772556451526569700,2.71456982421875,-0.11731916666030884,-1.5287595987319946,-0.4767577648162842
1772556451536552400,2.724552490234375,-0.19373059272766113,-1.5022180080413818,-0.36456677317619324
1772556451546535400,2.734535400390625,-0.28738462924957275,-1.4265371561050415,-0.21840743720531464
1772556451556518700,2.7445185546875,-0.35717010498046875,-1.283873438835144,-0.049314286559820175
1772556451566501600,2.754501708984375,-0.4064452648162842,-1.0949506759643555,0.11623739451169968
1772556451576484400,2.764484375,-0.434222012758255,-0.9232441782951355,0.2530759274959564
1772556451586467600,2.774467529296875,-0.44971176981925964,-0.8119706511497498,0.34484073519706726
1772556451596451600,2.78445166015625,-0.44666963815689087,-0.8123650550842285,0.3924170434474945
1772556451606434600,2.7944345703125,-0.4232231676578522,-0.9001417756080627,0.3897682726383209
1772556451616417300,2.804417236328125,-0.39145776629447937,-0.9644981622695923,0.3503558933734894
1772556451626400500,2.814400390625,-0.35879942774772644,-0.9328704476356506,0.30186718702316284
1772556451636383500,2.824383544921875,-0.32985299825668335,-0.8252233266830444,0.23912470042705536
1772556451646366700,2.83436669921875,-0.2918720543384552,-0.6997452974319458,0.14972610771656036
1772556451656349400,2.844349365234375,-0.23962004482746124,-0.6140674352645874,0.04777258262038231
1772556451666332400,2.85433251953125,-0.1596067100763321,-0.5945877432823181,-0.05571625754237175
1772556451676315600,2.864315673828125,-0.04181509092450142,-0.6099898815155029,-0.14733779430389404
1772556451686298600,2.874298583984375,0.07774912565946579,-0.6287102699279785,-0.2196386158466339
1772556451696281300,2.88428125,0.19291353225708008,-0.6291454434394836,-0.26627403497695923
1772556451706264600,2.8942646484375,0.2745732367038727,-0.6281701922416687,-0.29314371943473816
1772556451716247600,2.90424755859375,0.31026384234428406,-0.641368567943573,-0.31257280707359314
1772556451726231600,2.9142314453125,0.3068949580192566,-0.6597353219985962,-0.3169284164905548
1772556451736214300,2.92421435546875,0.29944315552711487,-0.6529109477996826,-0.29865673184394836
1772556451746197500,2.934197509765625,0.3073823153972626,-0.5974106788635254,-0.2599599361419678
1772556451756180500,2.944180419921875,0.3295805752277374,-0.5227803587913513,-0.21931371092796326
1772556451766163700,2.954163818359375,0.351539671421051,-0.4455907940864563,-0.1763302981853485
1772556451776146400,2.964146484375,0.3822839856147766,-0.3672698736190796,-0.1313452422618866
1772556451786129400,2.97412939453125,0.4106519818305969,-0.30846303701400757,-0.08643768727779388
1772556451796112600,2.984112548828125,0.4440522789955139,-0.30973654985427856,-0.0500679612159729
1772556451806095600,2.994095703125,0.4889550507068634,-0.3091977834701538,-0.0010772485984489322
1772556451816078300,3.004078369140625,0.536480188369751,-0.2698669135570526,0.05022934824228287
1772556451826061600,3.0140615234375,0.5807968378067017,-0.14231613278388977,0.10456209629774094
1772556451836044500,3.02404443359375,0.6274511218070984,0.046364303678274155,0.16100965440273285
1772556451846028500,3.034028564453125,0.6848867535591125,0.22958232462406158,0.19244934618473053
1772556451856011300,3.04401123046875,0.7547121644020081,0.29713019728660583,0.17200317978858948
1772556451865994500,3.053994384765625,0.8180152177810669,0.09981022030115128,0.07569928467273712
1772556451875977500,3.0639775390625,0.8764188885688782,-0.3491060733795166,-0.08426161855459213
1772556451885960700,3.073960693359375,0.9092772006988525,-0.8718105554580688,-0.2650098204612732
1772556451895943400,3.083943359375,0.8829904794692993,-1.258676290512085,-0.39776360988616943
1772556451905926400,3.093926513671875,0.7812651991844177,-1.4184232950210571,-0.4517331123352051
1772556451915909600,3.10390966796875,0.6130490303039551,-1.3458033800125122,-0.42915454506874084
1772556451925892600,3.113892578125,0.4261837899684906,-1.058447241783142,-0.328419953584671
1772556451935875300,3.123875244140625,0.2634987533092499,-0.6479225754737854,-0.19019924104213715
1772556451945858600,3.133858642578125,0.18405984342098236,-0.29323694109916687,-0.07537518441677094
1772556451955841500,3.143841552734375,0.11832904070615768,0.031988292932510376,0.012717126868665218
1772556451965825500,3.153825439453125,0.05980447679758072,0.3089061677455902,0.09342368692159653
1772556451975808300,3.163808349609375,0.0036487970501184464,0.5768486857414246,0.18365532159805298
1772556451985791500,3.17379150390625,-0.025833195075392723,0.816135823726654,0.2837078869342804
1772556451995774500,3.1837744140625,-0.0031638352666050196,0.9588218927383423,0.4010654091835022
1772556452005757700,3.1937578125,0.05736662074923515,0.9219866394996643,0.48925384879112244
1772556452015740400,3.203740478515625,0.021807560697197914,0.6406859755516052,0.6109171509742737
1772556452025723400,3.213723388671875,0.05230847746133804,0.39489537477493286,0.7259947657585144
1772556452035706600,3.22370654296875,0.014736069366335869,-0.008832640014588833,0.8954554200172424
1772556452045689600,3.233689697265625,0.05724358186125755,-0.27904123067855835,0.9562023878097534
1772556452055672300,3.24367236328125,0.0788002759218216,-0.655791699886322,0.9377046227455139
1772556452065656300,3.25365625,0.044864676892757416,-1.0122230052947998,0.9003164768218994
1772556452075639600,3.2636396484375,0.03549860417842865,-1.2104400396347046,0.7961893081665039
1772556452085622500,3.27362255859375,0.027532026171684265,-1.352169156074524,0.6351591348648071
1772556452095605500,3.28360546875,0.02599218487739563,-1.4133901596069336,0.4404434263706207
1772556452105588500,3.29358837890625,0.042623892426490784,-1.395337462425232,0.22079814970493317
1772556452115571500,3.303571533203125,0.06877027451992035,-1.3190429210662842,-0.012802081182599068
1772556452125554700,3.3135546875,0.08323922753334045,-1.182793140411377,-0.25139254331588745
1772556452135537400,3.323537353515625,0.07542604953050613,-0.9955005049705505,-0.48340314626693726
1772556452145520400,3.333520263671875,0.057798583060503006,-0.74866783618927,-0.683358371257782
1772556452155503600,3.343503662109375,0.055317848920822144,-0.4407592713832855,-0.8389607071876526
1772556452165486600,3.353486572265625,0.09737022966146469,-0.1457263082265854,-0.9469641447067261
1772556452175470600,3.363470703125,0.1702851802110672,0.06769675761461258,-1.021317481994629
1772556452185452500,3.37345263671875,0.2631906270980835,0.2082810401916504,-1.0521289110183716
1772556452195435500,3.383435546875,0.3847479522228241,0.29514244198799133,-1.0161792039871216
1772556452205418500,3.39341845703125,0.5170670747756958,0.3206528425216675,-0.9213887453079224
1772556452215401500,3.4034013671875,0.6750143766403198,0.3239176273345947,-0.8013217449188232
1772556452225384400,3.413384521484375,0.8617879748344421,0.2932819426059723,-0.6958019733428955
1772556452235367400,3.423367431640625,1.0239601135253906,0.23274563252925873,-0.6023101210594177
1772556452245350700,3.4333505859375,1.119264006614685,0.11112971603870392,-0.4970252215862274
1772556452255333400,3.44333349609375,1.1406034231185913,-0.05373646691441536,-0.35908839106559753
1772556452265317400,3.4533173828125,1.081009030342102,-0.19828778505325317,-0.19448639452457428
1772556452275300600,3.463300537109375,0.9490046501159668,-0.31961607933044434,-0.028133101761341095
1772556452285283600,3.47328369140625,0.7614134550094604,-0.407659649848938,0.12783892452716827
1772556452295266300,3.483266357421875,0.5642458200454712,-0.4474611282348633,0.25348126888275146
1772556452305249500,3.49324951171875,0.39843738079071045,-0.47749385237693787,0.31683042645454407
1772556452315232500,3.503232421875,0.2720128893852234,-0.48859739303588867,0.32103341817855835
1772556452325215500,3.513215576171875,0.17075923085212708,-0.4802193343639374,0.26715633273124695
1772556452335198500,3.523198486328125,0.10705508291721344,-0.3981018364429474,0.15035994350910187
1772556452345181400,3.533181396484375,0.08131296187639236,-0.3093991279602051,-0.008504805155098438
1772556452355165400,3.54316552734375,0.07917178422212601,-0.2991025447845459,-0.18162785470485687
1772556452365148700,3.553148681640625,0.0851183533668518,-0.3168189525604248,-0.32735469937324524
1772556452375131600,3.563131591796875,0.09332834929227829,-0.3156397044658661,-0.4330004155635834
1772556452385114400,3.5731142578125,0.10230187326669693,-0.282278835773468,-0.504350483417511
1772556452395097600,3.58309765625,0.10769743472337723,-0.22607547044754028,-0.5398014187812805
1772556452405080600,3.59308056640625,0.10336766391992569,-0.15922321379184723,-0.532577633857727
1772556452415063300,3.603063232421875,0.08932002633810043,-0.09218665212392807,-0.48354244232177734
1772556452425046500,3.613046630859375,0.06429164111614227,-0.02847292087972164,-0.40506839752197266
1772556452435029500,3.623029541015625,0.04265345260500908,0.008723982609808445,-0.294533371925354
1772556452445013500,3.633013427734375,0.03684563189744949,0.0103770075365901,-0.16744199395179749
1772556452454996500,3.64299658203125,0.04579491913318634,0.012281167320907116,-0.03682645782828331
1772556452464979500,3.6529794921875,0.06835296005010605,0.021917816251516342,0.08845742791891098
1772556452474962400,3.66296240234375,0.08914745599031448,0.036675721406936646,0.18215063214302063
1772556452484945400,3.6729453125,0.10000409185886383,0.050997670739889145,0.2402871698141098
1772556452494928600,3.6829287109375,0.10056069493293762,0.0583578497171402,0.27946147322654724
1772556452504911400,3.692911376953125,0.09761150926351547,0.05922417342662811,0.31161755323410034
1772556452514894600,3.70289453125,0.08016407489776611,0.025165807455778122,0.33795619010925293
1772556452524877600,3.712877685546875,0.040037963539361954,-0.07787935435771942,0.3257155120372772
1772556452534861600,3.722861572265625,0.0030429279431700706,-0.23253311216831207,0.25342559814453125
1772556452544844300,3.73284423828125,-0.004253334365785122,-0.3728063404560089,0.13695678114891052
1772556452554827500,3.74282763671875,0.027288079261779785,-0.47088494896888733,-0.019697271287441254
1772556452564810500,3.752810546875,0.07529555261135101,-0.5057412385940552,-0.19550159573554993
1772556452574793500,3.76279345703125,0.15274320542812347,-0.42603600025177,-0.36854714155197144
1772556452584776400,3.7727763671875,0.2505248785018921,-0.24042591452598572,-0.5157573819160461
1772556452594759400,3.782759521484375,0.3623933792114258,0.00936047825962305,-0.6174259185791016
1772556452604742400,3.792742431640625,0.4582298994064331,0.2778739631175995,-0.6491391062736511
1772556452614726700,3.8027265625,0.49885666370391846,0.5161808133125305,-0.6042286157608032
1772556452624709600,3.812709716796875,0.48378103971481323,0.7111420631408691,-0.49254631996154785
1772556452634692400,3.8226923828125,0.4244764447212219,0.8388653993606567,-0.32813048362731934
1772556452644675600,3.832675537109375,0.34687939286231995,0.8364376425743103,-0.11417530477046967
1772556452654658600,3.842658447265625,0.26223695278167725,0.7006795406341553,0.16140487790107727
1772556452664641500,3.8526416015625,0.2064887285232544,0.5359190702438354,0.4896125793457031
1772556452674624500,3.86262451171875,0.18109628558158875,0.37713396549224854,0.8330599665641785
1772556452684607500,3.872607421875,0.15908685326576233,0.2401537448167801,1.1390798091888428
1772556452694591500,3.882591552734375,0.11152919381856918,0.13646116852760315,1.3458713293075562
1772556452704574500,3.892574462890625,0.04344361275434494,0.06685173511505127,1.4433214664459229
1772556452714557400,3.902557373046875,-0.028599686920642853,0.028024977073073387,1.4286136627197266
1772556452724540400,3.91254052734375,-0.09002070128917694,0.00436145905405283,1.3074461221694946
1772556452734523600,3.922523681640625,-0.13661430776119232,0.0020743361674249172,1.106048822402954
1772556452744506600,3.932506591796875,-0.15196023881435394,0.025717614218592644,0.8539718985557556
1772556452754489300,3.9424892578125,-0.12439039349555969,0.07136791944503784,0.5682895183563232
1772556452764472600,3.95247265625,-0.045282527804374695,0.1330595165491104,0.2649874687194824
1772556452774456600,3.96245654296875,0.08477161079645157,0.19992749392986298,-0.06405515223741531
1772556452784439600,3.972439453125,0.25089266896247864,0.2817392647266388,-0.3942663371562958
1772556452794422300,3.98242236328125,0.44483205676078796,0.37359142303466797,-0.7037459015846252
1772556452804402700,3.992402587890625,0.6301798224449158,0.43530139327049255,-0.9661697745323181
1772556452814385400,4.002385498046875,0.7886988520622253,0.467844158411026,-1.1591246128082275
1772556452824369400,4.012369384765625,0.9158920049667358,0.461530864238739,-1.2780025005340576
1772556452834352400,4.022352294921875,1.0071274042129517,0.4222106337547302,-1.3074935674667358
1772556452844335600,4.032335693359375,1.0770806074142456,0.3803936839103699,-1.233431100845337
1772556452854318300,4.042318359375,1.1127235889434814,0.3450130522251129,-1.080710768699646
1772556452864301600,4.052301513671875,1.1210262775421143,0.30285921692848206,-0.8739495873451233
1772556452874284500,4.062284423828125,1.1089160442352295,0.25602298974990845,-0.6298519968986511
1772556452884267500,4.072267578125,1.0862317085266113,0.19824545085430145,-0.3969252407550812
1772556452894251500,4.08225146484375,1.0427285432815552,0.1209501251578331,-0.1774650663137436
1772556452904234500,4.092234375,0.9810621738433838,0.07333440333604813,0.008158061653375626
1772556452914217500,4.102217529296875,0.9085885286331177,0.054072290658950806,0.15605245530605316
1772556452924200400,4.112200439453125,0.8407458066940308,0.047857269644737244,0.25648823380470276
1772556452934183700,4.12218359375,0.7758775949478149,0.07522950321435928,0.30791789293289185
1772556452944166400,4.13216650390625,0.722363293170929,0.13279612362384796,0.32047387957572937
1772556452954149400,4.1421494140625,0.6783979535102844,0.22173824906349182,0.297446608543396
1772556452964133400,4.15213330078125,0.6439307928085327,0.31182581186294556,0.245687797665596
1772556452974116600,4.16211669921875,0.6204371452331543,0.40454110503196716,0.17158666253089905
1772556452984099300,4.172099365234375,0.6102181077003479,0.4709978699684143,0.08486322313547134
1772556452994082600,4.18208251953125,0.6094473600387573,0.4947551488876343,-0.005460012704133987
1772556453004065500,4.1920654296875,0.6126397252082825,0.47110414505004883,-0.10951077938079834
1772556453014048500,4.202048583984375,0.6303329467773438,0.43617892265319824,-0.21280920505523682
1772556453024031500,4.212031494140625,0.6555141806602478,0.4378918707370758,-0.31283167004585266
1772556453034015500,4.222015380859375,0.6665710806846619,0.43637412786483765,-0.3727187216281891
1772556453043998500,4.23199853515625,0.6853575706481934,0.48826634883880615,-0.4371243417263031
1772556453053981400,4.2419814453125,0.6919430494308472,0.5557708144187927,-0.46871793270111084
1772556453063964700,4.251964599609375,0.6960871815681458,0.6386558413505554,-0.47748827934265137
1772556453073947400,4.261947509765625,0.7045698761940002,0.6810184717178345,-0.45749831199645996
1772556453083930400,4.271930419921875,0.7166124582290649,0.7084266543388367,-0.3986981213092804
1772556453093913600,4.28191357421875,0.7370516657829285,0.7078335881233215,-0.3030272424221039
1772556453103897600,4.291897705078125,0.7534796595573425,0.646003782749176,-0.17266738414764404
1772556453113880300,4.30188037109375,0.7640297412872314,0.5537180304527283,-0.00484349112957716
1772556453123863600,4.311863525390625,0.7755945324897766,0.4687853157520294,0.19231244921684265
1772556453133846500,4.321846435546875,0.7771742939949036,0.3785651624202728,0.4323519468307495
1772556453143829500,4.33182958984375,0.7825179696083069,0.3129158318042755,0.6684209108352661
1772556453153812500,4.3418125,0.8004457950592041,0.2185954600572586,0.8633204102516174
1772556453163795500,4.35179541015625,0.8094193339347839,0.03797561302781105,0.960503101348877
1772556453173779500,4.361779541015625,0.7731021046638489,-0.2049448937177658,0.9003969430923462
1772556453183762400,4.371762451171875,0.6964690685272217,-0.4373810589313507,0.6409736275672913
1772556453193746700,4.38174658203125,0.6367815136909485,-0.587503969669342,0.22372284531593323
1772556453203729700,4.391729736328125,0.6479175090789795,-0.5896704792976379,-0.23976998031139374
1772556453213712400,4.40171240234375,0.6855647563934326,-0.43830251693725586,-0.6370661854743958
1772556453223695600,4.411695556640625,0.6933428049087524,-0.1822475641965866,-0.8843388557434082
1772556453233678600,4.4216787109375,0.6742692589759827,0.1429387778043747,-0.9295646548271179
1772556453243662600,4.43166259765625,0.6589248776435852,0.471537709236145,-0.8020269274711609
1772556453253645600,4.4416455078125,0.6429459452629089,0.7236221432685852,-0.5630487203598022
1772556453263628500,4.451628662109375,0.6347063779830933,0.910730242729187,-0.2605021595954895
1772556453273611500,4.461611572265625,0.6359364986419678,1.0250922441482544,0.05861803889274597
1772556453283594500,4.471594482421875,0.6484357714653015,1.0199898481369019,0.34196293354034424
1772556453293577500,4.481577392578125,0.6672648787498474,0.8986424207687378,0.563962459564209
1772556453303561500,4.4915615234375,0.678434431552887,0.7332622408866882,0.7116589546203613
1772556453313544400,4.50154443359375,0.6716697216033936,0.5639104843139648,0.792296826839447
1772556453323527700,4.511527587890625,0.6545687913894653,0.4366612136363983,0.8000258207321167
1772556453333510700,4.5215107421875,0.6439834833145142,0.36847949028015137,0.7359960079193115
1772556453343493400,4.531493408203125,0.6492147445678711,0.3398342728614807,0.6114383339881897
1772556453353476600,4.5414765625,0.6820882558822632,0.32454612851142883,0.4222535192966461
1772556453363460600,4.551460693359375,0.7237241268157959,0.2969352602958679,0.19743292033672333
1772556453373443600,4.561443603515625,0.7784313559532166,0.28413423895835876,-0.03905818611383438
1772556453383426300,4.57142626953125,0.8579258918762207,0.29931721091270447,-0.32859334349632263
1772556453393409500,4.581409423828125,0.8976823687553406,0.3092052638530731,-0.6080899238586426
1772556453403392500,4.591392578125,0.8899732828140259,0.3335433602333069,-0.8748012781143188
1772556453413375700,4.601375732421875,0.854697585105896,0.42375898361206055,-1.0423513650894165
1772556453423358500,4.6113583984375,0.8536549806594849,0.42893484234809875,-1.1307693719863892
1772556453433343700,4.62134375,0.8962112069129944,0.36235395073890686,-1.1372451782226562
1772556453443326500,4.631326416015625,0.9902170896530151,0.36075472831726074,-1.0373742580413818
1772556453453309400,4.641309326171875,1.0978785753250122,0.32895153760910034,-0.871724545955658
1772556453463292700,4.651292724609375,1.1825751066207886,0.28525838255882263,-0.6549615859985352
1772556453473275400,4.661275390625,1.2401214838027954,0.2358309030532837,-0.4356726408004761
1772556453483258400,4.67125830078125,1.2793385982513428,0.17744189500808716,-0.24517592787742615
1772556453493242600,4.68124267578125,1.3149584531784058,0.15189898014068604,-0.10079985111951828
1772556453503225600,4.6912255859375,1.3412870168685913,0.11458863317966461,-0.015354189090430737
1772556453513208600,4.70120849609375,1.3652583360671997,0.08027033507823944,0.02472745068371296
1772556453523191600,4.711191650390625,1.3993803262710571,0.10580312460660934,0.02154337428510189
1772556453533174500,4.721174560546875,1.4496212005615234,0.15417225658893585,-0.026864903047680855
1772556453543157500,4.731157470703125,1.5111849308013916,0.21203209459781647,-0.11629252135753632
1772556453553141500,4.7411416015625,1.5597302913665771,0.2907103896141052,-0.23119646310806274
1772556453563124700,4.751124755859375,1.5717034339904785,0.41689202189445496,-0.3498395085334778
1772556453573107500,4.761107421875,1.5435575246810913,0.5777589678764343,-0.43288883566856384
1772556453583090400,4.77109033203125,1.5092577934265137,0.7014667987823486,-0.47321629524230957
1772556453593073700,4.78107373046875,1.4809644222259521,0.7669227719306946,-0.47717294096946716
1772556453603056400,4.791056396484375,1.4516499042510986,0.7891218066215515,-0.45301327109336853
1772556453613040400,4.801040283203125,1.4047538042068481,0.787674069404602,-0.407359778881073
1772556453623023600,4.811023681640625,1.3372727632522583,0.7658438682556152,-0.3596857488155365
1772556453633006600,4.821006591796875,1.2573087215423584,0.7421132922172546,-0.3123805522918701
1772556453642989600,4.830989501953125,1.1798917055130005,0.7219305038452148,-0.2809464633464813
1772556453652972500,4.84097265625,1.1107538938522339,0.6957800984382629,-0.2649829387664795
1772556453662955500,4.85095556640625,1.0709023475646973,0.6497939825057983,-0.2604912519454956
1772556453672939500,4.860939453125,1.0500231981277466,0.5876227617263794,-0.2591545879840851
1772556453682922500,4.870922607421875,1.0433937311172485,0.5137962102890015,-0.25929123163223267
1772556453692905500,4.880905517578125,1.0422594547271729,0.44330766797065735,-0.2633288502693176
1772556453702888400,4.890888427734375,1.0350977182388306,0.3786548972129822,-0.2666356861591339
1772556453712871400,4.900871337890625,1.0227055549621582,0.33805713057518005,-0.25046205520629883
1772556453722855700,4.910855712890625,1.0069646835327148,0.31795746088027954,-0.21495838463306427
1772556453732838700,4.920838623046875,0.9802544713020325,0.28483572602272034,-0.1490667164325714
1772556453742821400,4.9308212890625,0.9540787935256958,0.254445344209671,-0.06674201041460037
1772556453752804600,4.9408046875,0.9273430705070496,0.2439442276954651,0.0247879046946764
1772556453762787600,4.95078759765625,0.900644063949585,0.23656752705574036,0.1042446494102478
1772556453772770600,4.9607705078125,0.872016966342926,0.2549095153808594,0.17867013812065125
1772556453782754600,4.970754638671875,0.8533934354782104,0.307277113199234,0.2446369081735611
1772556453792737500,4.980737548828125,0.8351036906242371,0.3588617444038391,0.29828575253486633
1772556453802720500,4.990720458984375,0.8213819861412048,0.3863104283809662,0.346466600894928
1772556453812703500,5.000703369140625,0.8130393624305725,0.38911178708076477,0.3728366792201996
1772556453822686500,5.0106865234375,0.8192205429077148,0.371340274810791,0.38496872782707214
1772556453832669400,5.02066943359375,0.8325856328010559,0.33379048109054565,0.3442623019218445
1772556453842653400,5.0306533203125,0.8473624587059021,0.3046469986438751,0.21231839060783386
1772556453852636700,5.04063671875,0.8598423004150391,0.28684455156326294,0.0017638115677982569
1772556453862619600,5.05061962890625,0.9014560580253601,0.28285911679267883,-0.2379281371831894
1772556453872602400,5.060602294921875,0.9868985414505005,0.32278817892074585,-0.4443223178386688
1772556453882585600,5.070585693359375,1.102598786354065,0.38791871070861816,-0.5633086562156677
1772556453892569600,5.080569580078125,1.2082843780517578,0.4631420969963074,-0.5717839002609253
1772556453902552600,5.090552490234375,1.270206093788147,0.5523228049278259,-0.4650302529335022
1772556453912535600,5.10053564453125,1.291925311088562,0.6112724542617798,-0.2864021956920624
1772556453922518500,5.1105185546875,1.2797468900680542,0.6008871793746948,-0.060869742184877396
1772556453932501500,5.12050146484375,1.2235512733459473,0.5438305139541626,0.19781401753425598
1772556453942485500,5.130485595703125,1.129711627960205,0.48851296305656433,0.4523773193359375
1772556453952468700,5.14046875,1.0119394063949585,0.4336867332458496,0.6804836988449097
1772556453962451500,5.150451416015625,0.8904523849487305,0.366448312997818,0.8507435917854309
1772556453972434400,5.160434326171875,0.7873811721801758,0.30764278769493103,0.9443819522857666
1772556453982417700,5.170417724609375,0.7064290642738342,0.2675915062427521,0.9731651544570923
1772556453992400600,5.180400634765625,0.6416066288948059,0.230783149600029,0.9287169575691223
1772556454002384400,5.19038427734375,0.5921533107757568,0.19859431684017181,0.8091482520103455
1772556454012367400,5.200367431640625,0.570012092590332,0.16186080873012543,0.6422567367553711
1772556454022350600,5.2103505859375,0.5809915065765381,0.12832920253276825,0.44272202253341675
1772556454032333600,5.22033349609375,0.6186877489089966,0.10566464066505432,0.24868784844875336
1772556454042316500,5.230316650390625,0.6798275113105774,0.11676150560379028,0.07191893458366394
1772556454052300500,5.240300537109375,0.7600206136703491,0.1659839153289795,-0.07837843149900436
1772556454062283500,5.250283447265625,0.8721826076507568,0.22450101375579834,-0.20363594591617584
1772556454072266500,5.2602666015625,1.0017712116241455,0.2898011803627014,-0.31821978092193604
1772556454082249700,5.270249755859375,1.1252102851867676,0.3633776605129242,-0.41341209411621094
1772556454092232400,5.280232421875,1.220344066619873,0.4286371171474457,-0.49424833059310913
1772556454102216400,5.290216552734375,1.2974555492401123,0.4443649351596832,-0.5453285574913025
1772556454112199400,5.300199462890625,1.3720115423202515,0.417519211769104,-0.5514394640922546
1772556454122182700,5.3101826171875,1.438665747642517,0.35643428564071655,-0.5110102891921997
1772556454132165400,5.320165283203125,1.4860771894454956,0.27006158232688904,-0.4272645115852356
1772556454142148600,5.330148681640625,1.501513123512268,0.1755310744047165,-0.32201799750328064
1772556454152131600,5.340131591796875,1.4794224500656128,0.0871543437242508,-0.20580562949180603
1772556454162115600,5.350115478515625,1.4344483613967896,0.0009145294898189604,-0.0872155949473381
1772556454172098600,5.3600986328125,1.3753093481063843,-0.0535455159842968,0.03792501240968704
1772556454182081500,5.37008154296875,1.2877970933914185,-0.0654706209897995,0.16605715453624725
1772556454192063700,5.380063720703125,1.188021183013916,-0.05704730749130249,0.2841571569442749
1772556454202046700,5.390046630859375,1.0920382738113403,-0.02317429520189762,0.36740463972091675
1772556454212030700,5.40003076171875,1.0169991254806519,0.04113997891545296,0.41872695088386536
1772556454222013700,5.410013671875,0.9525647759437561,0.12212084978818893,0.43426409363746643
1772556454231996700,5.41999658203125,0.9026193022727966,0.206649050116539,0.41937384009361267
1772556454241980000,5.42997998046875,0.8549468517303467,0.2852860689163208,0.3873906135559082
1772556454251962600,5.439962646484375,0.8188844919204712,0.3453992009162903,0.3511021137237549
1772556454261946600,5.449946533203125,0.8039385676383972,0.37280261516571045,0.30358386039733887
1772556454271929900,5.459929931640625,0.8048354983329773,0.3784695565700531,0.2511509954929352
1772556454281912800,5.469912841796875,0.8169717788696289,0.3729240298271179,0.18707162141799927
1772556454291895800,5.479895751953125,0.8320381045341492,0.34486496448516846,0.10835816711187363
1772556454301878800,5.489878662109375,0.8456058502197266,0.31647753715515137,0.02628832869231701
1772556454311862800,5.49986279296875,0.869103193283081,0.28217843174934387,-0.04958220198750496
1772556454321845800,5.509845703125,0.8842621445655823,0.24433544278144836,-0.10415090620517731
1772556454331828700,5.519828857421875,0.9070718884468079,0.2300124317407608,-0.13547739386558533
1772556454341811700,5.529811767578125,0.9178904294967651,0.25022023916244507,-0.13935576379299164
1772556454351794700,5.539794677734375,0.9228729009628296,0.28649887442588806,-0.10328271239995956
1772556454361778700,5.54977880859375,0.9194795489311218,0.3401051163673401,-0.0370568223297596
1772556454371762000,5.559761962890625,0.9106812477111816,0.37709829211235046,0.04103371873497963
1772556454381745000,5.569744873046875,0.8872504830360413,0.40311551094055176,0.12340342998504639
1772556454391727600,5.5797275390625,0.8579240441322327,0.416435569524765,0.19617830216884613
1772556454401711600,5.589711669921875,0.8201478719711304,0.41848593950271606,0.2518186569213867
1772556454411694800,5.59969482421875,0.7767626047134399,0.41687923669815063,0.290240615606308
1772556454421677800,5.609677734375,0.7250913977622986,0.4255997836589813,0.30916982889175415
1772556454431660500,5.61966064453125,0.6601086854934692,0.44778603315353394,0.3138556480407715
1772556454441643800,5.629643798828125,0.5882600545883179,0.4755668044090271,0.3104958236217499
1772556454451627800,5.639627685546875,0.5202192068099976,0.48778006434440613,0.3002048432826996
1772556454461610800,5.64961083984375,0.4657599627971649,0.48695793747901917,0.2878139317035675
1772556454471594000,5.659593994140625,0.4201277792453766,0.4840819835662842,0.27855145931243896
1772556454481576700,5.66957666015625,0.3794434666633606,0.4756176769733429,0.2623724937438965
1772556454491559700,5.6795595703125,0.3544433116912842,0.44706299901008606,0.2572115659713745
1772556454501543700,5.689543701171875,0.36535799503326416,0.425892174243927,0.2563167214393616
1772556454511527000,5.69952685546875,0.3989394009113312,0.4104247987270355,0.2752462327480316
1772556454521509600,5.709509521484375,0.45139726996421814,0.418121337890625,0.31469297409057617
1772556454531492600,5.71949267578125,0.5168575048446655,0.43110930919647217,0.3714350759983063
1772556454541475800,5.729475830078125,0.5995380282402039,0.4160161316394806,0.4187581241130829
1772556454551459800,5.7394599609375,0.6806597709655762,0.3651859760284424,0.43725189566612244
1772556454561442800,5.74944287109375,0.7689297199249268,0.28684002161026,0.40541088581085205
1772556454571425800,5.75942578125,0.8668909072875977,0.169870525598526,0.31570789217948914
1772556454581408800,5.76940869140625,0.9570053219795227,-0.004275438841432333,0.16027861833572388
1772556454591392800,5.779392822265625,1.0107455253601074,-0.20689326524734497,-0.06034163758158684
1772556454601375700,5.789375732421875,1.0172260999679565,-0.3809950053691864,-0.30174654722213745
1772556454611358700,5.799358642578125,0.9759454727172852,-0.4836723804473877,-0.5056402683258057
1772556454621341700,5.809341796875,0.8945795297622681,-0.4624302089214325,-0.6156828999519348
1772556454631324700,5.81932470703125,0.7817914485931396,-0.2954987585544586,-0.5973816514015198
1772556454641308700,5.82930859375,0.626721978187561,-0.01624634861946106,-0.4626259505748749
1772556454651292000,5.8392919921875,0.46815070509910583,0.27057182788848877,-0.2537688910961151
1772556454661274600,5.849274658203125,0.3236859142780304,0.49619272351264954,0.0018253305461257696
1772556454671257900,5.8592578125,0.20355871319770813,0.6674813628196716,0.27663320302963257
1772556454681240800,5.86924072265625,0.133688822388649,0.7837251424789429,0.5435181260108948
1772556454691224800,5.879224853515625,0.12080631405115128,0.8132780194282532,0.7646960616111755
1772556454701207600,5.88920751953125,0.1486366093158722,0.773854672908783,0.9136133790016174
1772556454711190800,5.899190673828125,0.20817211270332336,0.6838475465774536,0.9845578670501709
1772556454721173800,5.909173828125,0.2688618302345276,0.589001476764679,0.9665671586990356
1772556454731157800,5.91915771484375,0.3235924541950226,0.5051862001419067,0.8755198121070862
1772556454741140700,5.929140625,0.381880521774292,0.43752166628837585,0.7274823784828186
1772556454751123700,5.939123779296875,0.4413757920265198,0.37510091066360474,0.5397961139678955
1772556454761106700,5.949106689453125,0.5008993148803711,0.32667478919029236,0.32830891013145447
1772556454771090000,5.95908984375,0.5451091527938843,0.2902459502220154,0.11318780481815338
1772556454781074000,5.969073974609375,0.5727753639221191,0.2792321741580963,-0.07453655451536179
1772556454791056600,5.979056640625,0.5760976672172546,0.28744590282440186,-0.23325003683567047
1772556454801039600,5.98903955078125,0.5672527551651001,0.3152894973754883,-0.3699261248111725
1772556454811022800,5.99902294921875,0.5460026264190674,0.34488096833229065,-0.4787040054798126
1772556454821006800,6.0090068359375,0.5105072259902954,0.3641507923603058,-0.5663313269615173
1772556454830989800,6.01898974609375,0.4713664650917053,0.3827843964099884,-0.6141438484191895
1772556454840972500,6.02897265625,0.4284227192401886,0.3958602547645569,-0.6219655275344849
1772556454850955800,6.038955810546875,0.39393824338912964,0.39182981848716736,-0.5878997445106506
1772556454860938800,6.048938720703125,0.3722366690635681,0.35222142934799194,-0.5133405327796936
1772556454870922800,6.0589228515625,0.3631068170070648,0.3072134852409363,-0.41794025897979736
1772556454880906000,6.068906005859375,0.3764742910861969,0.24320200085639954,-0.3329686224460602
1772556454890888700,6.078888671875,0.41360408067703247,0.1563054472208023,-0.2668391466140747
1772556454900871700,6.08887158203125,0.45994657278060913,0.07057483494281769,-0.23891644179821014
1772556454910855700,6.098855712890625,0.5167163610458374,-0.0002490055630914867,-0.24163925647735596
1772556454920839000,6.1088388671875,0.572638213634491,-0.05861084908246994,-0.2749846875667572
1772556454930821600,6.118821533203125,0.6259405612945557,-0.09202180057764053,-0.3134399354457855
1772556454940804600,6.1288046875,0.6802906394004822,-0.09830153733491898,-0.34021350741386414
1772556454950788900,6.138788818359375,0.7219944000244141,-0.08981217443943024,-0.34686049818992615
1772556454960771800,6.148771728515625,0.7432610988616943,-0.06408923864364624,-0.3319566249847412
1772556454970754800,6.1587548828125,0.7481037974357605,-0.0235894825309515,-0.29993584752082825
1772556454980737800,6.16873779296875,0.7331794500350952,0.023063506931066513,-0.25068333745002747
1772556454990720800,6.178720703125,0.6997045874595642,0.06979026645421982,-0.1879027932882309
1772556455000704800,6.188704833984375,0.6426950693130493,0.10072607547044754,-0.11253853142261505
1772556455010687700,6.198687744140625,0.5656498074531555,0.10485824197530746,-0.038545526564121246
1772556455020670700,6.208670654296875,0.48250114917755127,0.10165898501873016,0.022723954170942307
1772556455030653700,6.21865380859375,0.3989207446575165,0.10336580127477646,0.079134501516819
1772556455040637700,6.2286376953125,0.31495580077171326,0.11437158286571503,0.11996661871671677
1772556455050620700,6.23862060546875,0.23783093690872192,0.1320216804742813,0.15718615055084229
1772556455060604000,6.24860400390625,0.17004123330116272,0.1464909017086029,0.18704551458358765
1772556455070586600,6.258586669921875,0.11979804188013077,0.1444578468799591,0.2119966745376587
1772556455080570600,6.268570556640625,0.07964635640382767,0.10839305073022842,0.23086383938789368
1772556455090553900,6.278553955078125,0.05470585450530052,0.07667400687932968,0.2296781986951828
1772556455100536800,6.288536865234375,0.03472176194190979,0.060744572430849075,0.23439252376556396
1772556455110519600,6.29851953125,0.020862936973571777,0.07020199298858643,0.24882392585277557
1772556455120503600,6.308503662109375,0.01010909304022789,0.07205501943826675,0.26244574785232544
1772556455130486800,6.31848681640625,0.01233229972422123,0.0579378679394722,0.28441548347473145
1772556455140469800,6.3284697265625,0.016291089355945587,0.03966352343559265,0.30277931690216064
1772556455150452700,6.33845263671875,0.019033346325159073,0.007751130498945713,0.3082566261291504
1772556455160435700,6.348435791015625,0.0179987084120512,-0.012449745088815689,0.30595964193344116
1772556455170419700,6.358419677734375,0.011494736187160015,-0.01570945419371128,0.2933538556098938
1772556455180402700,6.368402587890625,0.009912019595503807,-0.021458687260746956,0.2790609300136566
1772556455190385700,6.3783857421875,0.01019964087754488,-0.04170483723282814,0.2539782226085663
1772556455200368600,6.38836865234375,0.022827018052339554,-0.07139482349157333,0.19413645565509796
1772556455210352600,6.3983525390625,0.03783925622701645,-0.08445682376623154,0.0713796392083168
1772556455220335600,6.408335693359375,0.05836290866136551,-0.03370203822851181,-0.08753863722085953
1772556455230318800,6.41831884765625,0.09782962501049042,0.06255286186933517,-0.24161821603775024
1772556455240301600,6.428301513671875,0.16915467381477356,0.17900756001472473,-0.35134658217430115
1772556455250285600,6.43828564453125,0.25446370244026184,0.28137627243995667,-0.38600894808769226
1772556455260268800,6.448268798828125,0.3095325529575348,0.33907392621040344,-0.3503638803958893
1772556455270251800,6.458251708984375,0.3183383047580719,0.35598820447921753,-0.24905189871788025
1772556455280234500,6.468234375,0.27728354930877686,0.316616028547287,-0.11190816015005112
1772556455290218500,6.478218505859375,0.19965559244155884,0.24428723752498627,0.04669453576207161
1772556455300201700,6.48820166015625,0.11238060146570206,0.16236360371112823,0.21141451597213745
1772556455310184700,6.498184814453125,0.028487833216786385,0.08604007959365845,0.37728336453437805
1772556455320167700,6.508167724609375,-0.05319877341389656,0.016530772671103477,0.5236051678657532
1772556455330151700,6.518151611328125,-0.13257960975170135,-0.04156794771552086,0.6286724805831909
1772556455340134700,6.528134765625,-0.19811707735061646,-0.07415971159934998,0.6952831745147705
1772556455350117600,6.53811767578125,-0.25065407156944275,-0.08108526468276978,0.719077467918396
1772556455360100900,6.548100830078125,-0.27849340438842773,-0.06692523509263992,0.6887171268463135
1772556455370084900,6.5580849609375,-0.2813089191913605,-0.04273920878767967,0.6171202063560486
1772556455380067600,6.568067626953125,-0.2628619968891144,-0.020292755216360092,0.5062176585197449
1772556455390050600,6.578050537109375,-0.2364727258682251,-0.011110441759228706,0.3779502213001251
1772556455400033800,6.58803369140625,-0.1894540786743164,-0.00652714166790247,0.24492798745632172
1772556455410017800,6.598017822265625,-0.1396697461605072,0.001208009896799922,0.12584474682807922
1772556455420000500,6.60800048828125,-0.09187532961368561,0.02185123600065708,0.008290953002870083
1772556455429983500,6.6179833984375,-0.03518195450305939,0.04679360240697861,-0.10417407006025314
1772556455439966700,6.627966796875,0.03310229256749153,0.07165075093507767,-0.22507625818252563
1772556455449950700,6.63795068359375,0.09759046882390976,0.09192059934139252,-0.37027978897094727
1772556455459933700,6.64793359375,0.1636967808008194,0.125393345952034,-0.5202069878578186
1772556455469916700,6.657916748046875,0.22457319498062134,0.16546858847141266,-0.6432594060897827
1772556455479899600,6.667899658203125,0.27741217613220215,0.18158817291259766,-0.7184982299804688
1772556455489883600,6.677883544921875,0.31589245796203613,0.14793646335601807,-0.7288832068443298
1772556455499866600,6.68786669921875,0.33583366870880127,0.08837779611349106,-0.6739587187767029
1772556455509849600,6.697849609375,0.3448213040828705,0.017962489277124405,-0.5461299419403076
1772556455519832600,6.70783251953125,0.3418516218662262,-0.03305782005190849,-0.36856764554977417
1772556455529816600,6.717816650390625,0.32020464539527893,-0.06009689345955849,-0.1707451045513153
1772556455539799800,6.7277998046875,0.2861124575138092,-0.0892057791352272,0.009734652936458588
1772556455549782800,6.73778271484375,0.2473306953907013,-0.10521137714385986,0.1560143679380417
1772556455559765500,6.747765625,0.20182526111602783,-0.10862687975168228,0.2554496228694916
1772556455569749500,6.75774951171875,0.15802158415317535,-0.10140784829854965,0.31521040201187134
1772556455579732700,6.767732666015625,0.12158901244401932,-0.08310287445783615,0.3394736647605896
1772556455589715700,6.7777158203125,0.0850837379693985,-0.05687340348958969,0.33766618371009827
1772556455599698700,6.78769873046875,0.04880562424659729,-0.02219771407544613,0.317880243062973
1772556455609682400,6.797682373046875,0.012657471932470798,0.021505292505025864,0.27181288599967957
1772556455619665700,6.807665771484375,-0.020964937284588814,0.0703418105840683,0.20502372086048126
1772556455629648600,6.817648681640625,-0.04604925215244293,0.1182187870144844,0.13198013603687286
1772556455639632000,6.8276318359375,-0.05979195982217789,0.16861937940120697,0.056351155042648315
1772556455649616000,6.837615966796875,-0.07922770828008652,0.19771814346313477,-0.02076413482427597
1772556455659598600,6.8475986328125,-0.08619827032089233,0.2108592391014099,-0.09319519251585007
1772556455669581600,6.85758154296875,-0.09488096833229065,0.21289202570915222,-0.14648424088954926
1772556455679564800,6.867564697265625,-0.10365422070026398,0.21440869569778442,-0.1899997591972351
1772556455689548800,6.877548828125,-0.10430989414453506,0.22342243790626526,-0.21767427027225494
1772556455699531500,6.887531494140625,-0.10683590173721313,0.2322620004415512,-0.24828490614891052
1772556455709514500,6.897514404296875,-0.10074791312217712,0.24857573211193085,-0.2671195864677429
1772556455719497700,6.907497802734375,-0.092865489423275,0.2575545608997345,-0.2847270667552948
1772556455729481700,6.917481689453125,-0.0803784653544426,0.26148274540901184,-0.30129966139793396
1772556455739464700,6.927464599609375,-0.05506884306669235,0.27451997995376587,-0.31105881929397583
1772556455749447700,6.93744775390625,-0.035827238112688065,0.28312039375305176,-0.3204539120197296
1772556455759431700,6.947431640625,-0.01968555338680744,0.29943543672561646,-0.33746272325515747
1772556455769414700,6.95741455078125,-0.013585316948592663,0.311797559261322,-0.3465488851070404
1772556455779397600,6.967397705078125,-0.0128774493932724,0.2986103892326355,-0.34971991181373596
1772556455789380600,6.977380615234375,-0.005293298978358507,0.2844192087650299,-0.32874804735183716
1772556455799364600,6.987364501953125,-0.013531787320971489,0.2570565640926361,-0.2884959876537323
1772556455809347600,6.99734765625,-0.02895122393965721,0.21885432302951813,-0.23682425916194916
1772556455819330800,7.007330810546875,-0.04541648179292679,0.1620355099439621,-0.1708332598209381
1772556455829313800,7.017313720703125,-0.05867103487253189,0.10633469372987747,-0.10611684620380402
1772556455839297800,7.0272978515625,-0.07363613694906235,0.05790777504444122,-0.047736894339323044
1772556455849280500,7.037280517578125,-0.09331503510475159,0.01992177590727806,-0.011858523823320866
1772556455859263700,7.047263671875,-0.11177632957696915,-0.00962892547249794,0.0013195963110774755
1772556455869246700,7.057246826171875,-0.12774810194969177,-0.036197420209646225,-0.0009981527691707015
1772556455879230700,7.067230712890625,-0.13856826722621918,-0.060023922473192215,-0.011607120744884014
1772556455889213400,7.07721337890625,-0.1533549278974533,-0.08471408486366272,-0.018879948183894157
1772556455899196700,7.08719677734375,-0.16928516328334808,-0.1018986701965332,-0.01787646859884262
1772556455909180700,7.0971806640625,-0.18923890590667725,-0.10699249804019928,0.002572613535448909
1772556455919163600,7.10716357421875,-0.20518937706947327,-0.11941853910684586,0.035589952021837234
1772556455929147000,7.11714697265625,-0.2186625748872757,-0.12042973935604095,0.07771237194538116
1772556455939129600,7.127129638671875,-0.22918684780597687,-0.1332736313343048,0.1311819851398468
1772556455949113600,7.137113525390625,-0.2400783747434616,-0.15615737438201904,0.17420323193073273
1772556455959096600,7.1470966796875,-0.25022074580192566,-0.20570255815982819,0.18263718485832214
1772556455969079800,7.157079833984375,-0.25570207834243774,-0.2821616530418396,0.15976569056510925
1772556455979062500,7.1670625,-0.24980078637599945,-0.36221545934677124,0.08398304879665375
1772556455989046500,7.177046630859375,-0.2427026629447937,-0.42816439270973206,-0.025057416409254074
1772556455999029800,7.18702978515625,-0.2361757755279541,-0.46371838450431824,-0.158493772149086
1772556456009012700,7.1970126953125,-0.23552224040031433,-0.4642758071422577,-0.28313902020454407
1772556456018996700,7.206996826171875,-0.22474922239780426,-0.4391176998615265,-0.3717131018638611
1772556456028979700,7.216979736328125,-0.22095102071762085,-0.3784295916557312,-0.4006179869174957
1772556456038962700,7.226962646484375,-0.22769281268119812,-0.29231682419776917,-0.3640706241130829
1772556456048945700,7.236945556640625,-0.2416190207004547,-0.19425895810127258,-0.26683807373046875
1772556456058929700,7.2469296875,-0.2504503130912781,-0.09521946310997009,-0.12999847531318665
1772556456068912600,7.25691259765625,-0.26337918639183044,-0.02303953841328621,0.008772186003625393
1772556456078895600,7.2668955078125,-0.267414391040802,0.02123524807393551,0.11486000567674637
1772556456088878600,7.276878662109375,-0.2691430449485779,0.02420147694647312,0.16644197702407837
1772556456098862600,7.286862548828125,-0.2800297737121582,-0.008326905779540539,0.1702396422624588
1772556456108845800,7.296845703125,-0.29395198822021484,-0.06114697828888893,0.14523282647132874
1772556456118828800,7.306828857421875,-0.3007321357727051,-0.12736274302005768,0.11074142903089523
1772556456128812500,7.3168125,-0.29240870475769043,-0.1893763244152069,0.08447440713644028
1772556456138795500,7.32679541015625,-0.2594725787639618,-0.22810666263103485,0.08367039263248444
1772556456148778800,7.33677880859375,-0.21305608749389648,-0.24034389853477478,0.12750603258609772
1772556456158761700,7.34676171875,-0.1603771597146988,-0.21131516993045807,0.20537365972995758
1772556456168745700,7.356745849609375,-0.10622097551822662,-0.16196733713150024,0.30523526668548584
1772556456178728700,7.366728759765625,-0.054609980434179306,-0.09453742206096649,0.41608908772468567
1772556456188711700,7.376711669921875,-0.018760904669761658,-0.03454253077507019,0.5040895342826843
1772556456198696200,7.3866962890625,-0.002095108851790428,0.011498730629682541,0.5571471452713013
1772556456208679200,7.39667919921875,-0.0012290488230064511,0.0392797626554966,0.5755120515823364
1772556456218662100,7.406662109375,-0.009929862804710865,0.04573100432753563,0.5534493327140808
1772556456228645000,7.41664501953125,-0.022764967754483223,0.0359867624938488,0.4893428087234497
1772556456238629000,7.426629150390625,-0.04127952829003334,0.031260982155799866,0.39215153455734253
1772556456248612000,7.436612060546875,-0.06340507417917252,0.032886311411857605,0.2657954692840576
1772556456258595300,7.44659521484375,-0.08491861820220947,0.03111664019525051,0.12529027462005615
1772556456268578000,7.456578125,-0.10943008959293365,0.03677079826593399,-0.017187509685754776
1772556456278562000,7.46656201171875,-0.13423050940036774,0.038781482726335526,-0.1720828115940094
1772556456288545000,7.476544921875,-0.13913126289844513,0.05036836490035057,-0.3230172097682953
1772556456298528300,7.4865283203125,-0.12108168005943298,0.07471738010644913,-0.45048487186431885
1772556456308512300,7.49651220703125,-0.0864131823182106,0.09493210166692734,-0.5507816672325134
1772556456318495200,7.5064951171875,-0.03172836825251579,0.11516626924276352,-0.6328331232070923
1772556456328478200,7.516478271484375,0.023936225101351738,0.13806866109371185,-0.6851048469543457
1772556456338461200,7.526461181640625,0.0968402624130249,0.16338573396205902,-0.7195078134536743
1772556456348445200,7.536445068359375,0.1713443249464035,0.17684081196784973,-0.7237715721130371
1772556456358428200,7.54642822265625,0.24371279776096344,0.1783047616481781,-0.6969189047813416
1772556456368411100,7.5564111328125,0.29826632142066956,0.17365194857120514,-0.6539535522460938
1772556456378395100,7.56639501953125,0.3345241844654083,0.14959082007408142,-0.5938510894775391
1772556456388378000,7.576378173828125,0.35546356439590454,0.12032853811979294,-0.5301246047019958
1772556456398361000,7.586361083984375,0.36778199672698975,0.09887384623289108,-0.45358747243881226
1772556456408344300,7.59634423828125,0.3692251741886139,0.07859387993812561,-0.37536510825157166
1772556456418328300,7.606328369140625,0.3571709096431732,0.05660868436098099,-0.3036152720451355
1772556456428311000,7.61631103515625,0.3376044034957886,0.04994838312268257,-0.2487238049507141
1772556456438294300,7.626294189453125,0.31189343333244324,0.057983942329883575,-0.21560339629650116
1772556456448278300,7.6362783203125,0.28581923246383667,0.0716390311717987,-0.19968195259571075
1772556456458261200,7.64626123046875,0.2581806778907776,0.08632423728704453,-0.20174750685691833
1772556456468244000,7.656243896484375,0.23149794340133667,0.09398534893989563,-0.2052900344133377
1772556456478227200,7.666227294921875,0.2003605216741562,0.09637953341007233,-0.20211447775363922
1772556456488211200,7.676211181640625,0.16462703049182892,0.09235549718141556,-0.18557864427566528
1772556456498194200,7.686194091796875,0.12091337144374847,0.08379529416561127,-0.15491820871829987
1772556456508177400,7.696177490234375,0.07629077881574631,0.08129645138978958,-0.1304570734500885
1772556456518161200,7.7061611328125,0.023141538724303246,0.07814087718725204,-0.10768838226795197
1772556456528144100,7.71614404296875,-0.030398651957511902,0.08111029863357544,-0.09218132495880127
1772556456538127000,7.726127197265625,-0.0820554569363594,0.08597695827484131,-0.06792978197336197
1772556456548110300,7.7361103515625,-0.13764894008636475,0.07455066591501236,-0.03888667747378349
1772556456558094300,7.74609423828125,-0.18321429193019867,0.05637805536389351,-0.011441206559538841
1772556456568077000,7.7560771484375,-0.2247561514377594,0.043224968016147614,0.013909956440329552
1772556456578060000,7.76606005859375,-0.2620452046394348,0.03298671171069145,0.0348258912563324
1772556456588044300,7.776044189453125,-0.2868858277797699,0.010341054759919643,0.04952520877122879
1772556456598027300,7.78602734375,-0.302491694688797,-0.020973725244402885,0.07107071578502655
1772556456608010000,7.796010009765625,-0.29688945412635803,-0.048102281987667084,0.10029677301645279
1772556456617993200,7.8059931640625,-0.28505784273147583,-0.07382282614707947,0.14351162314414978
1772556456627977200,7.815977294921875,-0.2641744017601013,-0.08184000849723816,0.1780022233724594
1772556456637960200,7.825960205078125,-0.2286882996559143,-0.07512777298688889,0.2030857354402542
1772556456647943200,7.835943115234375,-0.18795844912528992,-0.07179189473390579,0.20493343472480774
1772556456657927200,7.84592724609375,-0.15299247205257416,-0.10055004060268402,0.14047162234783173
1772556456667910100,7.85591015625,-0.12501198053359985,-0.15890362858772278,-0.010601777583360672
1772556456677893000,7.86589306640625,-0.1087067723274231,-0.23581013083457947,-0.2843691408634186
1772556456687876400,7.87587646484375,-0.077901192009449,-0.3230592906475067,-0.6330557465553284
1772556456697860400,7.8858603515625,-0.0020471718162298203,-0.3797670304775238,-0.961920440196991
1772556456707843000,7.895843017578125,0.06852659583091736,-0.3685300946235657,-1.2186177968978882
1772556456717826000,7.905825927734375,0.15077859163284302,-0.2689014971256256,-1.2782398462295532
1772556456727810000,7.91581005859375,0.2787141799926758,-0.17385993897914886,-1.1643630266189575
1772556456737793300,7.925793212890625,0.37149685621261597,0.019780894741415977,-0.8898841142654419
1772556456747776300,7.9357763671875,0.4236205220222473,0.18301109969615936,-0.48994094133377075
1772556456757759000,7.945759033203125,0.42475900053977966,0.2150537222623825,-0.020786238834261894
1772556456767743200,7.9557431640625,0.3789989650249481,0.13982021808624268,0.4736940562725067
1772556456777726200,7.965726318359375,0.27639004588127136,0.06406021118164062,0.9788461923599243
1772556456787709200,7.975709228515625,0.14351162314414978,0.03154274448752403,1.4434095621109009
1772556456797693200,7.985693115234375,-0.0016564861871302128,-0.013351225294172764,1.8014228343963623
1772556456807675100,7.995675048828125,-0.13367071747779846,-0.08438865095376968,2.01975679397583
1772556456817658000,8.005658203125,-0.2503536641597748,-0.12514247000217438,2.101118326187134
1772556456827642000,8.01564208984375,-0.34996041655540466,-0.12611426413059235,2.0451509952545166
1772556456837625300,8.025625244140626,-0.43737441301345825,-0.10384464263916016,1.8685427904129028
1772556456847608000,8.035608154296876,-0.5075300335884094,-0.06265033036470413,1.5952765941619873
1772556456857591000,8.045591064453125,-0.5449413657188416,0.006295712664723396,1.2792164087295532
1772556456867575300,8.0555751953125,-0.5456563830375671,0.08071641623973846,0.9453308582305908
1772556456877558300,8.065558349609375,-0.5113477110862732,0.14860865473747253,0.6081858277320862
1772556456887541000,8.075541015625,-0.4390876293182373,0.2040727138519287,0.28145459294319153
1772556456897525000,8.08552490234375,-0.3362269997596741,0.23771029710769653,-0.032409071922302246
1772556456907508200,8.09550830078125,-0.18919815123081207,0.24197694659233093,-0.3179366886615753
1772556456917491200,8.1054912109375,-0.016210928559303284,0.23290462791919708,-0.5856741070747375
1772556456927475200,8.11547509765625,0.14700809121131897,0.20817610621452332,-0.8133922219276428
1772556456937458200,8.125458251953125,0.29605430364608765,0.1620568186044693,-0.9699704051017761
1772556456947441200,8.135441162109375,0.4269910156726837,0.10160651803016663,-1.046404480934143
1772556456957424000,8.145424072265625,0.5274922847747803,0.046185605227947235,-1.031166911125183
1772556456967408000,8.155408203125,0.5994671583175659,0.006333529483526945,-0.9274418354034424
1772556456977391400,8.165391357421875,0.6308267116546631,-0.021742846816778183,-0.7516319155693054
1772556456987374000,8.1753740234375,0.6322429776191711,-0.043481163680553436,-0.5386850237846375
1772556456997358000,8.185358154296875,0.6085602641105652,-0.06262343376874924,-0.3123411238193512
1772556457007341000,8.195341064453125,0.5666067004203796,-0.0845593586564064,-0.10759357362985611
1772556457017324300,8.20532421875,0.5037534236907959,-0.09430120140314102,0.06307856738567352
1772556457027307300,8.215307373046874,0.42551854252815247,-0.09852950274944305,0.1776922345161438
1772556457037291000,8.225291015625,0.3497220575809479,-0.07799413055181503,0.23728658258914948
1772556457047274200,8.235274169921874,0.28250280022621155,-0.025351962074637413,0.25502005219459534
1772556457057257200,8.24525732421875,0.23024225234985352,0.0389774926006794,0.24202728271484375
1772556457067241200,8.2552412109375,0.1868705451488495,0.11917272955179214,0.2124139964580536
1772556457077224200,8.26522412109375,0.15608733892440796,0.19745901226997375,0.1810813695192337
1772556457087207200,8.275207275390626,0.14415504038333893,0.2819240987300873,0.14688372611999512
1772556457097191200,8.285191162109374,0.13801325857639313,0.3502512276172638,0.11984837055206299
1772556457107174100,8.295174072265626,0.14760863780975342,0.39390310645103455,0.0847332626581192
1772556457117157000,8.3051572265625,0.16083921492099762,0.43135857582092285,0.06079144403338432
1772556457127140400,8.315140380859376,0.18277594447135925,0.46147868037223816,0.02900075912475586
1772556457137124000,8.3251240234375,0.20259864628314972,0.4722181260585785,0.004623514134436846
1772556457147107000,8.335107177734375,0.22597454488277435,0.46671178936958313,-0.018137991428375244
1772556457157090300,8.34509033203125,0.2602241337299347,0.47702541947364807,-0.021570006385445595
1772556457167074300,8.35507421875,0.2924816608428955,0.48957502841949463,-0.026980750262737274
1772556457177057300,8.365057373046875,0.31872206926345825,0.49425631761550903,-0.026671025902032852
1772556457187040000,8.3750400390625,0.34378692507743835,0.4954158663749695,-0.026308570057153702
1772556457197027600,8.385027587890624,0.3556758165359497,0.4835088849067688,-0.029337381944060326
1772556457207010800,8.3950107421875,0.3536914885044098,0.46329230070114136,-0.030464963987469673
1772556457216993500,8.40499365234375,0.33795779943466187,0.44942706823349,-0.020506607368588448
1772556457226977500,8.4149775390625,0.2997395694255829,0.4413803219795227,0.0017475662752985954
1772556457236961500,8.42496142578125,0.25352972745895386,0.4401925504207611,0.03746588155627251
1772556457246944800,8.43494482421875,0.20748475193977356,0.4166334271430969,0.07485426962375641
1772556457256927700,8.444927734375,0.14691834151744843,0.34045612812042236,0.09586288034915924
1772556457266911700,8.454911865234376,0.0887298658490181,0.22607441246509552,0.10849078744649887
1772556457276894500,8.46489453125,0.039632897824048996,0.09941553324460983,0.10543721169233322
1772556457286877700,8.474877685546875,0.011087005957961082,-0.007705856580287218,0.09088116884231567
1772556457296861700,8.48486181640625,0.004537493921816349,-0.08570744842290878,0.07838934659957886
1772556457306844700,8.4948447265625,0.019821375608444214,-0.13725079596042633,0.09117837995290756
1772556457316827600,8.50482763671875,0.05471064895391464,-0.17407885193824768,0.12530092895030975
1772556457326810600,8.514810546875,0.1048305407166481,-0.18769000470638275,0.19188527762889862
1772556457336794600,8.524794677734375,0.1597244143486023,-0.18635575473308563,0.2843118906021118
1772556457346777600,8.534777587890625,0.2420983910560608,-0.18179509043693542,0.3694973587989807
1772556457356760800,8.5447607421875,0.35949718952178955,-0.2093534916639328,0.4114629030227661
1772556457366744800,8.554744873046875,0.5031605958938599,-0.27952513098716736,0.3810030221939087
1772556457376727600,8.5647275390625,0.6459941864013672,-0.3871815502643585,0.26393815875053406
1772556457386710500,8.57471044921875,0.7377265095710754,-0.5324060916900635,0.05608457326889038
1772556457396694800,8.58469482421875,0.75322026014328,-0.679850161075592,-0.205022394657135
1772556457406677800,8.594677734375,0.6915408968925476,-0.7900485396385193,-0.4492414593696594
1772556457416660500,8.604660400390625,0.5778705477714539,-0.8073460459709167,-0.5989885926246643
1772556457426643700,8.614643798828125,0.42523011565208435,-0.7079513072967529,-0.5847971439361572
1772556457436627700,8.624627685546875,0.24601615965366364,-0.4663780927658081,-0.39220160245895386
1772556457446610700,8.634610595703125,0.07359699159860611,-0.1580495536327362,-0.0032373385038226843
1772556457456593700,8.64459375,-0.08179792761802673,0.14785923063755035,0.5007182359695435
1772556457466577700,8.65457763671875,-0.19110576808452606,0.40503165125846863,1.0289440155029297
1772556457476560600,8.664560546875,-0.24547021090984344,0.5710911750793457,1.4834520816802979
1772556457486543600,8.674543701171874,-0.26795926690101624,0.667079508304596,1.7830044031143188
1772556457496527600,8.684527587890624,-0.2623370885848999,0.7064791321754456,1.9208528995513916
1772556457506510800,8.6945107421875,-0.22904036939144135,0.6880875825881958,1.9091732501983643
1772556457516493600,8.70449365234375,-0.17574305832386017,0.6155204176902771,1.7776983976364136
1772556457526477600,8.7144775390625,-0.10701699554920197,0.5019568800926208,1.5522077083587646
1772556457536460500,8.72446044921875,-0.034394457936286926,0.36967363953590393,1.2487900257110596
1772556457546443800,8.73444384765625,0.030485738068819046,0.2521060109138489,0.9022507667541504
1772556457556426800,8.7444267578125,0.07327980548143387,0.14679236710071564,0.5257263779640198
1772556457566410800,8.75441064453125,0.11243519932031631,0.035051725804805756,0.1347160041332245
1772556457576393700,8.764393798828126,0.14192038774490356,-0.06372678279876709,-0.22533831000328064
1772556457586376700,8.774376708984375,0.1427678018808365,-0.10504652559757233,-0.5277884602546692
1772556457596360700,8.784360595703125,0.12405084073543549,-0.12505139410495758,-0.777145266532898
1772556457606343700,8.79434375,0.11340326070785522,-0.17664800584316254,-0.9308850765228271
1772556457616326700,8.80432666015625,0.10823512822389603,-0.16984470188617706,-0.9925854206085205
1772556457626310700,8.814310546875,0.08101415634155273,-0.13536208868026733,-0.9857650995254517
1772556457636293600,8.824293701171875,0.06318748742341995,-0.10071010142564774,-0.911635160446167
1772556457646276600,8.834276611328125,0.06448711454868317,-0.050816044211387634,-0.7919594049453735
1772556457656260600,8.844260498046875,0.07551739364862442,-0.010378871113061905,-0.6595134735107422
1772556457666243600,8.85424365234375,0.10323983430862427,0.001755023142322898,-0.5284854173660278
1772556457676226600,8.8642265625,0.14643684029579163,0.0044410875998437405,-0.4234042465686798
1772556457686209800,8.874209716796875,0.204725980758667,0.00001704423084447626,-0.35720527172088623
1772556457696193800,8.88419384765625,0.27145227789878845,0.002560629276558757,-0.3351210057735443
1772556457706176800,8.8941767578125,0.3389415740966797,0.008177235722541809,-0.3497433662414551
1772556457716159500,8.904159423828125,0.40835046768188477,0.007697867229580879,-0.3971175253391266
1772556457726143500,8.9141435546875,0.46452611684799194,0.0027382622938603163,-0.45086678862571716
1772556457736126700,8.924126708984375,0.5018357038497925,0.005623797420412302,-0.49951446056365967
1772556457746109700,8.934109619140624,0.5197523832321167,0.003698598127812147,-0.5321006178855896
1772556457756093700,8.94409375,0.5371220111846924,0.004041613079607487,-0.5540698766708374
1772556457766076700,8.95407666015625,0.5542357563972473,0.03242185711860657,-0.5656652450561523
1772556457776059600,8.9640595703125,0.5494831204414368,0.08164159953594208,-0.5713284611701965
1772556457786043600,8.974043701171874,0.5036503672599792,0.1378936916589737,-0.5538578629493713
1772556457796026600,8.984026611328124,0.43735364079475403,0.1917169690132141,-0.5070735812187195
1772556457806009900,8.994009765625,0.34520453214645386,0.2526024281978607,-0.43209415674209595
1772556457815992600,9.00399267578125,0.23852495849132538,0.31755825877189636,-0.34057968854904175
1772556457825976600,9.0139765625,0.12761814892292023,0.370706170797348,-0.23258663713932037
1772556457835959600,9.02395947265625,0.026615366339683533,0.41648510098457336,-0.11360032856464386
1772556457845942800,9.03394287109375,-0.05306055396795273,0.4435262978076935,0.0032168321777135134
1772556457855926800,9.0439267578125,-0.11185968667268753,0.4427931308746338,0.11906620115041733
1772556457865909500,9.053909423828125,-0.17064231634140015,0.41357558965682983,0.21131224930286407
1772556457875892700,9.063892822265625,-0.22839616239070892,0.3567429482936859,0.2695299983024597
1772556457885876700,9.073876708984375,-0.285344660282135,0.29611343145370483,0.28997403383255005
1772556457895859700,9.083859619140625,-0.33101093769073486,0.2091313749551773,0.27117717266082764
1772556457905842700,9.0938427734375,-0.3613198399543762,0.11368048936128616,0.2343142330646515
1772556457915826400,9.103826416015625,-0.3741259276866913,0.011469702236354351,0.18314719200134277
1772556457925809700,9.1138095703125,-0.38856664299964905,-0.09817557036876678,0.14617158472537994
1772556457935792600,9.123792724609375,-0.39668530225753784,-0.19729337096214294,0.12707220017910004
1772556457945776600,9.133776611328125,-0.38739460706710815,-0.2647773325443268,0.13533438742160797
1772556457955759900,9.143759765625,-0.37700027227401733,-0.3042062222957611,0.1713230162858963
1772556457965742600,9.15374267578125,-0.3673572242259979,-0.33537426590919495,0.21344409883022308
1772556457975726600,9.1637265625,-0.3685271739959717,-0.3547804653644562,0.22693194448947906
1772556457985709600,9.17370947265625,-0.3582151234149933,-0.3680903911590576,0.19284161925315857
1772556457995692800,9.18369287109375,-0.33383044600486755,-0.38710349798202515,0.1137998029589653
1772556458005675500,9.193675537109375,-0.30529147386550903,-0.40783223509788513,-0.0093317162245512
1772556458015659500,9.203659423828125,-0.2695648968219757,-0.4111659824848175,-0.14905206859111786
1772556458025642800,9.213642822265625,-0.22942307591438293,-0.39891383051872253,-0.2691960632801056
1772556458035625700,9.223625732421874,-0.1964408904314041,-0.37071600556373596,-0.36130228638648987
1772556458045609700,9.233609619140625,-0.16015930473804474,-0.34035223722457886,-0.37410569190979004
1772556458055592700,9.2435927734375,-0.11188525706529617,-0.3311430513858795,-0.33056992292404175
1772556458065575700,9.25357568359375,-0.08897780627012253,-0.2955573499202728,-0.20739392936229706
1772556458075559700,9.2635595703125,-0.09362316131591797,-0.23622877895832062,-0.0006649913266301155
1772556458085542700,9.273542724609374,-0.11426665633916855,-0.20685331523418427,0.25792554020881653
1772556458095525600,9.283525634765626,-0.15988101065158844,-0.1880553960800171,0.5520277619361877
1772556458105509600,9.293509521484374,-0.22727443277835846,-0.17777159810066223,0.8392454385757446
1772556458115492600,9.30349267578125,-0.31167134642601013,-0.16942737996578217,1.0864431858062744
1772556458125475600,9.3134755859375,-0.3961920738220215,-0.180723175406456,1.2865643501281738
1772556458135459600,9.32345947265625,-0.47973304986953735,-0.20965202152729034,1.415054440498352
1772556458145442800,9.33344287109375,-0.5531175136566162,-0.23894253373146057,1.4710849523544312
1772556458155425500,9.343425537109376,-0.6262489557266235,-0.2729596197605133,1.4441033601760864
1772556458165409500,9.353409423828126,-0.6967372894287109,-0.29491126537323,1.3592833280563354
1772556458175392500,9.363392578125,-0.7575777173042297,-0.31587648391723633,1.2010315656661987
1772556458185375700,9.373375732421875,-0.786022424697876,-0.31662774085998535,0.9921119213104248
1772556458195356400,9.3833564453125,-0.7909297943115234,-0.32127976417541504,0.7304033637046814
1772556458205339100,9.393339111328125,-0.7684847116470337,-0.31125056743621826,0.4515746533870697
1772556458215322400,9.403322265625,-0.7115005254745483,-0.2884400486946106,0.15625245869159698
1772556458225305300,9.413305419921874,-0.6145374774932861,-0.2615929841995239,-0.14820411801338196
1772556458235289300,9.423289306640624,-0.4903894066810608,-0.25437501072883606,-0.46369469165802
1772556458245272300,9.433272216796874,-0.3338584005832672,-0.26944345235824585,-0.774734616279602
1772556458255255300,9.44325537109375,-0.1792517751455307,-0.29304757714271545,-1.0446441173553467
1772556458265239300,9.4532392578125,-0.043059587478637695,-0.30192655324935913,-1.2505642175674438
1772556458275222300,9.46322216796875,0.0818469300866127,-0.2968710958957672,-1.380181074142456
1772556458285205200,9.473205322265626,0.1903718113899231,-0.2690916657447815,-1.4125068187713623
1772556458295189500,9.483189453125,0.28121650218963623,-0.225590780377388,-1.3616276979446411
1772556458305172200,9.493172119140626,0.3531482219696045,-0.20140528678894043,-1.236358642578125
1772556458315155200,9.5031552734375,0.39967310428619385,-0.20413395762443542,-1.0492361783981323
1772556458325139200,9.51313916015625,0.41149914264678955,-0.21733231842517853,-0.8364608287811279
1772556458335122400,9.523122314453126,0.39080023765563965,-0.22814102470874786,-0.6199937462806702
1772556458345105400,9.53310546875,0.34111258387565613,-0.230598583817482,-0.4277678430080414
1772556458355089200,9.543089111328126,0.280674010515213,-0.22011026740074158,-0.27359187602996826
1772556458365072100,9.553072021484375,0.2172526866197586,-0.19252391159534454,-0.1725376844406128
1772556458375055400,9.563055419921875,0.16253378987312317,-0.1580311805009842,-0.12397307902574539
1772556458385039400,9.573039306640625,0.1171596422791481,-0.11590662598609924,-0.12465564906597137
1772556458395022300,9.583022216796875,0.08933787047863007,-0.08256971091032028,-0.1582314521074295
1772556458405005300,9.59300537109375,0.07699092477560043,-0.05814692750573158,-0.2039691060781479
1772556458414989300,9.6029892578125,0.07036364823579788,-0.03958336263895035,-0.25686854124069214
1772556458424972300,9.61297216796875,0.07093196362257004,-0.032037559896707535,-0.30512502789497375
1772556458434955300,9.622955322265625,0.08378331363201141,-0.026928819715976715,-0.34291526675224304
1772556458444939300,9.632939208984375,0.09787915647029877,-0.028430841863155365,-0.38271862268447876
1772556458454922200,9.642922119140625,0.11626455932855606,-0.042824696749448776,-0.42077067494392395
1772556458464905200,9.6529052734375,0.1376071274280548,-0.045530468225479126,-0.4590381681919098
1772556458474889200,9.66288916015625,0.16156253218650818,-0.039081089198589325,-0.48075222969055176
1772556458484872400,9.67287255859375,0.18752914667129517,-0.04152107611298561,-0.48289182782173157
1772556458494855400,9.68285546875,0.2053438276052475,-0.04183453321456909,-0.46900609135627747
1772556458504838100,9.692838134765625,0.22363415360450745,-0.03447461873292923,-0.44715991616249084
1772556458514822100,9.702822265625,0.2421572357416153,-0.010764497332274914,-0.398617684841156
1772556458524805400,9.712805419921875,0.24346858263015747,0.010583668015897274,-0.33477187156677246
1772556458534788400,9.722788330078124,0.23314537107944489,0.037936996668577194,-0.24973607063293457
1772556458544772400,9.7327724609375,0.20938783884048462,0.06149478629231453,-0.15273788571357727
1772556458554755300,9.74275537109375,0.17559419572353363,0.07071544975042343,-0.05418014898896217
1772556458564738300,9.75273828125,0.1385970264673233,0.05667286738753319,0.03232172131538391
1772556458574722300,9.762722412109374,0.09102524816989899,0.04003716632723808,0.09991567581892014
1772556458584705300,9.772705322265624,0.03412894159555435,0.018318552523851395,0.14241653680801392
1772556458594688300,9.782688232421876,-0.011145329102873802,-0.0016389093361794949,0.15859417617321014
1772556458604672300,9.79267236328125,-0.0527002289891243,-0.019183548167347908,0.16008687019348145
1772556458614655200,9.8026552734375,-0.080424003303051,-0.055327702313661575,0.16028927266597748
1772556458624638200,9.81263818359375,-0.09667301177978516,-0.0877106785774231,0.18609078228473663
1772556458634622200,9.822622314453126,-0.09631428867578506,-0.08911975473165512,0.23865064978599548
1772556458644605400,9.83260546875,-0.078238345682621,-0.08158620446920395,0.30049219727516174
1772556458654588200,9.842588134765625,-0.044563472270965576,-0.0712486132979393,0.3335758447647095
1772556458664572200,9.852572265625,0.022395586594939232,-0.09780006110668182,0.29937446117401123
1772556458674555400,9.862555419921875,0.12459838390350342,-0.15311898291110992,0.18241801857948303
1772556458684538400,9.872538330078125,0.27228957414627075,-0.2160010039806366,-0.02827451564371586
1772556458694522400,9.8825224609375,0.3931209146976471,-0.2844269275665283,-0.31725677847862244
1772556458704505000,9.892505126953125,0.46152395009994507,-0.33025461435317993,-0.6202880144119263
1772556458714488300,9.90248828125,0.46266883611679077,-0.3896883726119995,-0.8527625799179077
1772556458724472300,9.912472412109375,0.40898990631103516,-0.40008747577667236,-0.929478645324707
1772556458734455300,9.922455322265625,0.29701170325279236,-0.21519353985786438,-0.7879497408866882
1772556458744438500,9.9324384765625,0.16306908428668976,0.03340695798397064,-0.4396527409553528
1772556458754422300,9.94242236328125,0.010212689638137817,0.2323722541332245,0.03936471790075302
1772556458764405200,9.9524052734375,-0.11069988459348679,0.4158523380756378,0.5743597149848938
1772556458774388200,9.96238818359375,-0.18232107162475586,0.5509025454521179,1.0521653890609741
1772556458784372200,9.972372314453125,-0.21713577210903168,0.6206129193305969,1.404224157333374
1772556458794355500,9.98235546875,-0.23106810450553894,0.6510968208312988,1.6207820177078247
1772556458804338200,9.992338134765625,-0.22395452857017517,0.6193457841873169,1.707460641860962
1772556458814322200,10.002322265625,-0.20262794196605682,0.5256571173667908,1.6797616481781006
1772556458824305400,10.012305419921875,-0.15599918365478516,0.3929925560951233,1.5552812814712524
1772556458834288400,10.022288330078124,-0.08943028002977371,0.2637416422367096,1.3505960702896118
1772556458844272400,10.0322724609375,-0.013246030546724796,0.1525258868932724,1.077641248703003
1772556458854255000,10.042255126953124,0.05997571721673012,0.0675758495926857,0.755248486995697
1772556458864238300,10.05223828125,0.11914157122373581,0.006896521896123886,0.39812660217285156
1772556458874222300,10.062222412109374,0.16307920217514038,-0.025433188304305077,0.04217621684074402
1772556458884205300,10.072205322265624,0.18185502290725708,-0.05266720429062843,-0.27846330404281616
1772556458894188300,10.082188232421874,0.1931508183479309,-0.07514428347349167,-0.5236073136329651
1772556458904172300,10.09217236328125,0.2027379274368286,-0.09835533052682877,-0.6683772802352905
1772556458914155300,10.1021552734375,0.2068658322095871,-0.09609697014093399,-0.7128121256828308
1772556458924138200,10.11213818359375,0.20571348071098328,-0.0618407316505909,-0.6781513094902039
1772556458934122200,10.122122314453126,0.20527085661888123,0.007077616639435291,-0.5810316801071167
1772556458944105500,10.13210546875,0.2019355148077011,0.08070496469736099,-0.45869407057762146
1772556458954088200,10.142088134765626,0.209974005818367,0.14184688031673431,-0.34295549988746643
1772556458964072200,10.152072265625,0.230486199259758,0.17922408878803253,-0.2645717263221741
1772556458974055200,10.16205517578125,0.2567811906337738,0.181338369846344,-0.23650281131267548
1772556458984038400,10.172038330078125,0.2944694459438324,0.17068518698215485,-0.24567660689353943
1772556458994022400,10.1820224609375,0.3482399880886078,0.1704292595386505,-0.2923162877559662
1772556459004005000,10.192005126953125,0.4032379984855652,0.17693829536437988,-0.35248056054115295
1772556459013988400,10.20198828125,0.4597984850406647,0.18310031294822693,-0.4164518117904663
1772556459023972400,10.211972412109375,0.5030170679092407,0.17570790648460388,-0.4650489091873169
1772556459033955300,10.221955322265625,0.5329512357711792,0.1604147106409073,-0.5014654994010925
1772556459043938300,10.231938232421875,0.5465653538703918,0.14302879571914673,-0.5128787755966187
1772556459053922300,10.24192236328125,0.5446885824203491,0.1262117326259613,-0.5047239065170288
1772556459063905300,10.2519052734375,0.5153088569641113,0.11557000875473022,-0.47271642088890076
1772556459073888300,10.26188818359375,0.46583375334739685,0.1294059306383133,-0.42519497871398926
1772556459083872300,10.271872314453125,0.38100141286849976,0.1531248390674591,-0.3755432665348053
1772556459093855500,10.28185546875,0.26632463932037354,0.16033747792243958,-0.32214635610580444
1772556459103838200,10.291838134765625,0.13200756907463074,0.1667812615633011,-0.27677062153816223
1772556459113822200,10.301822265625,0.0007070692372508347,0.17761367559432983,-0.23548096418380737
1772556459123805200,10.31180517578125,-0.12562289834022522,0.19682039320468903,-0.19839298725128174
1772556459133788400,10.321788330078125,-0.2237931489944458,0.21757999062538147,-0.16921938955783844
1772556459143772400,10.3317724609375,-0.2999992370605469,0.23840484023094177,-0.1363365352153778
1772556459153755100,10.341755126953124,-0.35720208287239075,0.25396355986595154,-0.10025043785572052
1772556459163738400,10.35173828125,-0.4119468033313751,0.246717631816864,-0.06935244053602219
1772556459173722400,10.361722412109375,-0.46055322885513306,0.20764879882335663,-0.040889643132686615
1772556459183705300,10.371705322265624,-0.49553731083869934,0.16467443108558655,-0.016142750158905983
1772556459193688300,10.381688232421874,-0.5228176712989807,0.12905704975128174,0.010926683433353901
1772556459203675600,10.391675537109375,-0.5429335832595825,0.07718852907419205,0.055031560361385345
1772556459213659000,10.401658935546875,-0.5648577809333801,0.023563649505376816,0.11162426322698593
1772556459223641600,10.4116416015625,-0.5753562450408936,-0.0337049663066864,0.1859472393989563
1772556459233625600,10.42162548828125,-0.5685383081436157,-0.08935064822435379,0.26681146025657654
1772556459243608800,10.43160888671875,-0.5563899874687195,-0.11918125301599503,0.33411699533462524
1772556459253591800,10.441591796875,-0.544166624546051,-0.1330089122056961,0.35314926505088806
1772556459263575800,10.451575927734375,-0.5260280966758728,-0.1495884209871292,0.3056488633155823
1772556459273558800,10.461558837890625,-0.4889600872993469,-0.18226781487464905,0.17974339425563812
1772556459283541800,10.471541748046874,-0.4322885572910309,-0.2320987433195114,-0.03146684542298317
1772556459293525800,10.48152587890625,-0.3500187397003174,-0.28007984161376953,-0.27814507484436035
1772556459303508700,10.4915087890625,-0.2421652376651764,-0.2991257309913635,-0.5037888288497925
1772556459313491700,10.50149169921875,-0.10568594932556152,-0.26338502764701843,-0.6526179909706116
1772556459323475700,10.511475830078124,0.04797018691897392,-0.178166002035141,-0.6789572238922119
1772556459333458700,10.521458740234374,0.22116407752037048,-0.06771805882453918,-0.5711785554885864
1772556459343441700,10.531441650390626,0.3494453430175781,0.03002927079796791,-0.33569809794425964
1772556459353425700,10.54142578125,0.3819020986557007,0.13952301442623138,-0.006633135490119457
1772556459363409000,10.551408935546876,0.33817484974861145,0.2037123739719391,0.35662975907325745
1772556459373392000,10.561391845703126,0.24554717540740967,0.24876268208026886,0.7412546873092651
1772556459383375600,10.571375732421876,0.11703713983297348,0.24584464728832245,1.1029728651046753
1772556459393358600,10.581358642578126,-0.036551088094711304,0.18657760322093964,1.4086356163024902
1772556459403342800,10.5913427734375,-0.21448273956775665,0.08699934929609299,1.6250699758529663
1772556459413325800,10.601325927734376,-0.3912750780582428,-0.03380696475505829,1.7438820600509644
1772556459423308800,10.611308837890626,-0.5545125007629395,-0.1456219106912613,1.767586350440979
1772556459433292800,10.621292724609376,-0.7084043025970459,-0.21316421031951904,1.694382667541504
1772556459443275800,10.63127587890625,-0.8473374247550964,-0.2376152127981186,1.5301892757415771
1772556459453258800,10.6412587890625,-0.9681381583213806,-0.24405793845653534,1.2834436893463135
1772556459463242800,10.65124267578125,-1.060989499092102,-0.22493910789489746,0.9747198820114136
1772556459473225700,10.661225830078125,-1.1135393381118774,-0.1837272197008133,0.640480101108551
1772556459483208700,10.671208740234375,-1.1311222314834595,-0.12135811895132065,0.31692230701446533
1772556459493192700,10.681192626953125,-1.112755298614502,-0.016225840896368027,0.02106187492609024
1772556459503175700,10.69117578125,-1.02951180934906,0.09095627069473267,-0.24852140247821808
1772556459513159000,10.701158935546875,-0.882856011390686,0.17628714442253113,-0.49050793051719666
1772556459523143000,10.711142822265625,-0.6901128888130188,0.21123741567134857,-0.7084871530532837
1772556459533125600,10.721125732421875,-0.4764285981655121,0.20058928430080414,-0.9117297530174255
1772556459543108600,10.731108642578125,-0.26650679111480713,0.16954003274440765,-1.0778779983520508
1772556459553092600,10.741092529296875,-0.09036718308925629,0.12823307514190674,-1.1810253858566284
1772556459563075800,10.751075927734375,0.049436260014772415,0.06024975702166557,-1.204504132270813
1772556459573058800,10.761058837890625,0.16484993696212769,-0.027474235743284225,-1.1497260332107544
1772556459583042800,10.771042724609375,0.2464369386434555,-0.12377706915140152,-1.0257822275161743
1772556459593025800,10.78102587890625,0.2901841700077057,-0.218959778547287,-0.8547777533531189
1772556459603008800,10.7910087890625,0.28003403544425964,-0.28526103496551514,-0.6730644106864929
1772556459612992800,10.80099267578125,0.2176297903060913,-0.32713231444358826,-0.4931074380874634
1772556459622975700,10.810975830078124,0.1261395514011383,-0.34692147374153137,-0.3334016799926758
1772556459632958700,10.820958740234374,0.025622006505727768,-0.34243884682655334,-0.20721550285816193
1772556459642942700,10.830942626953124,-0.07970521599054337,-0.29365745186805725,-0.11831972002983093
1772556459652925700,10.84092578125,-0.17934446036815643,-0.21746042370796204,-0.07192345708608627
1772556459662908700,10.85090869140625,-0.26270592212677,-0.12624502182006836,-0.06155816838145256
1772556459672893000,10.860892822265624,-0.3204600214958191,-0.03738439083099365,-0.07812276482582092
1772556459682875600,10.870875732421876,-0.35369202494621277,0.0461411289870739,-0.10820157080888748
1772556459692858600,10.880858642578126,-0.37185612320899963,0.10860717296600342,-0.14774978160858154
1772556459702842600,10.890842529296876,-0.3837905526161194,0.1420290470123291,-0.19482886791229248
1772556459712825900,10.900825927734376,-0.3832760155200958,0.151900053024292,-0.24907773733139038
1772556459722809900,10.910809814453126,-0.3840685784816742,0.12572915852069855,-0.30010443925857544
1772556459732792800,10.920792724609376,-0.3651297688484192,0.09554170072078705,-0.3468112051486969
1772556459742775600,10.930775634765626,-0.33998793363571167,0.09659445285797119,-0.37649720907211304
1772556459752759800,10.940759765625,-0.3144053518772125,0.11130974441766739,-0.3866451680660248
1772556459762742800,10.95074267578125,-0.2965320646762848,0.13237401843070984,-0.3691767156124115
1772556459772725800,10.960725830078125,-0.27158835530281067,0.15513312816619873,-0.328118234872818
1772556459782709800,10.970709716796875,-0.23257172107696533,0.17218828201293945,-0.26008057594299316
1772556459792692700,10.980692626953125,-0.1917683631181717,0.18562152981758118,-0.17535823583602905
1772556459802675700,10.99067578125,-0.14784805476665497,0.197682723402977,-0.07780318707227707
1772556459812659700,11.00065966796875,-0.11130974441766739,0.1861131489276886,0.032819733023643494
1772556459822642700,11.010642578125,-0.07765378057956696,0.14502429962158203,0.13504622876644135
1772556459832626000,11.0206259765625,-0.055321045219898224,0.07897976785898209,0.23307053744792938
1772556459842609700,11.030609619140625,-0.03477129712700844,-0.007421431131660938,0.31174057722091675
1772556459852592600,11.040592529296875,-0.02371997758746147,-0.09611774235963821,0.3664054274559021
1772556459862575900,11.050575927734375,-0.018313227221369743,-0.16520600020885468,0.3925374150276184
1772556459872559900,11.060559814453125,-0.012506204657256603,-0.19572874903678894,0.40569981932640076
1772556459882542800,11.07054296875,-0.007368167862296104,-0.21702206134796143,0.40637415647506714
1772556459892525600,11.080525634765625,-0.0019627497531473637,-0.2535260021686554,0.3712798058986664
1772556459902509600,11.090509521484375,0.02292608842253685,-0.32450830936431885,0.2692165672779083
1772556459912492800,11.100492919921875,0.06800408661365509,-0.45316988229751587,0.08287863433361053
1772556459922476800,11.110476806640625,0.12722745537757874,-0.5983206629753113,-0.17805016040802002
1772556459932459800,11.120459716796875,0.17288443446159363,-0.7276312708854675,-0.4948299825191498
1772556459942442800,11.13044287109375,0.19823026657104492,-0.787679135799408,-0.8080366253852844
1772556459952426800,11.1404267578125,0.19324348866939545,-0.798796534538269,-1.0370362997055054
1772556459962409700,11.15040966796875,0.15524844825267792,-0.6875986456871033,-1.1000269651412964
1772556459972392700,11.160392822265624,0.08180724829435349,-0.481291800737381,-0.9734333157539368
1772556459982376700,11.170376708984374,-0.01824345253407955,-0.2194327563047409,-0.6538574695587158
1772556459992359700,11.180359619140624,-0.13112792372703552,0.03158349171280861,-0.18846525251865387
1772556460002342700,11.1903427734375,-0.23432807624340057,0.2340785413980484,0.34110644459724426
1772556460012326700,11.20032666015625,-0.2928702235221863,0.3639635741710663,0.845421552658081
1772556460022310000,11.210309814453124,-0.3231021463871002,0.4379616379737854,1.256592869758606
1772556460032292900,11.22029296875,-0.3532547354698181,0.47920599579811096,1.5412511825561523
1772556460042276900,11.23027685546875,-0.3824443221092224,0.4807889759540558,1.70924711227417
1772556460052259600,11.240259521484376,-0.422002375125885,0.4409928321838379,1.7496763467788696
1772556460062242800,11.250242919921876,-0.4644121527671814,0.3641529083251953,1.6882089376449585
1772556460072226800,11.260226806640626,-0.49106931686401367,0.26494085788726807,1.5308523178100586
1772556460082209800,11.270209716796876,-0.5049084424972534,0.15021133422851562,1.2978681325912476
1772556460092193800,11.28019384765625,-0.5073220729827881,0.051236554980278015,1.0175155401229858
1772556460102176800,11.2901767578125,-0.5029637813568115,-0.01907782070338726,0.7135753631591797
1772556460112159700,11.30015966796875,-0.5002931952476501,-0.07653845101594925,0.3961678445339203
1772556460122143700,11.310143798828125,-0.4952680766582489,-0.13625237345695496,0.09733294695615768
1772556460132126700,11.320126708984375,-0.4933846890926361,-0.19966597855091095,-0.1564846783876419
1772556460142109700,11.330109619140625,-0.488878071308136,-0.25638970732688904,-0.3562105894088745
1772556460152093700,11.34009375,-0.4836913049221039,-0.32484012842178345,-0.48976758122444153
1772556460162076700,11.35007666015625,-0.47215554118156433,-0.38158518075942993,-0.5390821099281311
1772556460172059600,11.3600595703125,-0.4653301537036896,-0.42514410614967346,-0.5313741564750671
1772556460182044000,11.3700439453125,-0.45281487703323364,-0.4436938166618347,-0.4732123017311096
1772556460192027000,11.38002685546875,-0.41731786727905273,-0.4146310091018677,-0.37688469886779785
1772556460202006800,11.3900068359375,-0.3646930158138275,-0.38044455647468567,-0.2830583453178406
1772556460211989800,11.39998974609375,-0.2833893597126007,-0.36663711071014404,-0.20541228353977203
1772556460221973000,11.409972900390626,-0.18084540963172913,-0.3739975690841675,-0.17575478553771973
1772556460231957000,11.41995703125,-0.07495040446519852,-0.40255144238471985,-0.18768520653247833
1772556460241940000,11.42993994140625,0.026210298761725426,-0.4460853338241577,-0.24902313947677612
1772556460251923000,11.4399228515625,0.11831013113260269,-0.5083202123641968,-0.32897043228149414
1772556460261907000,11.449906982421876,0.19565817713737488,-0.5684632062911987,-0.4161580801010132
1772556460271890000,11.459889892578126,0.26503753662109375,-0.6188808083534241,-0.48522740602493286
1772556460281873000,11.469872802734375,0.3235088288784027,-0.6596647500991821,-0.5518852472305298
1772556460291857000,11.47985693359375,0.3658352494239807,-0.6745938658714294,-0.6083868741989136
1772556460301840000,11.48983984375,0.39169055223464966,-0.6549474596977234,-0.6493495106697083
1772556460311824000,11.499823974609376,0.4001327455043793,-0.6208696365356445,-0.6508898735046387
1772556460321806800,11.509806884765625,0.39697930216789246,-0.5604451894760132,-0.6171252727508545
1772556460331790000,11.5197900390625,0.3739783763885498,-0.47462084889411926,-0.5559836030006409
1772556460341774000,11.529774169921875,0.34026864171028137,-0.37328997254371643,-0.4849264621734619
1772556460351756800,11.5397568359375,0.3003963232040405,-0.26062920689582825,-0.4031469225883484
1772556460361739800,11.54973974609375,0.24595943093299866,-0.12732040882110596,-0.3285251557826996
1772556460371723800,11.559723876953125,0.19535298645496368,-0.01629668101668358,-0.25323227047920227
1772556460381707000,11.56970703125,0.14761395752429962,0.08645233511924744,-0.17927254736423492
1772556460391690000,11.57968994140625,0.1118309274315834,0.17025722563266754,-0.09662827104330063
1772556460401674000,11.589674072265625,0.0775589719414711,0.2056620866060257,-0.022707177326083183
1772556460411657000,11.599656982421875,0.039559658616781235,0.16350583732128143,0.04087020084261894
1772556460421641000,11.609640869140625,0.01600932702422142,0.07443055510520935,0.11102025955915451
1772556460431624000,11.6196240234375,0.00615163566544652,-0.02014761231839657,0.177919402718544
1772556460441607000,11.62960693359375,0.0067995828576385975,-0.08386800438165665,0.22871653735637665
1772556460451591000,11.6395908203125,0.003908189013600349,-0.10806841403245926,0.25424933433532715
1772556460461574000,11.649573974609375,0.0007390272221527994,-0.11900734901428223,0.2555774450302124
1772556460471556900,11.659556884765625,0.001868473831564188,-0.10794777423143387,0.22986888885498047
1772556460481540900,11.669540771484375,-0.0035515916533768177,-0.09217386692762375,0.18973317742347717
1772556460491524000,11.679524169921875,-0.0094507597386837,-0.07383028417825699,0.13365180790424347
1772556460501506800,11.6895068359375,-0.011188738979399204,-0.06761553138494492,0.0774146318435669
1772556460511490800,11.69949072265625,-0.0059934440068900585,-0.06642216444015503,0.03316327929496765
1772556460521473800,11.709473876953124,0.010381801053881645,-0.06628687679767609,0.012720055878162384
1772556460531457800,11.719457763671874,0.03723791614174843,-0.049608830362558365,0.010647318325936794
1772556460541441000,11.72944091796875,0.07023448497056961,-0.013697436079382896,0.027113642543554306
1772556460551424000,11.739424072265624,0.10378152132034302,0.008946357294917107,0.05036250501871109
1772556460561407700,11.74940771484375,0.1324661672115326,0.02587846852838993,0.05986759439110756
1772556460571391000,11.759390869140624,0.14972610771656036,0.019398199394345284,0.035584624856710434
1772556460581374000,11.7693740234375,0.15855050086975098,-0.03578942269086838,-0.04133971780538559
1772556460591358000,11.77935791015625,0.15004728734493256,-0.13579991459846497,-0.1764967441558838
1772556460601341000,11.7893408203125,0.14589089155197144,-0.2562679946422577,-0.3436492383480072
1772556460611325000,11.799324951171876,0.15927407145500183,-0.3327111005783081,-0.4936898648738861
1772556460621308000,11.809307861328126,0.2010958194732666,-0.35243022441864014,-0.6008517742156982
1772556460631291000,11.819290771484376,0.26751771569252014,-0.35628435015678406,-0.6566510796546936
1772556460641275000,11.82927490234375,0.3534211814403534,-0.35322463512420654,-0.6464053988456726
1772556460651258000,11.839258056640626,0.43261268734931946,-0.35806387662887573,-0.5566861629486084
1772556460661240800,11.84924072265625,0.47892531752586365,-0.3672128915786743,-0.3892718553543091
1772556460671224800,11.859224853515625,0.46565932035446167,-0.380241334438324,-0.16203497350215912
1772556460681207800,11.869207763671875,0.4044542610645294,-0.3884982168674469,0.11197686940431595
1772556460691191800,11.87919189453125,0.29757416248321533,-0.3709956407546997,0.38215696811676025
1772556460701175000,11.889175048828125,0.16100938618183136,-0.3338051438331604,0.6124119758605957
1772556460711157800,11.89915771484375,0.013539777137339115,-0.27336469292640686,0.7845422029495239
1772556460721141800,11.909141845703125,-0.12022308260202408,-0.2115151733160019,0.8674736022949219
1772556460731125000,11.919125,-0.23287692666053772,-0.14388473331928253,0.8756049871444702
1772556460741108000,11.92910791015625,-0.33199816942214966,-0.08693250268697739,0.8064424395561218
1772556460751092000,11.939092041015625,-0.4101518392562866,-0.033420808613300323,0.6819759011268616
1772556460761075000,11.949074951171875,-0.4587593078613281,0.014671887271106243,0.5283623933792114
1772556460771058700,11.95905859375,-0.47878870368003845,0.052087437361478806,0.3598897457122803
1772556460781042000,11.9690419921875,-0.4650332033634186,0.08784649521112442,0.19250287115573883
1772556460791025000,11.97902490234375,-0.4239230453968048,0.1103142574429512,0.018192851915955544
1772556460801009000,11.9890087890625,-0.360956072807312,0.12094826251268387,-0.15477785468101501
1772556460810990800,11.998990966796875,-0.2624979317188263,0.12119167298078537,-0.327820748090744
1772556460820974800,12.008974853515625,-0.13625264167785645,0.12592065334320068,-0.4997674822807312
1772556460830957800,12.018957763671875,-0.002984072081744671,0.14260748028755188,-0.6537455916404724
1772556460840941000,12.028941162109374,0.10305368155241013,0.16343632340431213,-0.7629570364952087
1772556460850925000,12.038925048828125,0.1925625205039978,0.15565671026706696,-0.8172866106033325
1772556460860908000,12.048907958984374,0.2772640883922577,0.13105176389217377,-0.800157904624939
1772556460870890800,12.058890869140624,0.3519873321056366,0.08637909591197968,-0.7091193795204163
1772556460880874800,12.068874755859374,0.3965766429901123,0.03334277495741844,-0.570086658000946
1772556460890858000,12.07885791015625,0.40765511989593506,-0.01955346204340458,-0.4038177728652954
1772556460900842000,12.088842041015624,0.39097148180007935,-0.05554661527276039,-0.25355130434036255
1772556460910825000,12.098824951171874,0.348782479763031,-0.091632179915905,-0.12674249708652496
1772556460920808000,12.108807861328126,0.2865561246871948,-0.11078563332557678,-0.039382293820381165
1772556460930792000,12.1187919921875,0.21590620279312134,-0.10375116020441055,0.008475244045257568
1772556460940775000,12.12877490234375,0.14503201842308044,-0.07787935435771942,0.02154523879289627
1772556460950759000,12.138759033203126,0.07685696333646774,-0.039264049381017685,0.010329869575798512
1772556460960742000,12.148741943359376,0.012764264829456806,0.007723167072981596,-0.015673501417040825
1772556460970724900,12.158724853515626,-0.03549407795071602,0.05983323976397514,-0.048893772065639496
1772556460980708900,12.168708984375,-0.07183051109313965,0.12082309275865555,-0.09133310616016388
1772556460990691800,12.17869189453125,-0.08675433695316315,0.17613720893859863,-0.13915389776229858
1772556461000675000,12.188675048828125,-0.08190951496362686,0.2097385823726654,-0.18988071382045746
1772556461010659000,12.1986591796875,-0.058815911412239075,0.23841522634029388,-0.24089597165584564
1772556461020641800,12.208641845703125,-0.02232368104159832,0.2409241944551468,-0.2975802719593048
1772556461030625800,12.218625732421875,0.016268718987703323,0.21779997646808624,-0.3584417700767517
1772556461040608800,12.22860888671875,0.04980697110295296,0.18068881332874298,-0.4203972816467285
1772556461050592000,12.238592041015625,0.08150311559438705,0.13404089212417603,-0.4686364531517029
1772556461060576000,12.248575927734375,0.1111089438199997,0.09708047658205032,-0.4930187463760376
1772556461070559000,12.25855908203125,0.14379417896270752,0.07968390733003616,-0.49439162015914917
1772556461080542700,12.268542724609375,0.17575238645076752,0.07444547116756439,-0.4613543152809143
1772556461090526000,12.27852587890625,0.195609450340271,0.08163201063871384,-0.4152699112892151
1772556461100509000,12.288509033203125,0.21303504705429077,0.09385751932859421,-0.35133805871009827
1772556461110493000,12.298492919921875,0.2181946486234665,0.09770499169826508,-0.2751343548297882
1772556461120476000,12.308475830078125,0.22023995220661163,0.09374193847179413,-0.19123440980911255
1772556461130460000,12.3184599609375,0.21289601922035217,0.06932767480611801,-0.10257644206285477
1772556461140443000,12.32844287109375,0.19803452491760254,0.04789162427186966,-0.024106135591864586
1772556461150425900,12.33842578125,0.1799122393131256,0.024807078763842583,0.03893354907631874
1772556461160409900,12.348409912109375,0.1617894321680069,0.012896090745925903,0.07863249629735947
1772556461170393000,12.35839306640625,0.1454557329416275,0.009344499558210373,0.0950213223695755
1772556461180377000,12.368377197265625,0.13358096778392792,0.012006862089037895,0.09799686819314957
1772556461190359800,12.37835986328125,0.12420929968357086,0.0016879114555194974,0.10797227174043655
