time,seconds_elapsed,z,y,x
1772562133704457700,0.070457763671875,-0.9619293212890625,-0.2082672119140625,-0.0154876708984375
1772562133714439700,0.080439697265625,-0.973968505859375,-0.205352783203125,-0.0101776123046875
1772562133724421600,0.090421630859375,-0.9821319580078125,-0.2049407958984375,-0.0102081298828125
1772562133734404900,0.10040478515625,-0.982086181640625,-0.204986572265625,-0.011444091796875
1772562133744386600,0.110386474609375,-0.9879302978515625,-0.20538330078125,-0.0204620361328125
1772562133754369800,0.120369873046875,-0.9915618896484375,-0.2072601318359375,-0.02410888671875
1772562133764352000,0.13035205078125,-0.99041748046875,-0.2110748291015625,-0.02740478515625
1772562133774335000,0.1403349609375,-0.9912261962890625,-0.2127532958984375,-0.021240234375
1772562133784317000,0.15031689453125,-0.99749755859375,-0.21337890625,-0.0119476318359375
1772562133794300200,0.160300048828125,-1.0175018310546875,-0.22088623046875,-0.00390625
1772562133804281900,0.17028173828125,-1.01190185546875,-0.2173309326171875,0.0043487548828125
1772562133814265000,0.18026513671875,-0.99786376953125,-0.2127685546875,0.0077362060546875
1772562133824246800,0.190246826171875,-0.99847412109375,-0.21636962890625,0.0124359130859375
1772562133834230000,0.20022998046875,-1.0012969970703125,-0.2189178466796875,0.02001953125
1772562133844212000,0.2102119140625,-1.005584716796875,-0.2164764404296875,0.02764892578125
1772562133854195000,0.22019482421875,-1.011688232421875,-0.2065582275390625,0.026702880859375
1772562133864177000,0.230177001953125,-1.0149078369140625,-0.195709228515625,0.0225372314453125
1772562133874160000,0.24016015625,-1.008636474609375,-0.194854736328125,0.0098419189453125
1772562133884141800,0.250141845703125,-0.985565185546875,-0.1970062255859375,0.00433349609375
1772562133894125000,0.260125,-0.9748382568359375,-0.1930389404296875,0.0011138916015625
1772562133904107000,0.27010693359375,-0.979888916015625,-0.1886138916015625,-0.002593994140625
1772562133914090000,0.280090087890625,-0.980926513671875,-0.18798828125,-0.0106201171875
1772562133924072000,0.290072021484375,-0.9752960205078125,-0.18609619140625,-0.015777587890625
1772562133934054000,0.300053955078125,-0.9766845703125,-0.1858062744140625,-0.0167083740234375
1772562133944036900,0.310036865234375,-0.982086181640625,-0.1898651123046875,-0.0142974853515625
1772562133954019000,0.32001904296875,-0.986968994140625,-0.19549560546875,-0.0119781494140625
1772562133964001800,0.330001708984375,-0.984832763671875,-0.199493408203125,-0.012542724609375
1772562133973984000,0.33998388671875,-0.9800567626953125,-0.1998443603515625,-0.0130615234375
1772562133983967000,0.349967041015625,-0.9718170166015625,-0.19586181640625,-0.0124053955078125
1772562133993949000,0.359948974609375,-1.00933837890625,-0.186614990234375,-0.0074920654296875
1772562134003932000,0.369931884765625,-0.9928436279296875,-0.19415283203125,-0.0166473388671875
1772562134013914000,0.3799140625,-0.9392547607421875,-0.1866912841796875,0.011260986328125
1772562134023896800,0.389896728515625,-0.992156982421875,-0.184478759765625,-0.0091094970703125
1772562134033879000,0.399879150390625,-0.9725799560546875,-0.1883697509765625,0.0030517578125
1772562134043862000,0.409862060546875,-0.984893798828125,-0.190582275390625,0.0048370361328125
1772562134053844000,0.419843994140625,-0.9880828857421875,-0.18438720703125,0.0085601806640625
1772562134063827000,0.429826904296875,-0.9870758056640625,-0.1827392578125,0.009307861328125
1772562134073809000,0.439808837890625,-0.985809326171875,-0.1836090087890625,0.009429931640625
1772562134083792000,0.4497919921875,-0.9865875244140625,-0.1811981201171875,0.0066986083984375
1772562134093774000,0.459774169921875,-0.9846343994140625,-0.180755615234375,0.005828857421875
1772562134103756800,0.4697568359375,-0.9807891845703125,-0.184844970703125,0.000946044921875
1772562134113739000,0.479739013671875,-0.9757537841796875,-0.1863861083984375,-0.0035858154296875
1772562134123721000,0.489720947265625,-0.976409912109375,-0.183837890625,-0.004669189453125
1772562134133704000,0.499703857421875,-0.9775543212890625,-0.1856842041015625,-0.001983642578125
1772562134143686100,0.50968603515625,-0.974822998046875,-0.1885223388671875,-0.0005950927734375
1772562134153668900,0.5196689453125,-0.9735870361328125,-0.18743896484375,-0.0016021728515625
1772562134163651000,0.529651123046875,-0.974517822265625,-0.1881561279296875,-0.000518798828125
1772562134173634000,0.539634033203125,-0.976715087890625,-0.188262939453125,-0.00079345703125
1772562134183616000,0.549615966796875,-0.981536865234375,-0.187408447265625,-0.0012969970703125
1772562134193599000,0.559598876953125,-0.9847259521484375,-0.1881103515625,-0.0033111572265625
1772562134203581200,0.569581298828125,-0.9801025390625,-0.1892852783203125,-0.007598876953125
1772562134213564000,0.57956396484375,-0.978363037109375,-0.1888427734375,-0.0058135986328125
1772562134223546000,0.589546142578125,-0.98046875,-0.1885528564453125,-0.0081787109375
1772562134233529000,0.599529052734375,-0.97967529296875,-0.189971923828125,-0.010223388671875
1772562134243511000,0.609510986328125,-0.979736328125,-0.189300537109375,-0.0087127685546875
1772562134253494000,0.619493896484375,-0.981842041015625,-0.18927001953125,-0.0058746337890625
1772562134263476000,0.62947607421875,-0.9822540283203125,-0.1888580322265625,-0.00433349609375
1772562134273459000,0.639458984375,-0.9868621826171875,-0.188812255859375,-0.0061798095703125
1772562134283441200,0.649441162109375,-0.99090576171875,-0.1925811767578125,-0.0091705322265625
1772562134293423900,0.659423828125,-0.9875030517578125,-0.19403076171875,-0.0119781494140625
1772562134303406000,0.669406005859375,-0.9843597412109375,-0.1922607421875,-0.0116119384765625
1772562134313388000,0.679387939453125,-0.98675537109375,-0.19085693359375,-0.0123748779296875
1772562134323371000,0.68937109375,-0.988067626953125,-0.1918487548828125,-0.014068603515625
1772562134333353000,0.69935302734375,-0.9912567138671875,-0.1936492919921875,-0.0130615234375
1772562134343336200,0.709336181640625,-0.99151611328125,-0.1954498291015625,-0.012298583984375
1772562134353318000,0.71931787109375,-0.98760986328125,-0.195892333984375,-0.0108795166015625
1772562134363301000,0.729301025390625,-0.9862823486328125,-0.1946258544921875,-0.011138916015625
1772562134373282800,0.73928271484375,-0.986572265625,-0.192626953125,-0.01287841796875
1772562134383266000,0.74926611328125,-0.9853973388671875,-0.1904296875,-0.0125885009765625
1772562134393248000,0.759248046875,-0.9855499267578125,-0.1909942626953125,-0.0113983154296875
1772562134403231000,0.76923095703125,-0.98583984375,-0.1908721923828125,-0.011474609375
1772562134413213000,0.779212890625,-0.983734130859375,-0.189971923828125,-0.0124359130859375
1772562134423196200,0.789196044921875,-0.985198974609375,-0.188629150390625,-0.010894775390625
1772562134433177900,0.799177734375,-0.98590087890625,-0.190460205078125,-0.0093841552734375
1772562134443161000,0.8091611328125,-0.98193359375,-0.1905975341796875,-0.010467529296875
1772562134453142800,0.819142822265625,-0.9812774658203125,-0.190765380859375,-0.01104736328125
1772562134463126000,0.8291259765625,-0.9801483154296875,-0.191558837890625,-0.0136566162109375
1772562134473108000,0.83910791015625,-0.974334716796875,-0.1895599365234375,-0.0140228271484375
1772562134483091000,0.849091064453125,-0.9750823974609375,-0.1893768310546875,-0.0135955810546875
1772562134493073000,0.859072998046875,-0.9765777587890625,-0.191192626953125,-0.016387939453125
1772562134503056100,0.86905615234375,-0.9745941162109375,-0.1910400390625,-0.01904296875
1772562134513037800,0.879037841796875,-0.97369384765625,-0.1915740966796875,-0.0225677490234375
1772562134523020000,0.88902001953125,-0.9749755859375,-0.1931610107421875,-0.0228271484375
1772562134533003000,0.8990029296875,-0.9762420654296875,-0.19317626953125,-0.0217742919921875
1772562134542985000,0.90898486328125,-0.978515625,-0.19512939453125,-0.019989013671875
1772562134552968000,0.918968017578125,-0.980804443359375,-0.1948699951171875,-0.018585205078125
1772562134562950000,0.928949951171875,-0.9803619384765625,-0.1942901611328125,-0.01763916015625
1772562134572932900,0.938932861328125,-0.9817657470703125,-0.19439697265625,-0.0134735107421875
1772562134582915000,0.9489150390625,-0.98565673828125,-0.1951446533203125,-0.011077880859375
1772562134592897800,0.958897705078125,-0.9824676513671875,-0.1949310302734375,-0.0131683349609375
1772562134602880000,0.9688798828125,-0.9800567626953125,-0.194091796875,-0.0138092041015625
1772562134612863000,0.978863037109375,-0.979339599609375,-0.1955108642578125,-0.0155181884765625
1772562134622845000,0.988844970703125,-0.9788818359375,-0.1962432861328125,-0.0175933837890625
1772562134632828000,0.998827880859375,-0.9799041748046875,-0.1966094970703125,-0.016021728515625
1772562134642810000,1.00881005859375,-0.982330322265625,-0.194580078125,-0.014068603515625
1772562134652792800,1.018792724609375,-0.9812469482421875,-0.1955413818359375,-0.0169525146484375
1772562134662775000,1.028775146484375,-0.974456787109375,-0.195587158203125,-0.0196685791015625
1772562134672758000,1.038758056640625,-0.972412109375,-0.1937713623046875,-0.0184478759765625
1772562134682740000,1.048739990234375,-0.9753875732421875,-0.1944732666015625,-0.0151824951171875
1772562134692723000,1.058722900390625,-0.9771728515625,-0.19427490234375,-0.01593017578125
1772562134702705000,1.068704833984375,-0.976470947265625,-0.1933441162109375,-0.0172271728515625
1772562134712687900,1.07868798828125,-0.9756317138671875,-0.1947021484375,-0.0168609619140625
1772562134722670000,1.088670166015625,-0.9760589599609375,-0.195648193359375,-0.0147705078125
1772562134732652800,1.09865283203125,-0.9738616943359375,-0.195281982421875,-0.0161590576171875
1772562134742635000,1.108635009765625,-0.9765167236328125,-0.193878173828125,-0.016448974609375
1772562134752617000,1.118616943359375,-0.98370361328125,-0.1947784423828125,-0.0152435302734375
1772562134762601000,1.12860107421875,-0.981353759765625,-0.196319580078125,-0.0183563232421875
1772562134772583000,1.1385830078125,-0.9757080078125,-0.193572998046875,-0.019012451171875
1772562134782566000,1.14856591796875,-0.9756317138671875,-0.191864013671875,-0.0152130126953125
1772562134792547800,1.1585478515625,-0.980316162109375,-0.1934814453125,-0.0117340087890625
1772562134802531000,1.168531005859375,-0.98236083984375,-0.19659423828125,-0.01361083984375
1772562134812512800,1.1785126953125,-0.9819793701171875,-0.1961517333984375,-0.0154571533203125
1772562134822496000,1.18849609375,-0.98004150390625,-0.1974029541015625,-0.017578125
1772562134832477700,1.198477783203125,-0.9803619384765625,-0.1987152099609375,-0.01641845703125
1772562134842461000,1.2084609375,-0.9812164306640625,-0.1994781494140625,-0.0161895751953125
1772562134852443000,1.21844287109375,-0.979522705078125,-0.1985626220703125,-0.0190277099609375
1772562134862425900,1.22842578125,-0.98065185546875,-0.1976165771484375,-0.0179901123046875
1772562134872407800,1.23840771484375,-0.980224609375,-0.1978302001953125,-0.0186309814453125
1772562134882391000,1.24839111328125,-0.980682373046875,-0.1989288330078125,-0.019927978515625
1772562134892372700,1.258372802734375,-0.9798431396484375,-0.199371337890625,-0.0207977294921875
1772562134902356000,1.26835595703125,-0.9797210693359375,-0.199127197265625,-0.020355224609375
1772562134912338000,1.278337890625,-0.97808837890625,-0.19976806640625,-0.0212860107421875
1772562134922321000,1.28832080078125,-0.978912353515625,-0.1988067626953125,-0.0198974609375
1772562134932302800,1.298302734375,-0.9805755615234375,-0.20001220703125,-0.02008056640625
1772562134942284800,1.308284912109375,-0.9784088134765625,-0.1999359130859375,-0.0209197998046875
1772562134952267800,1.318267822265625,-0.97650146484375,-0.1999359130859375,-0.0181121826171875
1772562134962250000,1.32825,-0.9737396240234375,-0.1978607177734375,-0.0177001953125
1772562134972232700,1.338232666015625,-0.973480224609375,-0.1977081298828125,-0.0206756591796875
1772562134982215000,1.34821484375,-0.9741058349609375,-0.199188232421875,-0.02032470703125
1772562134992198000,1.358197998046875,-0.9745025634765625,-0.1998138427734375,-0.0198516845703125
1772562135002179800,1.368179931640625,-0.976165771484375,-0.2008819580078125,-0.017974853515625
1772562135012162800,1.378162841796875,-0.9769744873046875,-0.20025634765625,-0.0181427001953125
1772562135022144800,1.388144775390625,-0.977142333984375,-0.1999664306640625,-0.0168304443359375
1772562135032127700,1.398127685546875,-0.9788818359375,-0.199127197265625,-0.01641845703125
1772562135042110000,1.40810986328125,-0.9810638427734375,-0.19830322265625,-0.0167083740234375
1772562135052092700,1.4180927734375,-0.982208251953125,-0.198486328125,-0.0172576904296875
1772562135062075000,1.428074951171875,-0.9825286865234375,-0.2008819580078125,-0.01776123046875
1772562135072057900,1.438057861328125,-0.9823150634765625,-0.2030029296875,-0.0192413330078125
1772562135082039800,1.448039794921875,-0.9803619384765625,-0.202545166015625,-0.02166748046875
1772562135092022800,1.458022705078125,-0.979888916015625,-0.202545166015625,-0.0227813720703125
1772562135102005000,1.4680048828125,-0.9786529541015625,-0.2024688720703125,-0.0239105224609375
1772562135111987700,1.47798779296875,-0.977935791015625,-0.201934814453125,-0.025238037109375
1772562135121970000,1.487969970703125,-0.9755706787109375,-0.2032012939453125,-0.0251007080078125
1772562135131953000,1.497952880859375,-0.975982666015625,-0.202239990234375,-0.0241241455078125
1772562135141934800,1.507934814453125,-0.976837158203125,-0.2002716064453125,-0.0221405029296875
1772562135151917000,1.5179169921875,-0.976776123046875,-0.20086669921875,-0.0218658447265625
1772562135161899800,1.527899658203125,-0.9793243408203125,-0.2006683349609375,-0.0227508544921875
1772562135171882000,1.537882080078125,-0.982666015625,-0.2015533447265625,-0.0235137939453125
1772562135181865000,1.547864990234375,-0.983062744140625,-0.2034454345703125,-0.0235595703125
1772562135191847000,1.557846923828125,-0.9796295166015625,-0.2034454345703125,-0.02410888671875
1772562135201830000,1.567829833984375,-0.9790191650390625,-0.2027740478515625,-0.0251922607421875
1772562135211812000,1.57781201171875,-0.9806365966796875,-0.2030487060546875,-0.025634765625
1772562135221794800,1.587794921875,-0.980682373046875,-0.204925537109375,-0.025421142578125
1772562135231777000,1.597777099609375,-0.9768829345703125,-0.2042083740234375,-0.0243988037109375
1772562135241760000,1.607760009765625,-0.9726409912109375,-0.20367431640625,-0.0239410400390625
1772562135251742000,1.617741943359375,-0.9702911376953125,-0.2017822265625,-0.022613525390625
1772562135261725000,1.627724853515625,-0.969573974609375,-0.2027740478515625,-0.02374267578125
1772562135271707000,1.637706787109375,-0.97210693359375,-0.204864501953125,-0.023468017578125
1772562135281689900,1.64768994140625,-0.974456787109375,-0.2062530517578125,-0.02349853515625
1772562135291672000,1.657672119140625,-0.97802734375,-0.2083740234375,-0.0230255126953125
1772562135301654800,1.66765478515625,-0.978515625,-0.2085113525390625,-0.02313232421875
1772562135311637000,1.677636962890625,-0.98016357421875,-0.20782470703125,-0.0214996337890625
1772562135321620000,1.687619873046875,-0.9793548583984375,-0.207489013671875,-0.0213165283203125
1772562135331602000,1.697601806640625,-0.979644775390625,-0.206207275390625,-0.0223388671875
1772562135341584000,1.707583984375,-0.977081298828125,-0.2067108154296875,-0.0231475830078125
1772562135351566800,1.71756689453125,-0.976531982421875,-0.2064208984375,-0.024505615234375
1772562135361548800,1.727548828125,-0.975738525390625,-0.20556640625,-0.028594970703125
1772562135371532000,1.737531982421875,-0.9781341552734375,-0.2078094482421875,-0.0277557373046875
1772562135381513700,1.747513671875,-0.9796295166015625,-0.2107391357421875,-0.0279388427734375
1772562135391497000,1.7574970703125,-0.9794921875,-0.21246337890625,-0.02642822265625
1772562135401479000,1.76747900390625,-0.9781036376953125,-0.2129364013671875,-0.0263519287109375
1772562135411462000,1.7774619140625,-0.9769439697265625,-0.2125244140625,-0.025604248046875
1772562135421443800,1.78744384765625,-0.9790802001953125,-0.2122039794921875,-0.0241241455078125
1772562135431427000,1.797427001953125,-0.97625732421875,-0.2124176025390625,-0.0229339599609375
1772562135441408800,1.80740869140625,-0.971893310546875,-0.210968017578125,-0.0225067138671875
1772562135451392000,1.81739208984375,-0.9726104736328125,-0.21038818359375,-0.022918701171875
1772562135461373700,1.827373779296875,-0.97528076171875,-0.21142578125,-0.0221099853515625
1772562135471357000,1.83735693359375,-0.978057861328125,-0.2121124267578125,-0.02203369140625
1772562135481339000,1.8473388671875,-0.977996826171875,-0.2126922607421875,-0.0219879150390625
1772562135491321900,1.85732177734375,-0.97821044921875,-0.2115325927734375,-0.0226593017578125
1772562135501303800,1.8673037109375,-0.977081298828125,-0.2109222412109375,-0.0232086181640625
1772562135511287000,1.877287109375,-0.9758453369140625,-0.2099609375,-0.0238037109375
1772562135521268700,1.887268798828125,-0.973846435546875,-0.210693359375,-0.0246124267578125
1772562135531252000,1.897251953125,-0.973846435546875,-0.2081756591796875,-0.0258636474609375
1772562135541234000,1.90723388671875,-0.974578857421875,-0.2071685791015625,-0.023529052734375
1772562135551217000,1.917216796875,-0.97589111328125,-0.2081451416015625,-0.024810791015625
1772562135561198800,1.92719873046875,-0.9777984619140625,-0.2105255126953125,-0.025634765625
1772562135571180800,1.937180908203125,-0.975555419921875,-0.211822509765625,-0.0252532958984375
1772562135581163800,1.947163818359375,-0.973388671875,-0.2118988037109375,-0.02392578125
1772562135591146000,1.95714599609375,-0.9730377197265625,-0.2105255126953125,-0.02264404296875
1772562135601128700,1.967128662109375,-0.97259521484375,-0.2094879150390625,-0.020599365234375
1772562135611111000,1.97711083984375,-0.9745330810546875,-0.2111053466796875,-0.02142333984375
1772562135621094000,1.987093994140625,-0.97271728515625,-0.2104949951171875,-0.0233917236328125
1772562135631075800,1.997075927734375,-0.971435546875,-0.208984375,-0.024322509765625
1772562135641058800,2.007058837890625,-0.9741363525390625,-0.2105560302734375,-0.0247039794921875
1772562135651040800,2.017040771484375,-0.977752685546875,-0.2124481201171875,-0.023712158203125
1772562135661023700,2.027023681640625,-0.9799041748046875,-0.213226318359375,-0.02484130859375
1772562135671006000,2.037005859375,-0.97711181640625,-0.21319580078125,-0.0239410400390625
1772562135680989000,2.046989013671875,-0.9747161865234375,-0.2110137939453125,-0.0233917236328125
1772562135690971000,2.056970947265625,-0.972442626953125,-0.2115325927734375,-0.023345947265625
1772562135700953900,2.066953857421875,-0.97564697265625,-0.2117462158203125,-0.0250091552734375
1772562135710935800,2.076935791015625,-0.978546142578125,-0.2129364013671875,-0.0275726318359375
1772562135720918800,2.086918701171875,-0.975982666015625,-0.213470458984375,-0.028564453125
1772562135730901000,2.09690087890625,-0.9742279052734375,-0.21484375,-0.0284423828125
1772562135740883700,2.1068837890625,-0.974700927734375,-0.2147979736328125,-0.02886962890625
1772562135750866000,2.116865966796875,-0.9786224365234375,-0.2144622802734375,-0.0285186767578125
1772562135760848000,2.126847900390625,-0.980987548828125,-0.21673583984375,-0.0258941650390625
1772562135770830800,2.136830810546875,-0.98077392578125,-0.2159423828125,-0.0264892578125
1772562135780812800,2.146812744140625,-0.9783477783203125,-0.2166290283203125,-0.026092529296875
1772562135790795800,2.156795654296875,-0.9777679443359375,-0.2173004150390625,-0.0234375
1772562135800777700,2.16677783203125,-0.978179931640625,-0.2189178466796875,-0.0230560302734375
1772562135810760700,2.1767607421875,-0.9761962890625,-0.2182464599609375,-0.0237884521484375
1772562135820743000,2.186742919921875,-0.9776458740234375,-0.21630859375,-0.0244598388671875
1772562135830725600,2.1967255859375,-0.977996826171875,-0.2166748046875,-0.02447509765625
1772562135840707800,2.206707763671875,-0.976043701171875,-0.21685791015625,-0.0247344970703125
1772562135850690800,2.21669091796875,-0.97509765625,-0.21539306640625,-0.02581787109375
1772562135860672800,2.2266728515625,-0.971649169921875,-0.21484375,-0.0283050537109375
1772562135870655700,2.23665576171875,-0.9694366455078125,-0.214111328125,-0.0297698974609375
1772562135880638000,2.246637939453125,-0.9730682373046875,-0.2149810791015625,-0.028778076171875
1772562135890620700,2.25662060546875,-0.9747314453125,-0.216033935546875,-0.027008056640625
1772562135900603000,2.266602783203125,-0.9744415283203125,-0.216033935546875,-0.02783203125
1772562135910585900,2.2765859375,-0.97247314453125,-0.2151336669921875,-0.0283203125
1772562135920567800,2.28656787109375,-0.973114013671875,-0.214599609375,-0.0291748046875
1772562135930550800,2.29655078125,-0.974090576171875,-0.214019775390625,-0.02935791015625
1772562135940532700,2.30653271484375,-0.9713592529296875,-0.2135772705078125,-0.0288543701171875
1772562135950515700,2.316515625,-0.9740753173828125,-0.2127532958984375,-0.02703857421875
1772562135960498000,2.326497802734375,-0.9785308837890625,-0.2132568359375,-0.0282745361328125
1772562135970480600,2.336480712890625,-0.97467041015625,-0.214080810546875,-0.03265380859375
1772562135980462800,2.346462890625,-0.969635009765625,-0.2119293212890625,-0.03350830078125
1772562135990444800,2.35644482421875,-0.969329833984375,-0.212066650390625,-0.0330352783203125
1772562136000427800,2.366427734375,-0.973846435546875,-0.2157135009765625,-0.0326995849609375
1772562136010409700,2.37640966796875,-0.978240966796875,-0.217315673828125,-0.033172607421875
1772562136020393000,2.38639306640625,-0.9765167236328125,-0.215362548828125,-0.032684326171875
1772562136030374700,2.396374755859375,-0.9730224609375,-0.2138671875,-0.031890869140625
1772562136040358000,2.40635791015625,-0.9749755859375,-0.2161712646484375,-0.0285797119140625
1772562136050339600,2.416339599609375,-0.97564697265625,-0.21844482421875,-0.029083251953125
1772562136060322800,2.42632275390625,-0.9739990234375,-0.21771240234375,-0.0291900634765625
1772562136070304800,2.4363046875,-0.9727630615234375,-0.2164764404296875,-0.0289154052734375
1772562136080287700,2.446287841796875,-0.972991943359375,-0.21673583984375,-0.027740478515625
1772562136090269700,2.456269775390625,-0.9756011962890625,-0.2188873291015625,-0.026519775390625
1772562136100253000,2.4662529296875,-0.9805145263671875,-0.22027587890625,-0.0261688232421875
1772562136110234600,2.476234619140625,-0.9781494140625,-0.2205657958984375,-0.0279998779296875
1772562136120217900,2.4862177734375,-0.973907470703125,-0.2191619873046875,-0.028472900390625
1772562136130199600,2.496199462890625,-0.97247314453125,-0.218475341796875,-0.0292510986328125
1772562136140182800,2.506182861328125,-0.9714813232421875,-0.219329833984375,-0.032012939453125
1772562136150164700,2.516164794921875,-0.973968505859375,-0.21923828125,-0.03076171875
1772562136160147700,2.526147705078125,-0.9745635986328125,-0.2198333740234375,-0.0304107666015625
1772562136170129700,2.536129638671875,-0.971954345703125,-0.2184295654296875,-0.0312957763671875
1772562136180113000,2.54611279296875,-0.972625732421875,-0.2167816162109375,-0.031005859375
1772562136190094600,2.556094482421875,-0.9743499755859375,-0.2161407470703125,-0.031341552734375
1772562136200077800,2.566077880859375,-0.97296142578125,-0.21746826171875,-0.0307159423828125
1772562136210059800,2.576059814453125,-0.973541259765625,-0.21759033203125,-0.0300445556640625
1772562136220041700,2.586041748046875,-0.975433349609375,-0.2165069580078125,-0.02740478515625
1772562136230024700,2.596024658203125,-0.976959228515625,-0.2173004150390625,-0.026031494140625
1772562136240006700,2.606006591796875,-0.975860595703125,-0.2183074951171875,-0.027862548828125
1772562136249989600,2.61598974609375,-0.97265625,-0.2192535400390625,-0.028045654296875
1772562136259971800,2.625971923828125,-0.970184326171875,-0.218658447265625,-0.0293426513671875
1772562136269954600,2.63595458984375,-0.9722442626953125,-0.216033935546875,-0.0293121337890625
1772562136279936800,2.645936767578125,-0.9742584228515625,-0.2176971435546875,-0.029815673828125
1772562136289919700,2.655919677734375,-0.97369384765625,-0.2185821533203125,-0.0289459228515625
1772562136299901700,2.665901611328125,-0.9752655029296875,-0.21881103515625,-0.0272064208984375
1772562136309884700,2.675884765625,-0.9736328125,-0.2192230224609375,-0.027679443359375
1772562136319867000,2.685866943359375,-0.9710693359375,-0.21820068359375,-0.0308837890625
1772562136329849600,2.695849609375,-0.9683990478515625,-0.2169189453125,-0.031036376953125
1772562136339831800,2.705831787109375,-0.970855712890625,-0.2174072265625,-0.0320587158203125
1772562136349814800,2.715814697265625,-0.973175048828125,-0.217437744140625,-0.0325469970703125
1772562136359796700,2.725796630859375,-0.97503662109375,-0.2184295654296875,-0.0351409912109375
1772562136369779700,2.73577978515625,-0.9768829345703125,-0.22125244140625,-0.0342559814453125
1772562136379761700,2.74576171875,-0.9760894775390625,-0.221649169921875,-0.033172607421875
1772562136389744600,2.75574462890625,-0.9755096435546875,-0.22113037109375,-0.03192138671875
1772562136399726800,2.765726806640625,-0.974822998046875,-0.2192230224609375,-0.0309906005859375
1772562136409709600,2.77570947265625,-0.973175048828125,-0.21881103515625,-0.0317535400390625
1772562136419691800,2.78569189453125,-0.97369384765625,-0.2181549072265625,-0.0298004150390625
1772562136429673700,2.795673828125,-0.9720916748046875,-0.218994140625,-0.0294036865234375
1772562136439656700,2.80565673828125,-0.9717254638671875,-0.218017578125,-0.0289154052734375
1772562136449639000,2.815638916015625,-0.972320556640625,-0.2175140380859375,-0.0285186767578125
1772562136459621600,2.82562158203125,-0.979034423828125,-0.2162628173828125,-0.02606201171875
1772562136469603800,2.835603759765625,-0.98492431640625,-0.21844482421875,-0.02569580078125
1772562136479586800,2.8455869140625,-0.9822235107421875,-0.220245361328125,-0.029022216796875
1772562136489568800,2.85556884765625,-0.9777984619140625,-0.2178802490234375,-0.03155517578125
1772562136499551700,2.8655517578125,-0.9755401611328125,-0.2159423828125,-0.03118896484375
1772562136509534000,2.875533935546875,-0.9755706787109375,-0.2177734375,-0.0338897705078125
1772562136519516700,2.8855166015625,-0.9730682373046875,-0.218475341796875,-0.035736083984375
1772562136529499000,2.895498779296875,-0.9710693359375,-0.2181243896484375,-0.03338623046875
1772562136539481900,2.90548193359375,-0.9723052978515625,-0.218231201171875,-0.031494140625
1772562136549463800,2.9154638671875,-0.9761962890625,-0.2197265625,-0.0318603515625
1772562136559446800,2.92544677734375,-0.9757232666015625,-0.21844482421875,-0.0336761474609375
1772562136569428700,2.9354287109375,-0.9708709716796875,-0.2150115966796875,-0.0322418212890625
1772562136579411700,2.94541162109375,-0.97015380859375,-0.21466064453125,-0.031524658203125
1772562136589394000,2.955393798828125,-0.971038818359375,-0.214935302734375,-0.032257080078125
1772562136599376600,2.965376708984375,-0.97528076171875,-0.216705322265625,-0.0355987548828125
1772562136609358800,2.97535888671875,-0.9777679443359375,-0.218017578125,-0.036773681640625
1772562136619341800,2.985341796875,-0.9765777587890625,-0.2194671630859375,-0.034912109375
1772562136629323800,2.99532373046875,-0.975311279296875,-0.2210693359375,-0.03564453125
1772562136639306800,3.005306640625,-0.9752655029296875,-0.2213592529296875,-0.03680419921875
1772562136649289000,3.0152890625,-0.9747161865234375,-0.2204437255859375,-0.03424072265625
1772562136659270700,3.025270751953125,-0.9759063720703125,-0.2196502685546875,-0.0323638916015625
1772562136669254000,3.03525390625,-0.975738525390625,-0.219818115234375,-0.0304107666015625
1772562136679235600,3.045235595703125,-0.9727935791015625,-0.2193450927734375,-0.0312042236328125
1772562136689218800,3.05521875,-0.970001220703125,-0.2167816162109375,-0.0305633544921875
1772562136699200800,3.06520068359375,-0.9730224609375,-0.2181549072265625,-0.02996826171875
1772562136709183700,3.075183837890625,-0.9752044677734375,-0.2202301025390625,-0.0308380126953125
1772562136719165700,3.085165771484375,-0.9740447998046875,-0.2203826904296875,-0.0315399169921875
1772562136729149000,3.09514892578125,-0.974212646484375,-0.2191314697265625,-0.0330963134765625
1772562136739130600,3.105130615234375,-0.9732208251953125,-0.2189178466796875,-0.0334625244140625
1772562136749113900,3.11511376953125,-0.9738616943359375,-0.2193603515625,-0.03192138671875
1772562136759095600,3.125095458984375,-0.9732208251953125,-0.2189483642578125,-0.032073974609375
1772562136769078500,3.13507861328125,-0.973541259765625,-0.21795654296875,-0.03363037109375
1772562136779060500,3.145060546875,-0.9737701416015625,-0.218231201171875,-0.031524658203125
1772562136789043500,3.15504345703125,-0.9737701416015625,-0.2195587158203125,-0.031890869140625
1772562136799025400,3.165025390625,-0.974029541015625,-0.2198638916015625,-0.0330047607421875
1772562136809008400,3.17500830078125,-0.972991943359375,-0.2203826904296875,-0.0339202880859375
1772562136818990600,3.184990478515625,-0.973663330078125,-0.2201080322265625,-0.0339508056640625
1772562136828973300,3.194973388671875,-0.974151611328125,-0.21826171875,-0.034423828125
1772562136838955500,3.20495556640625,-0.9749298095703125,-0.2166290283203125,-0.03277587890625
1772562136848938500,3.2149384765625,-0.9741363525390625,-0.218048095703125,-0.032440185546875
1772562136858920400,3.22492041015625,-0.9742431640625,-0.2174224853515625,-0.0320587158203125
1772562136868902400,3.23490234375,-0.9726409912109375,-0.215789794921875,-0.0320281982421875
1772562136878885600,3.2448857421875,-0.972808837890625,-0.2146759033203125,-0.0325164794921875
1772562136888867300,3.254867431640625,-0.97418212890625,-0.21466064453125,-0.0325927734375
1772562136898850600,3.2648505859375,-0.974700927734375,-0.216064453125,-0.0316925048828125
1772562136908832300,3.274832275390625,-0.973236083984375,-0.2175140380859375,-0.0317840576171875
1772562136918815500,3.2848154296875,-0.9734954833984375,-0.217681884765625,-0.032012939453125
1772562136928797400,3.29479736328125,-0.972808837890625,-0.2178802490234375,-0.0304718017578125
1772562136938780400,3.304780517578125,-0.975006103515625,-0.2175445556640625,-0.028472900390625
1772562136948762400,3.314762451171875,-0.9785308837890625,-0.219635009765625,-0.02935791015625
1772562136958745600,3.32474560546875,-0.977783203125,-0.2202911376953125,-0.02978515625
1772562136968727300,3.334727294921875,-0.977020263671875,-0.2181243896484375,-0.031890869140625
1772562136978710500,3.34471044921875,-0.97491455078125,-0.217010498046875,-0.0340576171875
1772562136988692500,3.3546923828125,-0.9723358154296875,-0.2181396484375,-0.0339813232421875
1772562136998675500,3.364675537109375,-0.9713897705078125,-0.21990966796875,-0.0362548828125
1772562137008657400,3.374657470703125,-0.97137451171875,-0.2217254638671875,-0.036956787109375
1772562137018640600,3.384640625,-0.9727020263671875,-0.22174072265625,-0.0345611572265625
1772562137028622300,3.394622314453125,-0.9751739501953125,-0.22210693359375,-0.0339813232421875
1772562137038605600,3.40460546875,-0.9763641357421875,-0.2214202880859375,-0.0327911376953125
1772562137048587300,3.414587158203125,-0.97845458984375,-0.221343994140625,-0.0316925048828125
1772562137058570500,3.424570556640625,-0.97900390625,-0.221588134765625,-0.0317535400390625
1772562137068552400,3.434552490234375,-0.9761962890625,-0.2209320068359375,-0.029876708984375
1772562137078535400,3.444535400390625,-0.9758453369140625,-0.2194976806640625,-0.028717041015625
1772562137088517400,3.454517333984375,-0.97698974609375,-0.2191925048828125,-0.0283355712890625
1772562137098499300,3.464499267578125,-0.976226806640625,-0.219696044921875,-0.0295867919921875
1772562137108482300,3.474482421875,-0.97418212890625,-0.219482421875,-0.02984619140625
1772562137118464500,3.484464599609375,-0.9748382568359375,-0.2195281982421875,-0.029571533203125
1772562137128447200,3.494447265625,-0.9748687744140625,-0.220306396484375,-0.029144287109375
1772562137138429400,3.504429443359375,-0.9717559814453125,-0.2209930419921875,-0.030792236328125
1772562137148412400,3.514412353515625,-0.9710845947265625,-0.219024658203125,-0.03253173828125
1772562137158394400,3.524394287109375,-0.9690704345703125,-0.2177276611328125,-0.034332275390625
1772562137168377300,3.53437744140625,-0.970184326171875,-0.218353271484375,-0.0335540771484375
1772562137178359600,3.544359619140625,-0.9724578857421875,-0.21905517578125,-0.0339508056640625
1772562137188342300,3.55434228515625,-0.9754791259765625,-0.2208099365234375,-0.033416748046875
1772562137198324500,3.564324462890625,-0.9742889404296875,-0.2212371826171875,-0.0326080322265625
1772562137208307500,3.574307373046875,-0.9715118408203125,-0.22003173828125,-0.033172607421875
1772562137218289400,3.584289306640625,-0.974212646484375,-0.2171478271484375,-0.0325164794921875
1772562137228272400,3.5942724609375,-0.974945068359375,-0.2165374755859375,-0.03216552734375
1772562137238254300,3.60425439453125,-0.97540283203125,-0.2176513671875,-0.0343780517578125
1772562137248237300,3.6142373046875,-0.975799560546875,-0.2173004150390625,-0.0348052978515625
1772562137258219500,3.624219482421875,-0.9759521484375,-0.218170166015625,-0.035064697265625
1772562137268202200,3.6342021484375,-0.97589111328125,-0.21990966796875,-0.03643798828125
1772562137278184400,3.644184326171875,-0.97296142578125,-0.220977783203125,-0.0364532470703125
1772562137288167400,3.65416748046875,-0.972381591796875,-0.2205963134765625,-0.0359039306640625
1772562137298149400,3.6641494140625,-0.973663330078125,-0.2201080322265625,-0.035064697265625
1772562137308132400,3.67413232421875,-0.9760894775390625,-0.220428466796875,-0.035858154296875
1772562137318114600,3.684114501953125,-0.9731597900390625,-0.2201690673828125,-0.035675048828125
1772562137328096500,3.694096435546875,-0.9713287353515625,-0.2200927734375,-0.03338623046875
1772562137338079500,3.70407958984375,-0.9730072021484375,-0.2197723388671875,-0.032958984375
1772562137348061400,3.7140615234375,-0.9753875732421875,-0.2210693359375,-0.0329132080078125
1772562137358044400,3.72404443359375,-0.977386474609375,-0.223236083984375,-0.0345916748046875
1772562137368026400,3.7340263671875,-0.976104736328125,-0.2232666015625,-0.0358428955078125
1772562137378009300,3.74400927734375,-0.97369384765625,-0.2219085693359375,-0.036346435546875
1772562137387991600,3.753991455078125,-0.9725494384765625,-0.2202911376953125,-0.035797119140625
1772562137397974500,3.763974609375,-0.9745330810546875,-0.2197265625,-0.0351409912109375
1772562137407956500,3.77395654296875,-0.9745941162109375,-0.2207794189453125,-0.0333404541015625
1772562137417939500,3.783939453125,-0.973541259765625,-0.2213897705078125,-0.0345611572265625
1772562137427921400,3.79392138671875,-0.9724884033203125,-0.2216644287109375,-0.0353546142578125
1772562137437904400,3.803904296875,-0.9738616943359375,-0.221923828125,-0.0352935791015625
1772562137447886600,3.813886474609375,-0.97430419921875,-0.222259521484375,-0.0367431640625
1772562137457869300,3.823869384765625,-0.9735107421875,-0.222259521484375,-0.0365447998046875
1772562137467851500,3.8338515625,-0.971435546875,-0.2225189208984375,-0.0350494384765625
1772562137477834500,3.84383447265625,-0.9713592529296875,-0.2227325439453125,-0.035247802734375
1772562137487816400,3.85381640625,-0.9722747802734375,-0.22137451171875,-0.03472900390625
1772562137497799400,3.86379931640625,-0.973297119140625,-0.219879150390625,-0.03564453125
1772562137507781600,3.87378173828125,-0.973358154296875,-0.22027587890625,-0.035430908203125
1772562137517764400,3.883764404296875,-0.9722442626953125,-0.2206268310546875,-0.0343475341796875
1772562137527746600,3.89374658203125,-0.9709625244140625,-0.21966552734375,-0.035003662109375
1772562137537729500,3.9037294921875,-0.9711151123046875,-0.2197418212890625,-0.03558349609375
1772562137547711500,3.91371142578125,-0.973388671875,-0.2208709716796875,-0.036376953125
1772562137557693400,3.923693359375,-0.971832275390625,-0.221710205078125,-0.036407470703125
1772562137567676400,3.933676513671875,-0.969573974609375,-0.2217559814453125,-0.03656005859375
1772562137577658400,3.943658447265625,-0.96807861328125,-0.2197723388671875,-0.0362548828125
1772562137587641600,3.9536416015625,-0.969635009765625,-0.219329833984375,-0.0351409912109375
1772562137597623300,3.963623291015625,-0.9693450927734375,-0.220855712890625,-0.0338592529296875
1772562137607606500,3.9736064453125,-0.971893310546875,-0.2211151123046875,-0.0316009521484375
1772562137617588500,3.98358837890625,-0.9723663330078125,-0.222381591796875,-0.03106689453125
1772562137627568400,3.993568359375,-0.972564697265625,-0.223846435546875,-0.033477783203125
1772562137637551400,4.00355126953125,-0.97119140625,-0.22296142578125,-0.036285400390625
1772562137647533300,4.013533203125,-0.9721832275390625,-0.223663330078125,-0.0369110107421875
1772562137657516500,4.0235166015625,-0.9727783203125,-0.2249298095703125,-0.0393218994140625
1772562137667498200,4.033498291015625,-0.9735260009765625,-0.2249298095703125,-0.0397796630859375
1772562137677481500,4.0434814453125,-0.97320556640625,-0.223876953125,-0.037994384765625
1772562137687463400,4.05346337890625,-0.97674560546875,-0.22430419921875,-0.0362548828125
1772562137697446400,4.0634462890625,-0.9781951904296875,-0.2252655029296875,-0.034942626953125
1772562137707428400,4.073428466796875,-0.9771575927734375,-0.2253570556640625,-0.034698486328125
1772562137717411600,4.08341162109375,-0.977294921875,-0.224151611328125,-0.0330352783203125
1772562137727393300,4.093393310546875,-0.9770050048828125,-0.224365234375,-0.032867431640625
1772562137737376500,4.10337646484375,-0.976959228515625,-0.224639892578125,-0.0351409912109375
1772562137747358200,4.113358154296875,-0.972625732421875,-0.224029541015625,-0.0360107421875
1772562137757341400,4.123341552734375,-0.971771240234375,-0.2245635986328125,-0.03662109375
1772562137767323100,4.1333232421875,-0.972198486328125,-0.22406005859375,-0.0368194580078125
1772562137777306400,4.143306396484375,-0.971893310546875,-0.22430419921875,-0.0374908447265625
1772562137787288000,4.1532880859375,-0.970733642578125,-0.224609375,-0.0366363525390625
1772562137797271300,4.163271240234375,-0.9688873291015625,-0.22418212890625,-0.0365447998046875
1772562137807253200,4.173253173828125,-0.9658050537109375,-0.223175048828125,-0.0364837646484375
1772562137817235200,4.183235107421875,-0.9638671875,-0.2205657958984375,-0.03729248046875
1772562137827218200,4.19321826171875,-0.967132568359375,-0.2208709716796875,-0.0370635986328125
1772562137837200100,4.2032001953125,-0.971588134765625,-0.2231903076171875,-0.037506103515625
1772562137847183000,4.21318310546875,-0.972808837890625,-0.2241668701171875,-0.037353515625
1772562137857165300,4.223165283203125,-0.9722747802734375,-0.222076416015625,-0.037750244140625
1772562137867148300,4.233148193359375,-0.9702606201171875,-0.219573974609375,-0.0382080078125
1772562137877130200,4.243130126953125,-0.9696502685546875,-0.22003173828125,-0.04010009765625
1772562137887113200,4.25311328125,-0.9736480712890625,-0.221527099609375,-0.0398101806640625
1772562137897095200,4.26309521484375,-0.974639892578125,-0.2213134765625,-0.0401458740234375
1772562137907078100,4.273078125,-0.974578857421875,-0.2214813232421875,-0.0399627685546875
1772562137917060400,4.283060302734375,-0.9717864990234375,-0.22161865234375,-0.039794921875
1772562137927043000,4.29304296875,-0.970977783203125,-0.222900390625,-0.0390167236328125
1772562137937025300,4.303025390625,-0.9719085693359375,-0.2238922119140625,-0.039215087890625
1772562137947008300,4.31300830078125,-0.9711151123046875,-0.2241363525390625,-0.0384063720703125
1772562137956990200,4.322990234375,-0.9698486328125,-0.2242279052734375,-0.0371551513671875
1772562137966973200,4.33297314453125,-0.9691619873046875,-0.2244873046875,-0.0378265380859375
1772562137976955100,4.342955078125,-0.9713897705078125,-0.2259674072265625,-0.0363311767578125
1772562137986938000,4.352938232421875,-0.972259521484375,-0.2268829345703125,-0.03497314453125
1772562137996920300,4.36292041015625,-0.97235107421875,-0.2255096435546875,-0.0352935791015625
1772562138006903300,4.3729033203125,-0.9721832275390625,-0.225250244140625,-0.0350799560546875
1772562138016885200,4.38288525390625,-0.9711456298828125,-0.2247161865234375,-0.036376953125
1772562138026869200,4.392869140625,-0.9737548828125,-0.2248687744140625,-0.0353240966796875
1772562138036852500,4.4028525390625,-0.975982666015625,-0.2239532470703125,-0.035675048828125
1772562138046834200,4.412834228515625,-0.97650146484375,-0.22332763671875,-0.0351715087890625
1772562138056817400,4.4228173828125,-0.97344970703125,-0.2216949462890625,-0.036041259765625
1772562138066799000,4.432799072265625,-0.9707489013671875,-0.2212371826171875,-0.0382537841796875
1772562138076782300,4.4427822265625,-0.970794677734375,-0.2196807861328125,-0.03863525390625
1772562138086764300,4.452764404296875,-0.9755401611328125,-0.2221832275390625,-0.040008544921875
1772562138096746200,4.462746337890625,-0.972686767578125,-0.2228546142578125,-0.040618896484375
1772562138106729200,4.472729248046875,-0.9691009521484375,-0.22113037109375,-0.041778564453125
1772562138116711400,4.48271142578125,-0.97076416015625,-0.2195281982421875,-0.03936767578125
1772562138126694100,4.492694091796875,-0.97515869140625,-0.221099853515625,-0.041015625
1772562138136676400,4.50267626953125,-0.9777069091796875,-0.2247467041015625,-0.0420379638671875
1772562138146659300,4.512659423828125,-0.974029541015625,-0.2260894775390625,-0.0404205322265625
1772562138156641300,4.522641357421875,-0.970489501953125,-0.22552490234375,-0.0399017333984375
1772562138166624300,4.532624267578125,-0.97088623046875,-0.225189208984375,-0.038665771484375
1772562138176606200,4.542606201171875,-0.971771240234375,-0.2259368896484375,-0.0377044677734375
1772562138186589200,4.552589111328125,-0.970123291015625,-0.2249755859375,-0.0383453369140625
1772562138196571400,4.5625712890625,-0.9689483642578125,-0.22222900390625,-0.03668212890625
1772562138206554000,4.57255419921875,-0.96917724609375,-0.2202911376953125,-0.0363311767578125
1772562138216536300,4.582536376953125,-0.9722900390625,-0.2212371826171875,-0.0350341796875
1772562138226519300,4.592519287109375,-0.976287841796875,-0.222503662109375,-0.0366668701171875
1772562138236501200,4.602501220703125,-0.9751129150390625,-0.221710205078125,-0.0369415283203125
1772562138246484200,4.612484130859375,-0.9733428955078125,-0.22113037109375,-0.0365753173828125
1772562138256466400,4.622466552734375,-0.9747314453125,-0.221466064453125,-0.0381011962890625
1772562138266449200,4.63244921875,-0.9748992919921875,-0.22259521484375,-0.041717529296875
1772562138276431400,4.642431396484375,-0.971343994140625,-0.2210845947265625,-0.043182373046875
1772562138286414300,4.652414306640625,-0.969635009765625,-0.2202606201171875,-0.0433502197265625
1772562138296396300,4.662396240234375,-0.973175048828125,-0.2221527099609375,-0.0430145263671875
1772562138306379300,4.672379150390625,-0.975799560546875,-0.2244873046875,-0.04278564453125
1772562138316361200,4.682361328125,-0.9757843017578125,-0.223602294921875,-0.0425262451171875
1772562138326344200,4.69234423828125,-0.975616455078125,-0.224212646484375,-0.041168212890625
1772562138336326400,4.702326416015625,-0.9772186279296875,-0.2262725830078125,-0.0394287109375
1772562138346308400,4.712308349609375,-0.97845458984375,-0.2271575927734375,-0.0378875732421875
1772562138356291300,4.722291259765625,-0.978057861328125,-0.226593017578125,-0.03790283203125
1772562138366273300,4.732273193359375,-0.9767913818359375,-0.2260589599609375,-0.0371246337890625
1772562138376256300,4.74225634765625,-0.9748077392578125,-0.2248077392578125,-0.0364837646484375
1772562138386238500,4.752238525390625,-0.9705810546875,-0.2245025634765625,-0.0369873046875
1772562138396221400,4.762221435546875,-0.9720306396484375,-0.2216949462890625,-0.0363311767578125
1772562138406203400,4.772203369140625,-0.973663330078125,-0.2210845947265625,-0.0355072021484375
1772562138416186400,4.782186279296875,-0.9748077392578125,-0.2222747802734375,-0.0371856689453125
1772562138426168300,4.792168212890625,-0.9740142822265625,-0.2223052978515625,-0.0374755859375
1772562138436151300,4.8021513671875,-0.971435546875,-0.2218475341796875,-0.0386199951171875
1772562138446133200,4.81213330078125,-0.9693603515625,-0.2211761474609375,-0.0407867431640625
1772562138456116200,4.8221162109375,-0.96856689453125,-0.2199859619140625,-0.0423583984375
1772562138466098400,4.832098388671875,-0.9700164794921875,-0.2210540771484375,-0.0419158935546875
1772562138476081400,4.842081298828125,-0.972320556640625,-0.22100830078125,-0.0404815673828125
1772562138486063400,4.8520634765625,-0.974639892578125,-0.2215118408203125,-0.0377655029296875
1772562138496046300,4.86204638671875,-0.974945068359375,-0.220703125,-0.037628173828125
1772562138506028300,4.8720283203125,-0.974456787109375,-0.2208404541015625,-0.038848876953125
1772562138516011300,4.88201123046875,-0.9718475341796875,-0.220611572265625,-0.041412353515625
1772562138525993500,4.891993408203125,-0.97222900390625,-0.22064208984375,-0.041839599609375
1772562138535976200,4.90197607421875,-0.9712677001953125,-0.2208251953125,-0.0382080078125
1772562138545958400,4.91195849609375,-0.9720001220703125,-0.2212982177734375,-0.039215087890625
1772562138555941400,4.92194140625,-0.97161865234375,-0.220306396484375,-0.040802001953125
1772562138565923300,4.93192333984375,-0.972503662109375,-0.2216796875,-0.0403594970703125
1772562138575905300,4.9419052734375,-0.973052978515625,-0.222808837890625,-0.0418243408203125
1772562138585888500,4.951888427734375,-0.975128173828125,-0.2234649658203125,-0.042266845703125
1772562138595870200,4.9618701171875,-0.9753265380859375,-0.2251129150390625,-0.041351318359375
1772562138605853400,4.971853515625,-0.974884033203125,-0.2251129150390625,-0.0401153564453125
1772562138615835100,4.981835205078125,-0.972564697265625,-0.2239532470703125,-0.039825439453125
1772562138625818400,4.991818359375,-0.9693145751953125,-0.223114013671875,-0.0388946533203125
1772562138635800300,5.00180029296875,-0.9697418212890625,-0.2233734130859375,-0.0388641357421875
1772562138645783300,5.011783203125,-0.9711761474609375,-0.2235565185546875,-0.037994384765625
1772562138655765200,5.02176513671875,-0.9728240966796875,-0.223602294921875,-0.0368499755859375
1772562138665748500,5.03174853515625,-0.974151611328125,-0.224884033203125,-0.036346435546875
1772562138675730200,5.041730224609375,-0.9747772216796875,-0.2259521484375,-0.0369720458984375
1772562138685713400,5.05171337890625,-0.9746246337890625,-0.2254180908203125,-0.0364532470703125
1772562138695695400,5.0616953125,-0.973175048828125,-0.2242584228515625,-0.036834716796875
1772562138705678300,5.07167822265625,-0.973907470703125,-0.2234039306640625,-0.0362091064453125
1772562138715660300,5.081660400390625,-0.975189208984375,-0.22296142578125,-0.0377349853515625
1772562138725643500,5.0916435546875,-0.9744720458984375,-0.2241973876953125,-0.0380706787109375
1772562138735625200,5.101625244140625,-0.9747161865234375,-0.22442626953125,-0.0389251708984375
1772562138745608400,5.1116083984375,-0.975494384765625,-0.225189208984375,-0.0412445068359375
1772562138755590100,5.121590087890625,-0.9760284423828125,-0.22412109375,-0.040130615234375
1772562138765577000,5.131576904296875,-0.9751739501953125,-0.2222900390625,-0.03973388671875
1772562138775558700,5.14155859375,-0.974212646484375,-0.223114013671875,-0.039093017578125
1772562138785542000,5.1515419921875,-0.97393798828125,-0.222564697265625,-0.038909912109375
1772562138795523800,5.16152392578125,-0.9720306396484375,-0.222259521484375,-0.0368194580078125
1772562138805506800,5.1715068359375,-0.970550537109375,-0.22021484375,-0.035797119140625
1772562138815488800,5.18148876953125,-0.9688873291015625,-0.2208404541015625,-0.036590576171875
1772562138825470700,5.191470703125,-0.967926025390625,-0.2237396240234375,-0.0345916748046875
1772562138835453700,5.20145361328125,-0.9678497314453125,-0.2241668701171875,-0.0337371826171875
1772562138845436000,5.211435791015625,-0.9703216552734375,-0.224761962890625,-0.031951904296875
1772562138855418600,5.221418701171875,-0.970306396484375,-0.2250213623046875,-0.0390167236328125
1772562138865400800,5.23140087890625,-0.9738006591796875,-0.22515869140625,-0.03863525390625
1772562138875383800,5.2413837890625,-0.9821929931640625,-0.226654052734375,-0.03594970703125
1772562138885365800,5.25136572265625,-0.9866485595703125,-0.2280120849609375,-0.0339813232421875
1772562138895348700,5.2613486328125,-0.985992431640625,-0.2270965576171875,-0.037139892578125
1772562138905331000,5.2713310546875,-0.9815216064453125,-0.2247467041015625,-0.039794921875
1772562138915313700,5.281313720703125,-0.97418212890625,-0.2229766845703125,-0.0415802001953125
1772562138925295900,5.2912958984375,-0.9689483642578125,-0.2223968505859375,-0.0430908203125
1772562138935278800,5.30127880859375,-0.96820068359375,-0.2227325439453125,-0.0422515869140625
1772562138945260800,5.3112607421875,-0.9693603515625,-0.224029541015625,-0.0395050048828125
1772562138955243800,5.321243896484375,-0.9661865234375,-0.22467041015625,-0.0365753173828125
1772562138965225700,5.331225830078125,-0.963287353515625,-0.22308349609375,-0.0363311767578125
1772562138975208700,5.341208740234375,-0.96337890625,-0.220489501953125,-0.0355682373046875
1772562138985191000,5.35119091796875,-0.9673919677734375,-0.22137451171875,-0.03466796875
1772562138995173600,5.361173583984375,-0.9690093994140625,-0.222076416015625,-0.0361175537109375
1772562139005155800,5.37115576171875,-0.9687652587890625,-0.223236083984375,-0.03704833984375
1772562139015138800,5.381138916015625,-0.97003173828125,-0.224212646484375,-0.03790283203125
1772562139025120800,5.391120849609375,-0.9727325439453125,-0.2271575927734375,-0.0372772216796875
1772562139035103700,5.401103759765625,-0.9777374267578125,-0.22900390625,-0.0350494384765625
1772562139045085700,5.411085693359375,-0.98248291015625,-0.2296295166015625,-0.0335540771484375
1772562139055068700,5.421068603515625,-0.9817962646484375,-0.228759765625,-0.032989501953125
1772562139065051000,5.43105078125,-0.977203369140625,-0.2273712158203125,-0.0336761474609375
1772562139075032800,5.44103271484375,-0.9724578857421875,-0.225250244140625,-0.03448486328125
1772562139085015800,5.451015869140625,-0.9712677001953125,-0.224456787109375,-0.0355224609375
1772562139094997800,5.460997802734375,-0.975433349609375,-0.2260284423828125,-0.03448486328125
1772562139104980700,5.470980712890625,-0.9756622314453125,-0.2276153564453125,-0.034454345703125
1772562139114963000,5.480962890625,-0.9719696044921875,-0.2272186279296875,-0.0336151123046875
1772562139124946000,5.49094580078125,-0.968109130859375,-0.224761962890625,-0.0342559814453125
1772562139134928000,5.500927978515625,-0.9663543701171875,-0.2238311767578125,-0.0343780517578125
1772562139144910800,5.510910888671875,-0.9696197509765625,-0.223175048828125,-0.03411865234375
1772562139154892800,5.520892822265625,-0.970977783203125,-0.222137451171875,-0.0352783203125
1772562139164875800,5.530875732421875,-0.9680328369140625,-0.2219696044921875,-0.03619384765625
1772562139174857700,5.540857666015625,-0.9673919677734375,-0.220794677734375,-0.038421630859375
1772562139184840700,5.5508408203125,-0.9709930419921875,-0.2229156494140625,-0.038421630859375
1772562139194823000,5.560822998046875,-0.9718475341796875,-0.226226806640625,-0.0389862060546875
1772562139204806000,5.570805908203125,-0.9714508056640625,-0.2281341552734375,-0.0401458740234375
1772562139214787800,5.580787841796875,-0.9733734130859375,-0.2288818359375,-0.038970947265625
1772562139224770800,5.590770751953125,-0.973419189453125,-0.22979736328125,-0.039398193359375
1772562139234752800,5.600752685546875,-0.9748992919921875,-0.2299652099609375,-0.0375823974609375
1772562139244735700,5.61073583984375,-0.97637939453125,-0.2294921875,-0.0348663330078125
1772562139254718000,5.620718017578125,-0.9762420654296875,-0.22906494140625,-0.03375244140625
1772562139264701000,5.630700927734375,-0.9755706787109375,-0.2293243408203125,-0.036834716796875
1772562139274683000,5.640682861328125,-0.972869873046875,-0.2296905517578125,-0.0374298095703125
1772562139284665900,5.650665771484375,-0.9724273681640625,-0.2297515869140625,-0.03594970703125
1772562139294647800,5.660647705078125,-0.972412109375,-0.230804443359375,-0.0363006591796875
1772562139304630800,5.670630859375,-0.9732666015625,-0.2301483154296875,-0.0366668701171875
1772562139314613000,5.680613037109375,-0.973876953125,-0.2296295166015625,-0.0374908447265625
1772562139324594700,5.6905947265625,-0.970947265625,-0.2296142578125,-0.036956787109375
1772562139334578000,5.700577880859375,-0.970245361328125,-0.2296905517578125,-0.0348358154296875
1772562139344559600,5.7105595703125,-0.9727783203125,-0.228912353515625,-0.0340423583984375
1772562139354542800,5.72054296875,-0.9727325439453125,-0.2289581298828125,-0.034332275390625
1772562139364524800,5.73052490234375,-0.97039794921875,-0.2281036376953125,-0.0348358154296875
1772562139374507800,5.7405078125,-0.9688262939453125,-0.22796630859375,-0.0337371826171875
1772562139384489700,5.75048974609375,-0.9684295654296875,-0.2281341552734375,-0.0346527099609375
1772562139394473000,5.760472900390625,-0.9693603515625,-0.227325439453125,-0.035797119140625
1772562139404454700,5.77045458984375,-0.969146728515625,-0.227569580078125,-0.03509521484375
1772562139414438000,5.78043798828125,-0.9687347412109375,-0.2293243408203125,-0.035430908203125
1772562139424419800,5.790419921875,-0.965728759765625,-0.228240966796875,-0.033721923828125
1772562139434402800,5.80040283203125,-0.96405029296875,-0.2273406982421875,-0.0313568115234375
1772562139444384800,5.810384765625,-0.966461181640625,-0.228912353515625,-0.0306854248046875
1772562139454368000,5.820367919921875,-0.968292236328125,-0.230682373046875,-0.029876708984375
1772562139464349700,5.830349609375,-0.967987060546875,-0.2313079833984375,-0.0298309326171875
1772562139474333000,5.8403330078125,-0.969482421875,-0.230010986328125,-0.0314178466796875
1772562139484314600,5.850314697265625,-0.971771240234375,-0.22967529296875,-0.0341033935546875
1772562139494297900,5.8602978515625,-0.9736175537109375,-0.23052978515625,-0.0353240966796875
1772562139504279800,5.87027978515625,-0.976593017578125,-0.231414794921875,-0.0341949462890625
1772562139514262800,5.8802626953125,-0.976043701171875,-0.2304840087890625,-0.0333099365234375
1772562139524244700,5.89024462890625,-0.9721221923828125,-0.23004150390625,-0.034912109375
1772562139534228000,5.90022802734375,-0.969757080078125,-0.228790283203125,-0.035858154296875
1772562139544209700,5.910209716796875,-0.9662628173828125,-0.227630615234375,-0.0379638671875
1772562139554193000,5.92019287109375,-0.9647979736328125,-0.2280731201171875,-0.0401153564453125
1772562139564174800,5.9301748046875,-0.9667205810546875,-0.2288055419921875,-0.0409393310546875
1772562139574156800,5.94015673828125,-0.9695281982421875,-0.2294464111328125,-0.0408477783203125
1772562139584139800,5.950139892578125,-0.9718475341796875,-0.23046875,-0.040557861328125
1772562139594121700,5.960121826171875,-0.9715423583984375,-0.2301483154296875,-0.0415191650390625
1772562139604104700,5.970104736328125,-0.9725799560546875,-0.229644775390625,-0.0418701171875
1772562139614087000,5.9800869140625,-0.972412109375,-0.230255126953125,-0.0408782958984375
1772562139624069600,5.990069580078125,-0.9698638916015625,-0.231201171875,-0.0391387939453125
1772562139634051800,6.0000517578125,-0.9679107666015625,-0.229705810546875,-0.0399322509765625
1772562139644034800,6.010034912109375,-0.96875,-0.2287750244140625,-0.038116455078125
1772562139654016800,6.020016845703125,-0.9717254638671875,-0.231597900390625,-0.038055419921875
1772562139663999700,6.029999755859375,-0.9715423583984375,-0.232421875,-0.0389251708984375
1772562139673981700,6.039981689453125,-0.9736328125,-0.2317352294921875,-0.0370025634765625
1772562139683964700,6.049964599609375,-0.975311279296875,-0.2327728271484375,-0.036895751953125
1772562139693947000,6.05994677734375,-0.9753875732421875,-0.232879638671875,-0.0395050048828125
1772562139703929900,6.069929931640625,-0.9743804931640625,-0.2298736572265625,-0.0407562255859375
1772562139713911800,6.079911865234375,-0.972137451171875,-0.2281341552734375,-0.0401153564453125
1772562139723894800,6.089894775390625,-0.971893310546875,-0.22735595703125,-0.03857421875
1772562139733876700,6.099876708984375,-0.973602294921875,-0.2285614013671875,-0.0388946533203125
1772562139743859700,6.109859619140625,-0.9721527099609375,-0.229095458984375,-0.0384521484375
1772562139753842000,6.119842041015625,-0.9702911376953125,-0.2284698486328125,-0.0383453369140625
1772562139763824600,6.12982470703125,-0.9701080322265625,-0.2288360595703125,-0.0389404296875
1772562139773803300,6.13980322265625,-0.9683990478515625,-0.2270050048828125,-0.0389862060546875
1772562139783786000,6.149785888671875,-0.9679412841796875,-0.225799560546875,-0.039093017578125
1772562139793768200,6.159768310546875,-0.9668426513671875,-0.2251434326171875,-0.0412445068359375
1772562139803751200,6.169751220703125,-0.9671173095703125,-0.224273681640625,-0.0411376953125
1772562139813733000,6.179733154296875,-0.9695892333984375,-0.2251129150390625,-0.0414886474609375
1772562139823715300,6.18971533203125,-0.9711151123046875,-0.227142333984375,-0.0423431396484375
1772562139833698300,6.1996982421875,-0.9751129150390625,-0.22955322265625,-0.042755126953125
1772562139843680300,6.20968017578125,-0.97479248046875,-0.231201171875,-0.04150390625
1772562139853663200,6.219663330078125,-0.97308349609375,-0.2293243408203125,-0.0394439697265625
1772562139863645200,6.229645263671875,-0.9737548828125,-0.22821044921875,-0.036834716796875
1772562139873628200,6.239628173828125,-0.9722747802734375,-0.228485107421875,-0.0361480712890625
1772562139883610400,6.2496103515625,-0.972503662109375,-0.228271484375,-0.0348052978515625
1772562139893593000,6.259593017578125,-0.9716033935546875,-0.228759765625,-0.03509521484375
1772562139903575300,6.2695751953125,-0.97039794921875,-0.22894287109375,-0.035308837890625
1772562139913558300,6.279558349609375,-0.9689788818359375,-0.2291107177734375,-0.0351715087890625
1772562139923540200,6.289540283203125,-0.9712677001953125,-0.22967529296875,-0.03448486328125
1772562139933523200,6.299523193359375,-0.9718170166015625,-0.2302093505859375,-0.03570556640625
1772562139943505200,6.309505126953125,-0.9744415283203125,-0.2303466796875,-0.037628173828125
1772562139953488100,6.319488037109375,-0.9747314453125,-0.2301177978515625,-0.0373382568359375
1772562139963470300,6.32947021484375,-0.975006103515625,-0.2296142578125,-0.0372467041015625
1772562139973453000,6.339453125,-0.9745635986328125,-0.229644775390625,-0.037261962890625
1772562139983435300,6.349435302734375,-0.9743499755859375,-0.228515625,-0.039947509765625
1772562139993418200,6.359418212890625,-0.97265625,-0.228485107421875,-0.0403289794921875
1772562140003400200,6.369400146484375,-0.970550537109375,-0.2269134521484375,-0.0417022705078125
1772562140013383200,6.379383056640625,-0.9691009521484375,-0.2263946533203125,-0.04058837890625
1772562140023365400,6.389365478515625,-0.97003173828125,-0.227081298828125,-0.0393524169921875
1772562140033348000,6.39934814453125,-0.9691619873046875,-0.2270050048828125,-0.0396881103515625
1772562140043330300,6.409330322265625,-0.9676513671875,-0.226898193359375,-0.0400848388671875
1772562140053313300,6.419313232421875,-0.9665069580078125,-0.2258453369140625,-0.040863037109375
1772562140063295200,6.429295166015625,-0.96612548828125,-0.225738525390625,-0.0399169921875
1772562140073278200,6.4392783203125,-0.9696502685546875,-0.2260894775390625,-0.038665771484375
1772562140083260200,6.44926025390625,-0.9714813232421875,-0.226348876953125,-0.03851318359375
1772562140093242000,6.4592421875,-0.9723052978515625,-0.22576904296875,-0.0400238037109375
1772562140103225300,6.469225341796875,-0.9740142822265625,-0.2247467041015625,-0.0391693115234375
1772562140113207000,6.47920703125,-0.9743499755859375,-0.225372314453125,-0.0382537841796875
1772562140123190300,6.489190185546875,-0.97711181640625,-0.22662353515625,-0.0370330810546875
1772562140133172200,6.499172119140625,-0.9765625,-0.2275390625,-0.03802490234375
1772562140143155200,6.5091552734375,-0.9747467041015625,-0.2268524169921875,-0.0394439697265625
1772562140153137200,6.51913720703125,-0.97344970703125,-0.2268218994140625,-0.039642333984375
1772562140163120400,6.529120361328125,-0.97076416015625,-0.2274169921875,-0.042633056640625
1772562140173102000,6.53910205078125,-0.96966552734375,-0.2272796630859375,-0.043487548828125
1772562140183085300,6.549085205078125,-0.96966552734375,-0.227386474609375,-0.042724609375
1772562140193067000,6.55906689453125,-0.9705352783203125,-0.2290496826171875,-0.0413818359375
1772562140203050200,6.56905029296875,-0.972076416015625,-0.228271484375,-0.0417022705078125
1772562140213032200,6.5790322265625,-0.9728240966796875,-0.2269287109375,-0.03936767578125
1772562140223015200,6.58901513671875,-0.9748077392578125,-0.2259521484375,-0.0375823974609375
1772562140232997000,6.5989970703125,-0.975341796875,-0.2265472412109375,-0.0366058349609375
1772562140242980400,6.60898046875,-0.9746246337890625,-0.2257232666015625,-0.036102294921875
1772562140252962000,6.618962158203125,-0.974273681640625,-0.225189208984375,-0.0373992919921875
1772562140262945300,6.6289453125,-0.972686767578125,-0.22515869140625,-0.0387420654296875
1772562140272927000,6.638927001953125,-0.97308349609375,-0.224609375,-0.039459228515625
1772562140282910200,6.64891015625,-0.9751739501953125,-0.2255859375,-0.03814697265625
1772562140292892200,6.65889208984375,-0.975616455078125,-0.226165771484375,-0.0386505126953125
1772562140302875100,6.668875244140625,-0.975341796875,-0.225616455078125,-0.03851318359375
1772562140312857000,6.678857177734375,-0.973175048828125,-0.2252197265625,-0.0374908447265625
1772562140322840300,6.68884033203125,-0.9707489013671875,-0.222564697265625,-0.0355224609375
1772562140332822000,6.698822021484375,-0.96893310546875,-0.220733642578125,-0.0374603271484375
1772562140342804200,6.70880419921875,-0.96881103515625,-0.2223663330078125,-0.0388641357421875
1772562140352787200,6.718787109375,-0.96856689453125,-0.2236175537109375,-0.0383758544921875
1772562140362769200,6.72876904296875,-0.967864990234375,-0.2238616943359375,-0.038482666015625
1772562140372752100,6.738752197265625,-0.9710693359375,-0.22613525390625,-0.038818359375
1772562140382734000,6.748734130859375,-0.9700775146484375,-0.2266845703125,-0.0392303466796875
1772562140392717000,6.758717041015625,-0.9713897705078125,-0.2248992919921875,-0.0404205322265625
1772562140402699300,6.76869921875,-0.970794677734375,-0.2227325439453125,-0.03955078125
1772562140412682000,6.778681884765625,-0.9709930419921875,-0.2239227294921875,-0.040435791015625
1772562140422664200,6.788664306640625,-0.9735565185546875,-0.22515869140625,-0.041290283203125
1772562140432647200,6.798647216796875,-0.9759368896484375,-0.2254638671875,-0.041259765625
1772562140442629000,6.808629150390625,-0.9760284423828125,-0.2247161865234375,-0.04010009765625
1772562140452612000,6.818612060546875,-0.9775848388671875,-0.22412109375,-0.0399627685546875
1772562140462594300,6.82859423828125,-0.9764404296875,-0.22479248046875,-0.0390777587890625
1772562140472577000,6.838576904296875,-0.9741668701171875,-0.223419189453125,-0.0369415283203125
1772562140482559200,6.848559326171875,-0.972869873046875,-0.2227783203125,-0.0367431640625
1772562140492542200,6.858542236328125,-0.97125244140625,-0.22296142578125,-0.0358734130859375
1772562140502524200,6.868524169921875,-0.97113037109375,-0.2246551513671875,-0.0369873046875
1772562140512507100,6.878507080078125,-0.9706878662109375,-0.2254486083984375,-0.03778076171875
1772562140522489000,6.888489013671875,-0.9693756103515625,-0.224334716796875,-0.0379486083984375
1772562140532472000,6.89847216796875,-0.9680328369140625,-0.223785400390625,-0.0380859375
1772562140542454300,6.908454345703125,-0.97210693359375,-0.22564697265625,-0.036895751953125
1772562140552437000,6.91843701171875,-0.974273681640625,-0.22607421875,-0.036529541015625
1772562140562419200,6.928419189453125,-0.97467041015625,-0.2264404296875,-0.0370941162109375
1772562140572402200,6.938402099609375,-0.9740753173828125,-0.226776123046875,-0.03680419921875
1772562140582384000,6.948384033203125,-0.973052978515625,-0.2269134521484375,-0.0357513427734375
1772562140592367000,6.9583671875,-0.9715423583984375,-0.2265777587890625,-0.0362396240234375
1772562140602349000,6.96834912109375,-0.97052001953125,-0.226043701171875,-0.038818359375
1772562140612331300,6.978331298828125,-0.968994140625,-0.2235260009765625,-0.039764404296875
1772562140622314200,6.988314208984375,-0.9694366455078125,-0.2238616943359375,-0.0399322509765625
1772562140632296200,6.998296142578125,-0.9726409912109375,-0.2255401611328125,-0.040069580078125
1772562140642279200,7.008279052734375,-0.9716033935546875,-0.2251129150390625,-0.0376129150390625
1772562140652261400,7.018261474609375,-0.9672393798828125,-0.2227935791015625,-0.036865234375
1772562140662244000,7.028244140625,-0.966339111328125,-0.220733642578125,-0.036102294921875
1772562140672226300,7.038226318359375,-0.967376708984375,-0.2208251953125,-0.03631591796875
1772562140682209300,7.048209228515625,-0.967620849609375,-0.2224578857421875,-0.0375518798828125
1772562140692191200,7.058191162109375,-0.9662933349609375,-0.2241363525390625,-0.034942626953125
1772562140702174200,7.06817431640625,-0.9677276611328125,-0.2235870361328125,-0.0357513427734375
1772562140712156200,7.07815625,-0.970550537109375,-0.2235565185546875,-0.0378875732421875
1772562140722139100,7.08813916015625,-0.9738922119140625,-0.2250518798828125,-0.035919189453125
1772562140732121300,7.098121337890625,-0.974853515625,-0.224395751953125,-0.0347900390625
1772562140742104000,7.10810400390625,-0.97357177734375,-0.2247772216796875,-0.03375244140625
1772562140752086300,7.118086181640625,-0.974395751953125,-0.2261199951171875,-0.033935546875
1772562140762069200,7.1280693359375,-0.9735870361328125,-0.2266845703125,-0.037445068359375
1772562140772051500,7.138051513671875,-0.972442626953125,-0.227447509765625,-0.0383453369140625
1772562140782034200,7.1480341796875,-0.971527099609375,-0.229278564453125,-0.0394287109375
1772562140792016400,7.158016357421875,-0.9721221923828125,-0.2297515869140625,-0.0401458740234375
1772562140801999400,7.167999267578125,-0.974609375,-0.2303314208984375,-0.0390777587890625
1772562140811981300,7.177981201171875,-0.976318359375,-0.2296600341796875,-0.036376953125
1772562140821964300,7.18796435546875,-0.97796630859375,-0.22991943359375,-0.034698486328125
1772562140831946200,7.1979462890625,-0.979583740234375,-0.2299652099609375,-0.03472900390625
1772562140841929200,7.20792919921875,-0.9770050048828125,-0.227020263671875,-0.034515380859375
1772562140851911400,7.217911376953125,-0.9784393310546875,-0.2261962890625,-0.0334930419921875
1772562140861894100,7.22789404296875,-0.977752685546875,-0.2248992919921875,-0.0330810546875
1772562140871876400,7.23787646484375,-0.9766082763671875,-0.2235870361328125,-0.033416748046875
1772562140881858300,7.2478583984375,-0.97509765625,-0.2227630615234375,-0.0334930419921875
1772562140891841300,7.25784130859375,-0.9753570556640625,-0.2228546142578125,-0.03662109375
1772562140901823200,7.2678232421875,-0.9727630615234375,-0.223388671875,-0.0374908447265625
1772562140911806500,7.277806396484375,-0.9703216552734375,-0.2229461669921875,-0.037384033203125
1772562140921788200,7.2877880859375,-0.9684600830078125,-0.22210693359375,-0.0377044677734375
1772562140931771400,7.297771484375,-0.9665374755859375,-0.221038818359375,-0.0384368896484375
1772562140941753000,7.307753173828125,-0.9668426513671875,-0.22076416015625,-0.0384979248046875
1772562140951736300,7.317736328125,-0.9683990478515625,-0.2222137451171875,-0.0374298095703125
1772562140961718300,7.32771826171875,-0.969512939453125,-0.2222747802734375,-0.036224365234375
1772562140971701200,7.337701171875,-0.9712066650390625,-0.2223052978515625,-0.037261962890625
1772562140981683200,7.34768310546875,-0.9696197509765625,-0.2224578857421875,-0.0366058349609375
1772562140991666400,7.35766650390625,-0.9687347412109375,-0.2213287353515625,-0.0359954833984375
1772562141001648000,7.367648193359375,-0.97149658203125,-0.2214202880859375,-0.0371551513671875
1772562141011631400,7.37763134765625,-0.9724578857421875,-0.2231597900390625,-0.03802490234375
1772562141021613300,7.38761328125,-0.974456787109375,-0.2231903076171875,-0.0398712158203125
1772562141031596300,7.39759619140625,-0.9759521484375,-0.2225341796875,-0.0392913818359375
1772562141041578200,7.407578125,-0.976806640625,-0.2233123779296875,-0.038970947265625
1772562141051561500,7.4175615234375,-0.9741363525390625,-0.2235107421875,-0.03955078125
1772562141061543200,7.427543212890625,-0.973876953125,-0.22119140625,-0.0394134521484375
1772562141071526400,7.4375263671875,-0.975189208984375,-0.221710205078125,-0.0387115478515625
1772562141081508000,7.447508056640625,-0.97454833984375,-0.2243804931640625,-0.0388641357421875
1772562141091491300,7.4574912109375,-0.974151611328125,-0.2236480712890625,-0.0374298095703125
1772562141101473300,7.467473388671875,-0.9762115478515625,-0.222686767578125,-0.0353546142578125
1772562141111456300,7.477456298828125,-0.9746856689453125,-0.2237091064453125,-0.03631591796875
1772562141121438200,7.487438232421875,-0.971466064453125,-0.223846435546875,-0.037322998046875
1772562141131420200,7.497420166015625,-0.9703826904296875,-0.2230224609375,-0.0358428955078125
1772562141141403100,7.507403076171875,-0.970001220703125,-0.2230224609375,-0.0350341796875
1772562141151385300,7.51738525390625,-0.9726409912109375,-0.223907470703125,-0.037841796875
1772562141161368000,7.5273681640625,-0.9740447998046875,-0.2231903076171875,-0.03729248046875
1772562141171350300,7.537350341796875,-0.975067138671875,-0.22357177734375,-0.035919189453125
1772562141181333200,7.547333251953125,-0.9769744873046875,-0.22540283203125,-0.03680419921875
1772562141191315200,7.557315185546875,-0.974639892578125,-0.2252044677734375,-0.0404205322265625
1772562141201298200,7.567298095703125,-0.9723052978515625,-0.223480224609375,-0.0391998291015625
1772562141211280400,7.5772802734375,-0.9703216552734375,-0.2222442626953125,-0.0389251708984375
1772562141221263000,7.58726318359375,-0.97052001953125,-0.221099853515625,-0.0386810302734375
1772562141231245300,7.597245361328125,-0.9723663330078125,-0.2235565185546875,-0.0395660400390625
1772562141241228300,7.607228271484375,-0.974090576171875,-0.2252349853515625,-0.0379791259765625
1772562141251210200,7.617210205078125,-0.9744415283203125,-0.2246551513671875,-0.0374603271484375
1772562141261193200,7.627193115234375,-0.972869873046875,-0.2232666015625,-0.037200927734375
1772562141271175200,7.637175048828125,-0.9714202880859375,-0.2230682373046875,-0.0352325439453125
1772562141281158100,7.647158203125,-0.9702301025390625,-0.2215728759765625,-0.0342864990234375
1772562141291140400,7.657140380859375,-0.9705963134765625,-0.2201995849609375,-0.0339813232421875
1772562141301123000,7.667123046875,-0.973114013671875,-0.2205352783203125,-0.0328521728515625
1772562141311105300,7.677105224609375,-0.970733642578125,-0.2232208251953125,-0.03485107421875
1772562141321088300,7.687088134765625,-0.9646148681640625,-0.2179412841796875,-0.035400390625
1772562141331070200,7.6970703125,-0.9734954833984375,-0.218231201171875,-0.0388031005859375
1772562141341053200,7.70705322265625,-0.977447509765625,-0.2225341796875,-0.041412353515625
1772562141351035400,7.717035400390625,-0.973876953125,-0.2219696044921875,-0.0409393310546875
1772562141361018000,7.72701806640625,-0.9693450927734375,-0.2185516357421875,-0.041595458984375
1772562141371000300,7.737000244140625,-0.966644287109375,-0.2167205810546875,-0.0460205078125
1772562141380983300,7.7469833984375,-0.9668426513671875,-0.21771240234375,-0.0473480224609375
1772562141390965200,7.75696533203125,-0.9687347412109375,-0.2200164794921875,-0.046173095703125
1772562141400947500,7.766947509765625,-0.9720458984375,-0.2196502685546875,-0.044403076171875
1772562141410930200,7.77693017578125,-0.9749908447265625,-0.2190399169921875,-0.0441741943359375
1772562141420913200,7.7869130859375,-0.9776458740234375,-0.219390869140625,-0.04302978515625
1772562141430895400,7.796895263671875,-0.9795074462890625,-0.2198486328125,-0.0413970947265625
1772562141440877300,7.806877197265625,-0.9788818359375,-0.21990966796875,-0.0416107177734375
1772562141450860300,7.8168603515625,-0.9786224365234375,-0.21923828125,-0.0415802001953125
1772562141460842200,7.82684228515625,-0.9780731201171875,-0.2188873291015625,-0.0413665771484375
1772562141470825200,7.8368251953125,-0.974853515625,-0.2197418212890625,-0.0420989990234375
1772562141480807400,7.846807373046875,-0.9727020263671875,-0.2186126708984375,-0.0433502197265625
1772562141490790100,7.8567900390625,-0.9715423583984375,-0.2182159423828125,-0.04541015625
1772562141500772400,7.8667724609375,-0.9729461669921875,-0.2184295654296875,-0.0450439453125
1772562141510755300,7.87675537109375,-0.9734039306640625,-0.2192840576171875,-0.04364013671875
1772562141520737300,7.8867373046875,-0.9754791259765625,-0.2191619873046875,-0.0419769287109375
1772562141530720300,7.89672021484375,-0.972991943359375,-0.218017578125,-0.042236328125
1772562141540702500,7.906702392578125,-0.9712677001953125,-0.216217041015625,-0.042022705078125
1772562141550685200,7.916685302734375,-0.9718170166015625,-0.216644287109375,-0.0388946533203125
1772562141560667400,7.92666748046875,-0.97607421875,-0.2191619873046875,-0.0345458984375
1772562141570650400,7.936650390625,-0.9769744873046875,-0.2212371826171875,-0.031768798828125
1772562141580632300,7.94663232421875,-0.9753570556640625,-0.2201385498046875,-0.0288543701171875
1772562141590615300,7.956615234375,-0.97296142578125,-0.2177581787109375,-0.02813720703125
1772562141600597200,7.96659716796875,-0.9709320068359375,-0.21783447265625,-0.0290374755859375
1772562141610580200,7.976580322265625,-0.97052001953125,-0.2174530029296875,-0.0302886962890625
1772562141620562400,7.9865625,-0.9694366455078125,-0.2174072265625,-0.032379150390625
1772562141630543000,7.996543212890625,-0.9689483642578125,-0.2164306640625,-0.0341339111328125
1772562141640525300,8.006525390625,-0.9732666015625,-0.216705322265625,-0.035919189453125
1772562141650508300,8.01650830078125,-0.97802734375,-0.2183074951171875,-0.0386199951171875
1772562141660490200,8.026490234375,-0.9770660400390625,-0.2195587158203125,-0.0391387939453125
1772562141670473200,8.03647314453125,-0.976837158203125,-0.2186737060546875,-0.037109375
1772562141680455200,8.046455078125,-0.976654052734375,-0.21722412109375,-0.03778076171875
1772562141690438100,8.056438232421876,-0.9783782958984375,-0.219329833984375,-0.0338592529296875
1772562141700420000,8.066420166015625,-0.980072021484375,-0.2205963134765625,-0.0302581787109375
1772562141710403300,8.0764033203125,-0.97869873046875,-0.2206268310546875,-0.02947998046875
1772562141720385300,8.08638525390625,-0.976593017578125,-0.219879150390625,-0.0279998779296875
1772562141730368300,8.0963681640625,-0.9757537841796875,-0.219207763671875,-0.0277252197265625
1772562141740350200,8.10635009765625,-0.9751434326171875,-0.2197113037109375,-0.026641845703125
1772562141750333200,8.116333251953124,-0.976715087890625,-0.2202301025390625,-0.026458740234375
1772562141760315100,8.126315185546876,-0.9766082763671875,-0.2207489013671875,-0.0267791748046875
1772562141770298400,8.13629833984375,-0.9741058349609375,-0.21990966796875,-0.0281219482421875
1772562141780281300,8.14628125,-0.97344970703125,-0.2196197509765625,-0.0296783447265625
1772562141790264300,8.156264404296875,-0.9753570556640625,-0.2198028564453125,-0.0319976806640625
1772562141800246300,8.166246337890625,-0.974639892578125,-0.220123291015625,-0.03436279296875
1772562141810229200,8.176229248046875,-0.97314453125,-0.2175140380859375,-0.032623291015625
1772562141820211200,8.186211181640624,-0.9765777587890625,-0.2158203125,-0.0330047607421875
1772562141830194200,8.196194091796874,-0.978179931640625,-0.2181243896484375,-0.032562255859375
1772562141840176400,8.20617626953125,-0.97686767578125,-0.217864990234375,-0.0314483642578125
1772562141850159000,8.2161591796875,-0.9747772216796875,-0.2166290283203125,-0.0299530029296875
1772562141860141300,8.226141357421875,-0.9749298095703125,-0.217529296875,-0.0306396484375
1772562141870124300,8.236124267578125,-0.9752655029296875,-0.218780517578125,-0.028656005859375
1772562141880106200,8.246106201171875,-0.973846435546875,-0.2198028564453125,-0.02789306640625
1772562141890089200,8.256089111328125,-0.971038818359375,-0.2203826904296875,-0.0279388427734375
1772562141900071400,8.266071533203124,-0.9710235595703125,-0.2194976806640625,-0.026824951171875
1772562141910053400,8.276053466796874,-0.9724578857421875,-0.218994140625,-0.0283355712890625
1772562141920036400,8.286036376953126,-0.9759674072265625,-0.220062255859375,-0.029815673828125
1772562141930018300,8.296018310546875,-0.9770050048828125,-0.2205047607421875,-0.02978515625
1772562141940001300,8.306001220703125,-0.97808837890625,-0.2197265625,-0.0302734375
1772562141949983200,8.315983154296875,-0.97576904296875,-0.2192535400390625,-0.0313873291015625
1772562141959966200,8.32596630859375,-0.9750823974609375,-0.217498779296875,-0.033721923828125
1772562141969948400,8.335948486328125,-0.9731292724609375,-0.2186431884765625,-0.0359649658203125
1772562141979931400,8.345931396484374,-0.9721221923828125,-0.21881103515625,-0.0391693115234375
1772562141989913300,8.355913330078126,-0.973541259765625,-0.218902587890625,-0.0405426025390625
1772562141999896300,8.365896240234376,-0.9759521484375,-0.2185821533203125,-0.0401763916015625
1772562142009878300,8.375878173828125,-0.976470947265625,-0.2189483642578125,-0.0406036376953125
1772562142019861200,8.385861328125,-0.9766998291015625,-0.218505859375,-0.0396270751953125
1772562142029843500,8.395843505859375,-0.9769134521484375,-0.219207763671875,-0.039031982421875
1772562142039826400,8.405826416015625,-0.9772186279296875,-0.2187347412109375,-0.0394134521484375
1772562142049808400,8.415808349609375,-0.97705078125,-0.218597412109375,-0.0397186279296875
1772562142059791400,8.425791259765624,-0.9745941162109375,-0.2183074951171875,-0.0401153564453125
1772562142069773300,8.435773193359376,-0.97418212890625,-0.217926025390625,-0.0397186279296875
1772562142079756300,8.44575634765625,-0.973876953125,-0.2198486328125,-0.041900634765625
1772562142089738500,8.455738525390625,-0.9725494384765625,-0.2200775146484375,-0.042510986328125
1772562142099721200,8.46572119140625,-0.97198486328125,-0.2198944091796875,-0.041046142578125
1772562142109703400,8.475703369140625,-0.9731292724609375,-0.219451904296875,-0.041900634765625
1772562142119686400,8.485686279296875,-0.9725341796875,-0.2183074951171875,-0.043060302734375
1772562142129668400,8.49566845703125,-0.9709930419921875,-0.2172088623046875,-0.042816162109375
1772562142139651300,8.5056513671875,-0.9688873291015625,-0.2157135009765625,-0.0464019775390625
1772562142149633300,8.51563330078125,-0.9686431884765625,-0.2139129638671875,-0.0464630126953125
1772562142159616300,8.5256162109375,-0.9737091064453125,-0.2162628173828125,-0.0440826416015625
1772562142169598500,8.535598388671875,-0.9748687744140625,-0.2178497314453125,-0.0457763671875
1772562142179581200,8.545581298828125,-0.97222900390625,-0.2162628173828125,-0.046875
1772562142189563400,8.5555634765625,-0.9721221923828125,-0.21441650390625,-0.0457763671875
1772562142199546400,8.56554638671875,-0.9714508056640625,-0.2144927978515625,-0.0451812744140625
1772562142209528300,8.5755283203125,-0.9728240966796875,-0.2144622802734375,-0.04730224609375
1772562142219510300,8.58551025390625,-0.97454833984375,-0.2147064208984375,-0.0469970703125
1772562142229493500,8.595493408203126,-0.9757537841796875,-0.215087890625,-0.0489044189453125
1772562142239475200,8.60547509765625,-0.974517822265625,-0.2158660888671875,-0.0502471923828125
1772562142249460200,8.615460205078126,-0.97235107421875,-0.216552734375,-0.0510711669921875
1772562142259442400,8.6254423828125,-0.97283935546875,-0.218536376953125,-0.0507659912109375
1772562142269425400,8.63542529296875,-0.9718017578125,-0.2200775146484375,-0.0492401123046875
1772562142279407400,8.645407470703125,-0.9719390869140625,-0.22003173828125,-0.0489501953125
1772562142289389300,8.655389404296875,-0.9709320068359375,-0.22015380859375,-0.0481414794921875
1772562142299372300,8.665372314453125,-0.97149658203125,-0.22015380859375,-0.0470123291015625
1772562142309354200,8.675354248046874,-0.973297119140625,-0.2196502685546875,-0.043609619140625
1772562142319337500,8.68533740234375,-0.975128173828125,-0.219757080078125,-0.045928955078125
1772562142329319200,8.695319091796875,-0.9729461669921875,-0.219482421875,-0.045501708984375
1772562142339302400,8.705302490234375,-0.9737548828125,-0.21905517578125,-0.0443572998046875
1772562142349284000,8.7152841796875,-0.9745635986328125,-0.2180938720703125,-0.0451507568359375
1772562142359267300,8.725267333984375,-0.976165771484375,-0.219085693359375,-0.045074462890625
1772562142369249300,8.735249267578125,-0.978485107421875,-0.2200927734375,-0.0467987060546875
1772562142379232300,8.745232177734374,-0.97808837890625,-0.2193603515625,-0.048095703125
1772562142389214200,8.755214111328126,-0.9773406982421875,-0.2198944091796875,-0.04803466796875
1772562142399197400,8.765197509765626,-0.9756622314453125,-0.2200775146484375,-0.0493621826171875
1772562142409179100,8.77517919921875,-0.972259521484375,-0.2181396484375,-0.0501251220703125
1772562142419162400,8.785162353515625,-0.968231201171875,-0.21612548828125,-0.0494537353515625
1772562142429144300,8.795144287109375,-0.9698944091796875,-0.2149505615234375,-0.0490264892578125
1772562142439127300,8.805127197265625,-0.971343994140625,-0.216949462890625,-0.0486297607421875
1772562142449109200,8.815109130859375,-0.9715728759765625,-0.2174835205078125,-0.0490875244140625
1772562142459092500,8.825092529296874,-0.97076416015625,-0.216705322265625,-0.0471649169921875
1772562142469074200,8.83507421875,-0.9739227294921875,-0.217742919921875,-0.0474395751953125
1772562142479057400,8.845057373046876,-0.973297119140625,-0.2178802490234375,-0.045989990234375
1772562142489039000,8.8550390625,-0.9704437255859375,-0.2182769775390625,-0.0447845458984375
1772562142499022300,8.865022216796875,-0.968536376953125,-0.216583251953125,-0.0439300537109375
1772562142509004300,8.87500439453125,-0.97113037109375,-0.216766357421875,-0.0450439453125
1772562142518987300,8.8849873046875,-0.97369384765625,-0.2165985107421875,-0.044281005859375
1772562142528969200,8.89496923828125,-0.9781036376953125,-0.216522216796875,-0.0435943603515625
1772562142538952400,8.904952392578124,-0.9788360595703125,-0.21783447265625,-0.0444793701171875
1772562142548934100,8.91493408203125,-0.9779052734375,-0.218902587890625,-0.045989990234375
1772562142558917400,8.92491748046875,-0.97869873046875,-0.2183685302734375,-0.0474853515625
1772562142568899300,8.9348994140625,-0.9765625,-0.21728515625,-0.0493927001953125
1772562142578881300,8.94488134765625,-0.9728240966796875,-0.2178802490234375,-0.050811767578125
1772562142588864300,8.9548642578125,-0.9724578857421875,-0.2168426513671875,-0.0502166748046875
1772562142598846200,8.96484619140625,-0.9735107421875,-0.216400146484375,-0.0516204833984375
1772562142608829200,8.9748291015625,-0.9711456298828125,-0.2160491943359375,-0.0495758056640625
1772562142618811400,8.984811279296874,-0.9726715087890625,-0.2152099609375,-0.047149658203125
1772562142628794000,8.994794189453126,-0.9727783203125,-0.2161865234375,-0.0474700927734375
1772562142638776300,9.0047763671875,-0.97271728515625,-0.216064453125,-0.04742431640625
1772562142648759300,9.01475927734375,-0.9728240966796875,-0.2165374755859375,-0.046539306640625
1772562142658741200,9.0247412109375,-0.97430419921875,-0.217132568359375,-0.0457305908203125
1772562142668724200,9.03472412109375,-0.9747467041015625,-0.2166290283203125,-0.0461273193359375
1772562142678706200,9.0447060546875,-0.9737396240234375,-0.21478271484375,-0.04547119140625
1772562142688689200,9.054689208984374,-0.97247314453125,-0.21429443359375,-0.04522705078125
1772562142698671400,9.06467138671875,-0.9744110107421875,-0.21435546875,-0.0455780029296875
1772562142708654000,9.074654052734376,-0.97607421875,-0.2141571044921875,-0.0450897216796875
1772562142718636300,9.08463623046875,-0.9748077392578125,-0.21441650390625,-0.0468597412109375
1772562142728619300,9.094619384765625,-0.9688262939453125,-0.2137603759765625,-0.0479736328125
1772562142738601200,9.104601318359375,-0.9695892333984375,-0.21246337890625,-0.0482177734375
1772562142748584200,9.114584228515625,-0.97308349609375,-0.214752197265625,-0.0500640869140625
1772562142758566400,9.12456640625,-0.9749755859375,-0.2164306640625,-0.0480804443359375
1772562142768549000,9.134549072265624,-0.9728240966796875,-0.216461181640625,-0.045684814453125
1772562142778530300,9.1445302734375,-0.971588134765625,-0.2145843505859375,-0.0447845458984375
1772562142788513300,9.15451318359375,-0.9712677001953125,-0.2141265869140625,-0.0457763671875
1772562142798495200,9.1644951171875,-0.971588134765625,-0.2145538330078125,-0.0457916259765625
1772562142808478500,9.174478515625,-0.9739837646484375,-0.213470458984375,-0.0451202392578125
1772562142818460200,9.184460205078125,-0.97479248046875,-0.213775634765625,-0.0465850830078125
1772562142828443400,9.194443359375,-0.9774169921875,-0.21380615234375,-0.04766845703125
1772562142838425000,9.204425048828124,-0.976898193359375,-0.21368408203125,-0.047882080078125
1772562142848408300,9.214408203125,-0.97601318359375,-0.2154998779296875,-0.048736572265625
1772562142858390300,9.224390380859376,-0.976806640625,-0.2158355712890625,-0.0484161376953125
1772562142868372200,9.234372314453125,-0.9771728515625,-0.216705322265625,-0.046844482421875
1772562142878355200,9.244355224609375,-0.97686767578125,-0.2164154052734375,-0.0460205078125
1772562142888337200,9.254337158203125,-0.9753265380859375,-0.21551513671875,-0.046234130859375
1772562142898320100,9.264320068359375,-0.974578857421875,-0.21563720703125,-0.044769287109375
1772562142908302300,9.27430224609375,-0.975250244140625,-0.214996337890625,-0.0437774658203125
1772562142918285000,9.28428515625,-0.97503662109375,-0.214569091796875,-0.045196533203125
1772562142928267300,9.294267333984376,-0.97540283203125,-0.2132720947265625,-0.0432586669921875
1772562142938250200,9.304250244140626,-0.9760589599609375,-0.2145843505859375,-0.0441741943359375
1772562142948232200,9.314232177734375,-0.973388671875,-0.213348388671875,-0.0473480224609375
1772562142958215200,9.324215087890625,-0.9741058349609375,-0.213043212890625,-0.0477294921875
1772562142968197400,9.334197265625,-0.97607421875,-0.214019775390625,-0.0469207763671875
1772562142978180000,9.34418017578125,-0.9749603271484375,-0.2141571044921875,-0.0473480224609375
1772562142988162300,9.354162353515624,-0.9752197265625,-0.2130126953125,-0.04833984375
1772562142998145300,9.364145263671874,-0.9741973876953125,-0.2111053466796875,-0.04949951171875
1772562143008127200,9.374127197265626,-0.9713592529296875,-0.2129669189453125,-0.0501556396484375
1772562143018110200,9.384110107421876,-0.970947265625,-0.2124176025390625,-0.0499114990234375
1772562143028092200,9.394092041015625,-0.971282958984375,-0.211517333984375,-0.0469512939453125
1772562143038075100,9.4040751953125,-0.973114013671875,-0.2102508544921875,-0.0462799072265625
1772562143048057300,9.414057373046875,-0.97442626953125,-0.2125244140625,-0.0481414794921875
1772562143058040000,9.4240400390625,-0.973785400390625,-0.2122802734375,-0.0472869873046875
1772562143068022300,9.434022216796874,-0.973480224609375,-0.2100677490234375,-0.0462799072265625
1772562143078005200,9.444005126953124,-0.973602294921875,-0.2103118896484375,-0.0470123291015625
1772562143087987200,9.4539873046875,-0.9745025634765625,-0.212310791015625,-0.046356201171875
1772562143097970200,9.46397021484375,-0.975067138671875,-0.2125701904296875,-0.0435333251953125
1772562143107952400,9.473952392578125,-0.971954345703125,-0.2090606689453125,-0.0417022705078125
1772562143117935000,9.48393505859375,-0.97039794921875,-0.206390380859375,-0.040130615234375
1772562143127917300,9.493917236328125,-0.97906494140625,-0.2062225341796875,-0.042877197265625
1772562143137900300,9.503900390625,-0.9789276123046875,-0.210723876953125,-0.04315185546875
1772562143147882200,9.51388232421875,-0.9774932861328125,-0.2115936279296875,-0.0413818359375
1772562143157864400,9.523864501953126,-0.9767913818359375,-0.209564208984375,-0.0430755615234375
1772562143167847200,9.53384716796875,-0.9770965576171875,-0.2095184326171875,-0.046234130859375
1772562143177829400,9.543829345703125,-0.974822998046875,-0.21026611328125,-0.047882080078125
1772562143187812400,9.553812255859375,-0.974273681640625,-0.21160888671875,-0.0476226806640625
1772562143197794300,9.563794189453125,-0.975067138671875,-0.2122344970703125,-0.0467071533203125
1772562143207777300,9.57377734375,-0.976959228515625,-0.211181640625,-0.04376220703125
1772562143217759200,9.58375927734375,-0.9773406982421875,-0.2091217041015625,-0.045013427734375
1772562143227742200,9.5937421875,-0.9753570556640625,-0.207733154296875,-0.04632568359375
1772562143237724400,9.603724365234376,-0.975006103515625,-0.2078857421875,-0.0443878173828125
1772562143247707100,9.61370703125,-0.977081298828125,-0.208465576171875,-0.0437774658203125
1772562143257689300,9.623689453125,-0.977935791015625,-0.2087860107421875,-0.0443115234375
1772562143267672300,9.63367236328125,-0.9775848388671875,-0.20855712890625,-0.0429229736328125
1772562143277654300,9.643654296875,-0.9781036376953125,-0.209259033203125,-0.04302978515625
1772562143287637200,9.65363720703125,-0.97564697265625,-0.208343505859375,-0.0432891845703125
1772562143297619500,9.663619384765624,-0.9765472412109375,-0.20697021484375,-0.0417022705078125
1772562143307602200,9.673602294921874,-0.977996826171875,-0.2064971923828125,-0.0408782958984375
1772562143317584400,9.68358447265625,-0.9737701416015625,-0.206878662109375,-0.0416259765625
1772562143327567400,9.6935673828125,-0.9716644287109375,-0.2061767578125,-0.0404815673828125
1772562143337549300,9.70354931640625,-0.972564697265625,-0.2052001953125,-0.038726806640625
1772562143347532300,9.7135322265625,-0.972900390625,-0.2050628662109375,-0.04095458984375
1772562143357514200,9.72351416015625,-0.97332763671875,-0.2057647705078125,-0.0422821044921875
1772562143367497200,9.733497314453125,-0.973663330078125,-0.2063751220703125,-0.0413360595703125
1772562143377479400,9.7434794921875,-0.9773101806640625,-0.20709228515625,-0.0394744873046875
1772562143387462100,9.753462158203124,-0.9795074462890625,-0.20758056640625,-0.0406036376953125
1772562143397444400,9.7634443359375,-0.9764404296875,-0.204620361328125,-0.0415191650390625
1772562143407427300,9.77342724609375,-0.9749603271484375,-0.202484130859375,-0.043060302734375
1772562143417409300,9.7834091796875,-0.974884033203125,-0.20263671875,-0.0438079833984375
1772562143427392300,9.793392333984375,-0.975494384765625,-0.203582763671875,-0.0444183349609375
1772562143437374500,9.80337451171875,-0.977294921875,-0.2039794921875,-0.0477142333984375
1772562143447357200,9.813357177734375,-0.9767608642578125,-0.2044677734375,-0.047698974609375
1772562143457339400,9.82333935546875,-0.9753875732421875,-0.2052154541015625,-0.047088623046875
1772562143467321000,9.833321044921876,-0.9774627685546875,-0.2055511474609375,-0.046295166015625
1772562143477304300,9.84330419921875,-0.9811248779296875,-0.207122802734375,-0.0453033447265625
1772562143487286300,9.853286376953125,-0.977630615234375,-0.2062530517578125,-0.0443115234375
1772562143497269200,9.863269287109375,-0.975189208984375,-0.2051849365234375,-0.0422515869140625
1772562143507251200,9.873251220703125,-0.9755096435546875,-0.2053375244140625,-0.0418243408203125
1772562143517234400,9.883234375,-0.9770965576171875,-0.207733154296875,-0.0432586669921875
1772562143527216000,9.893216064453124,-0.9768524169921875,-0.20855712890625,-0.042266845703125
1772562143537199400,9.903199462890624,-0.974212646484375,-0.208465576171875,-0.0414276123046875
1772562143547181000,9.91318115234375,-0.9734344482421875,-0.209564208984375,-0.0428009033203125
1772562143557164300,9.923164306640626,-0.9741973876953125,-0.2093353271484375,-0.042633056640625
1772562143567146200,9.933146240234375,-0.9773712158203125,-0.208770751953125,-0.042205810546875
1772562143577129200,9.943129150390625,-0.9788970947265625,-0.2078094482421875,-0.0416259765625
1772562143587111200,9.953111083984375,-0.978973388671875,-0.2070159912109375,-0.042510986328125
1772562143597094400,9.963094482421875,-0.9789581298828125,-0.205963134765625,-0.0431060791015625
1772562143607076000,9.973076171875,-0.979583740234375,-0.2056884765625,-0.0450439453125
1772562143617059300,9.983059326171874,-0.97955322265625,-0.2049407958984375,-0.047210693359375
1772562143627041300,9.993041259765626,-0.9767608642578125,-0.2034759521484375,-0.0469818115234375
1772562143637024300,10.003024169921876,-0.977996826171875,-0.2041168212890625,-0.047760009765625
1772562143647006200,10.013006103515625,-0.977264404296875,-0.2053985595703125,-0.0457916259765625
1772562143656989400,10.022989501953125,-0.9743194580078125,-0.2054901123046875,-0.0452880859375
1772562143666971100,10.03297119140625,-0.974853515625,-0.203521728515625,-0.0452423095703125
1772562143676954400,10.042954345703125,-0.9759521484375,-0.2049407958984375,-0.0444793701171875
1772562143686936000,10.05293603515625,-0.975494384765625,-0.2060699462890625,-0.041961669921875
1772562143696919300,10.062919189453124,-0.973541259765625,-0.2059478759765625,-0.040008544921875
1772562143706901200,10.0729013671875,-0.973052978515625,-0.2047119140625,-0.040435791015625
1772562143716884200,10.08288427734375,-0.976104736328125,-0.2046966552734375,-0.039642333984375
1772562143726866200,10.0928662109375,-0.9765472412109375,-0.2045135498046875,-0.03997802734375
1772562143736849400,10.102849365234375,-0.976776123046875,-0.2051239013671875,-0.039459228515625
1772562143746831000,10.1128310546875,-0.97821044921875,-0.2047576904296875,-0.0403594970703125
1772562143756814300,10.122814453125,-0.978851318359375,-0.2068939208984375,-0.0423126220703125
1772562143766796300,10.13279638671875,-0.9773712158203125,-0.2072296142578125,-0.0442962646484375
1772562143776778200,10.1427783203125,-0.97503662109375,-0.206268310546875,-0.0471038818359375
1772562143786761000,10.152760986328126,-0.975189208984375,-0.2060394287109375,-0.0493927001953125
1772562143796743200,10.1627431640625,-0.9775390625,-0.2066802978515625,-0.0486297607421875
1772562143806726100,10.17272607421875,-0.979095458984375,-0.207000732421875,-0.045806884765625
1772562143816708000,10.1827080078125,-0.9789276123046875,-0.2069549560546875,-0.044342041015625
1772562143826691000,10.192691162109375,-0.9803619384765625,-0.2050018310546875,-0.0446319580078125
1772562143836673000,10.202673095703124,-0.9793853759765625,-0.2062835693359375,-0.0431671142578125
1772562143846656000,10.212656005859374,-0.9794769287109375,-0.20745849609375,-0.042694091796875
1772562143856638200,10.22263818359375,-0.9775390625,-0.2068328857421875,-0.0425567626953125
1772562143866621000,10.232620849609376,-0.9774932861328125,-0.2060394287109375,-0.042572021484375
1772562143876603100,10.24260302734375,-0.9787750244140625,-0.2054290771484375,-0.041290283203125
1772562143886586000,10.252586181640625,-0.9778900146484375,-0.2064361572265625,-0.0423431396484375
1772562143896568000,10.262568115234375,-0.9743499755859375,-0.2059478759765625,-0.0424346923828125
1772562143906551000,10.272551025390625,-0.9750213623046875,-0.20361328125,-0.0430145263671875
1772562143916533200,10.282533203125,-0.975799560546875,-0.205078125,-0.0443878173828125
1772562143926516000,10.292515869140624,-0.976348876953125,-0.2071685791015625,-0.0423736572265625
1772562143936498200,10.302498291015626,-0.975921630859375,-0.205718994140625,-0.0424346923828125
1772562143946481200,10.312481201171876,-0.974151611328125,-0.204864501953125,-0.0450592041015625
1772562143956463000,10.322463134765625,-0.9739227294921875,-0.2043914794921875,-0.0458831787109375
1772562143966446000,10.332446044921875,-0.9758453369140625,-0.20428466796875,-0.0454864501953125
1772562143976428000,10.342427978515625,-0.97821044921875,-0.2054901123046875,-0.045440673828125
1772562143986411000,10.352410888671875,-0.9797821044921875,-0.205078125,-0.04345703125
1772562143996393200,10.362393310546874,-0.980010986328125,-0.204193115234375,-0.04254150390625
1772562144006376000,10.3723759765625,-0.9800872802734375,-0.203857421875,-0.0445404052734375
1772562144016358100,10.382358154296876,-0.9761199951171875,-0.2027435302734375,-0.0455780029296875
1772562144026341000,10.392341064453126,-0.9754638671875,-0.2027130126953125,-0.0435791015625
1772562144036323000,10.402322998046875,-0.9765167236328125,-0.2038116455078125,-0.0476531982421875
1772562144046306000,10.41230615234375,-0.976470947265625,-0.20477294921875,-0.047607421875
1772562144056288000,10.4222880859375,-0.9771575927734375,-0.204315185546875,-0.046417236328125
1772562144066271000,10.43227099609375,-0.9770660400390625,-0.2050628662109375,-0.0481719970703125
1772562144076253200,10.442253173828124,-0.9757232666015625,-0.2053680419921875,-0.048797607421875
1772562144086235100,10.452235107421876,-0.9742889404296875,-0.204437255859375,-0.0475311279296875
1772562144096218000,10.462218017578126,-0.975921630859375,-0.204559326171875,-0.0456390380859375
1772562144106200300,10.472200439453125,-0.9779815673828125,-0.2057342529296875,-0.0434417724609375
1772562144116183000,10.48218310546875,-0.9740753173828125,-0.2046661376953125,-0.0412750244140625
1772562144126165200,10.492165283203125,-0.9742279052734375,-0.203582763671875,-0.0408782958984375
1772562144136148200,10.502148193359375,-0.974884033203125,-0.204193115234375,-0.0425872802734375
1772562144146130200,10.512130126953124,-0.9744873046875,-0.2048187255859375,-0.04248046875
1772562144156113200,10.522113037109374,-0.9768829345703125,-0.2042999267578125,-0.0420684814453125
1772562144166095000,10.53209521484375,-0.979278564453125,-0.2045135498046875,-0.0419464111328125
1772562144176078000,10.542078125,-0.980133056640625,-0.2063140869140625,-0.0427398681640625
1772562144186060300,10.552060302734375,-0.9784393310546875,-0.2047119140625,-0.042236328125
1772562144196043000,10.56204296875,-0.9796905517578125,-0.2030181884765625,-0.0410614013671875
1772562144206025200,10.572025146484375,-0.9797515869140625,-0.20428466796875,-0.044281005859375
1772562144216008200,10.58200830078125,-0.9763031005859375,-0.206085205078125,-0.0463714599609375
1772562144225990100,10.591990234375,-0.975067138671875,-0.204620361328125,-0.04681396484375
1772562144235973000,10.60197314453125,-0.97662353515625,-0.2035369873046875,-0.0462646484375
1772562144245955300,10.611955322265626,-0.9767303466796875,-0.20501708984375,-0.045867919921875
1772562144255938000,10.62193798828125,-0.9758148193359375,-0.2058258056640625,-0.04541015625
1772562144265920300,10.631920166015625,-0.973236083984375,-0.20538330078125,-0.0452117919921875
1772562144275903200,10.6419033203125,-0.97308349609375,-0.203948974609375,-0.0440826416015625
1772562144285885200,10.65188525390625,-0.9751129150390625,-0.2034149169921875,-0.0431976318359375
1772562144295868200,10.6618681640625,-0.9765625,-0.2035064697265625,-0.0404205322265625
1772562144305850000,10.67185009765625,-0.9763641357421875,-0.2035980224609375,-0.040069580078125
1772562144315833000,10.6818330078125,-0.976318359375,-0.2025299072265625,-0.040191650390625
1772562144325815300,10.691815185546876,-0.975189208984375,-0.2017974853515625,-0.04132080078125
1772562144335798000,10.701798095703126,-0.9763336181640625,-0.202545166015625,-0.04278564453125
1772562144345780200,10.7117802734375,-0.9770050048828125,-0.203826904296875,-0.0435333251953125
1772562144355763200,10.72176318359375,-0.984130859375,-0.2039947509765625,-0.04168701171875
1772562144365745200,10.7317451171875,-0.985321044921875,-0.2047882080078125,-0.0426483154296875
1772562144375728000,10.74172802734375,-0.9779205322265625,-0.2053375244140625,-0.043548583984375
1772562144385710000,10.7517099609375,-0.97296142578125,-0.2045135498046875,-0.0466156005859375
1772562144395692000,10.761692138671876,-0.9727783203125,-0.204559326171875,-0.0470733642578125
1772562144405675300,10.77167529296875,-0.9715118408203125,-0.20599365234375,-0.049591064453125
1772562144415657000,10.781656982421875,-0.9733123779296875,-0.2046051025390625,-0.047882080078125
1772562144425640200,10.79164013671875,-0.9797210693359375,-0.2037811279296875,-0.0447235107421875
1772562144435622100,10.8016220703125,-0.9812164306640625,-0.2049407958984375,-0.04400634765625
1772562144445605000,10.811605224609375,-0.98193359375,-0.205169677734375,-0.0434722900390625
1772562144455587000,10.821587158203124,-0.9807586669921875,-0.206329345703125,-0.043060302734375
1772562144465570300,10.8315703125,-0.976226806640625,-0.2053070068359375,-0.0422210693359375
1772562144475552000,10.841552001953126,-0.97650146484375,-0.204681396484375,-0.042327880859375
1772562144485535200,10.85153515625,-0.977264404296875,-0.20538330078125,-0.0407257080078125
1772562144495517000,10.861516845703125,-0.976898193359375,-0.20501708984375,-0.0412445068359375
1772562144505500200,10.871500244140625,-0.9767303466796875,-0.202789306640625,-0.0405426025390625
1772562144515482000,10.881482177734375,-0.9775238037109375,-0.202178955078125,-0.0404510498046875
1772562144525465000,10.891465087890625,-0.979217529296875,-0.20147705078125,-0.0412445068359375
1772562144535447000,10.901447021484374,-0.9804534912109375,-0.2027740478515625,-0.0422821044921875
1772562144545430300,10.91143017578125,-0.9788818359375,-0.2035064697265625,-0.0432281494140625
1772562144555412000,10.921411865234376,-0.9753875732421875,-0.202880859375,-0.0445709228515625
1772562144565395200,10.931395263671876,-0.974884033203125,-0.201324462890625,-0.0454864501953125
1772562144575377200,10.941377197265625,-0.97467041015625,-0.2012939453125,-0.0462799072265625
1772562144585360100,10.951360107421875,-0.975830078125,-0.2028350830078125,-0.0456085205078125
1772562144595342000,10.961342041015625,-0.976104736328125,-0.2026824951171875,-0.04278564453125
1772562144605325300,10.9713251953125,-0.977294921875,-0.202056884765625,-0.042449951171875
1772562144615307000,10.98130712890625,-0.9768218994140625,-0.2012786865234375,-0.042694091796875
1772562144625290200,10.991290283203124,-0.97650146484375,-0.2003021240234375,-0.042999267578125
1772562144635272000,11.00127197265625,-0.976104736328125,-0.20184326171875,-0.0437774658203125
1772562144645255200,11.011255126953126,-0.97650146484375,-0.201812744140625,-0.0437164306640625
1772562144655237000,11.021237060546875,-0.9775543212890625,-0.201751708984375,-0.0448760986328125
1772562144665220000,11.03122021484375,-0.97735595703125,-0.203155517578125,-0.0457305908203125
1772562144675202000,11.0412021484375,-0.9777984619140625,-0.2044830322265625,-0.0449981689453125
1772562144685185300,11.051185302734375,-0.9792938232421875,-0.205810546875,-0.044647216796875
1772562144695167000,11.0611669921875,-0.9776153564453125,-0.20599365234375,-0.0465545654296875
1772562144705150200,11.071150146484374,-0.97747802734375,-0.205596923828125,-0.0461578369140625
1772562144715132000,11.0811318359375,-0.9762115478515625,-0.205596923828125,-0.044036865234375
1772562144725114000,11.091114013671875,-0.975921630859375,-0.20733642578125,-0.0433807373046875
1772562144735097000,11.10109716796875,-0.9773712158203125,-0.206787109375,-0.041046142578125
1772562144745079000,11.1110791015625,-0.97857666015625,-0.2061309814453125,-0.0400848388671875
1772562144755062000,11.12106201171875,-0.9783477783203125,-0.2047882080078125,-0.0389251708984375
1772562144765044200,11.131044189453124,-0.977935791015625,-0.2024078369140625,-0.0375823974609375
1772562144775027500,11.14102734375,-0.9774017333984375,-0.198455810546875,-0.037841796875
1772562144785009400,11.151009521484376,-0.9810943603515625,-0.201385498046875,-0.0445556640625
1772562144794992400,11.160992431640626,-0.979095458984375,-0.2082061767578125,-0.0415191650390625
1772562144804974600,11.170974609375,-0.977569580078125,-0.2056121826171875,-0.0395050048828125
1772562144814957300,11.180957275390625,-0.977508544921875,-0.2035675048828125,-0.0417327880859375
1772562144824939500,11.190939453125,-0.9759674072265625,-0.20379638671875,-0.0424041748046875
1772562144834922500,11.200922607421875,-0.9748077392578125,-0.2013702392578125,-0.0412139892578125
1772562144844904400,11.210904541015625,-0.974456787109375,-0.2014617919921875,-0.0440521240234375
1772562144854887400,11.220887451171874,-0.97601318359375,-0.202117919921875,-0.046600341796875
1772562144864869600,11.23086962890625,-0.978668212890625,-0.20159912109375,-0.0452728271484375
1772562144874852400,11.240852294921876,-0.9780731201171875,-0.2028350830078125,-0.0455169677734375
1772562144884834600,11.25083447265625,-0.976806640625,-0.2040863037109375,-0.045074462890625
1772562144894817500,11.260817626953125,-0.975860595703125,-0.2016143798828125,-0.044219970703125
1772562144904799500,11.270799560546875,-0.9754638671875,-0.201385498046875,-0.0439453125
1772562144914782500,11.280782470703125,-0.975372314453125,-0.2023468017578125,-0.042449951171875
1772562144924764400,11.290764404296874,-0.9761962890625,-0.2029266357421875,-0.0406494140625
1772562144934747400,11.300747314453124,-0.974029541015625,-0.2042236328125,-0.0426177978515625
1772562144944729600,11.3107294921875,-0.9735107421875,-0.2023773193359375,-0.041168212890625
1772562144954712300,11.32071240234375,-0.9727020263671875,-0.200347900390625,-0.03900146484375
1772562144964694500,11.330694580078125,-0.975494384765625,-0.19879150390625,-0.039398193359375
1772562144974677500,11.340677490234375,-0.9799652099609375,-0.1998291015625,-0.0399017333984375
1772562144984659500,11.350659423828125,-0.98211669921875,-0.2030487060546875,-0.03997802734375
1772562144994642400,11.360642333984375,-0.9808349609375,-0.203826904296875,-0.04266357421875
1772562145004624600,11.370624755859374,-0.978973388671875,-0.203125,-0.045013427734375
1772562145014607400,11.380607421875,-0.97528076171875,-0.202606201171875,-0.0466766357421875
1772562145024589600,11.390589599609376,-0.9733734130859375,-0.203521728515625,-0.0473480224609375
1772562145034572500,11.400572509765626,-0.9743804931640625,-0.203643798828125,-0.046539306640625
1772562145044554500,11.410554443359375,-0.976226806640625,-0.20367431640625,-0.0457763671875
1772562145054536700,11.42053662109375,-0.978271484375,-0.203643798828125,-0.044342041015625
1772562145064519400,11.43051953125,-0.9812469482421875,-0.2044677734375,-0.0435028076171875
1772562145074501600,11.440501708984375,-0.980499267578125,-0.20550537109375,-0.0435028076171875
1772562145084484600,11.450484619140624,-0.9801025390625,-0.20391845703125,-0.0411834716796875
1772562145094466600,11.460466552734376,-0.9808349609375,-0.204254150390625,-0.040069580078125
1772562145104449500,11.470449462890626,-0.978912353515625,-0.203948974609375,-0.041107177734375
1772562145114431500,11.480431396484375,-0.977996826171875,-0.203125,-0.0394439697265625
1772562145124414500,11.49041455078125,-0.9757232666015625,-0.203887939453125,-0.0422821044921875
1772562145134396700,11.500396728515625,-0.97540283203125,-0.2029876708984375,-0.04071044921875
1772562145144379400,11.51037939453125,-0.977264404296875,-0.202178955078125,-0.0401611328125
1772562145154361600,11.520361572265625,-0.9773101806640625,-0.20404052734375,-0.0406036376953125
1772562145164344600,11.530344482421874,-0.9785614013671875,-0.2042999267578125,-0.04150390625
1772562145174326500,11.540326416015626,-0.9756317138671875,-0.2029876708984375,-0.0420989990234375
1772562145184309500,11.5503095703125,-0.9736785888671875,-0.2011871337890625,-0.0428009033203125
1772562145194291700,11.560291748046875,-0.973541259765625,-0.2006072998046875,-0.0448455810546875
1772562145204274400,11.5702744140625,-0.9746856689453125,-0.200531005859375,-0.0438079833984375
1772562145214256600,11.580256591796875,-0.9759979248046875,-0.203216552734375,-0.0437164306640625
1772562145224239600,11.590239501953125,-0.968963623046875,-0.2014617919921875,-0.0452117919921875
1772562145234221600,11.6002216796875,-0.9765167236328125,-0.1994476318359375,-0.040313720703125
1772562145244204500,11.61020458984375,-0.9864044189453125,-0.2030029296875,-0.042236328125
1772562145254186500,11.6201865234375,-0.982330322265625,-0.202423095703125,-0.0416412353515625
1772562145264169500,11.63016943359375,-0.9816436767578125,-0.1999053955078125,-0.04302978515625
1772562145274151700,11.640151611328125,-0.97216796875,-0.1989898681640625,-0.0440521240234375
1772562145284134400,11.650134521484375,-0.97796630859375,-0.2005157470703125,-0.0435028076171875
1772562145294116600,11.66011669921875,-0.97564697265625,-0.20556640625,-0.050262451171875
1772562145304099600,11.670099609375,-0.96478271484375,-0.2002105712890625,-0.04681396484375
1772562145314081500,11.68008154296875,-0.9740142822265625,-0.201080322265625,-0.0398406982421875
1772562145324064500,11.690064453125,-0.969635009765625,-0.2053070068359375,-0.0412139892578125
1772562145334046700,11.700046630859376,-0.9782867431640625,-0.20330810546875,-0.037384033203125
1772562145344029400,11.710029541015626,-0.980712890625,-0.2057037353515625,-0.0407562255859375
1772562145354011600,11.72001171875,-0.9789276123046875,-0.20684814453125,-0.040924072265625
1772562145363994600,11.72999462890625,-0.9808349609375,-0.2052764892578125,-0.0396575927734375
1772562145373976600,11.7399765625,-0.9804840087890625,-0.2042388916015625,-0.0402374267578125
1772562145383958500,11.74995849609375,-0.9821929931640625,-0.2071380615234375,-0.037078857421875
1772562145393941500,11.75994140625,-0.988372802734375,-0.2084197998046875,-0.0357666015625
1772562145403923500,11.76992333984375,-0.9948883056640625,-0.2069244384765625,-0.036529541015625
1772562145413906700,11.77990673828125,-0.99432373046875,-0.207916259765625,-0.0337677001953125
1772562145423888400,11.789888427734375,-0.9883880615234375,-0.2080230712890625,-0.037750244140625
