time,seconds_elapsed,z,y,x
1772562133704457700,0.070457763671875,0.10143288224935532,0.22847072780132294,-0.18625110387802124
1772562133714439700,0.080439697265625,0.09295444190502167,0.22614312171936035,-0.15000973641872406
1772562133724421600,0.090421630859375,0.08691971749067307,0.23759125173091888,-0.10498899966478348
1772562133734404900,0.10040478515625,0.08586430549621582,0.25752341747283936,-0.05492902919650078
1772562133744386600,0.110386474609375,0.08774609863758087,0.2884746789932251,-0.02798289805650711
1772562133754369800,0.120369873046875,0.09701496362686157,0.30723050236701965,-0.01623649336397648
1772562133764352000,0.13035205078125,0.1076311245560646,0.3222893476486206,-0.024634506553411484
1772562133774335000,0.1403349609375,0.11540248990058899,0.32065844535827637,-0.04433470591902733
1772562133784317000,0.15031689453125,0.12319090962409973,0.29350778460502625,-0.07274584472179413
1772562133794300200,0.160300048828125,0.12535978853702545,0.2493605613708496,-0.10487315058708191
1772562133804281900,0.17028173828125,0.1216750368475914,0.20707036554813385,-0.12215840071439743
1772562133814265000,0.18026513671875,0.1102125272154808,0.14535187184810638,-0.14159707725048065
1772562133824246800,0.190246826171875,0.11068576574325562,0.05468987673521042,-0.14866910874843597
1772562133834230000,0.20022998046875,0.11215343326330185,-0.03308285027742386,-0.1506877839565277
1772562133844212000,0.2102119140625,0.10907083004713058,-0.09629377722740173,-0.1433023065328598
1772562133854195000,0.22019482421875,0.10580898821353912,-0.11197526752948761,-0.13935230672359467
1772562133864177000,0.230177001953125,0.10083074122667313,-0.11102824658155441,-0.13827557861804962
1772562133874160000,0.24016015625,0.09809833765029907,-0.10435010492801666,-0.10464917868375778
1772562133884141800,0.250141845703125,0.08677138388156891,-0.09310091286897659,-0.03996392711997032
1772562133894125000,0.260125,0.07233890891075134,-0.07769425958395004,0.023070165887475014
1772562133904107000,0.27010693359375,0.06473612040281296,-0.05542144551873207,0.07269870489835739
1772562133914090000,0.280090087890625,0.0698307454586029,-0.028017252683639526,0.10847108066082001
1772562133924072000,0.290072021484375,0.07124888151884079,0.012059326283633709,0.12221432477235794
1772562133934054000,0.300053955078125,0.06621789932250977,0.0381322056055069,0.11476333439350128
1772562133944036900,0.310036865234375,0.06579339504241943,0.04501647502183914,0.08876156061887741
1772562133954019000,0.32001904296875,0.05643478035926819,0.029881466180086136,0.07031437754631042
1772562133964001800,0.330001708984375,0.05305575951933861,0.014348046854138374,0.05783000960946083
1772562133973984000,0.33998388671875,0.04475229233503342,0.0006002765148878098,0.05717833340167999
1772562133983967000,0.349967041015625,0.03320588916540146,-0.006823285017162561,0.05650562047958374
1772562133993949000,0.359948974609375,0.0359039381146431,-0.019149726256728172,-0.03536704555153847
1772562134003932000,0.369931884765625,0.004935103934258223,0.0778426006436348,-0.015254853293299675
1772562134013914000,0.3799140625,-0.01830097660422325,0.036082372069358826,-0.023497335612773895
1772562134023896800,0.389896728515625,-0.02658846788108349,0.033784862607717514,-0.025052888318896294
1772562134033879000,0.399879150390625,-0.02539750188589096,0.02370532974600792,-0.021470937877893448
1772562134043862000,0.409862060546875,-0.027091804891824722,-0.0010106696281582117,-0.022954052314162254
1772562134053844000,0.419843994140625,-0.02774161659181118,-0.023143136873841286,-0.02287442237138748
1772562134063827000,0.429826904296875,-0.03467888385057449,-0.03747466951608658,-0.017495902255177498
1772562134073809000,0.439808837890625,-0.04089949652552605,-0.050876498222351074,-0.012165320105850697
1772562134083792000,0.4497919921875,-0.047451939433813095,-0.06478112936019897,-0.006956709548830986
1772562134093774000,0.459774169921875,-0.05031749978661537,-0.07787668704986572,-0.005599562544375658
1772562134103756800,0.4697568359375,-0.042746398597955704,-0.08223042637109756,0.0008490157779306173
1772562134113739000,0.479739013671875,-0.03472016379237175,-0.08388903737068176,0.006622748915106058
1772562134123721000,0.489720947265625,-0.02660205028951168,-0.09395472705364227,0.0020543625578284264
1772562134133704000,0.499703857421875,-0.020140422508120537,-0.09912765026092529,-0.0038685076870024204
1772562134143686100,0.50968603515625,-0.013676131144165993,-0.10566544532775879,-0.005392901133745909
1772562134153668900,0.5196689453125,-0.011226555332541466,-0.11528690904378891,-0.011529090814292431
1772562134163651000,0.529651123046875,-0.009004147723317146,-0.12572863698005676,-0.012723784893751144
1772562134173634000,0.539634033203125,-0.0034964641090482473,-0.12430943548679352,-0.01005076989531517
1772562134183616000,0.549615966796875,-0.004600610584020615,-0.12478214502334595,-0.014906778000295162
1772562134193599000,0.559598876953125,0.003457315731793642,-0.11383255571126938,-0.014374944381415844
1772562134203581200,0.569581298828125,0.010803911834955215,-0.10123846679925919,-0.007377754896879196
1772562134213564000,0.57956396484375,0.015748336911201477,-0.08927661925554276,-0.003819771809503436
1772562134223546000,0.589546142578125,0.020899422466754913,-0.06358350068330765,-0.007698399480432272
1772562134233529000,0.599529052734375,0.021340709179639816,-0.0335766039788723,-0.010672617703676224
1772562134243511000,0.609510986328125,0.014840997755527496,-0.009829727932810783,-0.011347996070981026
1772562134253494000,0.619493896484375,0.00896872766315937,0.0108270812779665,-0.016473514959216118
1772562134263476000,0.62947607421875,0.0008839031797833741,0.025841716676950455,-0.017292171716690063
1772562134273459000,0.639458984375,0.0007131945458240807,0.016047408804297447,-0.01696673221886158
1772562134283441200,0.649441162109375,0.008106928318738937,0.005106344819068909,-0.010441722348332405
1772562134293423900,0.659423828125,0.010760501958429813,-0.005857356358319521,-0.004547613672912121
1772562134303406000,0.669406005859375,0.009196960367262363,-0.013456420041620731,0.001255946815945208
1772562134313388000,0.679387939453125,0.012601811438798904,-0.017666611820459366,0.00018988338706549257
1772562134323371000,0.68937109375,0.013185842894017696,-0.013259612955152988,-0.006010488141328096
1772562134333353000,0.69935302734375,0.01642371341586113,-0.009793242439627647,-0.013194099068641663
1772562134343336200,0.709336181640625,0.010394850745797157,-0.000916393706575036,-0.017293503507971764
1772562134353318000,0.71931787109375,0.004400873556733131,0.0070611052215099335,-0.017830129712820053
1772562134363301000,0.729301025390625,0.00407490273937583,0.009831325151026249,-0.013377324678003788
1772562134373282800,0.73928271484375,0.00649731419980526,0.008526909165084362,-0.0024378576781600714
1772562134383266000,0.74926611328125,0.00723580876365304,0.01281912624835968,0.012849751859903336
1772562134393248000,0.759248046875,0.006070675794035196,0.012116051279008389,0.028418058529496193
1772562134403231000,0.76923095703125,0.0054911719635128975,0.010003099218010902,0.034745462238788605
1772562134413213000,0.779212890625,0.006735134404152632,-0.0015699334908276796,0.038595594465732574
1772562134423196200,0.789196044921875,0.004815527703613043,-0.017656758427619934,0.034457575529813766
1772562134433177900,0.799177734375,0.006904244888573885,-0.029889188706874847,0.025462215766310692
1772562134443161000,0.8091611328125,0.007478156127035618,-0.04177940636873245,0.017943846061825752
1772562134453142800,0.819142822265625,0.007418768014758825,-0.050690341740846634,0.011379154399037361
1772562134463126000,0.8291259765625,0.00869149249047041,-0.04712170735001564,0.016927052289247513
1772562134473108000,0.83910791015625,0.0010072075529024005,-0.04032744839787483,0.023144466802477837
1772562134483091000,0.849091064453125,-0.0022266688756644726,-0.040699224919080734,0.031125694513320923
1772562134493073000,0.859072998046875,-0.007023554760962725,-0.03557344153523445,0.036307673901319504
1772562134503056100,0.86905615234375,-0.004217914305627346,-0.025189243257045746,0.04551049321889877
1772562134513037800,0.879037841796875,-0.001531850197352469,-0.007107710465788841,0.04273974150419235
1772562134523020000,0.88902001953125,-0.0005022721597924829,0.0027350664604455233,0.03369644284248352
1772562134533003000,0.8990029296875,-0.002569417702034116,0.008726646192371845,0.01780562847852707
1772562134542985000,0.90898486328125,-0.0027718180790543556,0.005942311137914658,-0.0017299894243478775
1772562134552968000,0.918968017578125,-0.000021305288100847974,-0.004604871850460768,-0.019107114523649216
1772562134562950000,0.928949951171875,0.003447728231549263,-0.009097890928387642,-0.03579235076904297
1772562134572932900,0.938932861328125,-0.0004620584368240088,-0.026885410770773888,-0.03555959090590477
1772562134582915000,0.9489150390625,-0.000990962260402739,-0.03718651831150055,-0.026024943217635155
1772562134592897800,0.958897705078125,-0.0025869945529848337,-0.04463990405201912,-0.008353004232048988
1772562134602880000,0.9688798828125,-0.0065444521605968475,-0.050514571368694305,0.0090555464848876
1772562134612863000,0.978863037109375,-0.008302404545247555,-0.04592141881585121,0.021135911345481873
1772562134622845000,0.988844970703125,-0.0075729647651314735,-0.03688504546880722,0.023693079128861427
1772562134632828000,0.998827880859375,-0.008736765943467617,-0.03309217467904091,0.0272649098187685
1772562134642810000,1.00881005859375,-0.009620402939617634,-0.025370337069034576,0.02731231413781643
1772562134652792800,1.018792724609375,-0.008584965951740742,-0.01170379389077425,0.03448979929089546
1772562134662775000,1.028775146484375,-0.009527458809316158,-0.0028365328907966614,0.04291630908846855
1772562134672758000,1.038758056640625,-0.012357333675026894,-0.001493234420195222,0.04248034954071045
1772562134682740000,1.048739990234375,-0.013170929625630379,-0.0019350528018549085,0.031383488327264786
1772562134692723000,1.058722900390625,-0.008432366885244846,-0.006302637048065662,0.01721467263996601
1772562134702705000,1.068704833984375,-0.00410499656572938,-0.006339654792100191,0.005181712564080954
1772562134712687900,1.07868798828125,-0.006417952012270689,-0.011327489279210567,-0.0038506644777953625
1772562134722670000,1.088670166015625,-0.0015190670965239406,-0.012447615154087543,-0.007930893450975418
1772562134732652800,1.09865283203125,-0.0015214639715850353,-0.0056978329084813595,-0.007095992565155029
1772562134742635000,1.108635009765625,-0.0028269453905522823,-0.013893445022404194,-0.005936984904110432
1772562134752617000,1.118616943359375,0.0003603257064241916,-0.01696433685719967,-0.005224855616688728
1772562134762601000,1.12860107421875,0.008832373656332493,-0.007429154124110937,0.0014183996245265007
1772562134772583000,1.1385830078125,0.01050377357751131,0.001784850494004786,0.00993305817246437
1772562134782566000,1.14856591796875,0.009840114042162895,0.00358807691372931,0.013735519722104073
1772562134792547800,1.1585478515625,0.008835303597152233,-0.004883704707026482,0.016017315909266472
1772562134802531000,1.168531005859375,0.008774050511419773,-0.00800333172082901,0.010294449515640736
1772562134812512800,1.1785126953125,0.011898471042513847,-0.0114984642714262,-0.0032112395856529474
1772562134822496000,1.18849609375,0.008595085702836514,-0.013531255535781384,-0.007820638827979565
1772562134832477700,1.198477783203125,0.010243848897516727,-0.017048757523298264,-0.012605540454387665
1772562134842461000,1.2084609375,0.015679361298680305,-0.01575552672147751,-0.01185266487300396
1772562134852443000,1.21844287109375,0.013043363578617573,-0.00977460015565157,-0.007906658574938774
1772562134862425900,1.22842578125,0.0073447320610284805,-0.0073173013515770435,0.0030360035598278046
1772562134872407800,1.23840771484375,0.007836617529392242,-0.008168447762727737,0.013508351519703865
1772562134882391000,1.24839111328125,0.010018013417720795,-0.004020041786134243,0.021335115656256676
1772562134892372700,1.258372802734375,0.006895190104842186,-0.005258677992969751,0.030219953507184982
1772562134902356000,1.26835595703125,0.007703726179897785,-0.0070619042962789536,0.028744297102093697
1772562134912338000,1.278337890625,0.00532605592161417,-0.00857378076761961,0.029504096135497093
1772562134922321000,1.28832080078125,0.0034855452831834555,-0.015108113177120686,0.019267437979578972
1772562134932302800,1.298302734375,0.003736414946615696,-0.02334127575159073,0.013196495361626148
1772562134942284800,1.308284912109375,0.0054826498962938786,-0.01895371824502945,0.006892526987940073
1772562134952267800,1.318267822265625,0.002088450826704502,-0.014003699645400047,0.004851746838539839
1772562134962250000,1.32825,0.003418167121708393,-0.006040848325937986,0.0032559807877987623
1772562134972232700,1.338232666015625,0.005240568425506353,0.0022865901701152325,0.0054155378602445126
1772562134982215000,1.34821484375,0.00768934516236186,0.005805424880236387,0.0034019220620393753
1772562134992198000,1.358197998046875,0.007670969236642122,0.008404137566685677,0.002981142606586218
1772562135002179800,1.368179931640625,0.006870422977954149,0.009667008183896542,0.002675145398825407
1772562135012162800,1.378162841796875,0.0036975329276174307,0.009298693388700485,-0.0011685950448736548
1772562135022144800,1.388144775390625,0.004728176165372133,0.007379885762929916,-0.002302569104358554
1772562135032127700,1.398127685546875,0.010946923866868019,-0.004014449194073677,-0.005428321193903685
1772562135042110000,1.40810986328125,0.01426362432539463,-0.012732040137052536,-0.002810966456308961
1772562135052092700,1.4180927734375,0.01631612330675125,-0.022303974255919456,0.003294063964858651
1772562135062075000,1.428074951171875,0.019045330584049225,-0.03195313736796379,0.01251206360757351
1772562135072057900,1.438057861328125,0.01980592869222164,-0.03628317266702652,0.0270108450204134
1772562135082039800,1.448039794921875,0.01720481924712658,-0.039439018815755844,0.03688664361834526
1772562135092022800,1.458022705078125,0.015678562223911285,-0.03267272561788559,0.04134717211127281
1772562135102005000,1.4680048828125,0.01432327926158905,-0.027784492820501328,0.037158552557229996
1772562135111987700,1.47798779296875,0.014462828636169434,-0.01738857664167881,0.0376317985355854
1772562135121970000,1.487969970703125,0.012643356807529926,-0.011457185260951519,0.035886362195014954
1772562135131953000,1.497952880859375,0.012016981840133667,-0.009971673600375652,0.034145187586545944
1772562135141934800,1.507934814453125,0.00782782956957817,-0.005440305452793837,0.028422586619853973
1772562135151917000,1.5179169921875,0.006833937484771013,-0.005410477984696627,0.021561218425631523
1772562135161899800,1.527899658203125,0.005818740464746952,-0.0070278155617415905,0.016599483788013458
1772562135171882000,1.537882080078125,0.004868524614721537,-0.011658254079520702,0.011725098825991154
1772562135181865000,1.547864990234375,0.00418355967849493,-0.015264173969626427,0.019296731799840927
1772562135191847000,1.557846923828125,0.0021315941121429205,-0.013136841356754303,0.030841268599033356
1772562135201830000,1.567829833984375,0.0002623213513288647,-0.017768610268831253,0.04440980777144432
1772562135211812000,1.57781201171875,0.001669269404374063,-0.02046106569468975,0.04946315661072731
1772562135221794800,1.587794921875,0.002037051832303405,-0.018980881199240685,0.05131618306040764
1772562135231777000,1.597777099609375,0.000940095866099,-0.014838067814707756,0.05200621113181114
1772562135241760000,1.607760009765625,-0.0007233145297504961,-0.005000085104256868,0.05343446135520935
1772562135251742000,1.617741943359375,-0.0018045579781755805,0.01089552417397499,0.04999552294611931
1772562135261725000,1.627724853515625,-0.004652009811252356,0.017377391457557678,0.046291597187519073
1772562135271707000,1.637706787109375,-0.004198207054287195,0.0193723663687706,0.03344237804412842
1772562135281689900,1.64768994140625,-0.0020487697329372168,0.011751997284591198,0.018378740176558495
1772562135291672000,1.657672119140625,0.00042504051816649735,0.004559864290058613,-0.0007004113867878914
1772562135301654800,1.66765478515625,-0.00017257283616345376,-0.009781790897250175,-0.018197912722826004
1772562135311637000,1.677636962890625,0.000595216522924602,-0.0224994495511055,-0.020604610443115234
1772562135321620000,1.687619873046875,0.0012327772565186024,-0.03164847195148468,-0.01594381220638752
1772562135331602000,1.697601806640625,0.00010759170982055366,-0.038421690464019775,-0.005665076430886984
1772562135341584000,1.707583984375,-0.001175252953544259,-0.03694922849535942,0.010371148586273193
1772562135351566800,1.71756689453125,0.0026109630707651377,-0.024645425379276276,0.02652801387012005
1772562135361548800,1.727548828125,0.0002894856152124703,-0.009638778865337372,0.040106672793626785
1772562135371532000,1.737531982421875,0.0006250438746064901,-0.0021696772892028093,0.04525136947631836
1772562135381513700,1.747513671875,-0.00330311874859035,0.001936917076818645,0.04538212716579437
1772562135391497000,1.7574970703125,-0.003037335118278861,0.005567338317632675,0.03730476275086403
1772562135401479000,1.76747900390625,-0.0016141419764608145,0.005524727515876293,0.024624386802315712
1772562135411462000,1.7774619140625,-0.003489273600280285,0.0011313108261674643,0.011756790801882744
1772562135421443800,1.78744384765625,-0.0034677020739763975,-0.002238120650872588,0.005119927227497101
1772562135431427000,1.797427001953125,-0.0033787523861974478,-0.003652791725471616,0.006168679799884558
1772562135441408800,1.80740869140625,-0.0016535567119717598,-0.001145159243606031,0.010095244273543358
1772562135451392000,1.81739208984375,-0.005360144190490246,0.0040943436324596405,0.006929811555892229
1772562135461373700,1.827373779296875,-0.007649930194020271,0.005260808393359184,0.007955128327012062
1772562135471357000,1.83735693359375,-0.004279966000467539,0.0032929987646639347,0.0015691345324739814
1772562135481339000,1.8473388671875,-0.004830974154174328,-0.0009134642314165831,-0.0028905950020998716
1772562135491321900,1.85732177734375,-0.0037412086967378855,-0.0012639362830668688,-0.003819771809503436
1772562135501303800,1.8673037109375,-0.004607801325619221,-0.007509049028158188,0.0043718451634049416
1772562135511287000,1.877287109375,-0.004224838688969612,-0.010579407215118408,0.0095096156001091
1772562135521268700,1.887268798828125,-0.0010005496442317963,-0.020564131438732147,0.015340606682002544
1772562135531252000,1.897251953125,-0.0011369034182280302,-0.024179106578230858,0.015392538160085678
1772562135541234000,1.90723388671875,-0.0017931063193827868,-0.017782192677259445,0.011055047623813152
1772562135551217000,1.917216796875,-0.0019299928098917007,-0.00884915143251419,0.0026370619889348745
1772562135561198800,1.92719873046875,-0.0036221654154360294,-0.00794234499335289,-0.0014924354618415236
1772562135571180800,1.937180908203125,-0.0022477079182863235,0.002493784064427018,-0.001998702296987176
1772562135581163800,1.947163818359375,-0.005904494319111109,0.007666175253689289,-0.0016588830621913075
1772562135591146000,1.95714599609375,-0.007768440991640091,0.0001691107318038121,-0.004444282967597246
1772562135601128700,1.967128662109375,-0.004455734975636005,-0.008054197765886784,-0.004649879410862923
1772562135611111000,1.97711083984375,0.004006459377706051,-0.009861418977379799,-0.009619337506592274
1772562135621094000,1.987093994140625,0.0036602485924959183,0.0005568669876083732,-0.014093448407948017
1772562135631075800,1.997075927734375,0.0034088462125509977,0.0071066454984247684,-0.018727615475654602
1772562135641058800,2.007058837890625,0.002123604528605938,0.009967679157853127,-0.017907360568642616
1772562135651040800,2.017040771484375,-0.00025273399660363793,0.00029827404068782926,-0.02143072336912155
1772562135661023700,2.027023681640625,0.002311357529833913,-0.011079815216362476,-0.020925521850585938
1772562135671006000,2.037005859375,0.0019981698133051395,-0.02286163903772831,-0.00860201008617878
1772562135680989000,2.046989013671875,0.0031398669816553593,-0.029452962800860405,-0.0007574030314572155
1772562135690971000,2.056970947265625,0.004731105640530586,-0.03483308106660843,0.006301305256783962
1772562135700953900,2.066953857421875,0.005270129535347223,-0.03712659701704979,0.011606056243181229
1772562135710935800,2.076935791015625,0.008801214396953583,-0.03305169194936752,0.01774517446756363
1772562135720918800,2.086918701171875,0.007524761371314526,-0.019905531778931618,0.021577464416623116
1772562135730901000,2.09690087890625,0.007166033610701561,-0.009123191237449646,0.031194403767585754
1772562135740883700,2.1068837890625,0.004606735892593861,0.001517469179816544,0.03227431699633598
1772562135750866000,2.116865966796875,0.0051990230567753315,0.0004170510219410062,0.03135605901479721
1772562135760848000,2.126847900390625,0.006367351859807968,-0.002947852946817875,0.026583407074213028
1772562135770830800,2.136830810546875,0.00729386555030942,-0.0007651261985301971,0.024166323244571686
1772562135780812800,2.146812744140625,0.005234176758676767,-0.00003861583536490798,0.015043930150568485
1772562135790795800,2.156795654296875,0.0008261125767603517,-0.005935919936746359,0.011211375705897808
1772562135800777700,2.16677783203125,0.0024519723374396563,-0.01176424790173769,0.008606270886957645
1772562135810760700,2.1767607421875,0.0014349111588671803,-0.013273194432258606,0.005120193585753441
1772562135820743000,2.186742919921875,0.0019686087034642696,-0.018160361796617508,0.0036730316933244467
1772562135830725600,2.1967255859375,0.004020041786134243,-0.020128704607486725,0.007026750594377518
1772562135840707800,2.206707763671875,0.0023393207229673862,-0.025021996349096298,0.013658820651471615
1772562135850690800,2.21669091796875,0.0049276468344032764,-0.024345019832253456,0.01840910129249096
1772562135860672800,2.2266728515625,0.004807538352906704,-0.015808524563908577,0.02563132718205452
1772562135870655700,2.23665576171875,0.004287423100322485,-0.0034416031558066607,0.023792413994669914
1772562135880638000,2.246637939453125,-0.0015992282424122095,0.005096491426229477,0.020958544686436653
1772562135890620700,2.25662060546875,-0.0009643306257203221,0.007757521700114012,0.015809057280421257
1772562135900603000,2.266602783203125,0.0010064085945487022,0.002998719457536936,0.00957006961107254
1772562135910585900,2.2765859375,0.004081827122718096,-0.0019595539197325706,0.0046301716938614845
1772562135920567800,2.28656787109375,0.0035931370221078396,-0.011568505316972733,-0.004337224178016186
1772562135930550800,2.29655078125,0.004294879734516144,-0.01799098402261734,-0.010121610015630722
1772562135940532700,2.30653271484375,0.005305815953761339,-0.022243520244956017,-0.011539743281900883
1772562135950515700,2.316515625,0.00529489666223526,-0.0365753211081028,-0.009680057875812054
1772562135960498000,2.326497802734375,0.00860573910176754,-0.03579235076904297,-0.005339904222637415
1772562135970480600,2.336480712890625,0.008203601464629173,-0.02154630422592163,0.005624596029520035
1772562135980462800,2.346462890625,0.002778742229565978,-0.0065343319438397884,0.018382202833890915
1772562135990444800,2.35644482421875,-0.0012389025650918484,0.004226170480251312,0.023617710918188095
1772562136000427800,2.366427734375,-0.0018855180824175477,0.00558118661865592,0.015157913789153099
1772562136010409700,2.37640966796875,0.0016144082183018327,0.0011400992516428232,0.009853695519268513
1772562136020393000,2.38639306640625,0.003955060616135597,0.004564125556498766,0.005881591234356165
1772562136030374700,2.396374755859375,0.001799764228053391,0.002719087526202202,0.0007177218794822693
1772562136040358000,2.40635791015625,-0.0011297129094600677,-0.00520647969096899,-0.003221093211323023
1772562136050339600,2.416339599609375,0.0018141453620046377,-0.009519468992948532,-0.0008410262526012957
1772562136060322800,2.42632275390625,0.0036040558479726315,-0.009720005095005035,0.0033153691329061985
1772562136070304800,2.4363046875,0.0012373046483844519,-0.012284362688660622,0.010091249831020832
1772562136080287700,2.446287841796875,-0.0021813951898366213,-0.009254218079149723,0.007782289292663336
1772562136090269700,2.456269775390625,-0.00019734023953787982,-0.006967894732952118,0.0012319782981649041
1772562136100253000,2.4662529296875,-0.003224289044737816,-0.01176451425999403,-0.002590989461168647
1772562136110234600,2.476234619140625,-0.005081577692180872,-0.00866059958934784,-0.00210629403591156
1772562136120217900,2.4862177734375,-0.005347627215087414,-0.006788930390030146,0.0029973878990858793
1772562136130199600,2.496199462890625,-0.003570500062778592,-0.004600876942276955,0.003934554290026426
1772562136140182800,2.506182861328125,-0.004073038697242737,-0.005030977539718151,0.009031577967107296
1772562136150164700,2.516164794921875,-0.0009946906939148903,-0.0146489841863513,0.008014783263206482
1772562136160147700,2.526147705078125,-0.003132942598313093,-0.015482553280889988,0.004602475091814995
1772562136170129700,2.536129638671875,-0.000767523015383631,-0.01053067110478878,0.0010181264951825142
1772562136180113000,2.54611279296875,-0.00478410255163908,-0.005577458068728447,-0.0022503710351884365
1772562136190094600,2.556094482421875,-0.0016325177857652307,0.006048038601875305,-0.010958109050989151
1772562136200077800,2.566077880859375,-0.001680720946751535,0.016152605414390564,-0.010354636237025261
1772562136210059800,2.576059814453125,-0.006380933802574873,0.01841362752020359,-0.009737049229443073
1772562136220041700,2.586041748046875,-0.00589703768491745,0.01187876332551241,-0.003492203075438738
1772562136230024700,2.596024658203125,-0.0020450414158403873,0.002597647253423929,0.005145759787410498
1772562136240006700,2.606006591796875,0.00027270769351162016,-0.005005144979804754,0.015365107916295528
1772562136249989600,2.61598974609375,0.00045833003241568804,-0.008301871828734875,0.01883121207356453
1772562136259971800,2.625971923828125,-0.0024594292044639587,-0.0031617048662155867,0.01672917976975441
1772562136269954600,2.63595458984375,0.002016279147937894,-0.002532399957999587,0.010103766806423664
1772562136279936800,2.645936767578125,0.0012990899849683046,-0.0014301175251603127,-0.0032501218374818563
1772562136289919700,2.655919677734375,0.0021909826900810003,-0.007046990562230349,-0.014946192502975464
1772562136299901700,2.665901611328125,0.001493234420195222,-0.017733456566929817,-0.023694677278399467
1772562136309884700,2.675884765625,0.004503671545535326,-0.023262977600097656,-0.025081384927034378
1772562136319867000,2.685866943359375,0.004704474005848169,-0.02093377709388733,-0.02094496227800846
1772562136329849600,2.695849609375,0.0070485882461071014,-0.0196706410497427,-0.01284495834261179
1772562136339831800,2.705831787109375,0.004304999951273203,-0.016200540587306023,-0.005084773525595665
1772562136349814800,2.715814697265625,0.0052229915745556355,-0.0005667206714861095,-0.0003134540456812829
1772562136359796700,2.725796630859375,0.005100485868752003,0.005511944647878408,0.003439738880842924
1772562136369779700,2.73577978515625,0.003988349810242653,0.008274974301457405,0.0012373046483844519
1772562136379761700,2.74576171875,0.006307164207100868,0.010922688990831375,0.0031936627347022295
1772562136389744600,2.75574462890625,0.005524993874132633,0.00902438722550869,-0.00017257283616345376
1772562136399726800,2.765726806640625,0.006611297372728586,0.002115082461386919,-0.0005733785801567137
1772562136409709600,2.77570947265625,0.008101335726678371,-0.0015100123127922416,-0.004367584362626076
1772562136419691800,2.78569189453125,0.009879528544843197,-0.0073015885427594185,-0.003999002743512392
1772562136429673700,2.795673828125,0.01395522989332676,-0.011450793594121933,-0.010868093930184841
1772562136439656700,2.80565673828125,0.014639928936958313,-0.01236372534185648,-0.012436163611710072
1772562136449639000,2.815638916015625,0.015277490019798279,-0.018328674137592316,-0.012074772268533707
1772562136459621600,2.82562158203125,0.01056262943893671,-0.027034547179937363,-0.011070760898292065
1772562136469603800,2.835603759765625,0.00999457761645317,-0.033738523721694946,-0.007420099340379238
1772562136479586800,2.8455869140625,0.009430252946913242,-0.026222549378871918,0.00045619948650710285
1772562136489568800,2.85556884765625,0.005362008698284626,-0.014650315046310425,0.006352704484015703
1772562136499551700,2.8655517578125,0.001674861996434629,-0.005637379363179207,0.014880944974720478
1772562136509534000,2.875533935546875,-0.0007275756215676665,0.0020538298413157463,0.016450345516204834
1772562136519516700,2.8855166015625,0.00014700648898724467,0.009350891225039959,0.012942696921527386
1772562136529499000,2.895498779296875,-0.001237571006640792,0.005548163317143917,0.005400358233600855
1772562136539481900,2.90548193359375,-0.0009864348685368896,-0.013206616044044495,-0.0031334753148257732
1772562136549463800,2.9154638671875,0.0028570392169058323,-0.024922126904129982,-0.01330035924911499
1772562136559446800,2.92544677734375,0.004627508576959372,-0.029582658782601357,-0.011173558421432972
1772562136569428700,2.9354287109375,0.001981924520805478,-0.02786731719970703,-0.004818723537027836
1772562136579411700,2.94541162109375,0.0005994775565341115,-0.02311570569872856,0.0032256206031888723
1772562136589394000,2.955393798828125,0.0006223807577043772,-0.016642626374959946,-0.0008665926288813353
1772562136599376600,2.965376708984375,-0.0032376048620790243,-0.007788414601236582,-0.0028248149901628494
1772562136609358800,2.97535888671875,-0.0005139900604262948,0.0011310444679111242,-0.008074171841144562
1772562136619341800,2.985341796875,-0.008776979520916939,0.0070858728140592575,-0.003829625668004155
1772562136629323800,2.99532373046875,-0.006388124544173479,0.00794207863509655,-0.00036511936923488975
1772562136639306800,3.005306640625,-0.005570001434534788,0.016175242140889168,0.0010157296201214194
1772562136649289000,3.0152890625,-0.007123955991119146,0.012951484881341457,0.001258343574590981
1772562136659270700,3.025270751953125,-0.008221977390348911,0.0037816886324435472,-0.0032493227627128363
1772562136669254000,3.03525390625,-0.004030960611999035,-0.00387410051189363,-0.0033715618774294853
1772562136679235600,3.045235595703125,-0.002347842790186405,-0.0029284118209034204,-0.00033156355493701994
1772562136689218800,3.05521875,-0.00589570589363575,-0.003373692510649562,-0.0042144525796175
1772562136699200800,3.06520068359375,-0.00731304008513689,-0.006258961278945208,-0.004346545320004225
1772562136709183700,3.075183837890625,-0.0065106297843158245,-0.0065532405860722065,-0.0030623688362538815
1772562136719165700,3.085165771484375,-0.005633917171508074,-0.004510595928877592,-0.0049492185935378075
1772562136729149000,3.09514892578125,-0.007710117381066084,0.0008008125587366521,-0.009428389370441437
1772562136739130600,3.105130615234375,-0.004148405976593494,0.0022082931827753782,-0.008084291592240334
1772562136749113900,3.11511376953125,-0.005287706386297941,-0.0009922938188537955,-0.004716191906481981
1772562136759095600,3.125095458984375,-0.0007158577209338546,-0.002984072081744671,-0.0016639430541545153
1772562136769078500,3.13507861328125,-0.0017755294684320688,-0.0028533106669783592,-0.004442951641976833
1772562136779060500,3.145060546875,-0.0020785972010344267,-0.00006285060226218775,0.00005166532355360687
1772562136789043500,3.15504345703125,-0.0037436054553836584,-0.0013254552613943815,-0.004577973857522011
1772562136799025400,3.165025390625,-0.00529463030397892,-0.006423544604331255,-0.009426791220903397
1772562136809008400,3.17500830078125,-0.0015065502375364304,-0.007594802882522345,-0.014251373708248138
1772562136818990600,3.184990478515625,-0.00013901700731366873,-0.010413758456707,-0.015796540305018425
1772562136828973300,3.194973388671875,-0.001142229768447578,-0.006047506351023912,-0.01757979206740856
1772562136838955500,3.20495556640625,-0.003206445835530758,-0.0062126219272613525,-0.016394419595599174
1772562136848938500,3.2149384765625,-0.0007629956235177815,-0.0031675638165324926,-0.013747237622737885
1772562136858920400,3.22492041015625,-0.002516420790925622,0.004290885291993618,-0.01034744642674923
1772562136868902400,3.23490234375,-0.004308728501200676,0.011018296703696251,-0.0035742283798754215
1772562136878885600,3.2448857421875,-0.004775314126163721,0.01384284533560276,0.0009339706157334149
1772562136888867300,3.254867431640625,-0.005989182740449905,0.012469719164073467,0.0016953683225437999
1772562136898850600,3.2648505859375,-0.005840844940394163,0.007282946724444628,0.0006655239267274737
1772562136908832300,3.274832275390625,-0.0028993834275752306,0.004829110112041235,0.0015182681381702423
1772562136918815500,3.2848154296875,-0.003919640555977821,0.003123355330899358,-0.004760400392115116
1772562136928797400,3.29479736328125,-0.007083741948008537,-0.0012996225850656629,-0.007272826507687569
1772562136938780400,3.304780517578125,-0.005409945268183947,-0.014505972154438496,-0.012010590173304081
1772562136948762400,3.314762451171875,-0.0035840822383761406,-0.030773891136050224,-0.011857192032039165
1772562136958745600,3.32474560546875,-0.0021254688035696745,-0.03876577317714691,-0.008560997433960438
1772562136968727300,3.334727294921875,0.0010673949727788568,-0.04303561896085739,-0.0003249056462664157
1772562136978710500,3.34471044921875,-0.0026671558152884245,-0.03134167566895485,0.007143929600715637
1772562136988692500,3.3546923828125,-0.005641906522214413,-0.01534859649837017,0.009252088144421577
1772562136998675500,3.364675537109375,-0.007355917245149612,0.00028868665685877204,0.010747186839580536
1772562137008657400,3.374657470703125,-0.01070697233080864,0.012650813907384872,0.004532434046268463
1772562137018640600,3.384640625,-0.012589029036462307,0.023302126675844193,-0.0032149681355804205
1772562137028622300,3.394622314453125,-0.011492338962852955,0.027896612882614136,-0.007765777874737978
1772562137038605600,3.40460546875,-0.012064918875694275,0.023988423869013786,-0.013198359869420528
1772562137048587300,3.414587158203125,-0.007514375261962414,0.019183548167347908,-0.012430038303136826
1772562137058570500,3.424570556640625,-0.005824599415063858,0.010309895500540733,-0.007407316006720066
1772562137068552400,3.434552490234375,-0.002225603675469756,0.005013933405280113,-0.0014916365034878254
1772562137078535400,3.444535400390625,-0.0032431974541395903,-0.0006191849242895842,0.010205766186118126
1772562137088517400,3.454517333984375,-0.0024857944808900356,-0.007934089750051498,0.009349026717245579
1772562137098499300,3.464499267578125,0.0015140071045607328,-0.00920441746711731,0.01073786523193121
1772562137108482300,3.474482421875,-0.000791491474956274,-0.010575679130852222,0.005512476898729801
1772562137118464500,3.484464599609375,-0.0025422535836696625,-0.016454340890049934,-0.0006716492353007197
1772562137128447200,3.494447265625,-0.0006910903030075133,-0.01654542051255703,-0.0013792511308565736
1772562137138429400,3.504429443359375,0.0018975022248923779,-0.014995194971561432,-0.0026008430868387222
1772562137148412400,3.514412353515625,0.0035292210523039103,-0.007093063089996576,0.0022120214998722076
1772562137158394400,3.524394287109375,0.004267981741577387,0.0023638217244297266,0.003254915354773402
1772562137168377300,3.53437744140625,0.003973170183598995,0.008520517498254776,0.003310841741040349
1772562137178359600,3.544359619140625,0.0029917950741946697,0.004318848252296448,-0.0037729002069681883
1772562137188342300,3.55434228515625,0.0064387246966362,-0.003344131400808692,-0.007411577273160219
1772562137198324500,3.564324462890625,0.007092264015227556,-0.009552759118378162,-0.00523790530860424
1772562137208307500,3.574307373046875,0.0037550569977611303,-0.0152588477358222,-0.0023917849175632
1772562137218289400,3.584289306640625,0.0018184063956141472,-0.019047727808356285,0.00018961707246489823
1772562137228272400,3.5942724609375,0.0009749832679517567,-0.021687718108296394,0.0030839405953884125
1772562137238254300,3.60425439453125,0.0002926813904196024,-0.017435183748602867,0.004066114313900471
1772562137248237300,3.6142373046875,0.00046845004544593394,-0.010185259394347668,0.003357979701831937
1772562137258219500,3.624219482421875,-0.0014024205738678575,-0.003641340183094144,0.0013262542197480798
1772562137268202200,3.6342021484375,-0.002974484581500292,0.0027289411518722773,0.003704723436385393
1772562137278184400,3.644184326171875,-0.002264752285555005,0.00857191625982523,-0.0008215851848945022
1772562137288167400,3.65416748046875,-0.0037180392537266016,0.007933290675282478,-0.00027031084755435586
1772562137298149400,3.6641494140625,-0.001079911831766367,0.00566827179864049,-0.005311941262334585
1772562137308132400,3.67413232421875,-0.001859419047832489,-0.0006215817993506789,-0.004719387739896774
1772562137318114600,3.684114501953125,-0.0020956413354724646,-0.007226753979921341,-0.0043619913049042225
1772562137328096500,3.694096435546875,-0.004222441930323839,-0.007310110609978437,-0.0006418218254111707
1772562137338079500,3.70407958984375,-0.0033771544694900513,-0.010697118937969208,0.0016990967560559511
1772562137348061400,3.7140615234375,-0.006687996443361044,-0.015247129835188389,-0.0012186624808236957
1772562137358044400,3.72404443359375,-0.004570250865072012,-0.013904896564781666,-0.00033342777169309556
1772562137368026400,3.7340263671875,-0.004073305055499077,-0.009227853268384933,0.002151301596313715
1772562137378009300,3.74400927734375,-0.009495500475168228,-0.0011544802691787481,0.00464615086093545
1772562137387991600,3.753991455078125,-0.00836925022304058,0.0009616674506105483,0.006130596622824669
1772562137397974500,3.763974609375,-0.011387676931917667,-0.00239151855930686,0.007545001804828644
1772562137407956500,3.77395654296875,-0.009044894017279148,-0.004662662278860807,0.011561048217117786
1772562137417939500,3.783939453125,-0.010647584684193134,-0.008563661016523838,0.008229966275393963
1772562137427921400,3.79392138671875,-0.009267534129321575,-0.01191205345094204,0.011149589903652668
1772562137437904400,3.803904296875,-0.00824807584285736,-0.015970977023243904,0.006803844124078751
1772562137447886600,3.813886474609375,-0.007839547470211983,-0.018332401290535927,0.004108192399144173
1772562137457869300,3.823869384765625,-0.00944862887263298,-0.01986691541969776,0.004649879410862923
1772562137467851500,3.8338515625,-0.008681639097630978,-0.02907479554414749,0.002501773415133357
1772562137477834500,3.84383447265625,-0.009210542775690556,-0.027524301782250404,-0.0022354573011398315
1772562137487816400,3.85381640625,-0.010460097342729568,-0.022666163742542267,-0.003171025775372982
1772562137497799400,3.86379931640625,-0.012950685806572437,-0.01636379398405552,-0.00012490226072259247
1772562137507781600,3.87378173828125,-0.014967231079936028,-0.011434015817940235,0.0027387947775423527
1772562137517764400,3.883764404296875,-0.01649428717792034,-0.011815646663308144,0.011228952556848526
1772562137527746600,3.89374658203125,-0.013954964466392994,-0.006924751214683056,0.014124607667326927
1772562137537729500,3.9037294921875,-0.010854511521756649,-0.003334810258820653,0.013570670038461685
1772562137547711500,3.91371142578125,-0.00974716991186142,-0.004402471706271172,0.01146597322076559
1772562137557693400,3.923693359375,-0.011138937436044216,-0.0019707391038537025,0.014252172783017159
1772562137567676400,3.933676513671875,-0.011256649158895016,0.0005448827287182212,0.013493970967829227
1772562137577658400,3.943658447265625,-0.011512579396367073,0.006234992761164904,0.0038546593859791756
1772562137587641600,3.9536416015625,-0.011818576604127884,-0.0004474110610317439,-0.0032322786282747984
1772562137597623300,3.963623291015625,-0.01013785507529974,-0.01170192938297987,-0.01636938564479351
1772562137607606500,3.9736064453125,-0.009428123012185097,-0.029076924547553062,-0.02304832823574543
1772562137617588500,3.98358837890625,-0.005375856999307871,-0.0389399416744709,-0.023095466196537018
1772562137627568400,3.993568359375,-0.00330205331556499,-0.03792900592088699,-0.024390827864408493
1772562137637551400,4.00355126953125,-0.007267500273883343,-0.03832715004682541,-0.01674036495387554
1772562137647533300,4.013533203125,-0.008203068748116493,-0.02562706544995308,-0.009724000468850136
1772562137657516500,4.0235166015625,-0.011900601908564568,-0.007508249953389168,-0.003931624814867973
1772562137667498200,4.033498291015625,-0.01050430629402399,0.00806431844830513,0.0005318332696333528
1772562137677481500,4.0434814453125,-0.01671799272298813,0.01384071446955204,-0.000003462109361862531
1772562137687463400,4.05346337890625,-0.014367753639817238,0.011903264559805393,0.0006362291751429439
1772562137697446400,4.0634462890625,-0.012266253121197224,0.003944141324609518,0.004388356581330299
1772562137707428400,4.073428466796875,-0.008754609152674675,-0.00544376764446497,0.00923264678567648
1772562137717411600,4.08341162109375,-0.00785632524639368,-0.014697453007102013,0.013011672534048557
1772562137727393300,4.093393310546875,-0.006714095361530781,-0.025718679651618004,0.01637311466038227
1772562137737376500,4.10337646484375,-0.002557699801400304,-0.027541613206267357,0.018917765468358994
1772562137747358200,4.113358154296875,-0.004258394706994295,-0.019044797867536545,0.019392872229218483
1772562137757341400,4.123341552734375,-0.005270395893603563,-0.015266304835677147,0.016949422657489777
1772562137767323100,4.1333232421875,-0.0027742148377001286,-0.012734703719615936,0.012121910229325294
1772562137777306400,4.143306396484375,-0.005797701422125101,-0.007920773699879646,0.005968144163489342
1772562137787288000,4.1532880859375,-0.006563626695424318,-0.005859220866113901,0.0062706791795790195
1772562137797271300,4.163271240234375,-0.005656553898006678,0.0008383630774915218,0.01420423574745655
1772562137807253200,4.173253173828125,-0.009437976405024529,0.012743225321173668,0.013383982703089714
1772562137817235200,4.183235107421875,-0.01017087884247303,0.022046979516744614,0.012032960541546345
1772562137827218200,4.19321826171875,-0.008290420286357403,0.019269036129117012,0.006073605269193649
1772562137837200100,4.2032001953125,-0.006392918061465025,0.005662945564836264,-0.005846970248967409
1772562137847183000,4.21318310546875,-0.0020061591640114784,-0.009747701697051525,-0.0075609805062413216
1772562137857165300,4.223165283203125,-0.0012567456578835845,-0.015153120271861553,-0.005377721041440964
1772562137867148300,4.233148193359375,-0.00049108691746369,-0.013449229300022125,-0.004502606578171253
1772562137877130200,4.243130126953125,-0.003762780223041773,-0.01152775902301073,-0.004226702731102705
1772562137887113200,4.25311328125,-0.00566880451515317,-0.012399145402014256,-0.0070485882461071014
1772562137897095200,4.26309521484375,-0.002957440447062254,-0.010720288380980492,-0.008706405758857727
1772562137907078100,4.273078125,-0.004555337131023407,-0.007705856580287218,-0.007851265370845795
1772562137917060400,4.283060302734375,-0.0075601814314723015,-0.007233145646750927,-0.002427737694233656
1772562137927043000,4.29304296875,-0.0023819312918931246,-0.0060344566591084,0.0012980246683582664
1772562137937025300,4.303025390625,0.0019262643763795495,-0.006536728702485561,0.00407596817240119
1772562137947008300,4.31300830078125,-0.0002561961009632796,-0.0007965514669194818,0.00276196445338428
1772562137956990200,4.322990234375,-0.0020213392563164234,0.0070611052215099335,-0.004486094694584608
1772562137966973200,4.33297314453125,-0.008047539740800858,0.009487245231866837,-0.006800381932407618
1772562137976955100,4.342955078125,-0.008465389721095562,0.007107177749276161,-0.013905162923038006
1772562137986938000,4.352938232421875,-0.011038802564144135,0.006856574676930904,-0.018792862072587013
1772562137996920300,4.36292041015625,-0.007168164476752281,0.006277603097259998,-0.019571837037801743
1772562138006903300,4.3729033203125,-0.006939132697880268,-0.0031097731553018093,-0.016150208190083504
1772562138016885200,4.38288525390625,-0.005434446502476931,-0.009290969930589199,-0.011174357496201992
1772562138026869200,4.392869140625,-0.0002311623829882592,-0.019476762041449547,-0.01569720357656479
1772562138036852500,4.4028525390625,0.0012066783383488655,-0.027308054268360138,-0.013914217241108418
1772562138046834200,4.412834228515625,0.0014362427173182368,-0.03197284787893295,-0.012082762084901333
1772562138056817400,4.4228173828125,0.004414988216012716,-0.0310500618070364,-0.015623967163264751
1772562138066799000,4.432799072265625,0.00119602563790977,-0.02321690507233143,-0.006636863574385643
1772562138076782300,4.4427822265625,0.004475442226976156,-0.02642654813826084,-0.013607688248157501
1772562138086764300,4.452764404296875,0.003162770066410303,-0.025785258039832115,-0.00996315199881792
1772562138096746200,4.462746337890625,0.007597998715937138,-0.02521800436079502,-0.0006460828590206802
1772562138106729200,4.472729248046875,0.006940730381757021,-0.018492724746465683,0.003937217406928539
1772562138116711400,4.48271142578125,0.0014748586108908057,-0.011255850084125996,0.0031883365008980036
1772562138126694100,4.492694091796875,-0.0009347695158794522,-0.0006492786924354732,-0.004550809506326914
1772562138136676400,4.50267626953125,-0.0012460930738598108,0.002773149637505412,-0.01130698248744011
1772562138146659300,4.512659423828125,0.00018429075134918094,0.013130449689924717,-0.009816145524382591
1772562138156641300,4.522641357421875,-0.004482366610318422,0.017780061811208725,-0.007819573394954205
1772562138166624300,4.532624267578125,-0.008027566596865654,0.014238590374588966,-0.0065324679017066956
1772562138176606200,4.542606201171875,-0.0036224317736923695,0.010418818332254887,-0.001740375766530633
1772562138186589200,4.552589111328125,-0.0032120386604219675,0.005865079816430807,-0.0030897995457053185
1772562138196571400,4.5625712890625,-0.0032264196779578924,0.0008370315190404654,-0.010007626377046108
1772562138206554000,4.57255419921875,-0.0025939189363271,0.005815012380480766,-0.014268684200942516
1772562138216536300,4.582536376953125,-0.00011877698125317693,-0.005139368120580912,-0.019879166036844254
1772562138226519300,4.592519287109375,0.0016098808264359832,-0.010957576334476471,-0.024577515199780464
1772562138236501200,4.602501220703125,0.004458398092538118,-0.019955597817897797,-0.01906716823577881
1772562138246484200,4.612484130859375,0.0022160164080560207,-0.030900390818715096,-0.017367271706461906
1772562138256466400,4.622466552734375,0.005057342816144228,-0.032887641340494156,-0.013368802145123482
1772562138266449200,4.63244921875,0.00902944803237915,-0.0316292978823185,-0.008552209474146366
1772562138276431400,4.642431396484375,0.004957207944244146,-0.020263193175196648,-0.003969707991927862
1772562138286414300,4.652414306640625,0.003712979145348072,-0.006675745826214552,-0.007934888824820518
1772562138296396300,4.662396240234375,-0.003306314582005143,0.00481233187019825,-0.008213188499212265
1772562138306379300,4.672379150390625,-0.0030298782512545586,0.02027677558362484,-0.009705624543130398
1772562138316361200,4.682361328125,-0.00279072648845613,0.026619359850883484,-0.0052261874079704285
1772562138326344200,4.69234423828125,-0.004147074185311794,0.028597289696335793,-0.0038099181838333607
1772562138336326400,4.702326416015625,-0.006644853390753269,0.018039986491203308,-0.004538026638329029
1772562138346308400,4.712308349609375,-0.0014833806781098247,0.006387591827660799,0.0011978897964581847
1772562138356291300,4.722291259765625,-0.001966478070244193,-0.004703941289335489,-0.0021662150975316763
1772562138366273300,4.732273193359375,-0.0008825715631246567,-0.005918342620134354,-0.0005696501466445625
1772562138376256300,4.74225634765625,-0.0011912320042029023,-0.0034490597900003195,0.00013022858183830976
1772562138386238500,4.752238525390625,-0.001374723738990724,0.0016447682864964008,0.0021965752821415663
1772562138396221400,4.762221435546875,-0.0033129723742604256,0.0035657063126564026,0.004334028344601393
1772562138406203400,4.772203369140625,-0.004157727118581533,0.005600627511739731,0.00005619269722956233
1772562138416186400,4.782186279296875,-0.0025302693247795105,0.0009973538108170033,0.0011789813870564103
1772562138426168300,4.792168212890625,0.0006370281334966421,-0.004746285732835531,0.003507649526000023
1772562138436151300,4.8021513671875,0.0027800737880170345,-0.006666158325970173,0.011806059628725052
1772562138446133200,4.81213330078125,0.002435727044939995,-0.0011411645682528615,0.015275359153747559
1772562138456116200,4.8221162109375,0.004234692547470331,0.004308462142944336,0.016175508499145508
1772562138466098400,4.832098388671875,0.0005869606975466013,0.011291270144283772,0.008762865327298641
1772562138476081400,4.842081298828125,0.0008234494016505778,0.010683802887797356,0.0014719291357323527
1772562138486063400,4.8520634765625,0.001517202821560204,0.007390271872282028,-0.009021458216011524
1772562138496046300,4.86204638671875,0.0041223070584237576,0.00039015308720991015,-0.013761618174612522
1772562138506028300,4.8720283203125,0.003934021573513746,-0.0025545042008161545,-0.015338742174208164
1772562138516011300,4.88201123046875,0.002290052128955722,-0.0002724413643591106,-0.012178102508187294
1772562138525993500,4.891993408203125,0.00042557314736768603,-0.0028991170693188906,-0.009840913116931915
1772562138535976200,4.90197607421875,-0.0006492786924354732,-0.006000900641083717,-0.007743673399090767
1772562138545958400,4.91195849609375,-0.0005403553950600326,-0.006556968670338392,-0.010747984983026981
1772562138555941400,4.92194140625,-0.00021731393644586205,0.002454102970659733,-0.011611116118729115
1772562138565923300,4.93192333984375,-0.0023521038237959146,0.01023000106215477,-0.011543737724423409
1772562138575905300,4.9419052734375,-0.0028216191567480564,0.016570454463362694,-0.012176238931715488
1772562138585888500,4.951888427734375,-0.002767290687188506,0.014503574930131435,-0.01161297969520092
1772562138595870200,4.9618701171875,-0.002228533150628209,0.014337394386529922,-0.011973039247095585
1772562138605853400,4.971853515625,0.0005091963685117662,0.006175337824970484,-0.004548412747681141
1772562138615835100,4.981835205078125,0.00016644757124595344,-0.00022956448083277792,0.0009731190511956811
1772562138625818400,4.991818359375,0.0006831008358858526,0.0003304982965346426,0.003457848448306322
1772562138635800300,5.00180029296875,0.0017707358347252011,-0.0014066817238926888,0.002968625631183386
1772562138645783300,5.011783203125,-0.0007416903390549123,0.0018783274572342634,-0.005849367007613182
1772562138655765200,5.02176513671875,-0.00003355582884978503,0.0034176346380263567,-0.009424926713109016
1772562138665748500,5.03174853515625,-0.0035177695099264383,0.002427471335977316,-0.013340306468307972
1772562138675730200,5.041730224609375,-0.000574177538510412,-0.0015334481140598655,-0.011591142043471336
1772562138685713400,5.05171337890625,-0.0032147017773240805,-0.005234975833445787,-0.012494220398366451
1772562138695695400,5.0616953125,-0.002671949565410614,-0.005583583377301693,-0.008955145254731178
1772562138705678300,5.07167822265625,-0.002201901515945792,-0.006388390902429819,-0.006955910474061966
1772562138715660300,5.081660400390625,-0.0018181400373578072,-0.002900714986026287,-0.0025574336759746075
1772562138725643500,5.0916435546875,-0.0018615495646372437,-0.007193464320152998,0.0002918824611697346
1772562138735625200,5.101625244140625,-0.0009395632077939808,-0.010931210592389107,-0.0006024070316925645
1772562138745608400,5.1116083984375,0.0029755497816950083,-0.007477889768779278,0.000300404557492584
1772562138755590100,5.121590087890625,-0.0044259075075387955,0.0008362325606867671,0.005274390336126089
1772562138765577000,5.131576904296875,-0.006188387516885996,0.006788397673517466,0.01210007257759571
1772562138775558700,5.14155859375,-0.004838697146624327,0.008311459794640541,0.014644988812506199
1772562138785542000,5.1515419921875,-0.005194761790335178,0.01477708201855421,0.014941931702196598
1772562138795523800,5.16152392578125,-0.00364746549166739,0.016932910308241844,0.01564953289926052
1772562138805506800,5.1715068359375,-0.0028298748657107353,0.019602995365858078,0.009852897375822067
1772562138815488800,5.18148876953125,0.0035657063126564026,0.014946458861231804,0.006615025922656059
1772562138825470700,5.191470703125,0.002204564632847905,0.008502407930791378,-0.0004111920716241002
1772562138835453700,5.20145361328125,0.0007257114048115909,0.005501558072865009,-0.008959938772022724
1772562138845436000,5.211435791015625,-0.002778742229565978,0.016860738396644592,-0.019938021898269653
1772562138855418600,5.221418701171875,0.0004215783847030252,0.01666686125099659,-0.02913231961429119
1772562138865400800,5.23140087890625,0.00021252025908324867,0.00669332267716527,-0.02787131257355213
1772562138875383800,5.2413837890625,0.0019765980541706085,-0.014784804545342922,-0.021798506379127502
1772562138885365800,5.25136572265625,0.005574794951826334,-0.0340634286403656,-0.008865396492183208
1772562138895348700,5.2613486328125,0.004476773552596569,-0.0436774380505085,0.009517871774733067
1772562138905331000,5.2713310546875,0.000291616132017225,-0.03449432924389839,0.03201332688331604
1772562138915313700,5.281313720703125,-0.010276339948177338,-0.013439109548926353,0.04576961696147919
1772562138925295900,5.2912958984375,-0.011474229395389557,0.013039102777838707,0.04366732016205788
1772562138935278800,5.30127880859375,-0.013107546605169773,0.025349298492074013,0.03374145179986954
1772562138945260800,5.3112607421875,-0.01299223117530346,0.025256887078285217,0.013483052141964436
1772562138955243800,5.321243896484375,-0.011323761194944382,0.023567112162709236,0.004674912896007299
1772562138965225700,5.331225830078125,-0.0043777041137218475,0.015930496156215668,-0.0005406216951087117
1772562138975208700,5.341208740234375,-0.000330231967382133,0.008135956712067127,-0.008126369677484035
1772562138985191000,5.35119091796875,0.000031425301131093875,0.0025869945529848337,-0.012771455571055412
1772562138995173600,5.361173583984375,0.00021065604232717305,0.0018125474452972412,-0.016319317743182182
1772562139005155800,5.37115576171875,-0.0035830168053507805,0.006183593533933163,-0.022004367783665657
1772562139015138800,5.381138916015625,-0.004282629117369652,0.012323511764407158,-0.026199379935860634
1772562139025120800,5.391120849609375,-0.005690908990800381,0.014538195915520191,-0.026642529293894768
1772562139035103700,5.401103759765625,-0.0051873051561415195,0.009588977321982384,-0.026689667254686356
1772562139045085700,5.411085693359375,-0.0008942894637584686,0.0027081684675067663,-0.01883494108915329
1772562139055068700,5.421068603515625,0.0012279836228117347,-0.003049585735425353,-0.002016811864450574
1772562139065051000,5.43105078125,0.0011265170760452747,-0.0008671252289786935,0.016166452318429947
1772562139075032800,5.44103271484375,0.0005105279851704836,0.007301056291908026,0.029339512810111046
1772562139085015800,5.451015869140625,0.0034469293896108866,0.010837201029062271,0.031212247908115387
1772562139094997800,5.460997802734375,0.005121791269630194,0.008317318744957447,0.026874225586652756
1772562139104980700,5.470980712890625,0.006403038278222084,0.001996571896597743,0.019457055255770683
1772562139114963000,5.480962890625,0.010206032544374466,0.0010871023405343294,0.015920642763376236
1772562139124946000,5.49094580078125,0.014150439761579037,0.004336691461503506,0.0121277691796422
1772562139134928000,5.500927978515625,0.012047075666487217,0.0043984767980873585,0.011630291119217873
1772562139144910800,5.510910888671875,0.010747453197836876,-0.0009488842915743589,0.004858671221882105
1772562139154892800,5.520892822265625,0.01344683300703764,0.004697815980762243,0.002386725042015314
1772562139164875800,5.530875732421875,0.011185542680323124,0.013504090718925,0.004640291910618544
1772562139174857700,5.540857666015625,0.011085407808423042,0.010731207206845284,0.0015582155901938677
1772562139184840700,5.5508408203125,0.010088853538036346,0.010390589013695717,-0.00034594463068060577
1772562139194823000,5.560822998046875,0.012546151876449585,0.01107635349035263,-0.005861084908246994
1772562139204806000,5.570805908203125,0.008293083868920803,0.00612340634688735,-0.005055745132267475
1772562139214787800,5.580787841796875,0.008494418114423752,0.005831790156662464,-0.005319397896528244
1772562139224770800,5.590770751953125,0.006322344299405813,0.004312456585466862,-0.0062520368956029415
1772562139234752800,5.600752685546875,0.0068272799253463745,-0.001461010193452239,-0.006174272391945124
1772562139244735700,5.61073583984375,0.005766808986663818,-0.004805407952517271,-0.004702077247202396
1772562139254718000,5.620718017578125,0.004495682194828987,-0.00833889003843069,-0.0010516822803765535
1772562139264701000,5.630700927734375,0.004790760576725006,-0.0030562435276806355,0.0020397149492055178
1772562139274683000,5.640682861328125,0.0011709919199347496,0.0009118663729168475,0.01238982379436493
1772562139284665900,5.650665771484375,-0.002751844236627221,0.0027742148377001286,0.017590178176760674
1772562139294647800,5.660647705078125,-0.000928111607208848,0.0007531419396400452,0.01834864728152752
1772562139304630800,5.670630859375,-0.0011518171522766352,-0.0016607472207397223,0.01612410880625248
1772562139314613000,5.680613037109375,0.003451723139733076,-0.00341603672131896,0.016234630718827248
1772562139324594700,5.6905947265625,0.004599012900143862,-0.0008498146780766547,0.014563229866325855
1772562139334578000,5.700577880859375,0.004553472623229027,0.00036218989407643676,0.01564686931669712
1772562139344559600,5.7105595703125,0.00352868833579123,-0.0009800433181226254,0.0176991019397974
1772562139354542800,5.72054296875,0.000809068325906992,-0.0009518137667328119,0.014851650223135948
1772562139364524800,5.73052490234375,-0.0008751147543080151,-0.003525492735207081,0.0194258950650692
1772562139374507800,5.7405078125,-0.00033209618413820863,-0.004938565660268068,0.018400579690933228
1772562139384489700,5.75048974609375,-0.0028996497858315706,0.00032570460462011397,0.013154151849448681
1772562139394473000,5.760472900390625,-0.002266882685944438,0.0052054147236049175,0.004335626028478146
1772562139404454700,5.77045458984375,-0.0014647386269643903,0.010143714025616646,-0.0003158508916385472
1772562139414438000,5.78043798828125,0.00130920996889472,0.017492707818746567,0.0014674017438665032
1772562139424419800,5.790419921875,0.0011198592837899923,0.017463678494095802,0.003977164626121521
1772562139434402800,5.80040283203125,0.0017989652696996927,0.01356640923768282,-0.0009677927591837943
1772562139444384800,5.810384765625,0.009227586910128593,0.004114849958568811,-0.006262689363211393
1772562139454368000,5.820367919921875,0.01059352234005928,-0.009526127018034458,-0.011238539591431618
1772562139464349700,5.830349609375,0.011578891426324844,-0.01224574726074934,-0.01684262976050377
1772562139474333000,5.8403330078125,0.01092561800032854,-0.008329834789037704,-0.01564074493944645
1772562139484314600,5.850314697265625,0.01173628494143486,0.00009747169679030776,-0.01185000129044056
1772562139494297900,5.8602978515625,0.006825149059295654,0.0006183860241435468,-0.012239621952176094
1772562139504279800,5.87027978515625,0.005051483865827322,-0.010043046437203884,-0.005550294183194637
1772562139514262800,5.8802626953125,0.00809361319988966,-0.025793779641389847,-0.0005637911963276565
1772562139524244700,5.89024462890625,0.010452108457684517,-0.033474601805210114,-0.0015225291717797518
1772562139534228000,5.90022802734375,0.01137063279747963,-0.035601403564214706,0.00364719913341105
1772562139544209700,5.910209716796875,0.008302670903503895,-0.024935709312558174,0.0031515848822891712
1772562139554193000,5.92019287109375,0.0054448326118290424,-0.01221405528485775,-0.000291616132017225
1772562139564174800,5.9301748046875,0.0005760417552664876,-0.0025094966404139996,-0.004474376793950796
1772562139574156800,5.94015673828125,-0.0023124227300286293,0.0073111760430037975,-0.007727428339421749
1772562139584139800,5.950139892578125,-0.003272492438554764,0.011990882456302643,-0.008978314697742462
1772562139594121700,5.960121826171875,-0.003626959165558219,0.011918976902961731,-0.008392419666051865
1772562139604104700,5.970104736328125,-0.006910370197147131,0.011094196699559689,-0.011394334957003593
1772562139614087000,5.9800869140625,-0.0030093719251453876,0.010493121109902859,-0.007844340987503529
1772562139624069600,5.990069580078125,-0.003710582386702299,0.00959616806358099,-0.005554288625717163
1772562139634051800,6.0000517578125,-0.006631803698837757,0.002275671111419797,-0.009149289689958096
1772562139644034800,6.010034912109375,-0.006973220966756344,-0.003153981640934944,-0.00723634148016572
1772562139654016800,6.020016845703125,-0.008357798680663109,-0.0017893778858706355,-0.01582237333059311
1772562139663999700,6.029999755859375,-0.012686233967542648,-0.003102849004790187,-0.021821143105626106
1772562139673981700,6.039981689453125,-0.014518489129841328,-0.008568987250328064,-0.02544916793704033
1772562139683964700,6.049964599609375,-0.014032728038728237,-0.012497149407863617,-0.022057631984353065
1772562139693947000,6.05994677734375,-0.01455603912472725,-0.008526909165084362,-0.013087039813399315
1772562139703929900,6.069929931640625,-0.013794908300042152,-0.004067179746925831,-0.0020242687314748764
1772562139713911800,6.079911865234375,-0.01324256882071495,0.0008122641011141241,0.009921872988343239
1772562139723894800,6.089894775390625,-0.017885522916913033,-0.0013544837711378932,0.021523933857679367
1772562139733876700,6.099876708984375,-0.014421016909182072,-0.008057660423219204,0.015430089086294174
1772562139743859700,6.109859619140625,-0.015671104192733765,-0.012029765173792839,0.007168430835008621
1772562139753842000,6.119842041015625,-0.014207964763045311,-0.01810310408473015,0.0008245146600529552
1772562139763824600,6.12982470703125,-0.013106481172144413,-0.022476013749837875,-0.00777563126757741
1772562139773803300,6.13980322265625,-0.015836486592888832,-0.031629566103219986,-0.01461889035999775
1772562139783786000,6.149785888671875,-0.015278289094567299,-0.02937093749642372,-0.01555259432643652
1772562139793768200,6.159768310546875,-0.014125672169029713,-0.024828650057315826,-0.012411928735673428
1772562139803751200,6.169751220703125,-0.01492062583565712,-0.017427193000912666,-0.009365804493427277
1772562139813733000,6.179733154296875,-0.013729660771787167,-0.005555886775255203,-0.011532019823789597
1772562139823715300,6.18971533203125,-0.016345150768756866,0.0021462414879351854,-0.01685594581067562
1772562139833698300,6.1996982421875,-0.01853107288479805,0.008200671523809433,-0.020052004605531693
1772562139843680300,6.20968017578125,-0.01840324141085148,0.006470682565122843,-0.01956358179450035
1772562139853663200,6.219663330078125,-0.019401660189032555,0.0054570832289755344,-0.015798937529325485
1772562139863645200,6.229645263671875,-0.016166985034942627,-0.004609399009495974,-0.009332781657576561
1772562139873628200,6.239628173828125,-0.015153120271861553,-0.01212617103010416,-0.004573712591081858
1772562139883610400,6.2496103515625,-0.01401781477034092,-0.01684396155178547,-0.004483964294195175
1772562139893593000,6.259593017578125,-0.011517372913658619,-0.019890084862709045,-0.0021435783710330725
1772562139903575300,6.2695751953125,-0.01480797491967678,-0.020718062296509743,-0.00558012118563056
1772562139913558300,6.279558349609375,-0.014270548708736897,-0.017971010878682137,-0.010598315857350826
1772562139923540200,6.289540283203125,-0.011243333108723164,-0.018561434000730515,-0.019655726850032806
1772562139933523200,6.299523193359375,-0.012225773185491562,-0.01853453554213047,-0.02376525104045868
1772562139943505200,6.309505126953125,-0.008137022145092487,-0.020110594108700752,-0.02394288405776024
1772562139953488100,6.319488037109375,-0.00942013319581747,-0.01954653672873974,-0.019723370671272278
1772562139963470300,6.32947021484375,-0.007863249629735947,-0.023843813687562943,-0.013190636411309242
1772562139973453000,6.339453125,-0.007574562914669514,-0.030119553208351135,-0.0020932445768266916
1772562139983435300,6.349435302734375,-0.0037942056078463793,-0.030120618641376495,0.005842442624270916
1772562139993418200,6.359418212890625,-0.006160690449178219,-0.02683587558567524,0.010007360018789768
1772562140003400200,6.369400146484375,-0.006995059084147215,-0.015526228584349155,0.0059684100560843945
1772562140013383200,6.379383056640625,-0.007626228034496307,-0.006412359420210123,0.002204830991104245
1772562140023365400,6.389365478515625,-0.007668306119740009,-0.0014367754338309169,-0.007187339011579752
1772562140033348000,6.39934814453125,-0.009427057579159737,0.0019419770687818527,-0.012912603095173836
1772562140043330300,6.409330322265625,-0.006583866663277149,0.003111637430265546,-0.01679655723273754
1772562140053313300,6.419313232421875,-0.003463707398623228,0.004935636185109615,-0.02009355090558529
1772562140063295200,6.429295166015625,-0.0023614249657839537,0.0035324168857187033,-0.024336764588952065
1772562140073278200,6.4392783203125,-0.0008596684201620519,-0.0030032468494027853,-0.02123578079044819
1772562140083260200,6.44926025390625,0.00015446334145963192,-0.0034144388046115637,-0.020107930526137352
1772562140093242000,6.4592421875,-0.000925448490306735,-0.0035033884923905134,-0.02100221998989582
1772562140103225300,6.469225341796875,-0.00304612354375422,-0.001514539704658091,-0.016382968053221703
1772562140113207000,6.47920703125,-0.004816060420125723,-0.007773500867187977,-0.012022574432194233
1772562140123190300,6.489190185546875,-0.002547047333791852,-0.01781628094613552,-0.012235361151397228
1772562140133172200,6.499172119140625,-0.0020269318483769894,-0.028487833216786385,-0.016564063727855682
1772562140143155200,6.5091552734375,-0.003713778220117092,-0.0302636306732893,-0.01429371815174818
1772562140153137200,6.51913720703125,-0.0009864348685368896,-0.026385534554719925,-0.011992480605840683
1772562140163120400,6.529120361328125,-0.0025185514241456985,-0.018279671669006348,-0.005819805897772312
1772562140173102000,6.53910205078125,-0.008792959153652191,-0.005626993253827095,-0.009036371484398842
1772562140183085300,6.549085205078125,-0.009557552635669708,0.007420099340379238,-0.009601760655641556
1772562140193067000,6.55906689453125,-0.009618538431823254,0.016895625740289688,-0.008742358535528183
1772562140203050200,6.56905029296875,-0.007842742837965488,0.020244551822543144,-0.010834804736077785
1772562140213032200,6.5790322265625,-0.008231031708419323,0.02099476382136345,-0.013035374693572521
1772562140223015200,6.58901513671875,-0.006794789340347052,0.014905712567269802,-0.012370383366942406
1772562140232997000,6.5989970703125,-0.005067729391157627,0.007195328362286091,-0.006759635638445616
1772562140242980400,6.60898046875,-0.004000866785645485,0.001749430550262332,-0.00316063966602087
1772562140252962000,6.618962158203125,-0.005299424286931753,0.0004058657505083829,-0.0004665858286898583
1772562140262945300,6.6289453125,-0.002204564632847905,0.002621882129460573,0.0014354437589645386
1772562140272927000,6.638927001953125,-0.005317267496138811,0.004741491749882698,-0.004483964294195175
1772562140282910200,6.64891015625,-0.005272792652249336,0.008628109470009804,-0.003897003596648574
1772562140292892200,6.65889208984375,-0.005385976750403643,0.004600344225764275,-0.008028632029891014
1772562140302875100,6.668875244140625,-0.004451207350939512,-0.0012876383261755109,-0.002776611829176545
1772562140312857000,6.678857177734375,-0.00577746145427227,-0.004905010107904673,0.005617938470095396
1772562140322840300,6.68884033203125,-0.004923652391880751,-0.0004988100845366716,0.01564527302980423
1772562140332822000,6.698822021484375,-0.001969940261915326,0.00577879324555397,0.016926253214478493
1772562140342804200,6.70880419921875,7.989483492565341e-7,0.008963667787611485,0.016323046758770943
1772562140352787200,6.718787109375,-0.004232561681419611,0.012832441367208958,0.00506985979154706
1772562140362769200,6.72876904296875,-0.006411826703697443,0.009975136257708073,-0.01181910838931799
1772562140372752100,6.738752197265625,-0.007367901504039764,0.0057473680935800076,-0.024533571675419807
1772562140382734000,6.748734130859375,-0.004510595928877592,0.0014335796004161239,-0.036787841469049454
1772562140392717000,6.758717041015625,-0.006085323169827461,0.000568052229937166,-0.0364549458026886
1772562140402699300,6.76869921875,-0.0065047708339989185,0.004748149774968624,-0.0381375327706337
1772562140412682000,6.778681884765625,-0.008155930787324905,0.007586014457046986,-0.033839188516139984
1772562140422664200,6.788664306640625,-0.011203918606042862,0.012806076556444168,-0.02804388478398323
1772562140432647200,6.798647216796875,-0.010246778838336468,0.017222130671143532,-0.025075525045394897
1772562140442629000,6.808629150390625,-0.014070545323193073,0.01267078798264265,-0.016758473590016365
1772562140452612000,6.818612060546875,-0.012270248495042324,0.007767109200358391,-0.006167614832520485
1772562140462594300,6.82859423828125,-0.009730923920869827,0.0008237157016992569,-0.0001478054327890277
1772562140472577000,6.838576904296875,-0.009435580112040043,-0.004215517546981573,0.0059257997199893
1772562140482559200,6.848559326171875,-0.0076280920766294,-0.005917810369282961,0.008082959800958633
1772562140492542200,6.858542236328125,-0.007790012285113335,-0.005656021647155285,0.005561479367315769
1772562140502524200,6.868524169921875,-0.008887767791748047,-0.003780889790505171,-0.0007254450465552509
1772562140512507100,6.878507080078125,-0.008462194353342056,0.0051779840141534805,-0.003861583536490798
1772562140522489000,6.888489013671875,-0.009587912820279598,0.0109842075034976,-0.007144995033740997
1772562140532472000,6.89847216796875,-0.007266967557370663,0.014597318135201931,-0.010057427920401096
1772562140542454300,6.908454345703125,-0.005632585845887661,0.004114584065973759,-0.010362626053392887
1772562140552437000,6.91843701171875,-0.005169195588678122,-0.002671949565410614,-0.009044894017279148
1772562140562419200,6.928419189453125,-0.0026282735634595156,-0.010630007833242416,-0.007339938078075647
1772562140572402200,6.938402099609375,-0.0031222901307046413,-0.020267454907298088,-0.0014080132823437452
1772562140582384000,6.948384033203125,-0.003909786697477102,-0.027704864740371704,0.0019502328941598535
1772562140592367000,6.9583671875,-0.0006415555253624916,-0.025171665474772453,0.0020817930344492197
1772562140602349000,6.96834912109375,0.0003249056462664157,-0.013224459253251553,0.003537210635840893
1772562140612331300,6.978331298828125,-0.0049825082533061504,0.0009518137667328119,0.003501524217426777
1772562140622314200,6.988314208984375,-0.01116184052079916,0.007135673891752958,-0.00253479671664536
1772562140632296200,6.998296142578125,-0.010165019892156124,0.012399678118526936,-0.004345746245235205
1772562140642279200,7.008279052734375,-0.009584183804690838,0.011465441435575485,-0.003195260651409626
1772562140652261400,7.018261474609375,-0.007183078210800886,0.010132528841495514,-0.002386725042015314
1772562140662244000,7.028244140625,-0.008333031088113785,0.009455553255975246,0.001648230361752212
1772562140672226300,7.038226318359375,-0.005396629683673382,0.005742041394114494,-0.003371029393747449
1772562140682209300,7.048209228515625,0.001475657569244504,0.003318032482638955,-0.006622482556849718
1772562140692191200,7.058191162109375,-0.0016881778137758374,0.001876995898783207,-0.01654595322906971
1772562140702174200,7.06817431640625,-0.00041971419705078006,0.005044293589890003,-0.024055534973740578
1772562140712156200,7.07815625,0.0022058964241296053,0.0025782061275094748,-0.028847094625234604
1772562140722139100,7.08813916015625,0.00455640209838748,-0.009196161292493343,-0.03537130728363991
1772562140732121300,7.098121337890625,0.006596117280423641,-0.020533237606287003,-0.03951651602983475
1772562140742104000,7.10810400390625,0.004384894855320454,-0.02401292510330677,-0.030700653791427612
1772562140752086300,7.118086181640625,0.00643686018884182,-0.026392458006739616,-0.025489114224910736
1772562140762069200,7.1280693359375,0.003150785807520151,-0.016696421429514885,-0.015045794658362865
1772562140772051500,7.138051513671875,-0.0001525991247035563,-0.008130097761750221,-0.007458715233951807
1772562140782034200,7.1480341796875,-0.001969673903658986,0.007370830979198217,-0.004569984506815672
1772562140792016400,7.158016357421875,-0.004534031730145216,0.017519338056445122,-0.005620601586997509
1772562140801999400,7.167999267578125,-0.004875981714576483,0.029025793075561523,-0.009005479514598846
1772562140811981300,7.177981201171875,-0.004661330953240395,0.032649554312229156,-0.013908091932535172
1772562140821964300,7.18796435546875,-0.001493234420195222,0.026130670681595802,-0.014340589754283428
1772562140831946200,7.1979462890625,-0.0009398295660503209,0.01702079549431801,-0.013430321589112282
1772562140841929200,7.20792919921875,0.0014700648607686162,0.004087952431291342,-0.009369267150759697
1772562140851911400,7.217911376953125,0.002587793627753854,-0.0051955608651041985,-0.001264202524907887
1772562140861894100,7.22789404296875,0.008024636656045914,-0.007755124941468239,0.00501206936314702
1772562140871876400,7.23787646484375,0.009230249561369419,-0.009751164354383945,0.015055914409458637
1772562140881858300,7.2478583984375,0.010890464298427105,-0.00723447697237134,0.02137080207467079
1772562140891841300,7.25784130859375,0.008015315979719162,-0.006194512825459242,0.024690698832273483
1772562140901823200,7.2678232421875,0.011006312444806099,-0.002109489869326353,0.022471487522125244
1772562140911806500,7.277806396484375,0.008800415322184563,-0.0023816649336367846,0.021580392494797707
1772562140921788200,7.2877880859375,0.007369232829660177,0.008979912847280502,0.015205584466457367
1772562140931771400,7.297771484375,0.005828594323247671,0.015566443093121052,0.008301605470478535
1772562140941753000,7.307753173828125,0.005832322873175144,0.019350262358784676,0.0016413062112405896
1772562140951736300,7.317736328125,0.009796437807381153,0.01913880743086338,-0.004868258256465197
1772562140961718300,7.32771826171875,0.010748517699539661,0.00637827068567276,-0.00863316934555769
1772562140971701200,7.337701171875,0.012982377782464027,-0.0033190976828336716,-0.008856608532369137
1772562140981683200,7.34768310546875,0.015084144659340382,-0.011345332488417625,-0.011314972303807735
1772562140991666400,7.35766650390625,0.016103070229291916,-0.0121291009709239,-0.016948090866208076
1772562141001648000,7.367648193359375,0.013334447517991066,-0.009314139373600483,-0.023986825719475746
1772562141011631400,7.37763134765625,0.01227584108710289,-0.005345763172954321,-0.028012992814183235
1772562141021613300,7.38761328125,0.010193515568971634,0.0001395496365148574,-0.02835148014128208
1772562141031596300,7.39759619140625,0.005817941855639219,-0.0008311725687235594,-0.02461799420416355
1772562141041578200,7.407578125,0.00800279900431633,0.005952697712928057,-0.018003500998020172
1772562141051561500,7.4175615234375,0.007322094868868589,0.010897655040025711,-0.009583917446434498
1772562141061543200,7.427543212890625,0.00666535971686244,0.014728612266480923,-0.002746784361079335
1772562141071526400,7.4375263671875,0.004936435259878635,0.01327159721404314,-0.002356897573918104
1772562141081508000,7.447508056640625,0.007654990069568157,0.009352223016321659,-0.005290369503200054
1772562141091491300,7.4574912109375,0.006854443810880184,0.006999319884926081,-0.008094144985079765
1772562141101473300,7.467473388671875,0.002906840294599533,-0.002501773415133357,-0.009642773307859898
1772562141111456300,7.477456298828125,0.004163586068898439,-0.000045540054998127744,-0.009273925796151161
1772562141121438200,7.487438232421875,0.0030280142091214657,0.0004924184759147465,-0.007271228823810816
1772562141131420200,7.497420166015625,-0.00042557314736768603,-0.0019435749854892492,-0.006983341183513403
1772562141141403100,7.507403076171875,-0.001955026527866721,0.0019092201255261898,-0.005706089083105326
1772562141151385300,7.51738525390625,-0.001529453438706696,0.002929743379354477,-0.00857111718505621
1772562141161368000,7.5273681640625,-0.001002413802780211,0.0031465247739106417,-0.01594194769859314
1772562141171350300,7.537350341796875,-0.0021939121652394533,-0.0030778152868151665,-0.01606898196041584
1772562141181333200,7.547333251953125,0.0003222425002604723,-0.01059219054877758,-0.014334730803966522
1772562141191315200,7.557315185546875,-0.000004261057711119065,-0.014964035712182522,-0.0054155378602445126
1772562141201298200,7.567298095703125,-0.0012447615154087543,-0.013614878058433533,0.005407282151281834
1772562141211280400,7.5772802734375,-0.0036573191173374653,-0.00105354655534029,0.0034650389570742846
1772562141221263000,7.58726318359375,-0.005824865773320198,0.004801679402589798,-0.001770203118212521
1772562141231245300,7.597245361328125,-0.005843508057296276,0.006041381042450666,-0.013967214152216911
1772562141241228300,7.607228271484375,-0.008734103292226791,0.015915317460894585,-0.01581598073244095
1772562141251210200,7.617210205078125,-0.008053665049374104,0.015896141529083252,-0.017372066155076027
1772562141261193200,7.627193115234375,-0.011743208393454552,0.015682555735111237,-0.00794500857591629
1772562141271175200,7.637175048828125,-0.010058493353426456,0.010900584980845451,-0.0023390543647110462
1772562141281158100,7.647158203125,-0.0049010151997208595,0.009281649254262447,0.004034422803670168
1772562141291140400,7.657140380859375,-0.0073143718764185905,0.007274956908077002,0.0008823052630759776
1772562141301123000,7.667123046875,-0.0014620753936469555,-0.008838498964905739,-0.0000881506348378025
1772562141311105300,7.677105224609375,-0.0028607675340026617,0.004334827419370413,0.006509830709546804
1772562141321088300,7.687088134765625,-0.013117666356265545,-0.007849933579564095,0.00041518680518493056
1772562141331070200,7.6970703125,-0.011275557801127434,-0.019113240763545036,-0.013769075274467468
1772562141341053200,7.70705322265625,-0.004504470620304346,-0.02834242582321167,-0.026646258309483528
1772562141351035400,7.717035400390625,-0.006201170384883881,-0.042930424213409424,-0.03472016379237175
1772562141361018000,7.72701806640625,-0.007730357814580202,-0.039506398141384125,-0.03123861365020275
1772562141371000300,7.737000244140625,-0.015994945541024208,-0.026277143508195877,-0.03381894901394844
1772562141380983300,7.7469833984375,-0.020667195320129395,-0.014770690351724625,-0.028446821495890617
1772562141390965200,7.75696533203125,-0.03326181694865227,0.0005081311101093888,-0.03163808584213257
1772562141400947500,7.766947509765625,-0.038366563618183136,0.012042813934385777,-0.030784809961915016
1772562141410930200,7.77693017578125,-0.04632754996418953,0.022506108507514,-0.04171761870384216
1772562141420913200,7.7869130859375,-0.04778270050883293,0.022455507889389992,-0.04141242057085037
1772562141430895400,7.796895263671875,-0.05501797795295715,0.017412014305591583,-0.03777800500392914
1772562141440877300,7.806877197265625,-0.05594715476036072,0.0038072550669312477,-0.03223703056573868
1772562141450860300,7.8168603515625,-0.05367467924952507,-0.011591941118240356,-0.018756110221147537
1772562141460842200,7.82684228515625,-0.055694155395030975,-0.02533118985593319,-0.006286391522735357
1772562141470825200,7.8368251953125,-0.05396682769060135,-0.034817103296518326,0.002841326640918851
1772562141480807400,7.846807373046875,-0.0578896664083004,-0.03160613030195236,-0.0015198660548776388
1772562141490790100,7.8567900390625,-0.059607937932014465,-0.031254060566425323,-0.010995925404131413
1772562141500772400,7.8667724609375,-0.06327004730701447,-0.02364674024283886,-0.01998569257557392
1772562141510755300,7.87675537109375,-0.06729461997747421,-0.025192437693476677,-0.031921181827783585
1772562141520737300,7.8867373046875,-0.06793218106031418,-0.020081833004951477,-0.037813957780599594
1772562141530720300,7.89672021484375,-0.07379858940839767,-0.002514556748792529,-0.033975277096033096
1772562141540702500,7.906702392578125,-0.0744049921631813,0.012495552189648151,-0.02749101258814335
1772562141550685200,7.916685302734375,-0.07812622934579849,0.017008811235427856,-0.018185928463935852
1772562141560667400,7.92666748046875,-0.07483669370412827,0.009652094915509224,-0.012036423198878765
1772562141570650400,7.936650390625,-0.07339805364608765,-0.003602191573008895,-0.01104759145528078
1772562141580632300,7.94663232421875,-0.07522498071193695,-0.016442356631159782,-0.010262224823236465
1772562141590615300,7.956615234375,-0.07322175055742264,-0.02688753977417946,-0.013544570654630661
1772562141600597200,7.96659716796875,-0.0733993798494339,-0.0319957509636879,-0.016205601394176483
1772562141610580200,7.976580322265625,-0.06835242360830307,-0.035469844937324524,-0.02851712889969349
1772562141620562400,7.9865625,-0.07047203928232193,-0.03080877847969532,-0.03334570676088333
1772562141630543000,7.996543212890625,-0.07142437994480133,-0.021350828930735588,-0.03513295203447342
1772562141640525300,8.006525390625,-0.06999453157186508,-0.019780362024903297,-0.03790929913520813
1772562141650508300,8.01650830078125,-0.06783896684646606,-0.015399196185171604,-0.038001444190740585
1772562141660490200,8.026490234375,-0.06339548528194427,-0.011539210565388203,-0.033771812915802
1772562141670473200,8.03647314453125,-0.06118452921509743,-0.005265069659799337,-0.028056934475898743
1772562141680455200,8.046455078125,-0.06004123389720917,-0.005290902219712734,-0.022405706346035004
1772562141690438100,8.056438232421876,-0.060858022421598434,-0.005584648810327053,-0.021077588200569153
1772562141700420000,8.066420166015625,-0.06162102147936821,-0.011169563978910446,-0.02161155268549919
1772562141710403300,8.0764033203125,-0.05904600769281387,-0.013786652125418186,-0.019653329625725746
1772562141720385300,8.08638525390625,-0.06042712554335594,-0.013411146588623524,-0.0169073436409235
1772562141730368300,8.0963681640625,-0.06167428195476532,-0.014750183559954166,-0.017014669254422188
1772562141740350200,8.10635009765625,-0.06097067520022392,-0.014281201176345348,-0.018318552523851395
1772562141750333200,8.116333251953124,-0.05644090473651886,-0.022232601419091225,-0.020782509818673134
1772562141760315100,8.126315185546876,-0.05486085265874863,-0.025620674714446068,-0.0157089214771986
1772562141770298400,8.13629833984375,-0.05089966580271721,-0.029294772073626518,-0.016077769920229912
1772562141780281300,8.14628125,-0.050097256898880005,-0.0354597233235836,-0.016393886879086494
1772562141790264300,8.156264404296875,-0.044918205589056015,-0.0353127159178257,-0.020351877436041832
1772562141800246300,8.166246337890625,-0.04153519123792648,-0.030064690858125687,-0.018308699131011963
1772562141810229200,8.176229248046875,-0.039688557386398315,-0.027678232640028,-0.020308732986450195
1772562141820211200,8.186211181640624,-0.041190579533576965,-0.019350795075297356,-0.022005965933203697
1772562141830194200,8.196194091796874,-0.03606506064534187,-0.010071808472275734,-0.01594674214720726
1772562141840176400,8.20617626953125,-0.03448979929089546,-0.0012538161827251315,-0.007240602280944586
1772562141850159000,8.2161591796875,-0.03055897355079651,0.002037051832303405,-0.0012639362830668688
1772562141860141300,8.226141357421875,-0.029558690264821053,-0.001107076066546142,0.0013784521725028753
1772562141870124300,8.236124267578125,-0.024578846991062164,-0.008392952382564545,-0.00028309403569437563
1772562141880106200,8.246106201171875,-0.019747605547308922,-0.01500851009041071,-0.004475974943488836
1772562141890089200,8.256089111328125,-0.01757393404841423,-0.01534673199057579,-0.006770021747797728
1772562141900071400,8.266071533203124,-0.01715634949505329,-0.015278821811079979,-0.011774101294577122
1772562141910053400,8.276053466796874,-0.015431420877575874,-0.013103551231324673,-0.02051486261188984
1772562141920036400,8.286036376953126,-0.013876400887966156,-0.019571570679545403,-0.019274894148111343
1772562141930018300,8.296018310546875,-0.011422031559050083,-0.0300188846886158,-0.01968289166688919
1772562141940001300,8.306001220703125,-0.00390339526347816,-0.04495123028755188,-0.01426122710108757
1772562141949983200,8.315983154296875,0.0007813714328221977,-0.04907859489321709,-0.0065287393517792225
1772562141959966200,8.32596630859375,0.0015994944842532277,-0.0458495132625103,0.0031273500062525272
1772562141969948400,8.335948486328125,-0.000857005245052278,-0.042994871735572815,0.006554838269948959
1772562141979931400,8.345931396484374,-0.0004791026876773685,-0.031977638602256775,0.00660597113892436
1772562141989913300,8.355913330078126,-0.0012796488590538502,-0.022913571447134018,0.00024980452144518495
1772562141999896300,8.365896240234376,-0.0020666129421442747,-0.00908271037042141,-0.0017712684348225594
1772562142009878300,8.375878173828125,-0.0027425233274698257,-0.0067905280739068985,-0.006715693045407534
1772562142019861200,8.385861328125,-0.005568403284996748,-0.008560198359191418,-0.005351622123271227
1772562142029843500,8.395843505859375,-0.002295911079272628,-0.015776565298438072,0.0005315669695846736
1772562142039826400,8.405826416015625,-0.0009949569357559085,-0.02305365353822708,0.007527690846472979
1772562142049808400,8.415808349609375,0.0016386429779231548,-0.027635889127850533,0.012480371631681919
1772562142059791400,8.425791259765624,0.00003009372085216455,-0.02833949588239193,0.014784804545342922
1772562142069773300,8.435773193359376,-0.001097755040973425,-0.029111545532941818,0.008158859796822071
1772562142079756300,8.44575634765625,-0.00352868833579123,-0.026708310469985008,0.004315119702368975
1772562142089738500,8.455738525390625,-0.003849865635856986,-0.02190876007080078,0.0018154769204556942
1772562142099721200,8.46572119140625,-0.007203051820397377,-0.02263660356402397,-0.0006940197781659663
1772562142109703400,8.475703369140625,-0.007342068944126368,-0.022638466209173203,0.0012253203894942999
1772562142119686400,8.485686279296875,-0.007762848399579525,-0.019509518519043922,0.0011262508342042565
1772562142129668400,8.49566845703125,-0.007158576976507902,-0.014036723412573338,0.0025782061275094748
1772562142139651300,8.5056513671875,-0.00574843306094408,-0.0057260626927018166,0.0046821036376059055
1772562142149633300,8.51563330078125,-0.008851282298564911,-0.007167365401983261,-0.00267807487398386
1772562142159616300,8.5256162109375,-0.007381483446806669,-0.013648168183863163,-0.010553042404353619
1772562142169598500,8.535598388671875,-0.006052299868315458,-0.020246149972081184,-0.012722453102469444
1772562142179581200,8.545581298828125,-0.006390254944562912,-0.031390946358442307,-0.015413577668368816
1772562142189563400,8.5555634765625,-0.008324774913489819,-0.03798892721533775,-0.011081147007644176
1772562142199546400,8.56554638671875,-0.007100253831595182,-0.03929201140999794,-0.009926932863891125
1772562142209528300,8.5755283203125,-0.012028433382511139,-0.036493297666311264,-0.007695470005273819
1772562142219510300,8.58551025390625,-0.014880412258207798,-0.033902306109666824,-0.0062067629769444466
1772562142229493500,8.595493408203126,-0.015484417788684368,-0.028782645240426064,-0.004220045171678066
1772562142239475200,8.60547509765625,-0.019933227449655533,-0.020364927127957344,-0.003996339626610279
1772562142249460200,8.615460205078126,-0.02058943174779415,-0.012498747557401657,-0.0026407905388623476
1772562142259442400,8.6254423828125,-0.02365020103752613,-0.009870207868516445,-0.004568652715533972
1772562142269425400,8.63542529296875,-0.022232068702578545,-0.005065332166850567,-0.005828594323247671
1772562142279407400,8.645407470703125,-0.023198530077934265,-0.008100003935396671,-0.008225971832871437
1772562142289389300,8.655389404296875,-0.023151392117142677,-0.012201006524264812,-0.015074023976922035
1772562142299372300,8.665372314453125,-0.025069400668144226,-0.015060708858072758,-0.023131418973207474
1772562142309354200,8.675354248046874,-0.026512566953897476,-0.018204569816589355,-0.026380740106105804
1772562142319337500,8.68533740234375,-0.024454742670059204,-0.018091652542352676,-0.025345569476485252
1772562142329319200,8.695319091796875,-0.026969298720359802,-0.016567790880799294,-0.01631665602326393
1772562142339302400,8.705302490234375,-0.029194902628660202,-0.014614095911383629,-0.010331999510526657
1772562142349284000,8.7152841796875,-0.031560324132442474,-0.013609285466372967,-0.00768748065456748
1772562142359267300,8.725267333984375,-0.032101210206747055,-0.016265256330370903,-0.006311159115284681
1772562142369249300,8.735249267578125,-0.030657777562737465,-0.020379040390253067,-0.0034991272259503603
1772562142379232300,8.745232177734374,-0.03135286271572113,-0.028387965634465218,-0.006687463726848364
1772562142389214200,8.755214111328126,-0.026256904006004333,-0.033718813210725784,-0.0033332123421132565
1772562142399197400,8.765197509765626,-0.02129383757710457,-0.0394856221973896,0.0028823392931371927
1772562142409179100,8.77517919921875,-0.021942583844065666,-0.03356168791651726,0.007327953819185495
1772562142419162400,8.785162353515625,-0.025249164551496506,-0.019118301570415497,0.0022506373934447765
1772562142429144300,8.795144287109375,-0.028686771169304848,-0.0025662221014499664,-0.0027771443128585815
1772562142439127300,8.805127197265625,-0.027407655492424965,0.009236907586455345,-0.005601160228252411
1772562142449109200,8.815109130859375,-0.031557127833366394,0.01812041364610195,-0.00729519734159112
1772562142459092500,8.825092529296874,-0.033972349017858505,0.01624714583158493,-0.010002832859754562
1772562142469074200,8.83507421875,-0.02761192061007023,0.008228901773691177,-0.011668373830616474
1772562142479057400,8.845057373046876,-0.02214578166604042,-0.002395513467490673,-0.0068240840919315815
1772562142489039000,8.8550390625,-0.02027437835931778,-0.00635057408362627,-0.0017449031583964825
1772562142499022300,8.865022216796875,-0.01986691541969776,-0.007292267866432667,-0.004191282670944929
1772562142509004300,8.87500439453125,-0.020546020939946175,-0.00541473925113678,-0.00860307551920414
1772562142518987300,8.8849873046875,-0.0190205629914999,-0.007503722794353962,-0.012176238931715488
1772562142528969200,8.89496923828125,-0.019274894148111343,-0.017494305968284607,-0.016764599829912186
1772562142538952400,8.904952392578124,-0.016110260039567947,-0.022187860682606697,-0.013967480510473251
1772562142548934100,8.91493408203125,-0.015660185366868973,-0.029282787814736366,-0.011059309355914593
1772562142558917400,8.92491748046875,-0.018907377496361732,-0.03376621752977371,-0.0065138256177306175
1772562142568899300,8.9348994140625,-0.015479356981813908,-0.02654106356203556,-0.004608334042131901
1772562142578881300,8.94488134765625,-0.019164107739925385,-0.011619637720286846,-0.0008013451588340104
1772562142588864300,8.9548642578125,-0.022547386586666107,-0.005218463949859142,-0.0018469021888449788
1772562142598846200,8.96484619140625,-0.01907835341989994,0.0057252636179327965,-0.0005411543534137309
1772562142608829200,8.9748291015625,-0.017463145777583122,0.013409282080829144,-0.003891411004588008
1772562142618811400,8.984811279296874,-0.015587481670081615,0.014145912602543831,-0.005681854207068682
1772562142628794000,8.994794189453126,-0.014606906101107597,0.01624475046992302,-0.0041404166258871555
1772562142638776300,9.0047763671875,-0.011261975392699242,0.012233496643602848,-0.0037649108562618494
1772562142648759300,9.01475927734375,-0.009127984754741192,0.0026378610637038946,-0.0065196845680475235
1772562142658741200,9.0247412109375,-0.008371380157768726,-0.004936701618134975,-0.007202519103884697
1772562142668724200,9.03472412109375,-0.005870938766747713,-0.013672136701643467,-0.013163738884031773
1772562142678706200,9.0447060546875,-0.005301554687321186,-0.011433483101427555,-0.01888713799417019
1772562142688689200,9.054689208984374,-0.005005677696317434,-0.013773868791759014,-0.01949220895767212
1772562142698671400,9.06467138671875,-0.004924184642732143,-0.016406403854489326,-0.017315873876214027
1772562142708654000,9.074654052734376,-0.001088700257241726,-0.018984610214829445,-0.018378740176558495
1772562142718636300,9.08463623046875,0.0017278589075431228,-0.010084858164191246,-0.00746111199259758
1772562142728619300,9.094619384765625,-0.0015073491958901286,0.007850199937820435,0.00020106865849811584
1772562142738601200,9.104601318359375,-0.004372910596430302,0.017600830644369125,-0.0006815029191784561
1772562142748584200,9.114584228515625,-0.005028048064559698,0.019639214500784874,-0.006155630573630333
1772562142758566400,9.12456640625,-0.0003616572648752481,0.01437920518219471,-0.016522251069545746
1772562142768549000,9.134549072265624,0.0019827233627438545,-0.0000900148443179205,-0.02093963697552681
1772562142778530300,9.1445302734375,0.005832322873175144,-0.011929363943636417,-0.02672162465751171
1772562142788513300,9.15451318359375,0.007811584044247866,-0.01318158209323883,-0.033724140375852585
1772562142798495200,9.1644951171875,0.01227237842977047,-0.017241571098566055,-0.035470910370349884
1772562142808478500,9.174478515625,0.00980282947421074,-0.01720934733748436,-0.03568742424249649
1772562142818460200,9.184460205078125,0.006143379956483841,-0.010158628225326538,-0.03593376651406288
1772562142828443400,9.194443359375,0.00564137427136302,-0.002493784064427018,-0.030552316457033157
1772562142838425000,9.204425048828124,0.006362824235111475,0.006432865746319294,-0.024519192054867744
1772562142848408300,9.214408203125,0.00749067310243845,0.01187956240028143,-0.015870841220021248
1772562142858390300,9.224390380859376,0.006917560938745737,0.014427142217755318,-0.010941064916551113
1772562142868372200,9.234372314453125,0.009428922086954117,0.013850035145878792,-0.008016647771000862
1772562142878355200,9.244355224609375,0.008252071216702461,0.016508668661117554,-0.004204865079373121
1772562142888337200,9.254337158203125,0.008171110413968563,0.011063570156693459,-0.0059657469391822815
1772562142898320100,9.264320068359375,0.008746353909373283,0.010276339948177338,-0.007386277429759502
1772562142908302300,9.27430224609375,0.010513360612094402,0.007622765842825174,-0.010550378821790218
1772562142918285000,9.28428515625,0.00957033596932888,0.0033968619536608458,-0.010815629735589027
1772562142928267300,9.294267333984376,0.008680840022861958,-0.002846386516466737,-0.012474779039621353
1772562142938250200,9.304250244140626,0.012773585505783558,-0.0034264230635017157,-0.006384928710758686
1772562142948232200,9.314232177734375,0.004862399306148291,0.0007747135823592544,-0.009135175496339798
1772562142958215200,9.324215087890625,0.010072341188788414,-0.002377936616539955,-0.01116184052079916
1772562142968197400,9.334197265625,0.009763681329786777,-0.0027153589762747288,-0.008539159782230854
1772562142978180000,9.34418017578125,0.01028432883322239,-0.0049494849517941475,-0.010979147627949715
1772562142988162300,9.354162353515624,0.007254184223711491,-0.01034718006849289,-0.009276854805648327
1772562142998145300,9.364145263671874,0.008154332637786865,-0.008273642510175705,-0.013058011420071125
1772562143008127200,9.374127197265626,0.009439574554562569,-0.0037555897142738104,-0.012108860537409782
1772562143018110200,9.384110107421876,0.0034197650384157896,0.003478088416159153,-0.010732805356383324
1772562143028092200,9.394092041015625,-0.0010010822443291545,0.010731739923357964,-0.014021010138094425
1772562143038075100,9.4040751953125,-0.0018133464036509395,0.016115320846438408,-0.017375795170664787
1772562143048057300,9.414057373046875,0.002603772561997175,0.017485516145825386,-0.02263260819017887
1772562143058040000,9.4240400390625,0.00469515286386013,0.022825952619314194,-0.022182799875736237
1772562143068022300,9.434022216796874,0.003174487967044115,0.019771307706832886,-0.020928984507918358
1772562143078005200,9.444005126953124,0.0027055053506046534,0.019995812326669693,-0.022417157888412476
1772562143087987200,9.4539873046875,0.004328435752540827,0.011507252231240273,-0.030527815222740173
1772562143097970200,9.46397021484375,0.0067814732901751995,-0.0017443705582991242,-0.0331725999712944
1772562143107952400,9.473952392578125,0.004193946253508329,0.012352806515991688,-0.043538689613342285
1772562143117935000,9.48393505859375,0.001458080718293786,0.01901736669242382,-0.04036606475710869
1772562143127917300,9.493917236328125,-0.0011169298086315393,0.01010669581592083,-0.03904327377676964
1772562143137900300,9.503900390625,0.003477822057902813,-0.0065654912032186985,-0.03592924028635025
1772562143147882200,9.51388232421875,0.004387557972222567,-0.019222430884838104,-0.031266309320926666
1772562143157864400,9.523864501953126,0.007181746419519186,-0.02376977726817131,-0.02423849329352379
1772562143167847200,9.53384716796875,0.0030573089607059956,-0.012295282445847988,-0.02322649210691452
1772562143177829400,9.543829345703125,0.002948385663330555,-0.010223875753581524,-0.017005881294608116
1772562143187812400,9.553812255859375,0.002082858234643936,-0.004533765371888876,-0.012650014832615852
1772562143197794300,9.563794189453125,0.00026525085559114814,0.004514324478805065,-0.01311952993273735
1772562143207777300,9.57377734375,-0.001764077926054597,0.008961270563304424,-0.011059841141104698
1772562143217759200,9.58375927734375,-0.0004945489927195013,0.01643356867134571,-0.011109909042716026
1772562143227742200,9.5937421875,-0.003695402294397354,0.018602445721626282,-0.008949286304414272
1772562143237724400,9.603724365234376,-0.006580404471606016,0.016926519572734833,-0.011149323545396328
1772562143247707100,9.61370703125,-0.003120958572253585,0.017478059977293015,-0.011957060545682907
1772562143257689300,9.623689453125,-0.002430400811135769,0.01423725951462984,-0.014672419987618923
1772562143267672300,9.63367236328125,-0.0032581111881881952,0.009306150488555431,-0.018314825370907784
1772562143277654300,9.643654296875,-0.0006050702068023384,0.0049468218348920345,-0.015975771471858025
1772562143287637200,9.65363720703125,-0.0023153522051870823,0.0017619474092498422,-0.017401892691850662
1772562143297619500,9.663619384765624,-0.0001304948964389041,0.002776611829176545,-0.019238408654928207
1772562143307602200,9.673602294921874,0.0009957558941096067,0.005876265000551939,-0.01653902977705002
1772562143317584400,9.68358447265625,0.0046299053356051445,0.011123225092887878,-0.01483620423823595
1772562143327567400,9.6935673828125,0.0023166837636381388,0.010958109050989151,-0.01107608713209629
1772562143337549300,9.70354931640625,0.004174771253019571,0.022056300193071365,-0.011443336494266987
1772562143347532300,9.7135322265625,0.0032623722217977047,0.029389047995209694,-0.009645703248679638
1772562143357514200,9.72351416015625,0.00700944010168314,0.030588269233703613,-0.012020177207887173
1772562143367497200,9.733497314453125,0.003035204717889428,0.013828463852405548,-0.012916597537696362
1772562143377479400,9.7434794921875,0.003126284806057811,-0.007605188991874456,-0.017854897305369377
1772562143387462100,9.753462158203124,0.00920388475060463,-0.023850204423069954,-0.020779313519597054
1772562143397444400,9.7634443359375,0.013363209553062916,-0.023257119581103325,-0.014631140977144241
1772562143407427300,9.77342724609375,0.009135175496339798,-0.023386282846331596,-0.00965529028326273
1772562143417409300,9.7834091796875,0.004489290527999401,-0.0169073436409235,-0.0075790900737047195
1772562143427392300,9.793392333984375,0.001192829804494977,-0.0080323601141572,-0.009822537191212177
1772562143437374500,9.80337451171875,0.0010253170039504766,0.0018423747969791293,-0.013278787024319172
1772562143447357200,9.813357177734375,0.00046312372433021665,0.013088904321193695,-0.017416007816791534
1772562143457339400,9.82333935546875,-0.0016085492679849267,0.013163206167519093,-0.018999524414539337
1772562143467321000,9.833321044921876,-0.0006831008358858526,0.007022755686193705,-0.024219585582613945
1772562143477304300,9.84330419921875,0.0013313142117112875,-0.0007267766632139683,-0.01677658222615719
1772562143487286300,9.853286376953125,0.0021766014397144318,-0.001187237212434411,-0.008930377662181854
1772562143497269200,9.863269287109375,-0.0022397185675799847,-0.002636529505252838,-0.003323092358186841
1772562143507251200,9.873251220703125,-0.0016937704058364034,-0.004057592246681452,-0.00039015308720991015
1772562143517234400,9.883234375,-0.002418150193989277,-0.002430933527648449,-0.006101035512983799
1772562143527216000,9.893216064453124,-0.0036935380194336176,0.003079146845266223,-0.013344034552574158
1772562143537199400,9.903199462890624,-0.006628341507166624,0.008522648364305496,-0.01846342906355858
1772562143547181000,9.91318115234375,-0.00791358295828104,0.008067513816058636,-0.022395586594939232
1772562143557164300,9.923164306640626,-0.006618754006922245,0.006662430241703987,-0.02521134726703167
1772562143567146200,9.933146240234375,-0.005980394314974546,-0.002552906284108758,-0.021079719066619873
1772562143577129200,9.943129150390625,-0.0034674357157200575,-0.008931975811719894,-0.020488496869802475
1772562143587111200,9.953111083984375,-0.004348409362137318,-0.018571021035313606,-0.012852948158979416
1772562143597094400,9.963094482421875,-0.002959304489195347,-0.022540196776390076,-0.005197691265493631
1772562143607076000,9.973076171875,-0.003579554846510291,-0.024458738043904305,-0.001463406952098012
1772562143617059300,9.983059326171874,-0.004532699938863516,-0.019045863300561905,0.0031443943735212088
1772562143627041300,9.993041259765626,-0.007674697786569595,-0.009250489994883537,0.004102599807083607
1772562143637024300,10.003024169921876,-0.008706139400601387,0.003180879633873701,-0.0009126652730628848
1772562143647006200,10.013006103515625,-0.008024636656045914,0.011713647283613682,-0.003425357863306999
1772562143656989400,10.022989501953125,-0.009725064970552921,0.01979287900030613,-0.007216101046651602
1772562143666971100,10.03297119140625,-0.009459814056754112,0.02304326742887497,-0.00827683787792921
1772562143676954400,10.042954345703125,-0.007084541022777557,0.01296320278197527,-0.008650746196508408
1772562143686936000,10.05293603515625,-0.002826412906870246,0.005909288302063942,-0.0057529606856405735
1772562143696919300,10.062919189453124,-0.002123870886862278,0.0047026099637150764,-0.002728142309933901
1772562143706901200,10.0729013671875,-0.0020303940400481224,0.005240302067250013,-0.007752461824566126
1772562143716884200,10.08288427734375,-0.002347310073673725,-0.0005403553950600326,-0.005201153457164764
1772562143726866200,10.0928662109375,-0.0032804817892611027,-0.00626029260456562,-0.010932276025414467
1772562143736849400,10.102849365234375,-0.0038810246624052525,-0.014662032946944237,-0.01347825862467289
1772562143746831000,10.1128310546875,-0.004712196998298168,-0.022484270855784416,-0.01404790859669447
1772562143756814300,10.122814453125,-0.003430684097111225,-0.029587186872959137,-0.016875119879841805
1772562143766796300,10.13279638671875,-0.001145159243606031,-0.027648139744997025,-0.011897139251232147
1772562143776778200,10.1427783203125,0.00015206649550236762,-0.024515729397535324,-0.006037652492523193
1772562143786761000,10.152760986328126,-0.0016205335268750787,-0.009104282595217228,-0.0049825082533061504
1772562143796743200,10.1627431640625,-0.006295179948210716,0.003043194068595767,-0.006336458958685398
1772562143806726100,10.17272607421875,-0.00634817685931921,0.015922773629426956,-0.0024170849937945604
1772562143816708000,10.1827080078125,-0.005878661759197712,0.01997530646622181,-0.004102333448827267
1772562143826691000,10.192691162109375,-0.005796902813017368,0.018634937703609467,-0.0025885924696922302
1772562143836673000,10.202673095703124,-0.0070645674131810665,0.01612464152276516,-0.0001930791768245399
1772562143846656000,10.212656005859374,-0.004978246986865997,0.006114085204899311,-0.0006852313526906073
1772562143856638200,10.22263818359375,-0.0005755090969614685,0.00031664984999224544,-0.0016793893883004785
1772562143866621000,10.232620849609376,-0.003977164626121521,-0.008734103292226791,-0.0015249260468408465
1772562143876603100,10.24260302734375,-0.000922519015148282,-0.014305702410638332,-0.005114068277180195
1772562143886586000,10.252586181640625,0.0026607641484588385,-0.010936536826193333,-0.0026040389202535152
1772562143896568000,10.262568115234375,0.000147272803587839,-0.006601709872484207,0.00038163099088706076
1772562143906551000,10.272551025390625,0.0008556736283935606,-0.0030567762441933155,0.002005626680329442
1772562143916533200,10.282533203125,-0.0012146678054705262,-0.0014868428697809577,0.0007195860962383449
1772562143926516000,10.292515869140624,0.002427737694233656,-0.0027750139124691486,0.0008913599886000156
1772562143936498200,10.302498291015626,-0.0017393104499205947,-0.00026551715563982725,-0.0007012102869339287
1772562143946481200,10.312481201171876,-0.0019390475936233997,0.010491789318621159,-0.004822984803467989
1772562143956463000,10.322463134765625,-0.0036064526066184044,0.014581339433789253,-0.0046538738533854485
1772562143966446000,10.332446044921875,0.0008154599345289171,0.010408964939415455,-0.008350874297320843
1772562143976428000,10.342427978515625,0.002796585438773036,0.0015824503498151898,-0.008945291861891747
1772562143986411000,10.352410888671875,0.004348409362137318,-0.012492888607084751,-0.007816910743713379
1772562143996393200,10.362393310546874,0.00427304208278656,-0.018850652500987053,-0.0081527354195714
1772562144006376000,10.3723759765625,0.003953462466597557,-0.02237960696220398,-0.008237956091761589
1772562144016358100,10.382358154296876,0.0015249260468408465,-0.02015240676701069,-0.004116714466363192
1772562144026341000,10.392341064453126,-0.001020523370243609,-0.016772055998444557,-0.008688030764460564
1772562144036323000,10.402322998046875,-0.0012660667998716235,-0.006412093061953783,-0.006209160201251507
1772562144046306000,10.41230615234375,-0.004220577888190746,0.004345213528722525,-0.009985522367060184
1772562144056288000,10.4222880859375,-0.005460012704133987,0.005182511638849974,-0.006052299868315458
1772562144066271000,10.43227099609375,-0.0035121769178658724,0.0075750951655209064,-0.0013622068800032139
1772562144076253200,10.442253173828124,-0.0029885992407798767,0.0060328589752316475,0.003038134193047881
1772562144086235100,10.452235107421876,-0.001916410750709474,0.0043992758728563786,0.0030714236199855804
1772562144096218000,10.462218017578126,-0.00043010051012970507,-0.000532632227987051,-0.005613144487142563
1772562144106200300,10.472200439453125,0.0003432814555708319,-0.0017467673169448972,-0.007700530346482992
1772562144116183000,10.48218310546875,0.00016192019393201917,-0.0014892396284267306,-0.009970609098672867
1772562144126165200,10.492165283203125,-0.004097007215023041,0.0019156117923557758,-0.012763732112944126
1772562144136148200,10.502148193359375,-0.005058408249169588,0.008177502080798149,-0.014611699618399143
1772562144146130200,10.512130126953124,-0.0005997438565827906,0.009923471137881279,-0.016392821446061134
1772562144156113200,10.522113037109374,-0.003861583536490798,0.00954104121774435,-0.01690601371228695
1772562144166095000,10.53209521484375,-0.003385410411283374,-0.003293264890089631,-0.01647857576608658
1772562144176078000,10.542078125,0.0007709851488471031,-0.012386362068355083,-0.015688149258494377
1772562144186060300,10.552060302734375,0.0036993969697505236,-0.01732040010392666,-0.006303968373686075
1772562144196043000,10.56204296875,0.0014745922526344657,-0.021887455135583878,0.00039228363311849535
1772562144206025200,10.572025146484375,0.0041364217177033424,-0.025053953751921654,0.0008679241873323917
1772562144216008200,10.58200830078125,0.004078897647559643,-0.016380038112401962,0.002148372121155262
1772562144225990100,10.591990234375,0.0015097459545359015,-0.009298160672187805,0.0006506102508865297
1772562144235973000,10.60197314453125,-0.003284742822870612,0.001315068919211626,-0.007003847509622574
1772562144245955300,10.611955322265626,-0.000788561999797821,0.0133288549259305,-0.012465724721550941
1772562144255938000,10.62193798828125,-0.003305781865492463,0.01919340156018734,-0.01429105456918478
1772562144265920300,10.631920166015625,-0.0004748416249640286,0.022784940898418427,-0.015453258529305458
1772562144275903200,10.6419033203125,-0.0005065332516096532,0.02640843763947487,-0.01004970446228981
1772562144285885200,10.65188525390625,-0.00037763622822239995,0.01878007873892784,-0.01170326117426157
1772562144295868200,10.6618681640625,0.005044027231633663,0.0076153092086315155,-0.011084608733654022
1772562144305850000,10.67185009765625,0.006037918850779533,0.0005763080553151667,-0.01047234795987606
1772562144315833000,10.6818330078125,0.00612180819734931,0.0007866977830417454,-0.012988769449293613
1772562144325815300,10.691815185546876,0.007694138679653406,0.00213585514575243,-0.006980677600950003
1772562144335798000,10.701798095703126,0.006705040577799082,-0.00032623723382130265,-0.0009592706337571144
1772562144345780200,10.7117802734375,0.003028813051059842,-0.007163104135543108,-0.005440571811050177
1772562144355763200,10.72176318359375,0.00800199992954731,-0.014507037587463856,-0.007829693146049976
1772562144365745200,10.7317451171875,0.0068083712831139565,-0.023554062470793724,-0.014445784501731396
1772562144375728000,10.74172802734375,0.0073324814438819885,-0.02191142365336418,-0.011974637396633625
1772562144385710000,10.7517099609375,0.0031521173659712076,-0.012189820408821106,-0.006720487028360367
1772562144395692000,10.761692138671876,0.0032623722217977047,-0.00002103897168126423,-0.0030775489285588264
1772562144405675300,10.77167529296875,-0.00070520507870242,0.013423130847513676,-0.002930542454123497
1772562144415657000,10.781656982421875,-0.0012367720482870936,0.0258044321089983,-0.004536428488790989
1772562144425640200,10.79164013671875,-0.0031582426745444536,0.026272883638739586,-0.008717059157788754
1772562144435622100,10.8016220703125,-0.0014258564915508032,0.02418603003025055,-0.010573548264801502
1772562144445605000,10.811605224609375,0.0005792375304736197,0.018567292019724846,-0.012348012998700142
1772562144455587000,10.821587158203124,0.003933488857001066,0.016760870814323425,-0.010089118964970112
1772562144465570300,10.8315703125,0.001977929612621665,0.015007978305220604,-0.006854710169136524
1772562144475552000,10.841552001953126,0.0008386294357478619,0.011377024464309216,-0.006744189187884331
1772562144485535200,10.85153515625,0.004707669839262962,0.0067545752972364426,-0.012636699713766575
1772562144495517000,10.861516845703125,-0.000028495824153651483,0.0013129384024068713,-0.012338158674538136
1772562144505500200,10.871500244140625,0.0006058691651560366,-0.005345230456441641,-0.0142905218526721
1772562144515482000,10.881482177734375,-0.0007414240390062332,-0.006473878398537636,-0.01398612279444933
1772562144525465000,10.891465087890625,0.001088700257241726,-0.011960522271692753,-0.006180131807923317
1772562144535447000,10.901447021484374,-0.0008290420519188046,-0.016100673004984856,-0.0011262508342042565
1772562144545430300,10.91143017578125,0.0012066783383488655,-0.011501127853989601,0.0032671659719198942
1772562144555412000,10.921411865234376,0.004956675227731466,-0.0013036173768341541,0.009414540603756905
1772562144565395200,10.931395263671876,-0.0012215919559821486,0.011286210268735886,0.007605188991874456
1772562144575377200,10.941377197265625,-0.0005424859118647873,0.016332900151610374,-0.0006551376427523792
1772562144585360100,10.951360107421875,-0.000023435817638528533,0.010103766806423664,-0.01082654856145382
1772562144595342000,10.961342041015625,0.0019715381786227226,0.004006992094218731,-0.019571037963032722
1772562144605325300,10.9713251953125,0.004790760576725006,-0.005184642039239407,-0.024624386802315712
1772562144615307000,10.98130712890625,0.004007524810731411,-0.01239062286913395,-0.022059496492147446
1772562144625290200,10.991290283203124,0.006592655088752508,-0.018126007169485092,-0.014339790679514408
1772562144635272000,11.00127197265625,0.0040946099907159805,-0.022355638444423676,-0.005634183529764414
1772562144645255200,11.011255126953126,0.002930276095867157,-0.019837886095046997,-0.003910852130502462
1772562144655237000,11.021237060546875,0.0011659319279715419,-0.012366387993097305,-0.0002892192860599607
1772562144665220000,11.03122021484375,-0.0002961435238830745,-0.0041550640016794205,-0.00009880327706923708
1772562144675202000,11.0412021484375,-0.0008167914929799736,0.0024639565963298082,0.00022796659322921187
1772562144685185300,11.051185302734375,-0.0018724685069173574,0.011872904375195503,-0.003694869577884674
1772562144695167000,11.0611669921875,-0.0027915253303945065,0.01858673430979252,-0.006147641222923994
1772562144705150200,11.071150146484374,-0.003020024625584483,0.019241604954004288,-0.0076882797293365
1772562144715132000,11.0811318359375,-0.004794222768396139,0.020958544686436653,-0.01125079020857811
1772562144725114000,11.091114013671875,-0.0007925567333586514,0.017408551648259163,-0.009739712812006474
1772562144735097000,11.10109716796875,-0.00021358551748562604,0.010329603217542171,-0.013006346300244331
1772562144745079000,11.1110791015625,0.002120675053447485,0.0020849888678640127,-0.012776781804859638
1772562144755062000,11.12106201171875,0.0026349315885454416,-0.0003539340978022665,-0.006672017276287079
1772562144765044200,11.131044189453124,0.0013435647124424577,0.0022066952660679817,-0.004459196701645851
1772562144775027500,11.14102734375,0.00561074772849679,0.0007472829893231392,-0.00004820321555598639
1772562144785009400,11.151009521484376,0.009705624543130398,-0.00224903947673738,-0.003549461020156741
1772562144794992400,11.160992431640626,0.006534065585583448,0.0012186624808236957,0.0013574132462963462
1772562144804974600,11.170974609375,0.00011771172285079956,-0.004023503512144089,-0.0014351775171235204
1772562144814957300,11.180957275390625,0.001088966615498066,-0.008534898981451988,0.0010426276130601764
1772562144824939500,11.190939453125,0.0012178635224699974,-0.014519554562866688,0.00027377295191399753
1772562144834922500,11.200922607421875,0.001490571303293109,-0.020431771874427795,0.0011443602852523327
1772562144844904400,11.210904541015625,-0.0009526127250865102,-0.021772140637040138,-0.0025963156949728727
1772562144854887400,11.220887451171874,0.003963316325098276,-0.01666339859366417,-0.003865045728161931
1772562144864869600,11.23086962890625,-0.0013763216556981206,-0.006652842741459608,-0.005901298485696316
1772562144874852400,11.240852294921876,0.0004122573300264776,0.0017393104499205947,-0.0019419770687818527
1772562144884834600,11.25083447265625,-0.002031991956755519,0.012313657440245152,0.0012668657582253218
1772562144894817500,11.260817626953125,-0.0054735951125621796,0.020349746569991112,0.004185690078884363
1772562144904799500,11.270799560546875,-0.0035145736765116453,0.019646139815449715,0.0013512879377231002
1772562144914782500,11.280782470703125,-0.006105030421167612,0.011902731843292713,-0.004473045468330383
1772562144924764400,11.290764404296874,0.0024583640042692423,0.0012229235144332051,-0.005107676610350609
1772562144934747400,11.300747314453124,0.003899933071807027,-0.00012916330888401717,-0.01492035947740078
1772562144944729600,11.3107294921875,0.0024764735717326403,-0.000672181835398078,-0.016693493351340294
1772562144954712300,11.32071240234375,0.0027060380671173334,-0.002560895634815097,-0.021152690052986145
1772562144964694500,11.330694580078125,0.0041555967181921005,-0.003201652318239212,-0.02569364570081234
1772562144974677500,11.340677490234375,0.0026847326662391424,-0.0102579640224576,-0.02472851611673832
1772562144984659500,11.350659423828125,0.0009116000146605074,-0.02562972903251648,-0.016688166186213493
1772562144994642400,11.360642333984375,0.0070363376289606094,-0.029353894293308258,-0.011371963657438755
1772562145004624600,11.370624755859374,0.006551109720021486,-0.027295004576444626,-0.0011385013349354267
1772562145014607400,11.380607421875,0.0024802018888294697,-0.015794942155480385,0.0070160976611077785
1772562145024589600,11.390589599609376,0.001973402453586459,-0.0029356025625020266,0.0046935551799833775
1772562145034572500,11.400572509765626,-0.005769472103565931,0.010163155384361744,-0.004031226970255375
1772562145044554500,11.410554443359375,-0.002797118155285716,0.019727632403373718,-0.015603460371494293
1772562145054536700,11.42053662109375,-0.0073657711036503315,0.020502878352999687,-0.019936690106987953
1772562145064519400,11.43051953125,-0.004205664154142141,0.015271098352968693,-0.019096195697784424
1772562145074501600,11.440501708984375,-0.0035057852510362864,0.007589742541313171,-0.011354120448231697
1772562145084484600,11.450484619140624,-0.002635996788740158,0.0016290555940940976,-0.005338572897017002
1772562145094466600,11.460466552734376,-0.00013369068619795144,-0.0004415521107148379,0.0025515747256577015
1772562145104449500,11.470449462890626,0.001139300293289125,-0.005794239696115255,0.007755657657980919
1772562145114431500,11.480431396484375,0.0025960493367165327,-0.0031886028591543436,0.008094677701592445
1772562145124414500,11.49041455078125,0.0023790018167346716,0.005537777207791805,0.0032842103391885757
1772562145134396700,11.500396728515625,-0.002061553066596389,0.0062485747039318085,-0.004421379882842302
1772562145144379400,11.51037939453125,-0.0019092201255261898,0.0041044638492167,-0.008649414405226707
1772562145154361600,11.520361572265625,-0.004463457968086004,-0.003683950752019882,-0.009103749878704548
1772562145164344600,11.530344482421874,-0.0015097459545359015,-0.0037031255196779966,-0.004829908721148968
1772562145174326500,11.540326416015626,0.0013819142477586865,0.0011464908020570874,0.0037004624027758837
1772562145184309500,11.5503095703125,0.0007241134881041944,0.012122176587581635,0.005178516730666161
1772562145194291700,11.560291748046875,0.003230947069823742,0.019533220678567886,0.0024503744207322598
1772562145204274400,11.5702744140625,0.006393450777977705,0.01655527390539646,0.005146558862179518
1772562145214256600,11.580256591796875,0.009576727636158466,0.018459435552358627,0.011243066750466824
1772562145224239600,11.590239501953125,0.006779609248042107,0.015668975189328194,0.012514726258814335
1772562145234221600,11.6002216796875,0.0002359560749027878,-0.01155545562505722,-0.005284244194626808
1772562145244204500,11.61020458984375,0.007247260306030512,-0.01824212074279785,-0.022099176421761513
1772562145254186500,11.6201865234375,0.007573231123387814,-0.013593306764960289,-0.02520628646016121
1772562145264169500,11.63016943359375,0.008016914129257202,-0.0031699605751782656,-0.016983510926365852
1772562145274151700,11.640151611328125,0.0014346449170261621,0.005628590937703848,-0.006163619924336672
1772562145284134400,11.650134521484375,0.00629065278917551,0.008890963159501553,0.0008753810543566942
1772562145294116600,11.66011669921875,0.009159675799310207,0.03712313249707222,0.013076120987534523
1772562145304099600,11.670099609375,-0.0002181128947995603,0.04332830011844635,0.010587130673229694
1772562145314081500,11.68008154296875,-0.004192348103970289,0.04351658374071121,0.013707556761801243
1772562145324064500,11.690064453125,-0.005311142187565565,0.03723525255918503,0.01866263337433338
1772562145334046700,11.700046630859376,-0.0022628880105912685,0.01119166798889637,0.0052176653407514095
1772562145344029400,11.710029541015626,0.003192064817994833,-0.0012998889433220029,0.0021172130946069956
1772562145354011600,11.72001171875,0.0031137678306549788,-0.010096043348312378,-0.006719421595335007
1772562145363994600,11.72999462890625,0.0012519520241767168,-0.007379885762929916,-0.016941167414188385
1772562145373976600,11.7399765625,-0.007605455350130796,-0.00018029600323643535,-0.027535220608115196
1772562145383958500,11.74995849609375,-0.00932346098124981,-0.0014045510906726122,-0.040044888854026794
1772562145393941500,11.75994140625,-0.014956844970583916,-0.014424213208258152,-0.05372235178947449
1772562145403923500,11.76992333984375,-0.025722140446305275,-0.009041432291269302,-0.05438627675175667
1772562145413906700,11.77990673828125,-0.04878218472003937,-0.002764361212030053,-0.027707794681191444
