time,seconds_elapsed,z,y,x
1772562069331012900,0.078012939453125,0.0900730696350336,0.08867781588435172,0.15365268462002277
1772562069340994800,0.087994873046875,0.12880582813322544,0.13712591271102428,0.1442697200510651
1772562069350977000,0.09797705078125,0.10275836368501186,0.14401976387798784,0.15866327932365237
1772562069360959700,0.107959716796875,0.028027824610471725,0.11781593982428312,0.17380071576610207
1772562069370942000,0.11794189453125,-0.008603577694296836,0.107991295902431,0.16451858122311533
1772562069380925000,0.127925048828125,-0.01903729342520237,0.13236235157102347,0.17524441176839173
1772562069390907000,0.137906982421875,-0.020173603978753087,0.12204992413222789,0.17061492533683775
1772562069400889900,0.147889892578125,-0.017390110740065575,0.10808335810005665,0.17972535657472907
1772562069410872000,0.1578720703125,0.0014075287103652954,0.07703677019029856,0.16419760564044117
1772562069420854800,0.167854736328125,0.028763737669587133,0.06773468883782625,0.15003610155805944
1772562069430837000,0.1778369140625,-0.010215689066052436,0.05835194346457719,0.18497794334068893
1772562069440820000,0.187820068359375,-0.026739538365602493,0.03421352750808,0.18844605784267185
1772562069450802000,0.197802001953125,0.017810966500639916,0.056207040390372276,0.15081512310653925
1772562069460783900,0.207783935546875,0.039844519132375716,0.06596914047002791,0.10802965515144168
1772562069470766800,0.217766845703125,0.02213642848432064,0.03150339176654816,0.07039638232775032
1772562069480748800,0.227748779296875,0.010479892960190772,0.005190846641361713,0.08221709543764591
1772562069490732000,0.23773193359375,0.018003274202346802,0.012109247727692127,0.11267660417445004
1772562069500713700,0.247713623046875,0.007701660418510436,0.019404373171925542,0.1296305885195732
1772562069510697000,0.257697021484375,-0.02207330012023449,0.024026772275567054,0.09800094002485275
1772562069520679000,0.267678955078125,-0.011306406912207603,0.022311200529336928,0.10083119501471519
1772562069530662000,0.277661865234375,0.00812193165719509,0.016703005258738992,0.11191109969466924
1772562069540643800,0.287643798828125,0.007985738056898117,0.03446078026741743,0.10449863148108124
1772562069550625800,0.297625732421875,0.002997428250312805,0.040965924377739424,0.09387092754803597
1772562069560608800,0.30760888671875,-0.005514379507303237,0.07269231124520302,0.06956460767872631
1772562069570591000,0.317591064453125,-0.0440191744685173,0.10086860441565514,0.001155380580201745
1772562069580573700,0.32757373046875,-0.0755950469493866,0.09367021734416485,-0.016814941200613973
1772562069590556000,0.337555908203125,-0.12881985665857792,0.11340163051337003,-0.04557100702039897
1772562069600539000,0.347538818359375,-0.10544131915867327,0.1480874517083168,-0.17748320367112755
1772562069610520800,0.357520751953125,-0.06052957976460457,0.15403262384831903,-0.3661848437100649
1772562069620503800,0.36750390625,-0.028631635722517965,0.1704024516299367,-0.47375659902617334
1772562069630485800,0.37748583984375,-0.09062310473322868,0.13497428763508795,-0.49678610389269884
1772562069640468700,0.38746875,-0.21743980487585066,0.11117284854799508,-0.46539041028432543
1772562069650451000,0.397450927734375,-0.27682722886800765,0.10208061055392026,-0.4208212007176131
1772562069660433000,0.407432861328125,-0.35060149013102054,0.15079787971079348,-0.35877697860635815
1772562069670416000,0.417415771484375,-0.19897183577120303,0.22795476914942264,-0.4645183766901493
1772562069680398000,0.427398193359375,0.13042904542088507,0.327006387270987,-0.7938936850495636
1772562069690380800,0.437380859375,0.25939970872700213,0.3512614153444767,-1.134116331442073
1772562069700362800,0.44736279296875,0.14642097980082033,0.25916093153506514,-1.4118696621790527
1772562069710345700,0.457345703125,-0.014723521879315376,0.12608604778051374,-1.5644010876841843
1772562069720328000,0.467327880859375,-0.10462474207878113,0.10714286237955092,-1.6084876283004879
1772562069730310700,0.477310546875,-0.02850947064757347,0.08612491653114557,-1.7215921755634247
1772562069740292900,0.48729296875,-0.16352175220549106,-0.18584464317262173,-2.0831142881594595
1772562069750275800,0.49727587890625,0.025128011515736577,-0.420016094879806,-2.4621608053997157
1772562069760257800,0.5072578125,0.23065175314843653,-0.5076195595309138,-2.8365152193009853
1772562069770239700,0.51723974609375,-0.2690694543480873,-0.473012064269185,-3.2570901171073317
1772562069780222700,0.52722265625,-0.7249415832459927,-0.6016884208038449,-3.5425685622036456
1772562069790204700,0.53720458984375,-0.46378304815292354,-1.211627075819671,-3.4597906180128453
1772562069800188000,0.54718798828125,-0.03627192134261131,-1.157414277986437,-2.990953501340747
1772562069810169600,0.557169677734375,0.01591536201238632,-0.5088765738546848,-2.551393624818325
1772562069820152800,0.56715283203125,-0.12504442977309227,-0.1101366373680532,-2.2933038296461103
1772562069830134800,0.577134765625,-0.0511953497081995,-0.07859057550355791,-2.143780938307196
1772562069840117800,0.58711767578125,0.14233049561679362,-0.0740970634765923,-2.143667687191069
1772562069850099700,0.597099609375,0.34840894852280613,0.03047930941581726,-2.143444545959681
1772562069860083000,0.6070830078125,0.5760638579428196,0.16233751085698603,-2.152462695804238
1772562069870064600,0.617064697265625,0.8601578629434108,0.3342857306241989,-2.1467544011600315
1772562069880046800,0.627046875,0.9684680155366658,0.6015506197683513,-2.1215930718965827
1772562069890029600,0.637029541015625,0.9071353026956319,0.9007369799606502,-2.0775579692065715
1772562069900011800,0.64701171875,0.8200286816507577,1.0681563241265712,-1.9723763238973915
1772562069909994800,0.656994873046875,0.6266086347877979,1.0465991568349302,-1.8029430095605552
1772562069919976700,0.666976806640625,0.44655426545441146,0.9212539905495941,-1.4940177840337157
1772562069929959700,0.676959716796875,0.19868366647958755,0.7325486972488463,-1.0049996107287704
1772562069939941600,0.686941650390625,-0.043725744479894635,0.586090308047086,-0.5267237807124853
1772562069949924600,0.696924560546875,-0.3329050899207592,0.5409484131589531,-0.012320990782231091
1772562069959906800,0.70690673828125,-0.6146066468268633,0.5779083167657256,0.3671341072589159
1772562069969889500,0.7168896484375,-0.7040870112657547,0.5771607132688165,0.6077301851861179
1772562069979871700,0.726871826171875,-0.7546756272524595,0.44578298882097,0.7598356403641402
1772562069989854000,0.73685400390625,-0.7240320671856403,0.3282943812549114,0.9015583793461323
1772562069999836700,0.746836669921875,-0.5747007528960705,0.33916035092324015,0.9306053178712725
1772562070009819000,0.75681884765625,-0.31002865672409535,0.4776935000836849,0.8405223113641143
1772562070019801900,0.7668017578125,-0.22480887233912944,0.6836442349568009,0.6086150051966309
1772562070029783800,0.77678369140625,-0.09821078338325023,0.8350050092473625,0.42182818580307063
1772562070039766800,0.786766845703125,0.07785656214058399,0.8815132240526378,0.4513344124030322
1772562070049748700,0.796748779296875,0.22513503555357456,0.8878690228201448,0.5994039631284773
1772562070059731700,0.806731689453125,0.3721212480217218,0.8874537200175225,0.8102474384792149
1772562070069714000,0.8167138671875,0.32862755873203275,0.9005129619464277,1.1187567036163062
1772562070079695600,0.826695556640625,0.21405016243755817,0.9257388808786868,1.4218191015243529
1772562070089678800,0.836678955078125,0.12301730785965918,0.9631192018546163,1.681134931360185
1772562070099660500,0.84666064453125,0.046346156111359595,0.9688029465794563,1.8574306788124142
1772562070109643800,0.856643798828125,-0.06926876653730869,0.9648473408214747,1.9633409306570886
1772562070119625700,0.866625732421875,-0.1000076036721468,1.005161961683631,1.9456427768811582
1772562070129609000,0.87660888671875,-0.09060615359842776,1.061103775266558,1.8695264825366436
1772562070139590700,0.886590576171875,-0.1927683049559593,1.0821728667803108,1.8346221962854266
1772562070149574000,0.896573974609375,-0.28640637359619137,1.0886255500510333,1.8211232477650046
1772562070159555600,0.9065556640625,-0.30976795996129514,1.055207995226234,1.8357210974380374
1772562070169538800,0.916538818359375,-0.32272797929942604,1.0010321684025227,1.9133137479454279
1772562070179520800,0.926520751953125,-0.27855741366147996,0.9837899417005479,1.9792749973699448
1772562070189502700,0.936502685546875,-0.23506197080612182,0.9488874090149998,2.0171813880465925
1772562070199485700,0.946485595703125,-0.20300620585381984,0.862044991864264,2.0579589502453803
1772562070209467600,0.956467529296875,-0.2417845570594072,0.7652141185320913,2.151988064029813
1772562070219450600,0.96645068359375,-0.08827274221479892,0.7140237372599542,2.20833480515182
1772562070229432800,0.976432861328125,0.07966741095483303,0.6887345438331365,2.2247337128974496
1772562070239415600,0.98641552734375,0.0884656344383955,0.6574456716001034,2.2210627692997456
1772562070249397800,0.996397705078125,0.12524608982503413,0.611240677525103,2.291475152914226
1772562070259380700,1.006380615234375,-0.006466565665602684,0.6045335811018944,2.386000818043947
1772562070269362700,1.01636279296875,-0.16228899554014206,0.5708205504618584,2.3912159223437306
1772562070279345700,1.026345703125,-0.2633493231356144,0.49929669847413893,2.3348241730362176
1772562070289327900,1.036327880859375,-0.3550479481458664,0.4529023193068802,2.2382458131603897
1772562070299309800,1.046309814453125,-0.4380839587509632,0.4258621905595064,2.129430195263028
1772562070309292800,1.056292724609375,-0.5385065729647874,0.33554449851363893,2.0290262857496737
1772562070319274800,1.066274658203125,-0.5539321056336164,0.23449447311647234,1.9798580579549072
1772562070329257700,1.0762578125,-0.4661971235573292,0.14074951003566383,1.9456934841550886
1772562070339240000,1.086239990234375,-0.37671617459654805,0.004545388344675302,1.906081896995753
1772562070349222700,1.09622265625,-0.3530950605124235,-0.11774404363185166,1.8784552005320787
1772562070359204900,1.106204833984375,-0.2742500718563795,-0.18981661554351448,1.8693071406975388
1772562070369187800,1.116187744140625,-0.30065117204785347,-0.2241146795298904,1.8472152820073067
1772562070379169800,1.126169677734375,-0.35896541385054587,-0.3188162857484072,1.7864176989562808
1772562070389152800,1.13615283203125,-0.3064788552880287,-0.4027181924678385,1.7423143533356487
1772562070399134700,1.146134765625,-0.3349590998411178,-0.4622117071829736,1.6657371634811162
1772562070409116700,1.15611669921875,-0.3726970020830631,-0.52169806150496,1.5898301279731093
1772562070419100000,1.166099853515625,-0.3752192140370607,-0.5278346645638347,1.4865456945873796
1772562070429081600,1.17608154296875,-0.3671504738718271,-0.4688431810867041,1.3484184958793222
1772562070439064800,1.18606494140625,-0.3411591235250234,-0.43744193452037866,1.190795007932186
1772562070449046800,1.196046875,-0.2926853077352047,-0.4782990647614002,1.0543001596663146
1772562070459029800,1.20602978515625,-0.23312486526370046,-0.5284024545144289,0.967028411187604
1772562070469011700,1.21601171875,-0.23108079221546649,-0.5806207905948162,0.9047459233410656
1772562070478995000,1.225994873046875,-0.19196224927008151,-0.6348590881954879,0.8581681504309177
1772562070488976600,1.2359765625,-0.11449790131747722,-0.6879020385317504,0.8161318934079259
1772562070498960000,1.2459599609375,-0.08711831148266792,-0.6803794610071927,0.7519741132088005
1772562070508941600,1.255941650390625,-0.1369593239724636,-0.6601134295046329,0.6731184570282698
1772562070518923800,1.265923828125,-0.16952186940312386,-0.6875471606794744,0.5853533720746636
1772562070528906800,1.27590673828125,-0.22168051118552684,-0.7211448213115335,0.44521797534935176
1772562070538888700,1.285888671875,-0.22717735503613948,-0.7517448344975709,0.3063282678361982
1772562070548871700,1.29587158203125,-0.1668272234916687,-0.7823774347789585,0.18854776465147732
1772562070558854000,1.30585400390625,-0.1653676723331213,-0.8207409215733409,0.08910115586295723
1772562070568836600,1.315836669921875,-0.20457038643062114,-0.8034818898670375,0.010311623721197247
1772562070578818800,1.32581884765625,-0.25833587888777254,-0.7893896516285837,-0.03857384160943329
1772562070588801800,1.3358017578125,-0.31464988678395744,-0.8231848075941205,-0.09494104099757969
1772562070598783700,1.34578369140625,-0.3536129469066858,-0.9122481156647205,-0.16206300476454197
1772562070608766000,1.355765869140625,-0.3451917400419712,-0.9620982613090425,-0.18144648127891122
1772562070618748700,1.365748779296875,-0.38090719654560085,-0.9517593842547386,-0.1921220794742927
1772562070628731000,1.37573095703125,-0.38765725532770157,-0.9277128843653947,-0.2548130750564858
1772562070638713900,1.3857138671875,-0.3581558510333299,-0.922206322838366,-0.31536811805590986
1772562070648695800,1.39569580078125,-0.3502303187310695,-0.9108357646487653,-0.3370628671873361
1772562070658678800,1.4056787109375,-0.37034079434573647,-0.9007136721502988,-0.3309225012687966
1772562070668660700,1.41566064453125,-0.39044484021961684,-0.8659249020375311,-0.30527514205407347
1772562070678643700,1.425643798828125,-0.3947738093346357,-0.8107641558296979,-0.2654114067645743
1772562070688626000,1.4356259765625,-0.44015608884990215,-0.7242079352091998,-0.251273941144906
1772562070698609000,1.44560888671875,-0.4305740215122699,-0.5825148607131093,-0.293849200415425
1772562070708591000,1.455591064453125,-0.35491000097990033,-0.44595162338614464,-0.35847638822458683
1772562070718572800,1.46557275390625,-0.3426063997238874,-0.3868334447894245,-0.3965531304994598
1772562070728556000,1.47555615234375,-0.3690431557506323,-0.3765133455008268,-0.3501866987850517
1772562070738537700,1.485537841796875,-0.3592944996744394,-0.36254933675192297,-0.27866003378573806
1772562070748521000,1.49552099609375,-0.3465513379573822,-0.3582604439189657,-0.19317458420190958
1772562070758503000,1.5055029296875,-0.30969255663752554,-0.3366686802379787,-0.16567547790696843
1772562070768486000,1.51548583984375,-0.3173766813993454,-0.28285836225841193,-0.1851293162438087
1772562070778467800,1.5254677734375,-0.26420506318211556,-0.23812771505229174,-0.24462396347010507
1772562070788451000,1.535451171875,-0.21795126152932642,-0.22779406216237694,-0.2912096456920728
1772562070798432800,1.545432861328125,-0.19552841731905937,-0.2163619830438867,-0.29112249713158234
1772562070808416000,1.555416015625,-0.1602870080679655,-0.20995518474150449,-0.25422526523116973
1772562070818397700,1.565397705078125,-0.12211246797442435,-0.21373631071541457,-0.1888560634156689
1772562070828380000,1.5753798828125,-0.09102934744656085,-0.22644414539076388,-0.13657706492291763
1772562070838363000,1.58536279296875,-0.06733984430134296,-0.2130263723477721,-0.08867507593799381
1772562070848344800,1.5953447265625,-0.03353869698643684,-0.17265782934129237,-0.08686893983148038
1772562070858327800,1.605327880859375,0.03330839536190033,-0.09348229355663061,-0.12232696924163028
1772562070868310000,1.61531005859375,0.08059680075943469,0.011586904354020952,-0.16068194393599405
1772562070878292700,1.625292724609375,0.06646539955437183,0.07267309508807956,-0.15610190440304578
1772562070888275000,1.63527490234375,0.029713585740327834,0.08847440226674079,-0.11278956302963196
1772562070898258000,1.6452578125,0.04889759415984153,0.0847479656221345,-0.026555614899750796
1772562070908240000,1.655239990234375,0.04538461760282516,0.09964888989496976,0.06697057259753346
1772562070918221800,1.665221923828125,0.07013619702160358,0.11516783646829426,0.1285966240956448
1772562070928204800,1.675204833984375,0.10510697263777255,0.09497428568005561,0.1554261970985681
1772562070938187000,1.68518701171875,0.1321837801337242,0.10233246642313897,0.15691121149193493
1772562070948170000,1.695169921875,0.20061843393445014,0.12433993476554751,0.1461615251470357
1772562070958152000,1.70515185546875,0.2001011320620775,0.12986907345056534,0.1450224746471271
1772562070968135000,1.715135009765625,0.1698152993917465,0.12406813208684324,0.1785568242520094
1772562070978116900,1.725116943359375,0.11736790379583835,0.10260573040656745,0.21242672595418988
1772562070988099800,1.735099853515625,0.09903905090093612,0.11183167778290808,0.23826628327276556
1772562070998082000,1.74508203125,0.09669920977652072,0.10470533303432165,0.2451902738496661
1772562071008065000,1.75506494140625,0.10033610497415066,0.09863134688287972,0.23205475181415675
1772562071018047000,1.765046875,0.10041209281980991,0.08265826333388686,0.20812026093192398
1772562071028029000,1.77502880859375,0.04415595259070396,0.10700031210370362,0.20204810141138732
1772562071038012000,1.785011962890625,0.01916179658770561,0.11609269622825086,0.16178316490985453
1772562071047993900,1.794993896484375,-0.025780337944626808,0.09673946872167288,0.1360816643550992
1772562071057977000,1.80497705078125,-0.07527472895383834,0.05515694681555033,0.1258850818483159
1772562071067958800,1.814958740234375,-0.13498480902910232,0.01182991932965815,0.13000161378905176
1772562071077942000,1.82494189453125,-0.19092764552533625,-0.032742066716030235,0.14402838557586073
1772562071087923700,1.834923828125,-0.21182781021296976,-0.06395582788623869,0.14771028895899652
1772562071097907000,1.844906982421875,-0.18433482313156127,-0.06698547790572047,0.11486892658695579
1772562071107889000,1.854888916015625,-0.16188509091436862,-0.08511069798730313,0.07076002800837158
1772562071117870800,1.864870849609375,-0.1547626916885376,-0.06951331588290631,0.04694901737533509
1772562071127853800,1.874853759765625,-0.14412205520868301,-0.048984322595223784,0.03747464819587767
1772562071137836000,1.8848359375,-0.1413198572695255,-0.02007964208498597,0.018145386086776853
1772562071147818800,1.89481884765625,-0.10726093580126762,-0.015235782250389455,0.022161709056049583
1772562071157801000,1.904801025390625,-0.11349486175477504,-0.02404240823611617,0.00834821469374001
1772562071167784000,1.914783935546875,-0.1304448275119066,-0.009303761852905153,-0.0027730449099093676
1772562071177766000,1.924765869140625,-0.10501286461353301,-0.010580138464272021,-0.026545623228698967
1772562071187748900,1.934748779296875,-0.08703472485244274,-0.012166530872881411,-0.022267434452846645
1772562071197730800,1.944730712890625,-0.03439794416427612,-0.016898527830839154,0.0024728198543190953
1772562071207713800,1.9547138671875,-0.019473931276798247,-0.029426731622964143,0.041755905711650845
1772562071217696000,1.964696044921875,0.011456044515967368,-0.03822853530310094,0.08807955773025751
1772562071227678700,1.9746787109375,0.06321487332582473,-0.04050890132524073,0.12324220265671611
1772562071237661000,1.984660888671875,0.09953530998528003,-0.046388168622180814,0.13131116201765836
1772562071247643000,1.994642822265625,0.14729717811346052,-0.045553398298472166,0.1485377527590841
1772562071257625900,2.0046259765625,0.15113631788492202,-0.028535701067373156,0.15315774070993066
1772562071267607800,2.01460791015625,0.11014438228309154,-0.01874729750268161,0.12548384410366414
1772562071277591000,2.024591064453125,0.05664776989519596,-0.02840221088081598,0.10452164703048765
1772562071287572700,2.03457275390625,0.004480944806337356,-0.037204379887133834,0.11377060995623468
1772562071297556000,2.044555908203125,-0.03341828547716141,-0.05706811419911682,0.14179777697958051
1772562071307538000,2.054537841796875,-0.06900397812128066,-0.05828837670907378,0.1733431812569499
1772562071317521000,2.06452099609375,-0.07518471258282661,-0.07202676000855862,0.20559527249895035
1772562071327502800,2.0745029296875,-0.05008183550834656,-0.09212846779488026,0.20067323286160826
1772562071337485800,2.08448583984375,-0.01969429602921009,-0.07845693918652832,0.19030922136604786
1772562071347467800,2.0944677734375,-0.03340484147369861,-0.07747538080327213,0.20914821574017403
1772562071357449700,2.10444970703125,-0.051264323291182516,-0.08113178441897034,0.1880446374349296
1772562071367433000,2.114432861328125,-0.05012041395306587,-0.06550356878489255,0.16486403365992008
1772562071377415000,2.124414794921875,-0.05921499003469944,-0.044903117696195836,0.1583914035797119
1772562071387398000,2.13439794921875,-0.06875730988383293,-0.029294921936839816,0.16367358176633715
1772562071397379800,2.1443798828125,-0.0623100334405899,-0.061117389589920634,0.1990580527499318
1772562071407362800,2.15436279296875,-0.05088379954099655,-0.1042411495886743,0.24872619289085268
1772562071417344800,2.1643447265625,0.013346388307213783,-0.1252930707719177,0.2619531195368618
1772562071427327700,2.17432763671875,0.02948620672523975,-0.13068813474848864,0.24996998240686952
1772562071437310000,2.18431005859375,0.030603228056430815,-0.1282655107114464,0.2410316928654909
1772562071447293000,2.19429296875,0.03761223003566265,-0.0970426894519478,0.23244945022016764
1772562071457275000,2.20427490234375,0.04704115263819694,-0.05611527045369148,0.22837460199669002
1772562071467256800,2.2142568359375,0.034333646756410596,-0.011360109860822558,0.22742139292508362
1772562071477239800,2.22423974609375,0.0020177695631980893,0.022534707086905834,0.2362562220919877
1772562071487222000,2.234221923828125,-0.04063245463967323,-0.004266059946641326,0.2665473885245621
1772562071497204700,2.244204833984375,-0.05727203927338123,-0.03509133325591683,0.289734714301303
1772562071507187000,2.25418701171875,-0.036948797690868375,-0.0373067442830652,0.3021501053687185
1772562071517170000,2.264169921875,0.008753215298056602,-0.042690702343732116,0.29686807331256565
1772562071527151900,2.27415185546875,0.054555181530117985,-0.042741263487190005,0.27458975213952364
1772562071537134800,2.284134765625,0.10660744032859802,-0.04788929390013218,0.2543930595461279
1772562071547117000,2.294116943359375,0.10513853681981562,-0.03289813406057655,0.2549161335721612
1772562071557098800,2.3040986328125,0.10744798280596732,-0.03882314019538462,0.25056634086482227
1772562071567082000,2.31408203125,0.15498597905039788,-0.03344152022227645,0.22636581945754586
1772562071577063700,2.324063720703125,0.18399463139176367,-0.034623788809403776,0.19812647098824382
1772562071587047000,2.334046875,0.12815642431378363,-0.04557371043413877,0.20636165376156568
1772562071597028900,2.34402880859375,0.07827215720415115,-0.01621865580789745,0.2284277204234153
1772562071607011800,2.35401171875,0.11303192041814326,0.025345453658699987,0.20208499935567378
1772562071616993800,2.363993896484375,0.14028525352478027,0.020454539811983703,0.16947474232576787
1772562071626977000,2.37397705078125,0.06157762751281261,0.012991510454937814,0.16948818632923066
1772562071636958700,2.383958740234375,0.04036883526742458,0.012997136478126049,0.16106836770400404
1772562071646942000,2.39394189453125,0.06251753871142864,0.011513108465448021,0.18338395214751363
1772562071656923600,2.403923583984375,0.04472235430181026,0.016275208300724625,0.2008835876766592
1772562071666905900,2.41390576171875,0.006091887134313583,0.012164485046267508,0.23154205305166542
1772562071676888800,2.423888916015625,0.010383446848392486,0.00064005146920681,0.24542693214975295
1772562071686870800,2.433870849609375,-0.01900456019937992,-0.003520136950165033,0.23832805992998182
1772562071696854800,2.443854736328125,-0.02647474994957447,0.01231017712727189,0.23361842093430457
1772562071706837000,2.4538369140625,-0.031305238845944404,0.03977401117943227,0.23607063639201223
1772562071716819700,2.46381982421875,-0.06449380722045898,0.05969254441857338,0.2202512821000069
1772562071726802000,2.473802001953125,-0.09232289438843727,0.0582810701854527,0.2215210097748786
1772562071736785000,2.483784912109375,-0.0682008450448513,0.06292115107625723,0.20119988708421588
1772562071746766800,2.493766845703125,-0.07782733604609966,0.06346314899846911,0.186559367313236
1772562071756749800,2.503749755859375,-0.07256605451703071,0.04533120691515505,0.17320516102574765
1772562071766732000,2.51373193359375,-0.0757686499506235,0.03357508347406983,0.14755444081015884
1772562071776713700,2.523713623046875,-0.05653437264859676,0.04296455084905028,0.14185045701488852
1772562071786697000,2.533697021484375,-0.07490998729467392,0.0578969662386924,0.14827647147439418
1772562071796678700,2.5436787109375,-0.07413140413761138,0.06215915372781455,0.13382292564287782
1772562071806662000,2.553661865234375,-0.06268120484054088,0.06237827637121081,0.13154657820872961
1772562071816643800,2.563643798828125,-0.06375146442055701,0.053155324669554825,0.12473003006167709
1772562071826626800,2.573626708984375,-0.02885024690926075,0.03926211613453925,0.14673158011995255
1772562071836608800,2.58360888671875,-0.006501636978983879,0.008290273961424828,0.1690038368783891
1772562071846592000,2.593592041015625,-0.005032733470201492,-0.03435702763199806,0.16729484100341796
1772562071856573700,2.60357373046875,0.011321604481339453,-0.05135236690081656,0.1709892385419458
1772562071866556000,2.613555908203125,0.029371055912971494,-0.06858136879503726,0.18387078581638633
1772562071876539000,2.623538818359375,0.014468085813522338,-0.054062283446639776,0.1814329642102122
1772562071886520800,2.633520751953125,0.02511573655605316,-0.020311843405663967,0.17472404115609824
1772562071896503800,2.64350390625,0.04725567217171192,-0.008898907379060983,0.1517984350554645
1772562071906485800,2.65348583984375,0.040648236730694766,0.013017887005209922,0.14938085251972077
1772562071916468700,2.66346875,0.01918459294140339,0.024885288801044226,0.16157953209653494
1772562071926451000,2.673450927734375,-0.0008580781340599059,0.020917700344324112,0.15674714350402355
1772562071936434000,2.683433837890625,-0.020348960545659062,0.008086860343813895,0.13466171455457807
1772562071946415900,2.693415771484375,-0.022770634734630583,0.016710896304249764,0.12311287718862295
1772562071956398800,2.70339892578125,0.021309330010414122,0.01656155096143484,0.109637163413316
1772562071966380800,2.713380859375,0.022023615759611127,0.033824308994784946,0.11419701867476105
1772562071976363000,2.723363037109375,-0.0020645313143730164,0.04096307483352721,0.12169497321471572
1772562071986345700,2.733345703125,0.0065688569962978356,0.04613477838300168,0.14026435686722397
1772562071996328000,2.743327880859375,0.020203414595127103,0.04289864600598812,0.16128127980232237
1772562072006311000,2.753310791015625,0.030400983482599255,0.019273732529580593,0.16444807327017186
1772562072016292900,2.76329296875,0.03247136001586914,0.008969415332004427,0.17058716054707765
1772562072026275800,2.77327587890625,0.03182078715264797,-0.0033002836544066667,0.1644699928410351
1772562072036258000,2.783258056640625,0.00852934341430664,-0.004228869741410016,0.1711350036881864
1772562072046240800,2.79324072265625,-0.0224561619579792,0.009337810252979398,0.16636735089495777
1772562072056223000,2.803222900390625,-0.02644903098642826,0.03477671434879303,0.14538812962174416
1772562072066206000,2.8132060546875,-0.028258710756897926,0.056625192737206814,0.1431276373438537
1772562072076188000,2.82318798828125,-0.03398585623204708,0.07445201439410448,0.12588687194660306
1772562072086169900,2.833169921875,-0.04911912795603275,0.10051445721574127,0.10557619758471846
1772562072096152800,2.84315283203125,-0.08382803776562213,0.08724193786233662,0.09610928105935454
1772562072106134800,2.853134765625,-0.07378536717891693,0.07466258840486407,0.0890732449427247
1772562072116118000,2.863117919921875,-0.07141688448190689,0.06455225940942765,0.0850821294799447
1772562072126099700,2.873099609375,-0.08647475288212299,0.04579297920800745,0.07297068979516624
1772562072136083000,2.8830830078125,-0.054714756006002424,0.03274783886969089,0.05631751502752304
1772562072146065000,2.89306494140625,-0.008810498443245888,0.022230171182379126,0.06145370887219905
1772562072156048000,2.9030478515625,0.022402385944128037,0.009739595986902713,0.06255144098103047
1772562072166029800,2.91302978515625,0.041618543067574496,-0.0011618833862245082,0.07612126278057695
1772562072176013000,2.923012939453125,0.04076514110863209,-0.009261968537792563,0.09123393010795115
1772562072185994800,2.932994873046875,0.041348493954539295,-0.03564947859533131,0.09936579863727092
1772562072195977000,2.94297705078125,0.04670505255162716,-0.059296457773074504,0.1319974637813866
1772562072205959700,2.952959716796875,0.05048866274356842,-0.04400982211828232,0.13525763462111354
1772562072215942000,2.96294189453125,0.05958616143465042,-0.02403795125670731,0.12104469261243939
1772562072225924900,2.9729248046875,0.0461585245847702,-0.015204802590236067,0.09381824751272796
1772562072235906800,2.98290673828125,0.009644026657938957,-0.02181253029219806,0.08350026711598038
1772562072245889800,2.992889892578125,0.025793781948089598,-0.018543956950306893,0.0966619465060532
1772562072255871700,3.002871826171875,-0.020246669214963913,0.0014624007027596235,0.12764584444314242
1772562072265854700,3.012854736328125,-0.0520797313272953,0.004761515313386917,0.15271540376991033
1772562072275837000,3.0228369140625,-0.04729658870398998,0.00497128560654819,0.1735876575373113
1772562072285819600,3.032819580078125,-0.06383797366023063,0.010251198770850897,0.16379647749364376
1772562072295801900,3.0428017578125,-0.06296294439136982,0.008965469809249043,0.1537960386134684
1772562072305784000,3.0527841796875,-0.027089666977524757,-0.006223989081382751,0.1389610191836953
1772562072315766800,3.062766845703125,-0.038567338803410525,-0.007039324052259326,0.15269816037416456
1772562072325749000,3.0727490234375,-0.04865267948806286,-0.018188202315196394,0.15079890262410045
1772562072335732000,3.08273193359375,-0.005800210711359977,-0.0017182020947337149,0.14351663666144013
1772562072345714000,3.0927138671875,-0.0031616789013147353,0.011065730024129151,0.12759163003787397
1772562072355697000,3.10269677734375,0.0046212300598621366,0.01911189303137362,0.11960559972003101
1772562072365678800,3.112678955078125,0.035575171250104905,0.021710677352920173,0.11740765128433704
1772562072375661800,3.122661865234375,0.018998714980483052,0.04051423508748412,0.10555398575291038
1772562072385644000,3.13264404296875,-0.004489712634682655,0.049829029791057106,0.0950282078243792
1772562072395626800,3.142626708984375,0.025973814690113065,0.051812750954180954,0.07819368514046073
1772562072405609000,3.15260888671875,0.0002694645911455154,0.043024610473215576,0.09611278819069266
1772562072415590700,3.162590576171875,-0.020838789889216423,0.03210369574725628,0.09966025153920054
1772562072425574000,3.172573974609375,-0.026091888111829758,0.037139717153087254,0.10068915619552135
1772562072435555800,3.182555908203125,-0.040460605204105375,0.032175299678742886,0.08619915081113576
1772562072445539000,3.1925390625,-0.03303600816130638,0.02943352668993175,0.07080898171663284
1772562072455520800,3.202520751953125,-0.007995674929022789,0.00005669862329959869,0.06529138733893633
1772562072465504000,3.21250390625,0.020325579670071602,-0.019057021038979292,0.08213292428553104
1772562072475485700,3.222485595703125,0.012564882540702819,0.004837503159046173,0.07044628588408232
1772562072485469000,3.232468994140625,-0.015637714114785192,-0.003142828070372343,0.07059153957366943
1772562072495451000,3.242450927734375,0.009063011899590492,-0.027222791837900877,0.07953720870390533
1772562072505433900,3.252433837890625,0.005016951379179954,-0.042324937771260736,0.08962488747611641
1772562072515415800,3.262415771484375,0.007886369335651398,-0.034255320823192596,0.10046367687657475
1772562072525397800,3.272397705078125,0.013612345767021179,-0.04603672483600676,0.09243804520070552
1772562072535380700,3.282380615234375,0.017296002715826035,-0.04878185882568359,0.09577274258136749
1772562072545363000,3.292363037109375,0.029539982739090916,-0.03584514729790389,0.11518354549407958
1772562072555345700,3.302345703125,0.016150924333930016,-0.031289529820159076,0.1127810143969953
1772562072565328000,3.312327880859375,0.0026139818906784056,0.022192104194313285,0.10671353105157613
1772562072575310800,3.322310791015625,0.018017887249588964,0.05062244519107043,0.09413856550827622
1772562072585292800,3.332292724609375,0.029229017093777655,0.05327741667926311,0.08976984890475868
1772562072595275800,3.34227587890625,0.004696633383631706,0.056238969898596405,0.1236019758798182
1772562072605258000,3.352258056640625,-0.007229951253533363,0.06584514876417816,0.13258417762815952
1772562072615240000,3.362239990234375,-0.018647417324781417,0.07329356507398188,0.15587313714846968
1772562072625223000,3.372222900390625,-0.02376724455654621,0.062225862288475035,0.1840373014897108
1772562072635204900,3.382204833984375,-0.042729719179868696,0.050513870250061155,0.1859694385960698
1772562072645187800,3.392187744140625,-0.0364770885258913,0.05651756764426827,0.17509031718522308
1772562072655170000,3.402170166015625,-0.00007014262676239014,0.0455637735620141,0.14427914546653628
1772562072665152800,3.41215283203125,-0.003271569016575813,0.027105668264254926,0.15679916595220564
1772562072675135000,3.422135009765625,-0.027983400946855544,0.010970526021346448,0.16909882168546317
1772562072685118000,3.432117919921875,0.001547229442000389,0.009175751559063791,0.17751900563687084
1772562072695100000,3.442099853515625,0.0231359609156847,0.00222111011557281,0.17105287836268543
1772562072705082400,3.452082275390625,-0.0016278934627771376,0.008890066485479473,0.15778744633719324
1772562072715064600,3.462064697265625,-0.003964811977744102,0.01645246456377208,0.15554361293315885
1772562072725046300,3.47204638671875,-0.0007218845337629318,0.01745090101659298,0.13786007220447064
1772562072735029500,3.482029541015625,-0.013883563923835754,-0.0030539807431399823,0.1267722764790058
1772562072745011500,3.492011474609375,-0.010960954475402832,-0.012962284360453486,0.1182053775332868
1772562072754994400,3.501994384765625,0.0276847102612257,-0.005379354950785636,0.1141717381030321
1772562072764976400,3.511976318359375,0.026439094114303587,0.011958148819208144,0.11140212725922465
1772562072774959400,3.52195947265625,0.016789222237467764,0.012865472922474145,0.09740969613343477
1772562072784941300,3.53194140625,0.03763093473613262,-0.0065284519206732505,0.10053922633081674
1772562072794924500,3.541924560546875,0.022114801174402236,0.0035299276918172836,0.10658946628049015
1772562072804906500,3.551906494140625,0.02043722335100174,0.0196437348857522,0.10441825972124934
1772562072814889500,3.561889404296875,0.04399871620237827,0.00013707038313150405,0.1030137997508049
1772562072824871400,3.571871337890625,0.03371697616279125,-0.0011778846729546784,0.09206906575784086
1772562072834853400,3.581853271484375,0.03783960905075073,-0.008783829632028936,0.0975078958109021
1772562072844836400,3.59183642578125,0.05346913985908031,-0.0156701550796628,0.11175941626429557
1772562072854818300,3.601818359375,0.0005196399599313736,-0.035216859331727024,0.138678110589087
1772562072864801300,3.61180126953125,-0.038728082323074335,-0.07837327949106693,0.1649248970016837
1772562072874783500,3.621783447265625,-0.03159399265944957,-0.054739525121077895,0.1653420995004475
1772562072884766500,3.631766357421875,-0.038272739771008486,-0.019698387682437896,0.143977532171458
1772562072894748400,3.64174853515625,-0.03184299898445606,-0.0221462922912091,0.12654504359439014
1772562072904731400,3.6517314453125,-0.0438753820836544,-0.03310556626617908,0.13835033993944526
1772562072914713300,3.66171337890625,-0.05366787730157375,-0.020534400115162135,0.1458259365171194
1772562072924696300,3.6716962890625,-0.028927988320589064,-0.012290303383022547,0.13442308349311352
1772562072934678300,3.68167822265625,-0.026924247282743452,-0.02018427150323987,0.13853183398619293
1772562072944660500,3.691660400390625,-0.04962707747817039,-0.02145209948197007,0.12904343628138304
1772562072954643500,3.7016435546875,-0.033716391640901566,-0.006185922093316912,0.12968611809909342
1772562072964625400,3.71162548828125,-0.008605331259965897,0.0058129240624606605,0.12396554849520325
1772562072974608400,3.7216083984375,-0.045216275298595426,-0.0007543254986405372,0.14635872821956872
1772562072984590600,3.731590576171875,-0.06395604708194733,0.0033395927514880894,0.15529109947681427
1772562072994573300,3.7415732421875,-0.030361820515990255,0.03326316798068583,0.13659282874763012
1772562073004555500,3.751555419921875,0.014063012143969536,0.04102006571777165,0.12076631406247615
1772562073014538500,3.76153857421875,-0.030230303090810776,0.0302689546007663,0.12034195117056369
1772562073024520400,3.7715205078125,-0.030389293044805525,0.02715323373302817,0.12359101609438657
1772562073034503400,3.78150341796875,-0.02886018378138542,0.022496420903131364,0.12784677384272217
1772562073044485400,3.7914853515625,-0.033760230782628055,0.013747516454011201,0.10933379655256867
1772562073054467300,3.80146728515625,-0.017980477848649024,0.008577055013552307,0.09349588369056581
1772562073064450600,3.811450439453125,-0.027639117553830146,-0.007258885087072849,0.07622939933016896
1772562073074432300,3.821432373046875,0.00537701686322689,-0.0017696400210261345,0.057306818325817584
1772562073084415500,3.83141552734375,0.07509937238693237,0.0019471885450184343,0.04299728407487273
1772562073094397200,3.841397216796875,0.07019523373246192,0.0021302169617265464,0.049825230398774144
1772562073104380400,3.85138037109375,0.04668284071981907,-0.00815568779632449,0.06835311299711465
1772562073114362400,3.8613623046875,0.07759528085589408,-0.015686302496865392,0.08001388630494474
1772562073124345300,3.871345458984375,0.05800152259171009,0.001856149260699749,0.0918174290843308
1772562073134327300,3.881327392578125,0.00900514423251152,0.04093501778282225,0.08548574184477328
1772562073144309500,3.8913095703125,0.002214168918132782,0.06479827005974947,0.07712123360335826
1772562073154292200,3.901292236328125,0.01938274586200714,0.0871438112501055,0.07709346881359815
1772562073164274400,3.9112744140625,-0.0030810148805379867,0.10786876550130546,0.08772153807282447
1772562073174257400,3.92125732421875,0.005090601137280464,0.10092946775741875,0.089522157754004
1772562073184239400,3.9312392578125,0.04030570690333843,0.07560381477773188,0.09993965300247072
1772562073194222300,3.941222412109375,-0.002728548181056976,0.05379479161687195,0.12154124395772814
1772562073204204300,3.951204345703125,-0.029749826097488403,0.032175372743979094,0.1330930039331317
1772562073214187300,3.961187255859375,-0.019036124381422995,0.027393399164453148,0.11687120632007718
1772562073224169500,3.97116943359375,-0.01336041683256626,0.02155607131309807,0.12472498856037854
1772562073234152200,3.981152099609375,-0.01665127507150173,0.0023168986402451993,0.13463658011332152
1772562073244132600,3.991132568359375,0.005872106903791427,-0.028357421891018746,0.1254065410837531
1772562073254114300,4.0011142578125,0.0069184010863304135,-0.048684682061523196,0.12295607919171452
1772562073264097500,4.01109765625,0.030196400821208953,-0.06783887986466289,0.14007497177496553
1772562073274079200,4.021079345703125,0.025600305202603337,-0.0834132464196533,0.14746084424257278
1772562073284061400,4.0310615234375,-0.016285364368557927,-0.07714052282571793,0.16440540317222474
1772562073294044400,4.04104443359375,-0.020470541098713872,-0.06495185318626463,0.17970000293776392
1772562073304026400,4.0510263671875,-0.028832126730680464,-0.04455101632289588,0.17393603258356452
1772562073314009300,4.06100927734375,-0.040132103902101514,-0.030990108482167125,0.15668182318285107
1772562073323991600,4.070991455078125,-0.02783551690876484,-0.035740371749177574,0.17252733482941984
1772562073333974300,4.080974365234375,-0.03333879050016403,-0.042020328801497815,0.19006635252088308
1772562073343956500,4.09095654296875,-0.06394143403470516,-0.04756327681615948,0.2045350228562951
1772562073353939500,4.100939453125,-0.06395078638494014,-0.042209275502339,0.20338906769156453
1772562073363921400,4.11092138671875,-0.038140053302049635,-0.027987200339138506,0.1755636337853968
1772562073373903600,4.120903564453125,-0.04829845922291279,-0.04122515983581543,0.18280892873853444
1772562073383886300,4.13088623046875,-0.07332534845173358,-0.04231332039870322,0.18559125293344259
1772562073393868500,4.14086865234375,-0.047690556457638734,-0.04621829194799065,0.1917528443031013
1772562073403851500,4.1508515625,-0.04996960730552673,-0.05015424315743148,0.18547332564219832
1772562073413833500,4.16083349609375,-0.0439537080168724,-0.04474456613361835,0.1820848522476852
1772562073423816400,4.17081640625,-0.011131050345301628,-0.042213878612220285,0.1812755816914141
1772562073433798400,4.18079833984375,-0.025693244183063506,-0.030615868342295287,0.17935864215418695
1772562073443781400,4.190781494140625,-0.03273030321300029,-0.045316447737440466,0.16469693346470593
1772562073453763600,4.200763671875,0.015184709650278091,-0.03927753289937973,0.1791658960610628
1772562073463746300,4.210746337890625,-0.018341712376475333,0.00845130974203348,0.18434753648266194
1772562073473728500,4.220728515625,-0.05170271470844745,0.022312515703588724,0.18842384601086376
1772562073483710500,4.23071044921875,-0.05354629674851894,0.00910195567049086,0.1909536567494273
1772562073493693400,4.240693359375,-0.049504912403225895,-0.006427329633757472,0.19960589589104055
1772562073503675400,4.25067529296875,-0.018103811967372894,-0.002943433040753007,0.2238939494512975
1772562073513658600,4.26065869140625,-0.010613163951039313,0.00027677111476659774,0.23233196132034062
1772562073523640300,4.270640380859375,-0.012478957822918892,0.005752060720697045,0.2410897066630423
1772562073533623600,4.28062353515625,0.034302667096257206,0.008349749063700437,0.26862302575483915
1772562073543605200,4.290605224609375,0.03209668148458004,0.015088409668952226,0.31025910447910426
1772562073553588500,4.30058837890625,0.034195699590444564,-0.0034242022950202225,0.348120194709301
1772562073563570400,4.3105703125,0.05880991636514663,-0.011294205017760395,0.3813724759697914
1772562073573553400,4.320553466796875,0.05824760630726814,-0.003561126547679305,0.41277138444855804
1772562073583535400,4.330535400390625,0.025799042645096776,0.020041794292628763,0.42570919195488094
1772562073593517300,4.340517333984375,0.011910802546143531,0.05740377589426934,0.38103812944889065
1772562073603500300,4.350500244140625,0.024675591573119163,0.10014182451106607,0.28775355042144657
1772562073613482500,4.360482421875,0.009322539618611335,0.15376812769323586,0.17889898875318466
1772562073623465500,4.370465576171875,0.043508886858820914,0.1689051988095045,0.09369644776396453
1772562073633447400,4.380447509765625,0.04662672661840916,0.15196283183693884,0.047742286644876
1772562073643430400,4.390430419921875,0.025624855121970175,0.11713124549575149,0.0015231909792870282
1772562073653412400,4.400412353515625,0.04492401435375214,0.07583039007522166,-0.041934404083713885
1772562073663395300,4.410395263671875,0.01478606572151184,0.03872669408358633,-0.09489281794168054
1772562073673377500,4.42037744140625,0.025303368082642552,0.0010632453173398972,-0.12656345603391528
1772562073683360300,4.4303603515625,0.05021569102108478,-0.037152138243243094,-0.16135945960506795
1772562073693342500,4.440342529296875,0.04573123908340931,-0.054176411345601076,-0.17413360098227856
1772562073703327500,4.450327392578125,0.03175941235423088,-0.07259454995915293,-0.16566373267024753
1772562073713310500,4.460310546875,-0.00265256033539772,-0.12385806953273713,-0.19362645615525542
1772562073723292700,4.470292724609375,0.011936521509289741,-0.16573241399228572,-0.184174956394732
1772562073733275400,4.480275390625,0.03605097206830978,-0.12161847391240298,-0.1680200865380466
1772562073743257600,4.490257568359375,0.0074836337536573405,-0.07787197890542447,-0.1619598366510123
1772562073753240600,4.500240478515625,-0.042014848908782,-0.06873970116190611,-0.147398884922266
1772562073763222500,4.510222412109375,-0.04142272823452949,-0.03660772916823626,-0.15506094398275017
1772562073773205500,4.52020556640625,-0.06523147384524346,0.00449636157117784,-0.12314648719727993
1772562073783187500,4.5301875,-0.10037877507209778,0.03377506302557885,-0.0763194157011807
1772562073793170400,4.54017041015625,-0.11118190863728522,0.03898490662835538,-0.04253763067387044
1772562073803152600,4.550152587890625,-0.09409399571418761,0.04206511779129505,0.00042677404470741745
1772562073813134300,4.56013427734375,-0.12538228342533111,0.05211451037973165,0.016622633498907087
1772562073823117600,4.57011767578125,-0.1114011043459177,0.05513276222236454,0.05023512637391686
1772562073833099500,4.580099609375,-0.08286591473519801,0.051175695159658786,0.08131488590091467
1772562073843082500,4.59008251953125,-0.09689677817523479,0.05535977591127157,0.08962116114906966
1772562073853064400,4.600064453125,-0.07346212657392025,0.049396775853633876,0.08601751063391566
1772562073863047700,4.610047607421875,-0.03728022160232067,0.028622064176574348,0.1046050875302404
1772562073873029400,4.620029296875,-0.006516250026226043,0.008638137551024556,0.12671784287802873
1772562073883013400,4.630013427734375,0.019229016605019567,-0.0006589753653854131,0.14213431545756755
1772562073892996600,4.63999658203125,0.031113515666127203,-0.021666545950248837,0.16404095377400515
1772562073902978300,4.649978271484375,0.06023147360086441,-0.026965967532619834,0.1777996492091566
1772562073912961500,4.65996142578125,0.08170914591550826,-0.020872765224054454,0.17576112911887465
1772562073922943500,4.669943603515625,0.06363339099884033,-0.00910641264989972,0.17251885926201938
1772562073932926500,4.679926513671875,0.05540040018260479,0.007744695842638611,0.17496449884846804
1772562073942908400,4.689908447265625,0.03880582373440265,0.020411212126910685,0.1882652944482863
1772562073952890400,4.699890380859375,0.042622167152166365,0.021986352489143608,0.17613997236862777
1772562073962873300,4.709873291015625,0.04457388574182987,0.023011896144598722,0.19142244330495595
1772562073972855600,4.71985546875,0.008991115707159042,0.027918445951864122,0.20866437774598598
1772562073982838300,4.72983837890625,-0.009186930540204048,0.025545140949264168,0.23079671457707882
1772562073992820500,4.739820556640625,-0.0019458733707666397,0.02422996669746935,0.2466281976982951
1772562074002803500,4.749803466796875,-0.019061843344569205,0.016426453339681027,0.24457360325604677
1772562074012785400,4.759785400390625,-0.0187613990932703,0.017886150628700852,0.24804347132369875
1772562074022768400,4.769768310546875,-0.005997779110074043,0.00815115775167942,0.24300869202688336
1772562074032750600,4.77975048828125,0.0026408698976039886,-0.00748275697082281,0.22543109589070082
1772562074042732500,4.789732666015625,0.010465279912948608,-0.021727555422484873,0.22459946737214923
1772562074052715500,4.799715576171875,0.022011925321817397,-0.04337663878127932,0.23691402841359374
1772562074062697500,4.809697509765625,0.01797989332675934,-0.08119805458821355,0.2384839080788195
1772562074072680400,4.819680419921875,0.033165187498927114,-0.08243526823297143,0.21738179107829927
1772562074082662700,4.82966259765625,0.057524552729725835,-0.05381071983836591,0.19710136572420595
1772562074092645400,4.839645263671875,0.023024901756644248,-0.043360564429312944,0.17597484493479132
1772562074102627600,4.849627685546875,-0.005748188263177871,-0.059582435107603665,0.1430938812047243
1772562074112610600,4.859610595703125,0.009503741404414177,-0.058119230687245726,0.12451558359339833
1772562074122592500,4.869592529296875,0.00959901847243309,-0.04552643722631037,0.12034048986583948
1772562074132575500,4.879575439453125,-0.02388707154393196,-0.03557677868530154,0.14812413045689463
1772562074142557700,4.8895576171875,-0.016253215664625165,-0.04333448013998568,0.1529826764039695
1772562074152539400,4.899539306640625,-0.028062311401963233,-0.06336224590726196,0.15547376256734133
1772562074162522600,4.909522705078125,-0.038218379235267635,-0.06353555664755403,0.15674392863363026
1772562074172504300,4.91950439453125,-0.03545066808760166,-0.07756554330475628,0.15451938445195554
1772562074182487600,4.929487548828125,-0.03890577697753906,-0.07359130591154098,0.14929624297618865
1772562074192469500,4.939469482421875,-0.008441665130853652,-0.07160415068231522,0.14159750516712666
1772562074202452500,4.949452392578125,-0.004231353959441185,-0.0820145586028695,0.1240758770018816
1772562074212434400,4.959434326171875,0.0018237082958221435,-0.08357713174447416,0.1289049045935273
1772562074222417700,4.969417724609375,0.014915829581022262,-0.07629632708653807,0.11593728647083043
1772562074232399400,4.9793994140625,-0.003234744137525558,-0.06373261358961463,0.1236465456739068
1772562074242382600,4.989382568359375,0.003121346890926361,-0.03258738761097193,0.10021437829062342
1772562074252364300,4.9993642578125,0.04392155931293964,-0.015195669435709713,0.06452537140250206
1772562074262347500,5.009347412109375,0.02367489009797573,-0.0037814913000911473,0.07406812964305282
1772562074272329500,5.01932958984375,-0.03709551268517971,0.01649045848660171,0.1033136594802141
1772562074282311400,5.0293115234375,-0.03936988735795021,0.013812909840419888,0.09942103595584631
1772562074292294400,5.03929443359375,-0.03994447237551212,0.005686959595233201,0.08098945333883166
1772562074302276600,5.049276611328125,-0.07649521065950393,-0.0039794250249862665,0.08700389132276178
1772562074312259300,5.05925927734375,-0.05257014519274234,-0.017056494871526957,0.08862462439239024
1772562074322241500,5.069241455078125,-0.008633972832560538,-0.016192425388097762,0.09420534713417292
1772562074332224500,5.079224609375,-0.03175882783234119,-0.03116561117954552,0.08852233306169509
1772562074342206500,5.08920654296875,-0.016504560077190398,-0.04204765519984066,0.07867065500244498
1772562074352189400,5.099189453125,0.01887596538364887,-0.014976765988022087,0.07189312369152903
1772562074362171400,5.10917138671875,0.01122632741332054,0.00325176833756268,0.05508358931839466
1772562074372153600,5.119153564453125,0.0011117606341838836,0.007737316253781318,0.07933321056440472
1772562074382136600,5.129136474609375,0.012575988456606865,-0.0007834785278886556,0.09328267933130263
1772562074392118500,5.139118408203125,0.011293547430634498,0.010278013712540269,0.08919087997302412
1772562074402101500,5.1491015625,-0.002326397120952606,0.019357465290278195,0.10672639053314924
1772562074412083500,5.15908349609375,0.0008487257838249206,0.0347616629101336,0.1283262279227376
1772562074422066400,5.16906640625,-0.009939210212230681,0.07548135744184255,0.11841799737066029
1772562074432048600,5.179048583984375,0.020162498062849043,0.10223565498515963,0.11272095477283
1772562074442031600,5.189031494140625,0.02566635617613792,0.11085457637906074,0.11266104127913713
1772562074452013600,5.199013671875,0.015963877329230308,0.07756437426097691,0.12040303370803594
1772562074461996500,5.20899658203125,0.026346739655733108,0.06023198505751788,0.13451982186585665
1772562074471978500,5.218978515625,0.039137247645854946,0.047647082642093296,0.1434334884226322
1772562074481960400,5.22896044921875,0.06193418586552143,0.03265468069352209,0.14808832849115133
1772562074491943700,5.238943603515625,0.05343348402380943,0.019957550075277684,0.14009557617157697
1772562074501925400,5.24892529296875,0.03121639151871204,0.011911021741852164,0.14132146470472215
1772562074511908600,5.25890869140625,0.041655367946624756,0.023988924483209845,0.1365428521260619
1772562074521890300,5.268890380859375,0.04155658374726772,0.017071400179713963,0.14421367901489138
1772562074531873500,5.27887353515625,0.00032791678011417387,-0.007503799758851528,0.1513034911453724
1772562074541855500,5.28885546875,0.0006365443378686904,-0.01927811644375324,0.16049787433966994
1772562074551838500,5.29883837890625,-0.018003858724236488,-0.02705006561949849,0.14243950894922017
1772562074561820400,5.3088203125,-0.05018704944849014,-0.03113631201982498,0.12533771363124252
1772562074571803600,5.3188037109375,0.031164953592419622,-0.005763605028018355,0.11300663984641432
1772562074581785300,5.328785400390625,-0.061737786510586735,-0.01975391726195812,0.13452552095428108
1772562074591767600,5.338767578125,-0.021086042648553845,-0.04942972827516496,0.11333499501794576
1772562074601750500,5.34875048828125,0.027353286349773406,-0.0673084262497723,0.10108838464617728
1772562074611732500,5.358732421875,-0.03928980785906314,-0.05792385424561798,0.1068085158586502
1772562074621715500,5.368715576171875,-0.0034761516779661175,-0.05504289198182523,0.10768690612837671
1772562074631697400,5.378697509765625,0.02579553551375866,-0.062260714406147596,0.1107429326981306
1772562074641680400,5.388680419921875,0.002620411631464958,-0.0702753862965852,0.10750716564729809
1772562074651662600,5.39866259765625,-0.020991934624314305,-0.04556479647532105,0.11995426702722907
1772562074661645300,5.408645263671875,-0.058005029723048204,0.010364084560796618,0.12750351336300372
1772562074671627500,5.41862744140625,-0.011643676042556762,0.030916312593594193,0.10087781063541769
1772562074681609500,5.428609375,-0.047323476710915566,0.03970459920503199,0.08602218680903315
1772562074691592400,5.438592529296875,-0.06709083797633647,0.030532135581597685,0.10577610407099128
1772562074701571000,5.448571044921875,-0.02490530867576599,0.022673969427123665,0.12456088403984904
1772562074711554000,5.458553955078125,-0.0035971477091312405,0.018401552804931998,0.12861615078002214
1772562074721536000,5.468535888671875,-0.0226087221711874,0.011929799507558346,0.12241291222572326
1772562074731519000,5.47851904296875,-0.028873043262958524,0.0018081454005092381,0.12202858908325433
1772562074741501200,5.488501220703125,-0.009885434198379516,0.01973265527822077,0.11244929822459816
1772562074751484000,5.49848388671875,0.0029758009403944015,0.030598698011785743,0.09307312823385
1772562074761466000,5.508466064453125,-0.0349433030873537,0.007296440618485212,0.0966403191961348
1772562074771449000,5.518448974609375,-0.014096914413571356,-0.011427256812900305,0.11946677577123045
1772562074781431000,5.52843115234375,0.010854571491479873,0.02719137378633022,0.12361644279658794
1772562074791414000,5.5384140625,0.0021603929042816163,0.0636109599713236,0.07857391662970185
1772562074801396000,5.54839599609375,-0.018327683851122854,0.07803929829634726,0.071040890776366
1772562074811378000,5.5583779296875,-0.00516658898293972,0.08398300913162529,0.06466214952468871
1772562074821361200,5.568361083984375,-0.014628244811296463,0.11652531549185514,0.049184302146732806
1772562074831342800,5.5783427734375,-0.014371639701724052,0.1204864742077887,0.04941299633607268
1772562074841326000,5.588326171875,0.018799977537989614,0.08925744240321218,0.05700768924877047
1772562074851308000,5.59830810546875,0.028931495451927185,0.08204480761066078,0.0711354371920228
1772562074861291000,5.608291015625,0.016312836897373197,0.05514445266015827,0.06993351405635476
1772562074871273000,5.61827294921875,0.04503215090334415,0.020220292664691806,0.0683075202897191
1772562074881256200,5.628256103515625,0.04705693472921848,0.01345971248857677,0.07344049926400184
1772562074891238000,5.63823779296875,0.02758534153997898,-0.0032916619565337897,0.08343611583858727
1772562074901220000,5.64822021484375,0.018919804525375367,-0.025812267452850937,0.0894013078533113
1772562074911202800,5.658202880859375,0.006335632762312889,-0.03640672670342028,0.09961115170046686
1772562074921185000,5.66818505859375,0.02788812387883663,-0.030677023945003747,0.08721578050777315
1772562074931168000,5.67816796875,0.014832827472686766,-0.008235694229975343,0.09839198516905308
1772562074941150000,5.68814990234375,-0.019195698857307434,-0.0029514702167361974,0.10515271147564052
1772562074951133000,5.6981328125,-0.007103110003471374,0.008466141984984278,0.11065452376231551
1772562074961115100,5.708115234375,0.0013683657437562943,0.017054375979676843,0.12048252868503331
1772562074971097900,5.718097900390625,-0.01635375342965126,0.011107450274005531,0.13062252216637132
1772562074981080000,5.728080078125,-0.02212473804652691,-0.016045564263314008,0.1414282860800624
1772562074991063000,5.73806298828125,0.0006119944185018539,-0.038054640040919185,0.16196896980553865
1772562075001045000,5.748044921875,-0.00416881011724472,-0.05692066855244338,0.17644217018559574
1772562075011028000,5.758028076171875,-0.02403203297257423,-0.09290427447296679,0.18960779509842396
1772562075021010000,5.768010009765625,-0.02039630681872368,-0.10152078471407294,0.183441965945065
1772562075030992100,5.7779921875,0.004362871384620666,-0.10243848408088087,0.17789543773382901
1772562075040975000,5.78797509765625,-0.027476620468497276,-0.08709091201908886,0.17058438406810164
1772562075050957000,5.79795703125,-0.03971943144798278,-0.05654051012843847,0.16368834094405174
1772562075060940000,5.80793994140625,-0.008270400217175483,-0.025514599680528043,0.16445859466418622
1772562075070922000,5.817921875,-0.023282091388106343,-0.015613894847780465,0.15899506856128573
1772562075080905000,5.827905029296875,-0.05233633643686771,-0.006599544395506382,0.13019874379634858
1772562075090887200,5.83788720703125,0.010948679515719413,0.006914601694047451,0.11120835825279354
1772562075100870000,5.847869873046875,0.029302082329988478,0.0008945376869291066,0.10198854835629463
1772562075110852000,5.85785205078125,-0.0007405892342329024,0.00013999299257993697,0.11891498710736631
1772562075120834000,5.867833984375,-0.0010597381860017775,-0.0010115151301026343,0.11570274706259369
1772562075130817000,5.877817138671875,0.007002572238445281,0.015891981136798856,0.11639628228470682
1772562075140799000,5.887799072265625,0.004579729005694389,0.02136953576505184,0.10074497803598642
1772562075150782200,5.8977822265625,-0.013547463837265968,0.023691037515178322,0.0903828662365675
1772562075160764000,5.907763916015625,-0.015361819782853125,0.03813084708228707,0.09605871991589665
1772562075170747100,5.9177470703125,-0.003688333123922348,0.05623714326769113,0.09873422273546456
1772562075180728800,5.927728759765625,0.006320435193181037,0.055063715574145314,0.08401040859520435
1772562075190712000,5.937712158203125,-0.005461188015341759,0.04601064054667949,0.08375438800752162
1772562075200694000,5.947694091796875,-0.00331657720208168,0.033737726689875125,0.09130538790896535
1772562075210677000,5.957677001953125,0.007683540239930152,0.031293986799567935,0.0816796275600791
1772562075220659000,5.967658935546875,0.02707154679894447,0.011208061104267836,0.08125409562438726
1772562075230641000,5.977640869140625,0.018259294790029523,-0.01850567076653242,0.08485416594296694
1772562075240623900,5.987623779296875,0.039920506978034974,-0.017614201819524167,0.09835954420417546
1772562075250606000,5.997606201171875,0.029119126978516575,-0.006595745003223419,0.11285641772076486
1772562075260589000,6.007589111328125,0.009057751202583312,0.009658055183291435,0.11773732163012027
1772562075270571000,6.017571044921875,0.01826864714026451,0.042893093048036096,0.11005831143483519
1772562075280554000,6.027553955078125,0.007826748102903366,0.04208732962310314,0.11520268858596681
1772562075290536000,6.037535888671875,0.006754734957218169,0.023290055498853324,0.11368395458608865
1772562075300519000,6.047518798828125,0.007430442261695862,0.00946238648071885,0.12101722008362412
1772562075310501000,6.057501220703125,0.01946633249223232,0.010137655393779277,0.12963015012815593
1772562075320483800,6.06748388671875,0.029128479328751563,0.007562251947820186,0.14107231224924324
1772562075330466000,6.077466064453125,0.02215513318479061,-0.005969356733188033,0.15309417395442723
1772562075340448000,6.087447998046875,0.016605682364106176,0.013161606324836612,0.16336422355622052
1772562075350431000,6.097430908203125,-0.012231705063581465,0.042204160935804244,0.15040625004470348
1772562075360413200,6.1074130859375,0.014372808745503425,0.05391739508323371,0.1458408418253064
1772562075370396000,6.11739599609375,0.0013987608820199965,0.04657945341058075,0.14051336319223046
1772562075380378000,6.127378173828125,-0.030120412975549696,0.04640205101706087,0.1335644208371639
1772562075390361000,6.137361083984375,-0.04097147733569145,0.03185710057504475,0.14771043508946896
1772562075400343000,6.147343017578125,-0.013802899903059005,0.019976254775747656,0.15246318257451055
1772562075410326000,6.157325927734375,0.009630582654476165,0.026145079603791234,0.1333550158701837
1772562075420308200,6.16730810546875,0.011077274331450462,0.015825857098028064,0.12496961097121238
1772562075430291000,6.177291015625,0.04570668916404247,0.006814794581383466,0.12274082900583744
1772562075440273200,6.187273193359375,0.06261632291078567,0.007499781170859933,0.12946443817242978
1772562075450254800,6.1972548828125,0.0326473011046648,0.025355828922241926,0.1240206396833062
1772562075460238000,6.207238037109375,0.060362406504154205,0.03465199199058115,0.09635565703585744
1772562075470220000,6.217219970703125,0.09460077619254588,0.041272871435061094,0.08175050083920359
1772562075480203000,6.227203125,0.042186113822460174,0.014998758624121545,0.08555778416767716
1772562075490185000,6.23718505859375,0.02469488079547882,-0.016539046868681906,0.09225684341490269
1772562075500168200,6.247168212890625,0.062011927276849746,-0.033304595969617365,0.10207257337793707
1772562075510150000,6.25714990234375,0.027954174852371214,-0.03253909148983657,0.09653685882166027
1772562075520133000,6.267133056640625,-0.023787118300795555,-0.009200082282721995,0.09590689035505055
1772562075530114800,6.27711474609375,-0.029706571477651593,-0.0030682284642010926,0.0875995191283524
1772562075540098000,6.28709814453125,-0.03461071013212204,0.01022401850298047,0.07863996760323644
1772562075550080000,6.297080078125,-0.054201545786857604,0.03064268328398466,0.07051935112029313
1772562075560062000,6.30706201171875,-0.05483399847149849,0.023768851991742848,0.09602817864716053
1772562075570045000,6.317044921875,-0.043219548523426056,0.018703385295718907,0.08716799584329128
1772562075580027100,6.327027099609375,-0.045021044987440105,0.006087284024432301,0.092087478197366
1772562075590009900,6.337009765625,-0.03238017460107803,-0.003992649832740426,0.09768705177009106
1772562075599992000,6.346991943359375,-0.0203822782933712,-0.011703589536249637,0.10113178539648651
1772562075609975000,6.35697509765625,-0.027129414466023443,-0.025046324581652877,0.1145659981176257
1772562075619957000,6.36695703125,-0.013389058405160904,-0.043018911384791136,0.12106734283566474
1772562075629940000,6.37693994140625,0.005918284133076667,-0.03710734925344586,0.12185922386571764
1772562075639922000,6.386921875,-0.011333294919133185,-0.04786883563399315,0.12026187167167662
1772562075649905000,6.39690478515625,-0.02977203792929649,-0.08103921076469123,0.12894552886486052
1772562075659887000,6.40688720703125,-0.0026847090393304824,-0.08019698778688907,0.11686623788401483
1772562075669869000,6.416869140625,0.0024450550645589825,-0.0801337132923305,0.09692205874696373
1772562075679852000,6.42685205078125,0.00443242948949337,-0.07933160312920809,0.11357391834035516
1772562075689834200,6.436834228515625,0.007106032612919807,-0.05074797126688063,0.10415975491553545
1772562075699817000,6.44681689453125,-0.002565466573834419,-0.015654884445294736,0.11747472517117857
1772562075709799400,6.45679931640625,0.04298573976755142,0.008029650263860821,0.12008870706185698
1772562075719782700,6.46678271484375,0.005728314518928528,0.004740399460121989,0.11248963023498654
1772562075729764400,6.476764404296875,0.0025619594424962995,0.00014722645096480847,0.1260061144120991
1772562075739747600,6.48674755859375,0.032116555228829384,0.001051701010018587,0.14365560674071312
1772562075749729300,6.496729248046875,-0.0036480011135339736,-0.011545914756506681,0.14006065098866818
1772562075759712500,6.50671240234375,-0.03282733384668827,-0.008074512318894266,0.1132744970023632
1772562075769694500,6.516694580078125,-0.030238486397266385,-0.008664367970824241,0.08701762758716941
1772562075779676400,6.526676513671875,-0.039352936223149296,-0.020872180702164768,0.08474617552384733
1772562075789659400,6.536659423828125,-0.06815174520611762,-0.019545754403993486,0.09925517786964773
1772562075799641600,6.5466416015625,-0.04964695122241974,-0.029435937842726707,0.08806582146584988
1772562075809624300,6.556624267578125,-0.04354688078165054,-0.029517332515865562,0.09848097862675785
1772562075819606500,6.5666064453125,-0.07490531111955642,-0.03706146428510546,0.10401932353153824
1772562075829589500,6.576589599609375,-0.05528992554545402,-0.02611972596682608,0.10568564930856228
1772562075839571500,6.586571533203125,-0.04362403767108917,-0.013096212938427925,0.09726458857432008
1772562075849554400,6.596554443359375,-0.014995324558019637,0.001407747906073928,0.1028659157127142
1772562075859536400,6.606536376953125,-0.012481880432367323,-0.0013112287290394306,0.11414821109697222
1772562075869518600,6.6165185546875,-0.009089899906516074,0.0031450200274586674,0.14379896073415874
1772562075879501600,6.62650146484375,0.008757306951284408,0.02828742539472878,0.14803382182493804
1772562075889483500,6.6364833984375,0.009448211824893952,0.04444536399133503,0.1338727561339736
1772562075899466500,6.646466552734375,-0.0032417584002017974,0.04406257521882653,0.12395546549260615
1772562075909448400,6.656448486328125,0.02213935109376907,0.01650010309778154,0.12454700164496899
1772562075919431400,6.666431396484375,0.009063011899590492,-0.024693054164573548,0.12969547044932841
1772562075929413600,6.67641357421875,0.018030162209272383,-0.036136312264204024,0.1450819862820208
1772562075939396600,6.686396728515625,0.01956277860403061,-0.051032414231449365,0.1403719088949263
1772562075949378600,6.696378662109375,0.01123158811032772,-0.048223202029615636,0.13469020999670028
1772562075959361500,6.706361572265625,0.01650046842396259,-0.029881708848848935,0.12869856836646795
1772562075969343500,6.716343505859375,0.0339326647400856,-0.0035917408816516397,0.12437559060081839
1772562075979325400,6.726325439453125,0.021122283005714414,0.02123809140510857,0.11870032144337891
1772562075989308700,6.73630859375,0.005667524242401123,0.01853869625329971,0.1077650859311223
1772562075999290400,6.746290283203125,-0.005938742399215698,-0.002486263857781887,0.09514248185381292
1772562076009273600,6.756273681640625,-0.03648760991990566,-0.02926065434105694,0.09967720267400144
1772562076019255300,6.76625537109375,-0.05589022952616214,-0.04689202649109065,0.10895677993372083
1772562076029238500,6.776238525390625,-0.04867547584176063,-0.07034713635854423,0.10868804599493741
1772562076039220500,6.786220458984375,-0.044641690281033514,-0.0749537533711642,0.11709595498666167
1772562076049203500,6.796203369140625,-0.05264321042895317,-0.05782930782996118,0.11060279357507824
1772562076059185400,6.806185302734375,-0.040762218499183656,-0.03843779413960874,0.10184753245040774
1772562076069168600,6.816168701171875,-0.035898411855101585,-0.018532777969166636,0.09658931966125965
1772562076079150300,6.826150390625,-0.016241525226831435,0.0008854775976389646,0.10673457383960484
1772562076089132500,6.836132568359375,-0.0037882863670587537,0.02296761861145496,0.10459434694051742
1772562076099115500,6.846115478515625,0.02466565470099449,0.04686901094168424,0.08641060160472988
1772562076109097500,6.856097412109375,0.02647474994957447,0.05803849360123276,0.09253273774683475
1772562076119080400,6.86608056640625,0.0002209492743015289,0.053242126170173286,0.10254311349913477
1772562076129062400,6.8760625,0.025128596037626266,0.03279796162173152,0.10621332644447684
1772562076139045400,6.88604541015625,0.04012976581454277,0.012551146276295184,0.08746493296325206
1772562076149027600,6.896027587890625,0.031851182290911675,-0.006521510723233223,0.10012465418055654
1772562076159010300,6.90601025390625,0.03992226054370403,-0.03610058336369693,0.09534837968945503
1772562076168992500,6.915992431640625,0.032467852884531016,-0.018554113018140195,0.09778685888275504
1772562076178975500,6.9259755859375,0.02516892804801464,-0.0041559506356716154,0.0812193165719509
1772562076188957400,6.93595751953125,-0.012968787166476248,-0.00617335487268865,0.07978168498426676
1772562076198939600,6.945939697265625,-0.023268062862753867,-0.004914367787539959,0.08115487303361296
1772562076208922400,6.95592236328125,-0.0212099612891674,-0.012637070994079113,0.07249079732373356
1772562076218904600,6.965904541015625,-0.020702596288919448,-0.02577712307423353,0.0801283064648509
1772562076228887600,6.975887451171875,-0.00768061763048172,-0.02421834932491183,0.07315627549514174
1772562076238869500,6.985869384765625,-0.018232406783103942,-0.03383212697505951,0.08031579186096786
1772562076248852500,6.9958525390625,-0.035250177079439164,-0.04258388096839189,0.0934080592766404
1772562076258834700,7.005834716796875,-0.04848492170572281,-0.043611981907114385,0.09838570155873894
1772562076268817400,7.0158173828125,-0.022362053933739662,-0.02089176218546927,0.09987360202893614
1772562076278799600,7.025799560546875,-0.018462708407640457,-0.01962057320587337,0.11069076411947608
1772562076288781300,7.03578125,-0.025195231533050536,-0.01202346914038062,0.12402458520606159
1772562076298764500,7.0457646484375,-0.022269114953279493,0.02582761115245521,0.13130027529746294
1772562076308746500,7.05574658203125,-0.024739304459095,0.05859473924450576,0.13151917874515057
1772562076318729500,7.0657294921875,0.0018710545688867567,0.058916810805723065,0.12163199098110199
1772562076328711400,7.07571142578125,0.0209966107994318,0.055585182164981956,0.11680778569504618
1772562076338694700,7.085694580078125,0.012281973946094512,0.04858355977460742,0.12147446233183144
1772562076348676400,7.09567626953125,0.038238837501406664,0.022121011719480155,0.12576748335063456
1772562076358659600,7.10565966796875,0.021243863558769224,-0.004254588704556227,0.12450403928607702
1772562076368641500,7.1156416015625,0.03450432714819908,-0.014307123098149894,0.10669891800433397
1772562076378624500,7.12562451171875,0.026630817294120788,-0.028000498212128876,0.09496449493840337
1772562076388606500,7.1356064453125,0.03619710254073143,-0.03632701253071427,0.1031913482747972
1772562076398589700,7.145589599609375,0.03623918811678886,-0.02276230529770255,0.10780103402733802
1772562076408571400,7.1555712890625,0.007564297774434089,-0.008722381768375635,0.11753156992495059
1772562076418553600,7.1655537109375,-0.001530278307199478,-0.0013811521600931881,0.12076792149767279
1772562076428536300,7.175536376953125,-0.0327782340079546,0.016024302279576658,0.12582812749668956
1772562076438518500,7.1855185546875,-0.023648002091050148,0.02791661932095885,0.13169862696528434
1772562076448501500,7.19550146484375,-0.025873276925086973,0.03657280398532748,0.11396934739872813
1772562076458483500,7.2054833984375,-0.022148703444004058,0.042712914175540205,0.08326704288199543
1772562076468466400,7.215466552734375,-0.005748188263177871,0.059160556433722374,0.08396671558395027
1772562076478448400,7.225448486328125,-0.017881109127402303,0.059016252592206,0.08940218463614583
1772562076488431400,7.235431396484375,-0.012542086187005043,0.05789484734684228,0.08227540149614214
1772562076498413600,7.24541357421875,-0.010074234768748283,0.029446532301977274,0.0911775237455964
1772562076508395500,7.2553955078125,-0.017636778977513312,0.0023014818754047155,0.08782061453312635
1772562076518378500,7.26537841796875,-0.017000819161534307,-0.020874664920195934,0.08289221822023392
1772562076528360700,7.275360595703125,0.01044774425625801,-0.01764452389255166,0.05098053791373968
1772562076538343400,7.285343505859375,0.02163666226863861,-0.016502660381048917,0.030615649146586654
1772562076548325600,7.29532568359375,0.0032177930027246474,-0.02134118645340204,0.037482027784734966
1772562076558308600,7.30530859375,-0.0005862754553556442,-0.004113353602960706,0.043767976186424494
1772562076568290600,7.31529052734375,0.0137029466599226,0.00931318726837635,0.042806291547417635
1772562076578273500,7.3252734375,-0.003112579062581062,0.000898117883503437,0.04189999035745859
1772562076588255500,7.33525537109375,0.01822246991097927,-0.02237995491661131,0.06810469119399785
1772562076598238500,7.345238525390625,0.030367665734887122,-0.019956965553388,0.0927929961182177
1772562076608220700,7.355220703125,0.031108254969120022,-0.014760712084546684,0.10773965922892093
1772562076618202400,7.365202392578125,0.0039998832911252976,-0.014368205635622144,0.11362900952845811
1772562076628185600,7.375185546875,-0.03922375688552856,-0.025946196030825375,0.11913199085891246
1772562076638167600,7.38516748046875,-0.053632805988192554,-0.029490590639412402,0.12358473248407244
1772562076648150500,7.395150634765625,-0.04260346245169639,-0.030827757527306675,0.12077595867365598
1772562076658132500,7.405132568359375,-0.028763737669587133,-0.018389862367138264,0.12978095677569507
1772562076668115700,7.41511572265625,-0.021704466807842254,-0.002597323016822338,0.12827873551920055
1772562076678097400,7.425097412109375,-0.018998130458593367,0.023227219395712016,0.11098170989006757
1772562076688080600,7.43508056640625,-0.003527589604258537,0.028637773202359676,0.11026815479323267
1772562076698062300,7.445062255859375,0.02655833657979965,0.01825154987499118,0.10862374858707188
1772562076708045600,7.455045654296875,0.018440496575832365,0.013933759741112588,0.11947554359957575
1772562076718027500,7.465027587890625,0.030367081212997436,-0.008720847398415207,0.11077215879261493
1772562076728009500,7.475009521484375,0.0394487978130579,-0.04126373828053474,0.11619374544993043
1772562076737992400,7.484992431640625,0.04522562764883041,-0.059987216516211625,0.11892799271941185
1772562076747974400,7.494974365234375,0.025796120035648344,-0.07217479017712175,0.12881649565771222
1772562076757957400,7.504957275390625,-0.0014794249027967451,-0.07773753887079655,0.1388929223835468
1772562076767939600,7.514939697265625,0.008283259698748588,-0.05857647293545305,0.1382933490552008
1772562076777922300,7.52492236328125,-0.028785364979505536,-0.009731047354266047,0.11022694600000976
1772562076787904500,7.534904541015625,-0.028451018458604812,0.014844810171425341,0.11241349625885486
1772562076797887500,7.544887451171875,-0.022343933755159376,0.02802300230488181,0.10690832297131418
1772562076807869400,7.554869384765625,-0.04673310960233211,0.032537849380820986,0.08687968042120336
1772562076817852400,7.564852294921875,-0.05959083760976791,0.012105448335409164,0.09629457449838519
1772562076827834600,7.574834716796875,-0.07061375140547752,-0.007788242723420262,0.10616627243235707
1772562076837816600,7.584816650390625,-0.049231356158852574,-0.0388823961019516,0.10145093434825539
1772562076847799600,7.594799560546875,-0.026650106516480445,-0.04080715361945331,0.0994601989224553
1772562076857781500,7.604781494140625,-0.009723521634936332,-0.05654262902028858,0.09511895484775304
1772562076867764500,7.614764404296875,0.01307458562850952,-0.048954438913613556,0.07894596481248736
1772562076877746700,7.62474658203125,0.0322463190883398,-0.030261282750964163,0.06838906109333039
1772562076887729400,7.6347294921875,0.026467151165008543,-0.031256504333391784,0.07919117174521088
1772562076897711600,7.644711669921875,-0.000533083963394165,-0.015047858462855218,0.09307605084329842
1772562076907694600,7.654694580078125,-0.001602174499630928,0.010808321196958423,0.0961218482799828
1772562076917676500,7.664676513671875,-0.005177110376954079,0.04677461065649986,0.08941270603016019
1772562076927659500,7.674659423828125,-0.0052472530037164684,0.054817851054295895,0.10006605586111544
1772562076937641700,7.684641845703125,-0.015257190364599226,0.03217844148389995,0.11124679056704044
1772562076947623400,7.69462353515625,-0.0004845686465501785,0.03710406131781637,0.12641352616921067
1772562076957606700,7.704606689453125,0.01217091478705406,0.04110986289307475,0.13018924531564116
1772562076967588400,7.71458837890625,0.013577274453639984,0.047900911272689695,0.11822744323462248
1772562076977571600,7.724571533203125,-0.022326982620358465,0.03142528502903878,0.11848448673561214
1772562076987553500,7.734553466796875,-0.031224574825167654,0.004872501407191157,0.12309417248815298
1772562076997536500,7.74453662109375,0.013195581659674644,0.004631897584348917,0.11501038088425994
1772562077007518500,7.7545185546875,0.017787585625052452,0.018152838740870356,0.09253814457431435
1772562077017501700,7.764501708984375,-0.010317395874857901,0.021655659230053425,0.08526742291897535
1772562077027483400,7.7744833984375,-0.0013683657437562943,0.02822634285725653,0.08136135539114475
1772562077037466600,7.784466552734375,0.0188572606831789,0.03225998228751123,0.07981178786158562
1772562077047448300,7.7944482421875,-0.010694997015595436,0.029148206942528485,0.0695220106460154
1772562077057430500,7.804430419921875,-0.021100071173906325,0.01103628473393619,0.06943345557972788
1772562077067413500,7.81441357421875,-0.00575520252585411,0.015191431652009486,0.0777216837145388
1772562077077395500,7.8243955078125,0.01814063684642315,0.0270528420984745,0.05753507412374019
1772562077087378400,7.83437841796875,-0.008915712383389472,0.014341902150586247,0.07287950438037515
1772562077097360600,7.844360595703125,-0.024754502028226853,-0.01893982440009713,0.09044409490451216
1772562077107343400,7.85434326171875,-0.029532968476414678,-0.013897007927298545,0.10144918078258633
1772562077117325600,7.86432568359375,-0.027389526706933974,0.002368044305592775,0.09180646929889917
1772562077127308500,7.87430859375,-0.007006079369783401,0.008707549525424838,0.10870865039154887
1772562077137290500,7.88429052734375,0.01068038396835327,0.029759689904376864,0.10047244470492005
1772562077147273500,7.8942734375,0.024212065714597702,0.04069426782950759,0.10331789726391434
1772562077157255400,7.90425537109375,0.024441198295354842,0.02593129072263837,0.12033026073276996
1772562077167237600,7.914237548828125,0.00949789618551731,-0.008123904418572784,0.14111001391112804
1772562077177220600,7.924220703125,0.01134089370369911,-0.04136106117516756,0.14791618679463864
1772562077187202600,7.93420263671875,0.020634207227826117,-0.04784545475840568,0.14959887918457387
1772562077197185500,7.944185546875,0.03127133657634258,-0.030022140232846137,0.1369195764839649
1772562077207167500,7.95416748046875,0.035901918986439706,-0.010868746147304773,0.13611702792942523
1772562077217150500,7.964150390625,0.05600011964142322,0.00016812310852110384,0.12652297789305447
1772562077227132700,7.974132568359375,0.04279577015340328,0.0004910714525729417,0.14510463650524616
1772562077237115600,7.98411572265625,-0.008016717717051506,0.009457710305601358,0.14604118670299648
1772562077247095600,7.994095458984375,-0.0058329439371824264,0.002790872827544808,0.13113967790827155
1772562077257078500,8.00407861328125,-0.008899345770478248,-0.007202697920426726,0.12289119726195931
1772562077267060500,8.014060546875,-0.03323942177891731,-0.038229631281644104,0.13965060888305306
1772562077277043500,8.02404345703125,-0.054098085412383076,-0.06346680226027965,0.14540624980032443
1772562077287025400,8.034025390625,-0.04728197565674781,-0.042592356535792346,0.14778408484756947
1772562077297008600,8.044008544921875,-0.030095278534293172,-0.034273075675591826,0.1299357089459896
1772562077306990300,8.053990234375,-0.059492637932300564,-0.034913127144798634,0.12933511270433665
1772562077316973600,8.0639736328125,-0.034142508098483085,0.0005247545264661312,0.11032105402424931
1772562077326955500,8.07395556640625,0.013546294793486595,0.034478754315525294,0.09115560417473316
1772562077336938500,8.0839384765625,0.039022681355476374,0.04869498425982892,0.06387728275731205
1772562077346920400,8.09392041015625,0.021155016231536865,0.03151106361635029,0.06171805889680981
1772562077356902700,8.103902587890625,-0.010118658432364463,0.029228651767596602,0.07136237781569361
1772562077366885400,8.113885498046875,0.022913842597603797,0.023524667972326278,0.05485927904322743
1772562077376867600,8.12386767578125,0.038304303953051566,0.012230462954565882,0.04845423430651426
1772562077386850600,8.1338505859375,0.015379939961433409,-0.03572334754914045,0.06305062267482281
1772562077396832500,8.14383251953125,-0.0024129063606262205,-0.048873555697128174,0.07277341365739702
1772562077406815500,8.1538154296875,-0.03173077078163623,-0.05659582051225006,0.07923238053843379
1772562077416797400,8.16379736328125,-0.042615152889490124,-0.04568162778802216,0.06097308574840426
1772562077426780400,8.173780517578125,-0.04782499649226665,-0.029073388140648602,0.05446253481060266
1772562077436762600,8.1837626953125,-0.032708091381192204,0.009452888000011444,0.04474135126322508
1772562077446745300,8.193745361328125,-0.03338146059811115,0.015443506716936825,0.04637055990025401
1772562077456727600,8.2037275390625,-0.04703180028796196,0.027453458788618445,0.054861324869841334
1772562077466709500,8.21370947265625,-0.039167058262228965,0.035762802776694295,0.05036240601539611
1772562077476692500,8.2236923828125,0.006205868902802467,0.03124744424410164,0.05264233364611864
1772562077486674400,8.23367431640625,0.011093056422471999,0.01617890831939876,0.07576704251542687
1772562077496657700,8.24365771484375,0.006394084951281547,-0.025321269065514206,0.11227058065682649
1772562077506639400,8.253639404296875,0.013400748842954635,-0.04662351174801588,0.12287161577865481
1772562077516622600,8.26362255859375,0.003444587495923042,-0.032946722442656756,0.13523425374552606
1772562077526604300,8.273604248046874,0.011935936987400054,-0.026729090036824343,0.12277443901449442
1772562077536587500,8.28358740234375,0.013819266515970229,-0.014980346184596418,0.12813757348284124
1772562077546569500,8.293569580078126,-0.003735679396986961,0.010201952801644801,0.11954568622633814
1772562077556551400,8.303551513671875,-0.0197591779589653,0.03154540427736938,0.13402180921584367
1772562077566534400,8.313534423828125,-0.037570728981494904,0.03140292706675828,0.13211246846318245
1772562077576516400,8.323516357421875,-0.03541618129611015,0.019343144503980874,0.1389642340540886
1772562077586499300,8.333499267578125,-0.013231822016835213,0.015945026498287915,0.1328393214330077
1772562077596481500,8.3434814453125,0.005422025048732757,0.007615589570254087,0.13198197395130992
1772562077606464500,8.353464599609374,0.01662906323969364,-0.01388495216332376,0.1284323186457157
1772562077616446500,8.363446533203126,0.002327566164731979,-0.019675445198267697,0.13583484998717904
1772562077626429400,8.373429443359376,0.005462941581010818,-0.023675328489392994,0.12136559512987732
1772562077636413700,8.38341357421875,0.02434182957410812,-0.03408471349664032,0.11656404006704688
1772562077646395400,8.3933955078125,-0.01094400334060192,-0.04887867026366293,0.11499474492371081
1772562077656378600,8.403378662109375,-0.009216741156578064,-0.05201477633230388,0.11600436035767198
1772562077666360600,8.413360595703125,-0.009574468553066253,-0.04223565205261111,0.10300357061773538
1772562077676343600,8.423343505859375,-0.022953590086102486,-0.03678403558321297,0.08462824823260306
1772562077686325500,8.433325439453125,-0.03610533260405063,-0.03286832344420254,0.07028627301678061
1772562077696307500,8.443307373046874,-0.054716509571671484,-0.023651290026679633,0.07850128978490829
1772562077706290200,8.453290283203126,-0.05899462528228759,0.006238382932916283,0.07112696162462234
1772562077716272000,8.463272216796875,-0.06366437065899372,0.029213161937519907,0.05774579426497221
1772562077726255000,8.473255126953125,-0.04847381578981876,0.03347871042750775,0.0666049541555345
1772562077736237000,8.483237060546875,-0.02987491378188133,0.007280366266518831,0.05186214305385947
1772562077746220000,8.493219970703125,-0.007446224352717399,-0.018988997304067015,0.04031812799349427
1772562077756202200,8.5032021484375,-0.006464812099933624,-0.01991071525886655,0.05015680044069886
1772562077766185000,8.51318505859375,0.0032400048345327375,-0.009984218397736548,0.05263721907958388
1772562077776167200,8.523167236328124,0.01438216109573841,-0.01382562319152057,0.047347734369337556
1772562077786150100,8.533150146484376,0.03490121751129627,-0.015137436442449689,0.04575622739419341
1772562077796132000,8.543132080078125,0.02853694317638874,-0.011384952041134237,0.07120280333980918
1772562077806114300,8.5531142578125,0.025952771902084348,0.0024857524011284112,0.07187193477302789
1772562077816097000,8.563096923828125,0.03407002738416195,0.0019458003055304288,0.07339125329479575
1772562077826079200,8.573079345703125,0.06002572189569473,-0.0022989245921373365,0.07258037530332803
1772562077836062200,8.583062255859375,0.03648410278856754,0.0028397534705698487,0.07675839164033532
1772562077846044200,8.593044189453124,0.03336450946331024,-0.0011064999371767042,0.09550430090352892
1772562077856027100,8.603027099609376,0.018196166425943374,0.004393120392411947,0.10448577199950813
1772562077866009300,8.61300927734375,-0.011051555368304253,0.0054579731449484825,0.09869856690019368
1772562077875992000,8.622991943359375,-0.01679331389069557,-0.0028287936851382253,0.09076324385628104
1772562077885974300,8.632974365234375,-0.025628946775197982,0.009215864373743533,0.0906954393170774
1772562077895957200,8.642957275390625,-0.031880408385396,0.009351327321678399,0.09511164832413196
1772562077905939200,8.652939208984375,-0.02674655262827873,0.0030588030487298965,0.11201996689662337
1772562077915921200,8.662921142578124,-0.04009820163249969,-0.005210501189902425,0.11042232244163751
1772562077925904100,8.672904052734374,-0.002883446481823921,0.0033994331799447534,0.10566139165014028
1772562077935886000,8.682885986328126,0.028167525342106817,0.007727890838310122,0.11160948639959097
1772562077945869300,8.692869384765626,0.030565818655490875,-0.0030384909130632878,0.13353826348260045
1772562077955851000,8.70285107421875,0.047235213905572886,0.013264262981712818,0.14019596780613064
1772562077965834200,8.712834228515625,0.05936813476979732,0.02452989949211478,0.13223098027631638
1772562077975816000,8.72281591796875,0.052988662865757936,0.03430032900869846,0.12239274622052908
1772562077985799200,8.732799072265625,0.06063304013907909,0.020003654239326714,0.10978139418959618
1772562077995781000,8.742781005859374,0.07324526895284653,0.0028093583323061467,0.11301336184814571
1772562078005764400,8.752764404296874,0.050450084298849104,-0.01584156612381339,0.1442651169411838
1772562078015746000,8.76274609375,0.044941550010442734,-0.018423472375795245,0.13501973421201108
1772562078025728300,8.772728271484375,0.04589841234385967,-0.019178966918215155,0.12462605823054909
1772562078035711000,8.7827109375,0.035706688675284384,-0.018104031163081527,0.1059261800661683
1772562078045693200,8.792693115234375,0.04824702129662037,-0.020818477753549815,0.08160363971441983
1772562078055676200,8.80267626953125,0.001844166561961174,-0.010422098358348012,0.08312748828083276
1772562078065658000,8.812658203125,-0.06373626685142517,-0.010641221001744269,0.07704217701777816
1772562078075641000,8.82264111328125,-0.06585691226720809,-0.0181247816901654,0.06879501154571771
1772562078085623000,8.832623046875,-0.08548866445422172,-0.025451544381678102,0.06163520291894674
1772562078095606000,8.84260595703125,-0.08441548226475715,-0.011600348357483744,0.05976107961013913
1772562078105588200,8.852588134765625,-0.08104162191748619,0.0044627515625208615,0.0689798665933311
1772562078115570200,8.862570068359375,-0.09182195912897587,-0.009397066159546375,0.07998831347227096
1772562078125553200,8.87255322265625,-0.081476506203413,-0.0047302433922886845,0.07177081248611211
1772562078135535400,8.882535400390625,-0.03803776197135448,0.025960589882358907,0.056891369392722844
1772562078145518000,8.89251806640625,-0.006584639087319374,0.028733853987976905,0.039651626908779145
1772562078155500300,8.902500244140626,0.019731705430150032,0.006340016676485538,0.05940437512695789
1772562078165483300,8.912483154296876,0.03325345030426979,-0.012760989634692669,0.08957856411635876
1772562078175465200,8.92246533203125,0.04260346245169639,-0.0030314766503870484,0.08904767211005091
1772562078185448200,8.9324482421875,0.04689151503443718,0.0057325523026287555,0.09801657598540187
1772562078195430100,8.94243017578125,0.06917465851306914,0.025394772693142293,0.10668664304465054
1772562078205413000,8.9524130859375,0.07653671171367168,0.05864508119225502,0.11249737515002488
1772562078215395300,8.962395263671874,0.06492050819993019,0.08692183906249701,0.09630977206751704
1772562078225377000,8.972376953125,0.06209259129762649,0.08562778066396713,0.08688947116285561
1772562078235360300,8.9823603515625,0.04410685275197029,0.07400755856223404,0.10331439013257622
1772562078245342000,8.992342041015625,0.031065000349283216,0.04848338733576238,0.11246332674995065
1772562078255325200,9.0023251953125,0.04636369176805019,0.024846198899671434,0.11601765823066233
1772562078265307100,9.01230712890625,0.02115910788476467,0.01288359310105443,0.1232334348283708
1772562078275290000,9.0222900390625,0.005264788660407066,0.008595321322605013,0.14057517638206482
1772562078285272000,9.03227197265625,0.0024485621958971024,-0.010780483341962098,0.1327583651512861
1772562078295255300,9.04225537109375,0.003068155398964882,0.007840484367311001,0.1218906419172883
1772562078305237000,9.052237060546876,-0.008750292688608169,0.01893266400694847,0.11621288854181766
1772562078315220200,9.06222021484375,0.009662146836519241,0.035858518236130475,0.10581892029941081
1772562078325202200,9.0722021484375,0.006662965020537376,0.026792729857563972,0.08905161763280629
1772562078335185200,9.08218505859375,-0.0034217911422252654,0.014816387794539332,0.09188713331967592
1772562078345167000,9.0921669921875,0.010102291819453239,0.0028514439083635805,0.08731003466248512
1772562078355149000,9.102149169921875,0.00566109450161457,0.016212372197583317,0.07772723667249083
1772562078365132000,9.112132080078124,0.012315291693806648,0.021862799174711105,0.07289017190486193
1772562078375114200,9.1221142578125,-0.0008662614405155182,0.019945275115594265,0.07289689390659332
1772562078385097000,9.132096923828126,0.014020342046022415,0.005038944015279412,0.07190715221688151
1772562078395079200,9.1420791015625,0.030189386558532712,-0.014707666723057627,0.08069690013304352
1772562078405062100,9.152062255859375,0.007650807014107704,-0.03447919270694256,0.09570552256405353
1772562078415044000,9.162044189453125,0.008389642682671547,-0.038701194316148754,0.08471768008172512
1772562078425027000,9.172027099609375,0.02285363684296608,-0.0280762668620795,0.08134455038681626
1772562078435009300,9.18200927734375,0.03274199365079403,-0.010944660927727818,0.07568871658220887
1772562078444992000,9.191991943359374,0.0358498965382576,0.00951119405850768,0.07406696059927344
1772562078454974200,9.20197412109375,0.008311901271343231,0.001928410779312253,0.09323328723162412
1772562078464956200,9.2119560546875,-0.013141805645823477,-0.0090043405149132,0.10775120353624223
1772562078474939100,9.221939208984375,-0.01395779820382595,-0.02163483563773334,0.10270166506171226
1772562078484921300,9.23192138671875,-0.05335749617815017,-0.03183050482906401,0.1005463867239654
1772562078494904000,9.241904052734375,-0.0902782368183136,-0.06997910676375031,0.10377382433786987
1772562078504886300,9.25188623046875,-0.11130816536545753,-0.08017609112933277,0.09587839491292834
1772562078514869200,9.261869140625,-0.12057108375132083,-0.07775149433091283,0.09746274149492383
1772562078524851200,9.271851318359374,-0.1363794782578945,-0.061979120985791086,0.09693345692381262
1772562078534834200,9.281834228515624,-0.11719488531649112,-0.029328605010733005,0.09554171030446887
1772562078544816000,9.291816162109376,-0.04523088834583759,0.03422945572957396,0.09619096799343824
1772562078554798000,9.301798095703125,0.05275660767555237,0.06782682410068809,0.07629968808740377
1772562078564781300,9.31178125,0.10850012220740318,0.07894991033524275,0.05450476651713252
1772562078574763000,9.321762939453125,0.10452361979186535,0.06234481249302625,0.06952420260310173
1772562078584746200,9.331746337890625,0.10572305870950222,0.05677658390663564,0.08086626535058021
1772562078594728200,9.341728271484374,0.10739771392345428,0.018366554556787013,0.09160378633365035
1772562078604711200,9.351711181640624,0.08383855915963649,-0.02408317863792181,0.10701529047712684
1772562078614693000,9.361693115234376,0.06082710140645504,-0.03307721695452928,0.10790449440181255
1772562078624676400,9.37167626953125,0.05086918649375438,-0.018036518884822727,0.11311010022088884
1772562078634658000,9.381657958984375,0.03866670752465725,-0.0015449644196778535,0.13664850445762275
1772562078644641300,9.391641357421875,0.019635259318351743,0.01681026502549648,0.12562895166277885
1772562078654623000,9.401623046875,0.01823766748011112,0.04234466538503766,0.1185718727581203
1772562078664605200,9.411605224609374,-0.0047439796566963194,0.05477905341386795,0.11390943390503525
1772562078674588200,9.421588134765624,0.0006441431224346161,0.056466202783212065,0.10495689664259553
1772562078684570000,9.431570068359376,-0.003750292444229126,0.026625045140460133,0.11034706524834036
1772562078694553000,9.441552978515626,0.013199088791012763,-0.00040836160518229007,0.10522767640799284
1772562078704535600,9.45153564453125,0.019969021317362785,-0.02183459599353373,0.07866729400157928
1772562078714518500,9.4615185546875,0.02053250041902065,-0.031236849784851074,0.08396174714788794
1772562078724500500,9.47150048828125,0.015665186643600462,-0.045740810629352924,0.0873011207036674
1772562078734483500,9.4814833984375,-0.004099252012372017,-0.043151963179931044,0.07803703327402473
1772562078744465700,9.491465576171874,-0.0351221667855978,-0.03982574136666953,0.0734517513103783
1772562078754448400,9.501448486328124,-0.04667991811037063,-0.03136266812160611,0.0638471798799932
1772562078764430600,9.5114306640625,-0.0609159487336874,-0.01344736446365714,0.05475348058119416
1772562078774412300,9.521412353515625,-0.04190437427163124,-0.007997866886109112,0.049382601197808976
1772562078784395500,9.5313955078125,-0.025138532909750936,0.003472279220446944,0.0544182572774589
1772562078794377500,9.54137744140625,-0.00947568435370922,0.015690321084856986,0.06415288482829928
1772562078804360400,9.5513603515625,-0.017377835780382156,0.007076879583671689,0.07564882296323776
1772562078814342400,9.56134228515625,-0.02466214756965637,-0.01544379897788167,0.08049348651543259
1772562078824325600,9.57132568359375,-0.003601239362359047,-0.025700258445739744,0.08222162548229098
1772562078834307300,9.581307373046876,-0.0023690672188997268,-0.048788434696942565,0.08631927005946635
1772562078844290600,9.59129052734375,-0.011398176848888397,-0.05514350281208753,0.09688450321555137
1772562078854272500,9.6012724609375,-0.025597382593154906,-0.05524710931703448,0.11167422219887375
1772562078864255500,9.61125537109375,-0.04336801708340644,-0.039231282604858274,0.11464242435470223
1772562078874237400,9.621237548828125,-0.0583364536345005,-0.024051906716823578,0.11673808145970105
1772562078884219400,9.631219482421875,-0.06875614084005355,-0.016645649048313498,0.10348127113208173
1772562078894202400,9.641202392578125,-0.05510872375965118,-0.0054292585071176284,0.10102627919539808
1772562078904184600,9.6511845703125,-0.02162789444029331,0.002055252029374242,0.11119622942358255
1772562078914167300,9.661167236328126,-0.008957797959446907,0.01910663233436644,0.09752879246845841
1772562078924149500,9.6711494140625,-0.0005915361523628235,0.018590353375300763,0.07766980739682912
1772562078934132500,9.681132568359375,0.013330021694302557,0.017035013692080974,0.07497530761584639
1772562078944114400,9.691114501953125,0.02593874337673187,0.012904562823846935,0.08787804380878805
1772562078954097400,9.701097412109375,0.04721826277077198,0.018656404348835347,0.07635492540597916
1772562078964079600,9.71107958984375,0.028353987824916837,0.007471285728737711,0.05223740610703825
1772562078974061600,9.7210615234375,0.0280026901692152,0.012459887796267867,0.060709612506628034
1772562078984044500,9.73104443359375,0.021754151168465612,0.006656681410223245,0.06976926340535283
1772562078994026500,9.741026611328126,-0.0036608605951070784,0.005746142436563968,0.07570391415134071
1772562079004009500,9.751009521484375,0.006740121909976005,0.012678133656829595,0.07298530284240841
1772562079013991700,9.76099169921875,0.013126608076691627,0.025839155459776518,0.07550210796892642
1772562079023974400,9.770974365234375,0.017037059518694875,0.031748452568799254,0.07807765754535793
1772562079033956600,9.78095654296875,0.03863455882072449,0.01941562521830201,0.06573898497596382
1772562079043939600,9.790939697265625,0.03703530693054199,-0.0011080343071371316,0.08584390763267874
1772562079053921500,9.800921630859374,0.02288110937178135,-0.017517901838198305,0.10710253036916255
1772562079063904500,9.810904541015624,0.010836451312899589,-0.020858444437757133,0.11331745936125516
1772562079073886500,9.820886474609376,-0.014261165064573287,-0.008537892046943307,0.11786299383640289
1772562079083868400,9.830868408203125,-0.020386369946599005,0.01609532168917358,0.09922478273138403
1772562079093851600,9.8408515625,-0.047458501267433166,0.028216332919895646,0.09135653357431292
1772562079103833300,9.850833251953125,-0.058607671791315076,0.03789236215129495,0.09927461322247981
1772562079113816600,9.860816650390625,-0.04568447733223438,0.04042765278257429,0.11079144801497459
1772562079123798500,9.870798583984374,-0.049941550254821776,0.04089161703251302,0.11242708639279007
1772562079133781500,9.880781494140624,-0.050583355289697644,0.03686090021170676,0.09737842421233653
1772562079143763500,9.890763427734376,-0.016296470284461975,0.01786919949389994,0.0969407634474337
1772562079153746700,9.90074658203125,-0.0017149872243404387,0.001960632548481226,0.09340250631868839
1772562079163728400,9.910728271484375,0.010278232908248901,-0.003018032646924257,0.0716748047657311
1772562079173711600,9.920711669921875,0.023676059141755103,-0.002194733565300703,0.055658758857846255
1772562079183693300,9.930693359375,0.02944529019296169,0.0025032149925827978,0.0351909942381084
1772562079193675500,9.940675537109374,0.04687281033396721,-0.018505963027477264,0.024868483796715735
1772562079203658500,9.950658447265624,0.04636836794316768,-0.0418359121453017,0.04288914752528071
1772562079213640400,9.960640380859376,0.025840543699264525,-0.04634476787187159,0.06236015619263052
1772562079223623400,9.97062353515625,0.0070148471981286995,-0.022638532787561415,0.037883594322949646
1772562079233605400,9.98060546875,-0.003376782956719398,0.0027239450711756944,0.032124007882922884
1772562079243588400,9.99058837890625,-0.014528876090049743,0.014735650708526372,0.03765943017825484
1772562079253570600,10.000570556640625,-0.007362637722492218,0.008738163859397172,0.04664762327596545
1772562079263553500,10.010553466796875,-0.002737316009402275,0.012525354247912764,0.052099605071544645
1772562079273535500,10.020535400390624,-0.029903555354475975,0.013893427730724215,0.06693754711076617
1772562079283518500,10.0305185546875,-0.05569909086823463,0.00201338564902544,0.05713599180355668
1772562079293500400,10.04050048828125,-0.032115386185050006,-0.023902269113063812,0.06150996910408139
1772562079303482600,10.050482666015625,0.013073416584730147,-0.01154226149469614,0.060765434347093104
1772562079313465600,10.060465576171875,0.020079495954513547,-0.009851239667832851,0.07088467730134725
1772562079323447600,10.070447509765625,0.03005260843634605,-0.01859071870148182,0.07430763748735189
1772562079333430500,10.080430419921875,0.055547699698805804,-0.047190644111484284,0.07272051442638039
1772562079343412500,10.09041259765625,0.04287584965229034,-0.03459229769259691,0.0793608292236924
1772562079353395500,10.1003955078125,0.01298749186694622,-0.016131269785389302,0.09248962925747037
1772562079363377700,10.110377685546876,-0.004972527715563774,-0.018470891714096067,0.10212357291281222
1772562079373360400,10.1203603515625,-0.02144143195748329,-0.01999685917235911,0.10704743918105959
1772562079383342600,10.130342529296875,-0.07763035216927527,-0.026287045357748864,0.12012114802673458
1772562079393325600,10.14032568359375,-0.09333353273570537,-0.04213482202664017,0.1508696297727525
1772562079403307500,10.1503076171875,0.07832885582745075,0.0026287410683929918,0.025377163971215484
1772562079413289500,10.16028955078125,-0.0561579405516386,0.014358999415859578,0.04861936174035072
1772562079423272700,10.170272705078125,-0.04889817868173122,0.0388533892031759,0.089443831820786
1772562079433254400,10.18025439453125,0.015802549287676812,0.05283135341219604,0.11133052332773805
1772562079443237600,10.190237548828126,-0.017438041535019874,0.06891461933739483,0.1304359135530889
1772562079453219300,10.20021923828125,0.022914427119493482,0.06279730550087988,0.11229936835989356
1772562079463202600,10.21020263671875,-0.002357376781105995,0.048347924387827514,0.11766177217587828
1772562079473184500,10.2201845703125,-0.009129647395014762,0.03704261345416307,0.10092398786470294
1772562079483167500,10.23016748046875,0.006989712756872176,-0.009533186694607138,0.09696341367065905
1772562079493149400,10.2401494140625,-0.014680851781368255,-0.036525384647026655,0.1127526650853455
1772562079503132700,10.250132568359374,-0.002620411631464958,-0.041090792866423725,0.11592369633689523
1772562079513114400,10.2601142578125,-0.014383330139517782,-0.0346685047339648,0.13146116494759916
1772562079523096600,10.2700966796875,-0.015049685093760489,-0.027897549294307825,0.10865312081202864
1772562079533079300,10.280079345703125,-0.001762333497405052,-0.002634367091581225,0.09818038824498652
1772562079543061500,10.2900615234375,-0.0014525368958711623,0.015364669327065348,0.07492986103892325
1772562079553044500,10.30004443359375,0.014912906971573828,0.029662293944507836,0.05975976443588733
1772562079563026400,10.3100263671875,0.03586100245416164,0.02750358154065907,0.06834302999451757
1772562079573009400,10.320009521484375,0.021709142982959746,0.018891455213725566,0.07233867550194263
1772562079582991600,10.32999169921875,0.024815292304754256,-0.009025237172469495,0.07548457231223583
1772562079592974300,10.339974365234376,0.02377425881922245,-0.013243658585101365,0.07015767820104957
1772562079602956500,10.34995654296875,0.03916939634978771,-0.01971541188247502,0.08419760173037648
1772562079612939500,10.359939453125,0.031022914773225784,-0.01932151719406247,0.08131357072666287
1772562079622921500,10.36992138671875,0.039513679742813106,-0.00046191842332482335,0.08065320712178944
1772562079632903700,10.379903564453125,0.026468320208787918,-0.003700169692188501,0.08691928177922964
1772562079642886400,10.389886474609375,0.03486205454468727,-0.005259381832927465,0.08524433430433273
1772562079652868600,10.39986865234375,0.027283143723011015,-0.010063786439970135,0.08991071868017315
1772562079662851600,10.4098515625,0.019893033471703528,-0.028005174387246368,0.08716361192911863
1772562079672833500,10.41983349609375,-0.02069850463569164,-0.02744432563409209,0.09219605313837528
1772562079682816500,10.42981640625,-0.03898877908587456,-0.044628684668987985,0.10617474799975753
1772562079692798700,10.439798828125,-0.0599964958012104,-0.03693235801272094,0.11066694485247135
1772562079702781400,10.449781494140625,-0.07083119354844093,-0.013701631485670804,0.10614216090440749
1772562079712763000,10.459762939453125,-0.06836451117396354,0.00041720249876379966,0.0822204564385116
1772562079722744800,10.469744873046874,-0.0304600201934576,-0.0028179800301790237,0.08016834621429443
1772562079732727800,10.479727783203124,-0.011024082839488983,0.021000702452659607,0.0728629916369915
1772562079742709800,10.489709716796876,0.0162257431358099,0.019275705290958286,0.06916925168558954
1772562079752693000,10.49969287109375,0.0440279422968626,0.009951339041441678,0.0691202979773283
1772562079762674700,10.5096748046875,0.053773675763607025,-0.0183563254237175,0.05889189556017518
1772562079772658000,10.519657958984375,0.05375321749746799,-0.04294752664901316,0.07867050887197255
1772562079782639900,10.529639892578125,0.12200023977160453,-0.031161738722026346,0.08641498551890253
1772562079792622800,10.539622802734375,0.05338438418507575,-0.005895926170796156,0.05616437029242515
1772562079802604800,10.549604736328124,0.017687632381916046,0.013654796669259667,0.0651258215136826
1772562079812588000,10.559588134765624,0.023015549406409264,0.020680238326638935,0.07144041148796677
1772562079822569700,10.56956982421875,-0.00736906746327877,0.0269482126802206,0.10373422297984361
1772562079832552000,10.579552001953125,-0.04369125768840313,0.01211129355430603,0.11779971934184431
1772562079842534700,10.58953466796875,-0.05337853896617889,-0.0014934534281492232,0.10950798407569527
1772562079852516900,10.599516845703125,-0.07168810263872147,-0.0022493863619863987,0.10348331695869564
1772562079862499800,10.609499755859375,-0.08035597774088382,0.0013764759849756955,0.12396671753898263
1772562079872481800,10.619481689453124,-0.06207680920660495,-0.003949468278139829,0.10966536659449339
1772562079882464800,10.62946484375,-0.04857552259862423,-0.016575141095370054,0.07400470901802182
1772562079892447000,10.639447021484376,-0.01713350563049316,-0.025392580736055968,0.07833937722146511
1772562079902429700,10.6494296875,0.02207622272968292,-0.029734774658828973,0.08329685349836945
1772562079912412000,10.659411865234375,0.030886136651039123,-0.02722125746794045,0.1091929267771542
1772562079922395000,10.669394775390625,0.03369125719964504,-0.019336130241304636,0.10170432458743453
1772562079932376800,10.679376953125,0.011487024176120757,-0.01066511333398521,0.09843845465928315
1772562079942359000,10.689359130859375,-0.018010872986912726,0.011501198831945657,0.08254033604264259
1772562079952341800,10.699341796875,-0.013357494223117827,0.024637889911234376,0.07609364412128924
1772562079962324000,10.709323974609376,-0.011446107643842697,0.03111066612191498,0.09349515303820372
1772562079972307000,10.719306884765626,-0.022257424515485763,0.027024711982533336,0.09875058934837579
1772562079982289000,10.729288818359375,-0.012071546065807341,0.019435352832078933,0.09837298820763826
1772562079992272000,10.73927197265625,-0.038892332974076266,0.026006255654990672,0.10031272409856319
1772562080002253800,10.74925390625,-0.02222001511454582,0.03313428090400994,0.0850099410265684
1772562080012236800,10.75923681640625,0.013349895438551902,0.04329327134676277,0.06506766158565878
1772562080022219000,10.769218994140624,0.035410336077213285,0.039990211213380096,0.06410758438184858
1772562080032201700,10.77920166015625,0.03334755832850933,0.034304932118579747,0.07420330033004284
1772562080042184000,10.789183837890626,0.05131868382692337,0.036036943542957306,0.06356470967680215
1772562080052166000,10.799165771484375,0.05146422977745533,0.02202989936992526,0.06599310586750506
1772562080062148900,10.80914892578125,0.03965513404011726,0.021281272959709167,0.0642022769279778
1772562080072130800,10.819130859375,0.04738368246555328,0.02586567814052105,0.04934548405781388
1772562080082114000,10.829114013671875,0.0104699560880661,0.014138634663447737,0.04905336924344301
1772562080092095700,10.839095703125,0.01016366661787033,0.012490209869295358,0.05683218655139208
1772562080102079000,10.849078857421874,0.015662848556041716,0.009895298005267977,0.04431918032839894
1772562080112060700,10.859060791015626,-0.0016308160722255706,0.007168795650824904,0.05021744458675384
1772562080122044000,10.8690439453125,0.006132803666591644,0.004600844858959317,0.06683204090967775
1772562080132025900,10.87902587890625,-0.034520693761110305,0.005247106873244047,0.06722293992340564
1772562080142008800,10.8890087890625,-0.06444821451306343,0.008441007543727756,0.07007730644121765
1772562080151990800,10.89899072265625,-0.04173135579228401,0.01818703327141702,0.061266515737026926
1772562080161972700,10.90897265625,-0.0322463190883398,0.011965601473301649,0.07752820696905255
1772562080171955700,10.918955810546874,-0.019427754047513006,-0.007182312719523906,0.08654460324794054
1772562080181938000,10.92893798828125,0.03102466833889484,-0.00902991334758699,0.06811623550131916
1772562080191921000,10.9389208984375,0.028674890342354774,-0.011384586714953184,0.07590937359556556
1772562080201902800,10.94890283203125,-0.004669745376706123,-0.02520904086269438,0.0859131734766066
1772562080211885800,10.9588857421875,0.014361118307709694,-0.03188318486437201,0.1084469307154417
1772562080221867800,10.96886767578125,0.03177987062036991,-0.00903714680597186,0.10835925243198871
1772562080231850800,10.978850830078125,0.008624620482325554,-0.013084230239689349,0.08848784627020359
1772562080241833000,10.9888330078125,0.01302665483355522,-0.01619118327908218,0.08831760426983237
1772562080251815700,10.998815673828124,-0.002187280911207199,-0.0007611205656081438,0.07701470448896289
1772562080261798000,11.0087978515625,-0.015877368089556695,0.004332549311593175,0.07743015342205763
1772562080271779800,11.01877978515625,-0.030450667843222617,-0.008444368544593453,0.08093304697647691
1772562080281762800,11.0287626953125,-0.04028641768097877,-0.02222710244245827,0.07589329924359917
1772562080291745000,11.0387451171875,-0.03727145377397537,-0.01728328936472535,0.09034794105365872
1772562080301727700,11.048727783203125,-0.024465748214721677,-0.003941065775975585,0.09554317160919308
1772562080311710000,11.0587099609375,-0.014516601130366324,0.01814523995630443,0.09199965378344059
1772562080321693000,11.06869287109375,0.02521335171163082,0.027111148156970737,0.09821282920986413
1772562080331675000,11.0786748046875,0.021648937228322028,0.04136047665327787,0.0960739174850285
1772562080341657900,11.088657958984374,0.05279109446704387,0.03567461303658783,0.11506897920370102
1772562080351640000,11.09864013671875,0.07040507709085941,0.0296100523006171,0.09440218488052486
1772562080361621800,11.108621826171875,0.08467676354944706,0.016228446549549698,0.07675546903088688
1772562080371605000,11.11860498046875,0.06444003120660781,-0.016308964439854023,0.08048734903559088
1772562080381586700,11.128586669921875,0.06550561461150646,-0.03935629722401499,0.09497735441997647
1772562080391570000,11.13856982421875,0.05001052383780479,-0.039696562029048796,0.1130510635100305
1772562080401552000,11.1485517578125,0.04358195209503173,-0.04910919108390808,0.10094327708706259
1772562080411534800,11.158534912109374,0.042726796570420264,-0.046342648980021474,0.09779840319007635
1772562080421516800,11.168516845703126,-0.023503040662407874,-0.028757527124509213,0.07425006208121776
1772562080431500000,11.1785,0.04073708405792713,0.018275223011523484,0.07143237431198358
1772562080441481700,11.188481689453125,-0.06645137102901935,0.038285745383054015,0.09844736861810087
1772562080451465000,11.19846484375,-0.08199848425090313,0.024900267174467444,0.08958850098848342
1772562080461446700,11.20844677734375,-0.037007249879837036,0.03402209658920765,0.058061143824458115
1772562080471428900,11.218428955078124,-0.03864098856151104,0.052042102730646723,0.0646282472550869
1772562080481411800,11.228411865234374,-0.04973696759343147,0.02751439519561827,0.07837342562153934
1772562080491393800,11.238393798828126,-0.05365209521055221,0.0014631313551217316,0.0818524999089539
1772562080501376800,11.248376708984376,-0.05296703555583954,-0.006979702819511294,0.05854322825297713
1772562080511359000,11.25835888671875,-0.05050853648781776,-0.04097271944470703,0.0782819479458034
1772562080521341700,11.268341796875,-0.04883680388331413,-0.04277238927781581,0.06380903982669114
1772562080531324000,11.278323974609375,-0.03332651554048061,-0.005680968245863914,0.04631941423490643
1772562080541307000,11.288306884765625,-0.026522096222639083,0.030783333863690494,0.032780718225985765
1772562080551288800,11.298288818359374,-0.014793664506077766,0.03050130205191672,0.031099341010302303
1772562080561271800,11.308271728515624,-0.0019470424145460127,0.03570303541347384,0.058982350322604175
1772562080571253800,11.318253662109376,-0.024815292304754256,0.03619695641025901,0.037942192642390724
1772562080581236000,11.328236083984375,0.02077390795946121,0.04125372834317386,0.016110738454014062
1772562080591219000,11.338218994140625,0.037568975415825843,0.03469480821900069,0.030456659192591905
1772562080601201000,11.348200927734375,0.025092940202355384,0.008918561927601695,0.051472120822966094
1772562080611183900,11.358183837890625,0.04058803097605705,-0.02657156138755381,0.058994186890870326
1772562080621166000,11.368166015625,0.016948796713352202,-0.02910970156304538,0.06686360509172082
1772562080631148800,11.378148681640624,-0.005820084455609322,-0.03446267996355891,0.06669380148276687
1772562080641131000,11.388131103515626,0.026003040784597396,-0.017210808650404214,0.07022592113167048
1772562080651114000,11.398114013671876,0.023314824613928795,-0.00767448015064001,0.07986877874583005
1772562080661096000,11.408095947265625,0.02302957793176174,-0.0021768325824290512,0.08422112873643636
1772562080671079000,11.418078857421875,0.029206220740079877,0.00203559748083353,0.08846928770020604
1772562080681060900,11.428060791015625,0.014869652351737022,0.015068755120411514,0.08198664768263697
1772562080691042800,11.438042724609375,-0.011053308933973311,0.008661810687556863,0.08435922203287481
1772562080701026000,11.448026123046875,-0.009821136790513992,0.0014496873516589403,0.09395999407097697
1772562080711007700,11.4580078125,0.003692424777150154,0.009044818655773997,0.11365808949247001
1772562080720991000,11.467990966796876,-0.0315144976824522,0.029245237576216457,0.1129052252985537
1772562080730972700,11.47797265625,-0.011896189498901366,0.0376645447447896,0.09864099149405955
1772562080740956000,11.487955810546875,0.008263385954499243,0.02088102159574628,0.09960764456912874
1772562080750937900,11.497937744140625,0.007568973949551582,-0.010690320840477942,0.1048480294406414
1772562080760920800,11.5079208984375,0.024209143105149267,-0.03296703457832336,0.10985489781722425
1772562080770902800,11.51790283203125,0.04457447026371956,-0.03993913861326873,0.09250015065148472
1772562080780886000,11.527885986328124,0.052901569104194635,-0.030941666230559346,0.06235372645184397
1772562080790867700,11.53786767578125,0.06381634635031223,-0.014559271228313445,0.050485886264592404
1772562080800850000,11.547849853515626,0.0543237108618021,-0.009148352095484733,0.06266030818298458
1772562080810833000,11.5578330078125,0.029143676897883414,-0.0015698065999895333,0.08770224885046482
1772562080820814800,11.56781494140625,0.008222469422221183,0.017527692579850554,0.08568579446151853
1772562080830797800,11.5777978515625,0.009134323570132255,0.013878522422537207,0.08588394738212227
1772562080840779800,11.58777978515625,-0.010057283633947372,0.012105959792062639,0.09045037851482629
1772562080850762800,11.5977626953125,-0.049505496925115584,0.01304616325162351,0.09213511673137545
1772562080860745000,11.607744873046874,-0.0618961919426918,0.0008864274457097053,0.09283902721703052
1772562080870727700,11.617727783203126,-0.08026420780420303,-0.011899404369294642,0.07952201113477349
1772562080880710000,11.6277099609375,-0.051608022162318225,-0.025915216370671987,0.07592237920761108
1772562080890692900,11.63769287109375,-0.01892915687561035,-0.016118775629997254,0.07904182640239596
1772562080900674800,11.6476748046875,-0.023404840984940528,-0.009553718025982379,0.07630480265393853
1772562080910657000,11.657656982421875,-0.006641337710618972,-0.002561886377260089,0.06961714158356189
1772562080920640000,11.667639892578125,0.04814005379080772,0.01810541940256953,0.0629777035690844
1772562080930622000,11.6776220703125,0.005289923101663589,0.01857683630660176,0.05626870744973421
1772562080940605000,11.68760498046875,-0.0046603930264711374,0.01930975369103253,0.04076718693524599
1772562080950587000,11.6975869140625,0.014587912800908088,0.007828720864281057,0.051867696011811494
1772562080960569900,11.70756982421875,0.012317629781365394,0.005561944976076484,0.06590835019350051
1772562080970552000,11.717552001953125,0.002288403198122978,-0.010768939034640788,0.0737589175634086
1772562080980534800,11.72753466796875,-0.013275661158561707,-0.042239524510130286,0.07330269822850823
1772562080990517000,11.73751708984375,0.008218962290883064,-0.03774367439560592,0.07893909668028354
1772562081000498700,11.747498779296874,-0.02336860062777996,-0.023682635013014076,0.09041925272420048
1772562081010482000,11.75748193359375,-0.05489245066046714,-0.01516695479787886,0.07125716387555003
1772562081020463900,11.7674638671875,0.0302291340470314,-0.0036892829719930883,0.059741936518251895
1772562081030446800,11.77744677734375,-0.013071663019061089,-0.0056529111951589585,0.08194310080185532
1772562081040428800,11.7874287109375,-0.02474631872177124,0.00037672435790300367,0.06533522648066283
1772562081050412000,11.797412109375,0.020986673927307128,-0.0044485769066959615,0.04824395255669951
1772562081060393700,11.807393798828125,0.010156067833304404,-0.006015460897237062,0.06268705005943775
1772562081070377000,11.817376953125,0.01639817709326744,-0.005010521638393402,0.08853796902224421
1772562081080359000,11.82735888671875,0.010582184290885924,-0.006353826006129383,0.09894187413677573
1772562081090342000,11.837341796875,0.013894085317850111,0.0264168822824955,0.09185513074621558
1772562081100323800,11.84732373046875,-0.004022679644823074,0.0273019214887172,0.1101636715054512
1772562081110305800,11.857305908203125,-0.04473287569582462,0.02379099075831473,0.11493483143001794
1772562081120288800,11.867288818359375,-0.029541736304759977,0.045250908220559355,0.10023907434046268
1772562081130271000,11.87727099609375,0.0015431377887725828,0.06164579737819731,0.11594473912492394
1772562081140253700,11.887253662109375,-0.037169746965169906,0.031396205065026876,0.17449600455388425
1772562081150236000,11.89723583984375,-0.023820436048507688,-0.03208038793690503,0.047613107307255265
1772562081160219000,11.907218994140624,-0.024752748462557792,-0.024580679831281302,0.04816036592647433
1772562081170200800,11.917200927734376,-0.06578910772800445,-0.004140022414177656,0.08723477746918797
1772562081180183800,11.927183837890626,-0.03948036199510097,0.006661722911521792,0.13899799019321799
1772562081190166000,11.937166015625,0.011612696382403373,0.019889891666546464,0.1012079193726182
1772562081200148700,11.947148681640625,0.011917232286930084,0.008089929083734751,0.05612769154384732
1772562081210131000,11.957130859375,0.0018844985723495483,-0.011207549647614359,0.05166603595986962
1772562081220113000,11.96711279296875,0.06986264077723026,-0.02013904412202537,0.08755757968276738
1772562081230096000,11.977095947265624,0.03082826898396015,-0.007657090624421835,0.008905629380792379
1772562081240076800,11.987076904296876,0.03950608095824718,-0.003807210263237357,-0.008060264597833156
1772562081250059000,11.99705908203125,0.03766542152762413,-0.029884339197352526,0.04619476494193077
1772562081260042000,12.0070419921875,0.014704817178845404,-0.026006620981171725,0.07842106415554881
1772562081270024000,12.01702392578125,0.013472060513496397,-0.016554828959703446,0.08076616597697138
1772562081280007000,12.0270068359375,-0.020985504883527753,-0.01636632065027952,0.09164747934490441
1772562081289989000,12.036989013671874,-0.025655834782123563,-0.007109247483313083,0.089468089479208
1772562081299970800,12.046970703125,-0.029692542952299117,0.0033929303739219903,0.0878162306189537
1772562081309954000,12.0569541015625,-0.0306213482350111,0.011109715296328067,0.10182035218253731
1772562081319935700,12.066935791015625,-0.03598667466044426,0.008156710709631443,0.10241787968426942
1772562081329919000,12.0769189453125,-0.04110474832653999,0.006252046132087707,0.09005962563157081
1772562081339901000,12.08690087890625,-0.048586043992638585,-0.01820369214527309,0.0962494201824069
1772562081349884000,12.0968837890625,-0.029891280394792556,-0.03488309733271599,0.10194397856220602
1772562081359865900,12.106865966796875,-0.009581482815742491,-0.028424788038805125,0.09765051915198564
1772562081369849000,12.11684912109375,0.01113748008608818,-0.03509191777780652,0.0908041603885591
1772562081379830800,12.126830810546876,0.0008656769186258316,-0.03639284430854022,0.09450330716744065
1772562081389813000,12.13681298828125,0.013335282391309737,-0.026432152916863558,0.08317512681484222
1772562081399795700,12.146795654296875,0.030559388914704323,-0.015304975029081106,0.09026698477193712
1772562081409778000,12.15677783203125,-0.003363338953256607,0.029847879644483325,0.08549377902075647
