time,seconds_elapsed,z,y,x
1772562069316039000,0.063038818359375,-0.9304656982421875,-0.3471832275390625,0.08721923828125
1772562069326020900,0.073020751953125,-0.9254913330078125,-0.342132568359375,0.0865478515625
1772562069336003800,0.08300390625,-0.921173095703125,-0.3364410400390625,0.0852203369140625
1772562069345985800,0.09298583984375,-0.9231109619140625,-0.334869384765625,0.0857391357421875
1772562069355969000,0.102968994140625,-0.9306640625,-0.3370819091796875,0.0877685546875
1772562069365950700,0.11295068359375,-0.93511962890625,-0.338348388671875,0.0871429443359375
1772562069375934000,0.122933837890625,-0.9364013671875,-0.3358306884765625,0.08843994140625
1772562069385916000,0.132916015625,-0.93646240234375,-0.33599853515625,0.0883636474609375
1772562069395897900,0.14289794921875,-0.9365386962890625,-0.33740234375,0.0890960693359375
1772562069405880800,0.152880859375,-0.935028076171875,-0.3399658203125,0.0879058837890625
1772562069415862800,0.16286279296875,-0.932098388671875,-0.3409423828125,0.086029052734375
1772562069425845800,0.172845703125,-0.93536376953125,-0.3408355712890625,0.0887908935546875
1772562069435828000,0.182827880859375,-0.9382171630859375,-0.3432464599609375,0.08990478515625
1772562069445810700,0.192810791015625,-0.9344329833984375,-0.341217041015625,0.0861053466796875
1772562069455793000,0.20279296875,-0.9315643310546875,-0.3394622802734375,0.0818328857421875
1772562069465775900,0.21277587890625,-0.9329986572265625,-0.342437744140625,0.0777130126953125
1772562069475757800,0.2227578125,-0.93438720703125,-0.345367431640625,0.0787353515625
1772562069485740800,0.23274072265625,-0.9338836669921875,-0.345001220703125,0.08221435546875
1772562069495722800,0.24272265625,-0.9343719482421875,-0.3437652587890625,0.084716796875
1772562069505705000,0.252705078125,-0.937744140625,-0.343109130859375,0.08245849609375
1772562069515688000,0.26268798828125,-0.9371490478515625,-0.3430938720703125,0.082489013671875
1772562069525670000,0.272669921875,-0.935028076171875,-0.3432464599609375,0.084625244140625
1772562069535652900,0.28265283203125,-0.9349822998046875,-0.341339111328125,0.08489990234375
1772562069545635000,0.292635009765625,-0.9354705810546875,-0.3402099609375,0.08447265625
1772562069555617800,0.30261767578125,-0.936492919921875,-0.3373565673828125,0.083160400390625
1772562069565600000,0.31260009765625,-0.9395599365234375,-0.33367919921875,0.076995849609375
1772562069575583000,0.3225830078125,-0.9432220458984375,-0.33453369140625,0.075103759765625
1772562069585565000,0.33256494140625,-0.948272705078125,-0.3328857421875,0.073486328125
1772562069595548000,0.3425478515625,-0.9473419189453125,-0.329315185546875,0.062164306640625
1772562069605529900,0.35252978515625,-0.942047119140625,-0.3288116455078125,0.043060302734375
1772562069615511800,0.36251171875,-0.9390869140625,-0.326416015625,0.03155517578125
1772562069625495000,0.3724951171875,-0.94317626953125,-0.3289031982421875,0.0294189453125
1772562069635476700,0.382476806640625,-0.95758056640625,-0.3302764892578125,0.034271240234375
1772562069645460000,0.3924599609375,-0.963714599609375,-0.3294677734375,0.04071044921875
1772562069655441700,0.402441650390625,-0.973175048828125,-0.322113037109375,0.0513916015625
1772562069665425000,0.4124248046875,-0.962066650390625,-0.3102874755859375,0.049652099609375
1772562069675406800,0.42240673828125,-0.930084228515625,-0.2952117919921875,0.0253143310546875
1772562069685390000,0.43239013671875,-0.91375732421875,-0.2857666015625,-0.0009918212890625
1772562069695371800,0.442371826171875,-0.923919677734375,-0.287628173828125,-0.0204010009765625
1772562069705354800,0.452354736328125,-0.9416656494140625,-0.2962493896484375,-0.028045654296875
1772562069715336700,0.462336669921875,-0.951904296875,-0.294769287109375,-0.0230255126953125
1772562069725318700,0.472318603515625,-0.9455718994140625,-0.28997802734375,-0.0225830078125
1772562069735301600,0.482301513671875,-0.95751953125,-0.310882568359375,-0.049468994140625
1772562069745283800,0.492283935546875,-0.94427490234375,-0.331146240234375,-0.0801849365234375
1772562069755266600,0.5022666015625,-0.9182586669921875,-0.3350677490234375,-0.1094512939453125
1772562069765248800,0.512248779296875,-0.9617919921875,-0.3248291015625,-0.1417999267578125
1772562069775231700,0.522231689453125,-1.0170440673828125,-0.3206329345703125,-0.165191650390625
1772562069785213700,0.532213623046875,-0.9981689453125,-0.37115478515625,-0.1517486572265625
1772562069795196700,0.54219677734375,-0.9543304443359375,-0.3654327392578125,-0.097930908203125
1772562069805178600,0.5521787109375,-0.9443511962890625,-0.2900238037109375,-0.0421905517578125
1772562069815160800,0.562160888671875,-0.960693359375,-0.232452392578125,-0.0077972412109375
1772562069825143800,0.572143798828125,-0.9565277099609375,-0.2165985107421875,0.013824462890625
1772562069835125800,0.582125732421875,-0.9391632080078125,-0.2084808349609375,0.0182952880859375
1772562069845108700,0.592108642578125,-0.9185638427734375,-0.1927490234375,0.019134521484375
1772562069855091000,0.602091064453125,-0.897247314453125,-0.175537109375,0.0179901123046875
1772562069865073700,0.61207373046875,-0.8684539794921875,-0.15826416015625,0.0171661376953125
1772562069875055900,0.622055908203125,-0.85406494140625,-0.1343994140625,0.01849365234375
1772562069885038800,0.632038818359375,-0.8588104248046875,-0.1083984375,0.021148681640625
1772562069895020800,0.642020751953125,-0.865753173828125,-0.0964508056640625,0.029327392578125
1772562069905003800,0.652003662109375,-0.883087158203125,-0.106170654296875,0.0430755615234375
1772562069914985700,0.66198583984375,-0.899932861328125,-0.128814697265625,0.0680694580078125
1772562069924967700,0.6719677734375,-0.9224853515625,-0.15948486328125,0.11053466796875
1772562069934951000,0.681950927734375,-0.9470672607421875,-0.187591552734375,0.15234375
1772562069944932600,0.6919326171875,-0.9737548828125,-0.203887939453125,0.1956787109375
1772562069954915800,0.701915771484375,-1.0041656494140625,-0.2091827392578125,0.2270965576171875
1772562069964897800,0.711897705078125,-1.0156707763671875,-0.2139434814453125,0.241607666015625
1772562069974880800,0.721880859375,-1.0222930908203125,-0.228790283203125,0.245941162109375
1772562069984862700,0.73186279296875,-1.0227508544921875,-0.24169921875,0.2480010986328125
1772562069994846000,0.741845947265625,-1.0121917724609375,-0.2402801513671875,0.2408905029296875
1772562070004827600,0.75182763671875,-0.988006591796875,-0.2227783203125,0.221954345703125
1772562070014811000,0.761810791015625,-0.979766845703125,-0.1965179443359375,0.1894378662109375
1772562070024792600,0.77179248046875,-0.972198486328125,-0.172821044921875,0.158599853515625
1772562070034774800,0.78177490234375,-0.9562225341796875,-0.16046142578125,0.149444580078125
1772562070044757800,0.7917578125,-0.9446563720703125,-0.152801513671875,0.154144287109375
1772562070054739700,0.80173974609375,-0.9310150146484375,-0.146484375,0.1638031005859375
1772562070064722700,0.81172265625,-0.935211181640625,-0.139556884765625,0.1833953857421875
1772562070074704600,0.82170458984375,-0.9490814208984375,-0.1319122314453125,0.2021331787109375
1772562070084687600,0.8316875,-0.960723876953125,-0.123046875,0.2162933349609375
1772562070094669800,0.841669921875,-0.969818115234375,-0.117584228515625,0.2229766845703125
1772562070104652500,0.851652587890625,-0.982940673828125,-0.11358642578125,0.2227630615234375
1772562070114634800,0.861634765625,-0.9887237548828125,-0.105621337890625,0.2120361328125
1772562070124617700,0.87161767578125,-0.9882965087890625,-0.09490966796875,0.1943511962890625
1772562070134599700,0.881599609375,-0.998046875,-0.0876007080078125,0.1819305419921875
1772562070144582000,0.891581787109375,-1.0095977783203125,-0.0813751220703125,0.1721954345703125
1772562070154564900,0.90156494140625,-1.013671875,-0.078521728515625,0.1659393310546875
1772562070164546800,0.911546875,-1.01611328125,-0.0780487060546875,0.1665802001953125
1772562070174529800,0.92152978515625,-1.013427734375,-0.0738677978515625,0.167694091796875
1772562070184511700,0.93151171875,-1.0093231201171875,-0.07012939453125,0.1654510498046875
1772562070194494700,0.94149462890625,-1.0065155029296875,-0.0716705322265625,0.16302490234375
1772562070204477000,0.951476806640625,-1.011199951171875,-0.0757293701171875,0.1662750244140625
1772562070214459600,0.961459716796875,-0.9994964599609375,-0.075653076171875,0.166900634765625
1772562070224441900,0.97144189453125,-0.9798736572265625,-0.073699951171875,0.1638336181640625
1772562070234423600,0.981423583984375,-0.9792327880859375,-0.073394775390625,0.1591949462890625
1772562070244406800,0.99140673828125,-0.974761962890625,-0.0756378173828125,0.1622161865234375
1772562070254388700,1.001388671875,-0.9864501953125,-0.07501220703125,0.170074462890625
1772562070264372000,1.0113720703125,-1.0030059814453125,-0.0756072998046875,0.16973876953125
1772562070274353700,1.021353759765625,-1.0138702392578125,-0.0811004638671875,0.1638336181640625
1772562070284337000,1.0313369140625,-1.0234527587890625,-0.083984375,0.1528778076171875
1772562070294318600,1.041318603515625,-1.0324554443359375,-0.083038330078125,0.14056396484375
1772562070304301800,1.0513017578125,-1.043060302734375,-0.0875091552734375,0.1285552978515625
1772562070314283800,1.06128369140625,-1.04656982421875,-0.0934600830078125,0.121551513671875
1772562070324266800,1.071266845703125,-1.0389251708984375,-0.097564697265625,0.1162261962890625
1772562070334248700,1.081248779296875,-1.02972412109375,-0.106536865234375,0.1104278564453125
1772562070344230700,1.091230712890625,-1.0271759033203125,-0.1148681640625,0.1053314208984375
1772562070354213600,1.101213623046875,-1.020050048828125,-0.11895751953125,0.1019439697265625
1772562070364195800,1.11119580078125,-1.02081298828125,-0.118621826171875,0.0982208251953125
1772562070374178600,1.121178466796875,-1.027801513671875,-0.1243743896484375,0.0897369384765625
1772562070384160800,1.131160888671875,-1.0232696533203125,-0.1302947998046875,0.0828704833984375
1772562070394143700,1.141143798828125,-1.02459716796875,-0.1335296630859375,0.0732879638671875
1772562070404125700,1.151125732421875,-1.0296630859375,-0.136444091796875,0.0641021728515625
1772562070414108700,1.161108642578125,-1.02996826171875,-0.1350860595703125,0.053009033203125
1772562070424091000,1.1710908203125,-1.0293731689453125,-0.125762939453125,0.039337158203125
1772562070434073600,1.181073486328125,-1.0277862548828125,-0.1179046630859375,0.024749755859375
1772562070444055800,1.191055908203125,-1.0235137939453125,-0.117645263671875,0.01239013671875
1772562070454037800,1.201037841796875,-1.0177001953125,-0.1190338134765625,0.0054779052734375
1772562070464020700,1.211020751953125,-1.0172271728515625,-0.1209869384765625,0.0017852783203125
1772562070474003000,1.2210029296875,-1.0145263671875,-0.1226348876953125,-0.000885009765625
1772562070483985700,1.230985595703125,-1.007049560546875,-0.1254730224609375,-0.0031585693359375
1772562070493968000,1.2409677734375,-1.003326416015625,-0.1229248046875,-0.0081329345703125
1772562070503950800,1.250950927734375,-1.0085296630859375,-0.1179046630859375,-0.0147705078125
1772562070513932800,1.260932861328125,-1.01226806640625,-0.1178436279296875,-0.022003173828125
1772562070523915800,1.270915771484375,-1.0177764892578125,-0.1186676025390625,-0.0338592529296875
1772562070533897700,1.280897705078125,-1.01947021484375,-0.11968994140625,-0.046234130859375
1772562070543880700,1.290880615234375,-1.01361083984375,-0.119964599609375,-0.056427001953125
1772562070553863000,1.30086279296875,-1.012969970703125,-0.12237548828125,-0.06439208984375
1772562070563844600,1.3108447265625,-1.0169677734375,-0.1190338134765625,-0.0700836181640625
1772562070573827800,1.320827880859375,-1.0225982666015625,-0.1153717041015625,-0.072540283203125
1772562070583809800,1.330809814453125,-1.0287017822265625,-0.1160888671875,-0.0751495361328125
1772562070593792800,1.340792724609375,-1.0332183837890625,-0.12347412109375,-0.0793609619140625
1772562070603774700,1.350774658203125,-1.0330657958984375,-0.1277618408203125,-0.07867431640625
1772562070613758000,1.360758056640625,-1.0362396240234375,-0.1266326904296875,-0.0757598876953125
1772562070623739600,1.37073974609375,-1.0379180908203125,-0.1230621337890625,-0.0780487060546875
1772562070633723000,1.380722900390625,-1.0354156494140625,-0.1220245361328125,-0.0812835693359375
1772562070643704600,1.39070458984375,-1.034210205078125,-0.1209259033203125,-0.08038330078125
1772562070653687800,1.400687744140625,-1.03619384765625,-0.120086669921875,-0.077423095703125
1772562070663669800,1.410669677734375,-1.0384063720703125,-0.1170501708984375,-0.0727081298828125
1772562070673651700,1.420651611328125,-1.0389862060546875,-0.1122894287109375,-0.0667724609375
1772562070683634700,1.430634765625,-1.04315185546875,-0.104217529296875,-0.0633087158203125
1772562070693617000,1.440616943359375,-1.04339599609375,-0.09124755859375,-0.06573486328125
1772562070703599900,1.450599853515625,-1.03582763671875,-0.07763671875,-0.0705413818359375
1772562070713581800,1.460581787109375,-1.033599853515625,-0.0716705322265625,-0.073760986328125
1772562070723564800,1.470564697265625,-1.0363311767578125,-0.0714111328125,-0.068450927734375
1772562070733547000,1.480547119140625,-1.0356903076171875,-0.0713348388671875,-0.060394287109375
1772562070743529700,1.49052978515625,-1.0347442626953125,-0.0723724365234375,-0.050750732421875
1772562070753512000,1.500511962890625,-1.030609130859375,-0.071990966796875,-0.0464935302734375
1772562070763494000,1.510493896484375,-1.0312347412109375,-0.0687408447265625,-0.0477294921875
1772562070773476900,1.520476806640625,-1.0267333984375,-0.0649871826171875,-0.0529632568359375
1772562070783459000,1.530458984375,-1.0211639404296875,-0.065704345703125,-0.0574493408203125
1772562070793441800,1.54044189453125,-1.018768310546875,-0.066436767578125,-0.057342529296875
1772562070803424000,1.550424072265625,-1.0153961181640625,-0.067718505859375,-0.0537261962890625
1772562070813407000,1.560406982421875,-1.011627197265625,-0.0697021484375,-0.0465850830078125
1772562070823389000,1.570388916015625,-1.0077972412109375,-0.072662353515625,-0.0409698486328125
1772562070833372000,1.580371826171875,-1.0052947998046875,-0.0733489990234375,-0.0359344482421875
1772562070843354000,1.59035400390625,-1.002227783203125,-0.0712127685546875,-0.0357513427734375
1772562070853336800,1.6003369140625,-0.9954681396484375,-0.0652313232421875,-0.0396728515625
1772562070863319000,1.610319091796875,-0.9901885986328125,-0.055511474609375,-0.044189453125
1772562070873300700,1.62030078125,-0.9906768798828125,-0.049896240234375,-0.0450592041015625
1772562070883284000,1.630283935546875,-0.9947052001953125,-0.0486602783203125,-0.04119873046875
1772562070893266000,1.640265869140625,-0.9930572509765625,-0.05010986328125,-0.0334014892578125
1772562070903249000,1.650248779296875,-0.9930267333984375,-0.0496673583984375,-0.023956298828125
1772562070913230800,1.66023095703125,-0.9913330078125,-0.04827880859375,-0.0177459716796875
1772562070923214000,1.670214111328125,-0.987030029296875,-0.050811767578125,-0.0157623291015625
1772562070933195800,1.68019580078125,-0.984771728515625,-0.051300048828125,-0.01605224609375
1772562070943179000,1.690178955078125,-0.977569580078125,-0.0495452880859375,-0.0189056396484375
1772562070953160700,1.70016064453125,-0.976654052734375,-0.0495147705078125,-0.0204925537109375
1772562070963144000,1.71014404296875,-0.9795989990234375,-0.050689697265625,-0.0193023681640625
1772562070973126000,1.7201259765625,-0.9846343994140625,-0.053466796875,-0.0179290771484375
1772562070983107800,1.73010791015625,-0.98699951171875,-0.05352783203125,-0.01751708984375
1772562070993090800,1.7400908203125,-0.9870758056640625,-0.0547027587890625,-0.0190887451171875
1772562071003073000,1.750072998046875,-0.9864044189453125,-0.05615234375,-0.02313232421875
1772562071013055700,1.7600556640625,-0.985931396484375,-0.0586090087890625,-0.028167724609375
1772562071023038000,1.770037841796875,-0.9910430908203125,-0.05743408203125,-0.0316314697265625
1772562071033021000,1.78002099609375,-0.993988037109375,-0.0570831298828125,-0.0375518798828125
1772562071043003000,1.7900029296875,-0.9976654052734375,-0.059539794921875,-0.043243408203125
1772562071052985900,1.79998583984375,-1.0028533935546875,-0.0648040771484375,-0.0466156005859375
1772562071062967800,1.8099677734375,-1.008331298828125,-0.0699615478515625,-0.049224853515625
1772562071072949800,1.81994970703125,-1.0141143798828125,-0.075347900390625,-0.0502777099609375
1772562071082933000,1.82993310546875,-1.0166015625,-0.079254150390625,-0.05206298828125
1772562071092915000,1.8399150390625,-1.014007568359375,-0.0806121826171875,-0.057220458984375
1772562071102898000,1.84989794921875,-1.01123046875,-0.0830078125,-0.063629150390625
1772562071112879900,1.8598798828125,-1.010345458984375,-0.0829010009765625,-0.068328857421875
1772562071122862800,1.86986279296875,-1.008880615234375,-0.081512451171875,-0.0704345703125
1772562071132844800,1.8798447265625,-1.0088043212890625,-0.07977294921875,-0.0737762451171875
1772562071142828000,1.889828125,-1.005279541015625,-0.0801544189453125,-0.0744476318359375
1772562071152810000,1.89981005859375,-1.00506591796875,-0.0826416015625,-0.076080322265625
1772562071162793000,1.90979296875,-1.007049560546875,-0.082489013671875,-0.0775604248046875
1772562071172775000,1.91977490234375,-1.004302978515625,-0.0837249755859375,-0.0803375244140625
1772562071182758000,1.9297578125,-1.0027618408203125,-0.08514404296875,-0.0809478759765625
1772562071192739800,1.93973974609375,-0.9974517822265625,-0.08673095703125,-0.078887939453125
1772562071202721800,1.9497216796875,-0.99517822265625,-0.0889434814453125,-0.0757598876953125
1772562071212705000,1.959705078125,-0.9924468994140625,-0.09112548828125,-0.0724029541015625
1772562071222686700,1.969686767578125,-0.98651123046875,-0.0923309326171875,-0.07025146484375
1772562071232670000,1.979669921875,-0.9827423095703125,-0.0937652587890625,-0.0716705322265625
1772562071242652000,1.98965185546875,-0.9775390625,-0.094757080078125,-0.0724639892578125
1772562071252635000,1.999634765625,-0.9761810302734375,-0.094268798828125,-0.074554443359375
1772562071262616800,2.009616943359375,-0.9794921875,-0.093780517578125,-0.0797882080078125
1772562071272599800,2.019599853515625,-0.984527587890625,-0.0952911376953125,-0.085479736328125
1772562071282581800,2.029581787109375,-0.98980712890625,-0.0966949462890625,-0.0881500244140625
1772562071292564000,2.03956396484375,-0.99322509765625,-0.09893798828125,-0.088653564453125
1772562071302547000,2.049546875,-0.9967193603515625,-0.0991668701171875,-0.08843994140625
1772562071312529000,2.05952880859375,-0.9976043701171875,-0.1001434326171875,-0.0880126953125
1772562071322512000,2.069511962890625,-0.994964599609375,-0.1023101806640625,-0.090087890625
1772562071332493800,2.079493896484375,-0.9914703369140625,-0.1011810302734375,-0.0936431884765625
1772562071342476800,2.089476806640625,-0.99200439453125,-0.1008148193359375,-0.0926055908203125
1772562071352459000,2.099458984375,-0.9944610595703125,-0.1010894775390625,-0.0951995849609375
1772562071362441700,2.109441650390625,-0.9942474365234375,-0.0997772216796875,-0.0973968505859375
1772562071372424000,2.119423828125,-0.9950103759765625,-0.0978546142578125,-0.0979156494140625
1772562071382407000,2.129406982421875,-0.99627685546875,-0.095977783203125,-0.09716796875
1772562071392388900,2.139388916015625,-0.99554443359375,-0.0987548828125,-0.0932464599609375
1772562071402370800,2.149370849609375,-0.9951629638671875,-0.103485107421875,-0.0877838134765625
1772562071412354000,2.15935400390625,-0.988525390625,-0.1059417724609375,-0.0862579345703125
1772562071422335700,2.169335693359375,-0.98626708984375,-0.107086181640625,-0.0874786376953125
1772562071432319000,2.179319091796875,-0.985870361328125,-0.10760498046875,-0.08941650390625
1772562071442300700,2.18930078125,-0.9852294921875,-0.1055755615234375,-0.0907135009765625
1772562071452284000,2.199283935546875,-0.983978271484375,-0.1018829345703125,-0.09185791015625
1772562071462265900,2.209265869140625,-0.9849700927734375,-0.0983123779296875,-0.092071533203125
1772562071472248800,2.219248779296875,-0.9878082275390625,-0.094696044921875,-0.0912322998046875
1772562071482230800,2.229230712890625,-0.9924468994140625,-0.097015380859375,-0.0882415771484375
1772562071492214000,2.239214111328125,-0.99407958984375,-0.10064697265625,-0.08551025390625
1772562071502195700,2.24919580078125,-0.9929656982421875,-0.101226806640625,-0.0838165283203125
1772562071512178000,2.259177978515625,-0.9882049560546875,-0.1017303466796875,-0.0838623046875
1772562071522161000,2.269160888671875,-0.983795166015625,-0.1021881103515625,-0.0856475830078125
1772562071532142800,2.279142822265625,-0.978302001953125,-0.10302734375,-0.088043212890625
1772562071542125800,2.289125732421875,-0.9776458740234375,-0.1013641357421875,-0.0880889892578125
1772562071552107800,2.299107666015625,-0.978240966796875,-0.101959228515625,-0.08868408203125
1772562071562090800,2.3090908203125,-0.9734039306640625,-0.1014251708984375,-0.0911407470703125
1772562071572073000,2.319072998046875,-0.969573974609375,-0.1010894775390625,-0.09478759765625
1772562071582055700,2.3290556640625,-0.9744720458984375,-0.10205078125,-0.0949249267578125
1772562071592038000,2.339037841796875,-0.98004150390625,-0.0994415283203125,-0.09356689453125
1772562071602019800,2.349019775390625,-0.9777984619140625,-0.0945281982421875,-0.0963134765625
1772562071612002800,2.3590029296875,-0.97381591796875,-0.0943450927734375,-0.10028076171875
1772562071621985000,2.368985107421875,-0.9808197021484375,-0.0948638916015625,-0.1007080078125
1772562071631967700,2.3789677734375,-0.9844970703125,-0.0950164794921875,-0.10150146484375
1772562071641950000,2.388949951171875,-0.9821014404296875,-0.0950469970703125,-0.099700927734375
1772562071651933000,2.398932861328125,-0.983245849609375,-0.094268798828125,-0.09814453125
1772562071661915000,2.408914794921875,-0.9874267578125,-0.0944671630859375,-0.0954132080078125
1772562071671897900,2.41889794921875,-0.987030029296875,-0.095306396484375,-0.0943603515625
1772562071681880000,2.428880126953125,-0.9897003173828125,-0.0954437255859375,-0.09564208984375
1772562071691862800,2.43886279296875,-0.990936279296875,-0.0939178466796875,-0.097320556640625
1772562071701845800,2.448845703125,-0.991058349609375,-0.0908660888671875,-0.0976715087890625
1772562071711828000,2.458827880859375,-0.9937896728515625,-0.0882720947265625,-0.100128173828125
1772562071721811000,2.46881103515625,-0.99755859375,-0.0874786376953125,-0.1007843017578125
1772562071731793000,2.47879296875,-0.9951934814453125,-0.087188720703125,-0.1030731201171875
1772562071741776000,2.48877587890625,-0.995574951171875,-0.086456298828125,-0.105194091796875
1772562071751757800,2.4987578125,-0.9953155517578125,-0.0879669189453125,-0.1063385009765625
1772562071761740800,2.50874072265625,-0.9957427978515625,-0.089202880859375,-0.1094512939453125
1772562071771722800,2.51872265625,-0.9938507080078125,-0.0883941650390625,-0.1100311279296875
1772562071781706000,2.5287060546875,-0.9953155517578125,-0.0868682861328125,-0.1094970703125
1772562071791688000,2.53868798828125,-0.995849609375,-0.0861053466796875,-0.1101531982421875
1772562071801671000,2.5486708984375,-0.994293212890625,-0.0861968994140625,-0.1098175048828125
1772562071811652900,2.55865283203125,-0.994903564453125,-0.0867919921875,-0.1100921630859375
1772562071821634800,2.568634765625,-0.9915618896484375,-0.088409423828125,-0.1074371337890625
1772562071831617800,2.57861767578125,-0.9892120361328125,-0.0911712646484375,-0.1044769287109375
1772562071841600000,2.58860009765625,-0.9886627197265625,-0.095550537109375,-0.1040802001953125
1772562071851582700,2.598582763671875,-0.9876861572265625,-0.0976409912109375,-0.1034393310546875
1772562071861565000,2.60856494140625,-0.9852447509765625,-0.0991668701171875,-0.102508544921875
1772562071871548000,2.6185478515625,-0.986724853515625,-0.098114013671875,-0.1028594970703125
1772562071881529900,2.62852978515625,-0.9859771728515625,-0.0944976806640625,-0.1039276123046875
1772562071891512800,2.638512939453125,-0.98358154296875,-0.09307861328125,-0.1071014404296875
1772562071901495000,2.6484951171875,-0.9837646484375,-0.0908660888671875,-0.1091156005859375
1772562071911477800,2.658477783203125,-0.9857635498046875,-0.08935546875,-0.108673095703125
1772562071921460000,2.6684599609375,-0.9877777099609375,-0.0894317626953125,-0.110137939453125
1772562071931441700,2.678441650390625,-0.989471435546875,-0.0904693603515625,-0.1132049560546875
1772562071941425000,2.6884248046875,-0.9901885986328125,-0.0893096923828125,-0.115509033203125
1772562071951406800,2.69840673828125,-0.9857025146484375,-0.0891571044921875,-0.118072509765625
1772562071961389800,2.708389892578125,-0.984588623046875,-0.08758544921875,-0.1182403564453125
1772562071971371800,2.718371826171875,-0.98748779296875,-0.086944580078125,-0.1182708740234375
1772562071981355000,2.72835498046875,-0.986480712890625,-0.08673095703125,-0.1168212890625
1772562071991336700,2.738336669921875,-0.9851837158203125,-0.0870819091796875,-0.1149749755859375
1772562072001320000,2.74831982421875,-0.98406982421875,-0.0898590087890625,-0.1146697998046875
1772562072011302000,2.758302001953125,-0.983612060546875,-0.0911407470703125,-0.1141357421875
1772562072021284900,2.768284912109375,-0.98370361328125,-0.092437744140625,-0.1148681640625
1772562072031266800,2.778266845703125,-0.9855194091796875,-0.0928192138671875,-0.1144256591796875
1772562072041248800,2.788248779296875,-0.9891357421875,-0.0911865234375,-0.114227294921875
1772562072051231700,2.798231689453125,-0.9895477294921875,-0.0888671875,-0.1165008544921875
1772562072061214000,2.8082138671875,-0.99005126953125,-0.0860443115234375,-0.1168212890625
1772562072071196700,2.81819677734375,-0.9904327392578125,-0.084503173828125,-0.11859130859375
1772562072081179000,2.828178955078125,-0.99169921875,-0.0816802978515625,-0.120819091796875
1772562072091161900,2.838161865234375,-0.9952239990234375,-0.08282470703125,-0.1219329833984375
1772562072101143800,2.848143798828125,-0.9947967529296875,-0.084503173828125,-0.1228485107421875
1772562072111126800,2.858126708984375,-0.9938201904296875,-0.0855255126953125,-0.1229095458984375
1772562072121108700,2.868108642578125,-0.99578857421875,-0.0875701904296875,-0.123748779296875
1772562072131091700,2.878091796875,-0.9932708740234375,-0.088714599609375,-0.12530517578125
1772562072141074000,2.888073974609375,-0.9884033203125,-0.0899200439453125,-0.124420166015625
1772562072151056000,2.898055908203125,-0.9852447509765625,-0.091278076171875,-0.1238861083984375
1772562072161038800,2.908038818359375,-0.98321533203125,-0.09246826171875,-0.1222686767578125
1772562072171021000,2.91802099609375,-0.9829559326171875,-0.0933837890625,-0.1203460693359375
1772562072181003800,2.928003662109375,-0.982818603515625,-0.0957794189453125,-0.1200714111328125
1772562072190986000,2.937986083984375,-0.9823150634765625,-0.09869384765625,-0.1173095703125
1772562072200969000,2.947968994140625,-0.9820098876953125,-0.0974578857421875,-0.1170196533203125
1772562072210951000,2.957950927734375,-0.9807891845703125,-0.0953216552734375,-0.11871337890625
1772562072220934000,2.967933837890625,-0.9818878173828125,-0.0939483642578125,-0.12139892578125
1772562072230915800,2.977915771484375,-0.985748291015625,-0.0942840576171875,-0.1232452392578125
1772562072240898800,2.98789892578125,-0.9844207763671875,-0.09381103515625,-0.1222686767578125
1772562072250881000,2.997881103515625,-0.9881439208984375,-0.0915374755859375,-0.1190338134765625
1772562072260862700,3.00786279296875,-0.9924774169921875,-0.0908355712890625,-0.116302490234375
1772562072270846000,3.017845947265625,-0.9919891357421875,-0.0908660888671875,-0.11431884765625
1772562072280827600,3.02782763671875,-0.9930572509765625,-0.0904541015625,-0.1151123046875
1772562072290811000,3.037810791015625,-0.993865966796875,-0.090362548828125,-0.1161956787109375
1772562072300792800,3.047792724609375,-0.9898834228515625,-0.092041015625,-0.1178131103515625
1772562072310776000,3.057776123046875,-0.9906158447265625,-0.09222412109375,-0.1165924072265625
1772562072320757800,3.0677578125,-0.9921722412109375,-0.0935211181640625,-0.1164398193359375
1772562072330741000,3.077740966796875,-0.988067626953125,-0.091705322265625,-0.1171417236328125
1772562072340722700,3.08772265625,-0.9873046875,-0.0906829833984375,-0.1188507080078125
1772562072350705000,3.097704833984375,-0.9868316650390625,-0.08941650390625,-0.12017822265625
1772562072360687900,3.10768798828125,-0.98388671875,-0.089019775390625,-0.120391845703125
1772562072370669800,3.117669921875,-0.9842376708984375,-0.0876617431640625,-0.121673583984375
1772562072380652800,3.12765283203125,-0.9878997802734375,-0.0860595703125,-0.122589111328125
1772562072390634800,3.137634765625,-0.9842376708984375,-0.0861053466796875,-0.1244964599609375
1772562072400617700,3.14761767578125,-0.9866790771484375,-0.0865936279296875,-0.1229248046875
1772562072410600000,3.157599853515625,-0.989105224609375,-0.0879974365234375,-0.1220855712890625
1772562072420582700,3.167582763671875,-0.989471435546875,-0.08770751953125,-0.122039794921875
1772562072430564900,3.17756494140625,-0.9912261962890625,-0.0880126953125,-0.123199462890625
1772562072440547800,3.1875478515625,-0.99053955078125,-0.08837890625,-0.12469482421875
1772562072450529800,3.19752978515625,-0.98809814453125,-0.0912933349609375,-0.1253509521484375
1772562072460512000,3.207511962890625,-0.98541259765625,-0.0935516357421875,-0.123565673828125
1772562072470495000,3.217494873046875,-0.9852447509765625,-0.091400146484375,-0.124114990234375
1772562072480477000,3.227476806640625,-0.9888458251953125,-0.0914154052734375,-0.124298095703125
1772562072490460000,3.2374599609375,-0.986572265625,-0.093536376953125,-0.1228790283203125
1772562072500441900,3.24744189453125,-0.9866485595703125,-0.0954437255859375,-0.121917724609375
1772562072510424800,3.2574248046875,-0.9864044189453125,-0.0943756103515625,-0.120391845703125
1772562072520407000,3.267406982421875,-0.98590087890625,-0.0953826904296875,-0.121368408203125
1772562072530389800,3.2773896484375,-0.9857177734375,-0.0957794189453125,-0.121307373046875
1772562072540372000,3.2873720703125,-0.9842681884765625,-0.0943450927734375,-0.1194610595703125
1772562072550355000,3.29735498046875,-0.98541259765625,-0.0940704345703125,-0.1197662353515625
1772562072560337000,3.3073369140625,-0.986846923828125,-0.089019775390625,-0.120513916015625
1772562072570318800,3.31731884765625,-0.98565673828125,-0.0851898193359375,-0.1218109130859375
1772562072580301800,3.3273017578125,-0.984039306640625,-0.08514404296875,-0.122528076171875
1772562072590283800,3.33728369140625,-0.9862060546875,-0.08477783203125,-0.1196136474609375
1772562072600267000,3.34726708984375,-0.988006591796875,-0.084259033203125,-0.1182708740234375
1772562072610248700,3.357248779296875,-0.9887542724609375,-0.0833282470703125,-0.1164398193359375
1772562072620232000,3.36723193359375,-0.9893951416015625,-0.084381103515625,-0.1129608154296875
1772562072630214000,3.3772138671875,-0.991119384765625,-0.0854949951171875,-0.1128997802734375
1772562072640196900,3.38719677734375,-0.9912261962890625,-0.0850982666015625,-0.1137542724609375
1772562072650178800,3.3971787109375,-0.9872894287109375,-0.086029052734375,-0.1172637939453125
1772562072660162000,3.407162109375,-0.987060546875,-0.087860107421875,-0.11663818359375
1772562072670143700,3.417143798828125,-0.9895782470703125,-0.0898590087890625,-0.11566162109375
1772562072680126000,3.4271259765625,-0.9874725341796875,-0.09002685546875,-0.1147613525390625
1772562072690108700,3.437108642578125,-0.984344482421875,-0.09075927734375,-0.1156005859375
1772562072700090400,3.44709033203125,-0.98663330078125,-0.090545654296875,-0.116973876953125
1772562072710073300,3.4570732421875,-0.9874420166015625,-0.0893096923828125,-0.1172943115234375
1772562072720055300,3.46705517578125,-0.9868316650390625,-0.0889129638671875,-0.1190643310546875
1772562072730038500,3.47703857421875,-0.9881439208984375,-0.0901641845703125,-0.120269775390625
1772562072740020500,3.4870205078125,-0.988372802734375,-0.09161376953125,-0.1216278076171875
1772562072750003500,3.49700341796875,-0.98431396484375,-0.0906219482421875,-0.122161865234375
1772562072759985400,3.5069853515625,-0.983917236328125,-0.088958740234375,-0.1225433349609375
1772562072769967400,3.51696728515625,-0.9852752685546875,-0.0885467529296875,-0.1238861083984375
1772562072779950300,3.526950439453125,-0.9831695556640625,-0.0904388427734375,-0.1234283447265625
1772562072789932500,3.5369326171875,-0.984222412109375,-0.089996337890625,-0.12255859375
1772562072799915300,3.546915283203125,-0.9852447509765625,-0.0878143310546875,-0.1223907470703125
1772562072809897500,3.5568974609375,-0.982879638671875,-0.089447021484375,-0.1219329833984375
1772562072819880400,3.56688037109375,-0.9833221435546875,-0.0897369384765625,-0.1230316162109375
1772562072829862400,3.5768623046875,-0.983734130859375,-0.09039306640625,-0.1223907470703125
1772562072839845400,3.586845458984375,-0.98150634765625,-0.0908966064453125,-0.12103271484375
1772562072849827600,3.59682763671875,-0.9862518310546875,-0.0926971435546875,-0.118408203125
1772562072859810300,3.606810302734375,-0.9911346435546875,-0.0970458984375,-0.115447998046875
1772562072869792500,3.61679248046875,-0.9904327392578125,-0.09527587890625,-0.1153564453125
1772562072879774200,3.626774169921875,-0.991180419921875,-0.090972900390625,-0.1171112060546875
1772562072889757400,3.63675732421875,-0.990264892578125,-0.0908660888671875,-0.1194915771484375
1772562072899739400,3.646739501953125,-0.99163818359375,-0.091766357421875,-0.11859130859375
1772562072909722400,3.656722412109375,-0.992767333984375,-0.09063720703125,-0.1178741455078125
1772562072919704300,3.666704345703125,-0.9905853271484375,-0.0899200439453125,-0.1188812255859375
1772562072929687600,3.6766875,-0.9895782470703125,-0.0904083251953125,-0.1184234619140625
1772562072939669200,3.686669189453125,-0.99212646484375,-0.09124755859375,-0.1187591552734375
1772562072949652500,3.696652587890625,-0.9913482666015625,-0.0899810791015625,-0.1183929443359375
1772562072959634400,3.706634521484375,-0.988006591796875,-0.0885162353515625,-0.11859130859375
1772562072969617400,3.716617431640625,-0.9915924072265625,-0.089019775390625,-0.115966796875
1772562072979599400,3.726599365234375,-0.9936065673828125,-0.0891265869140625,-0.1143035888671875
1772562072989581300,3.736581298828125,-0.991790771484375,-0.08636474609375,-0.11553955078125
1772562072999564300,3.746564208984375,-0.986053466796875,-0.085296630859375,-0.1168670654296875
1772562073009546500,3.75654638671875,-0.99005126953125,-0.0869140625,-0.116729736328125
1772562073019529200,3.766529296875,-0.990936279296875,-0.08770751953125,-0.1157989501953125
1772562073029511400,3.776511474609375,-0.9905853271484375,-0.08843994140625,-0.1152191162109375
1772562073039494400,3.786494384765625,-0.99102783203125,-0.0897064208984375,-0.1164093017578125
1772562073049476400,3.796476318359375,-0.98980712890625,-0.09014892578125,-0.1179656982421875
1772562073059459300,3.806459228515625,-0.9903564453125,-0.0919036865234375,-0.119384765625
1772562073069441300,3.816441162109375,-0.9878387451171875,-0.0914459228515625,-0.1213836669921875
1772562073079424300,3.82642431640625,-0.9806060791015625,-0.091033935546875,-0.1226654052734375
1772562073089406500,3.836406494140625,-0.980194091796875,-0.0910797119140625,-0.12225341796875
1772562073099388400,3.846388427734375,-0.982940673828125,-0.0919189453125,-0.1203765869140625
1772562073109371400,3.856371337890625,-0.9799346923828125,-0.0928192138671875,-0.1191864013671875
1772562073119353600,3.866353515625,-0.981201171875,-0.0914154052734375,-0.1178131103515625
1772562073129336300,3.87633642578125,-0.98590087890625,-0.087158203125,-0.119110107421875
1772562073139318500,3.886318603515625,-0.9878692626953125,-0.08447265625,-0.11993408203125
1772562073149301500,3.896301513671875,-0.9853973388671875,-0.0820465087890625,-0.12060546875
1772562073159283500,3.906283447265625,-0.9874725341796875,-0.0792694091796875,-0.1197357177734375
1772562073169266400,3.916266357421875,-0.9875030517578125,-0.079620361328125,-0.119781494140625
1772562073179248400,3.926248291015625,-0.9834442138671875,-0.082275390625,-0.118865966796875
1772562073189231400,3.9362314453125,-0.9871978759765625,-0.084442138671875,-0.1165313720703125
1772562073199213600,3.946213623046875,-0.9904937744140625,-0.0866851806640625,-0.114898681640625
1772562073209195300,3.9561953125,-0.98980712890625,-0.087371826171875,-0.1164093017578125
1772562073219178500,3.966178466796875,-0.9888763427734375,-0.08758544921875,-0.1162261962890625
1772562073229160200,3.97616015625,-0.989532470703125,-0.0892333984375,-0.115020751953125
1772562073239140600,3.986140625,-0.987152099609375,-0.0921783447265625,-0.1155853271484375
1772562073249123300,3.996123291015625,-0.986968994140625,-0.0940399169921875,-0.116180419921875
1772562073259105500,4.00610546875,-0.985107421875,-0.0960235595703125,-0.1141204833984375
1772562073269088500,4.016088623046875,-0.9846954345703125,-0.0975341796875,-0.113372802734375
1772562073279070500,4.026070556640625,-0.989105224609375,-0.0965576171875,-0.1118011474609375
1772562073289053400,4.036053466796875,-0.989837646484375,-0.0950469970703125,-0.1102294921875
1772562073299035400,4.046035400390625,-0.9907073974609375,-0.0928497314453125,-0.110809326171875
1772562073309018400,4.056018310546875,-0.991668701171875,-0.09124755859375,-0.1128997802734375
1772562073319000600,4.06600048828125,-0.990753173828125,-0.0913543701171875,-0.1120452880859375
1772562073328982300,4.075982177734375,-0.990753173828125,-0.091888427734375,-0.1103668212890625
1772562073338965500,4.085965576171875,-0.9937744140625,-0.0924072265625,-0.109466552734375
1772562073348947500,4.095947509765625,-0.994354248046875,-0.0921173095703125,-0.1094818115234375
1772562073358930400,4.105930419921875,-0.9915313720703125,-0.090667724609375,-0.112518310546875
1772562073368912400,4.115912353515625,-0.9923858642578125,-0.091949462890625,-0.112213134765625
1772562073378895600,4.1258955078125,-0.9948577880859375,-0.0921630859375,-0.1113433837890625
1772562073388877300,4.135877197265625,-0.99298095703125,-0.092376708984375,-0.11083984375
1772562073398860500,4.145860595703125,-0.992462158203125,-0.0931396484375,-0.1107940673828125
1772562073408842200,4.15584228515625,-0.9925994873046875,-0.0926971435546875,-0.11114501953125
1772562073418825500,4.165825439453125,-0.9890289306640625,-0.0923614501953125,-0.111175537109375
1772562073428807400,4.175807373046875,-0.9897308349609375,-0.09149169921875,-0.1108551025390625
1772562073438789400,4.185789306640625,-0.99139404296875,-0.093017578125,-0.11273193359375
1772562073448772400,4.1957724609375,-0.98626708984375,-0.093292236328125,-0.11114501953125
1772562073458754600,4.205754638671875,-0.9887237548828125,-0.08905029296875,-0.1106109619140625
1772562073468737300,4.2157373046875,-0.992767333984375,-0.087310791015625,-0.109832763671875
1772562073478719500,4.225719482421875,-0.9930267333984375,-0.0882110595703125,-0.1096954345703125
1772562073488702500,4.235702392578125,-0.9929046630859375,-0.089935302734375,-0.1087188720703125
1772562073498684400,4.245684326171875,-0.9897003173828125,-0.0899200439453125,-0.106292724609375
1772562073508667400,4.25566748046875,-0.9886322021484375,-0.0895843505859375,-0.1051177978515625
1772562073518649300,4.2656494140625,-0.9892425537109375,-0.0893096923828125,-0.1044769287109375
1772562073528632300,4.27563232421875,-0.9844512939453125,-0.0890045166015625,-0.1015625
1772562073538614500,4.285614501953125,-0.9842071533203125,-0.0886993408203125,-0.0972442626953125
1772562073548596500,4.295596435546875,-0.98455810546875,-0.0907440185546875,-0.0927734375
1772562073558579500,4.305579345703125,-0.9820098876953125,-0.0919342041015625,-0.088653564453125
1772562073568561400,4.3155615234375,-0.981903076171875,-0.091522216796875,-0.0847930908203125
1772562073578544400,4.32554443359375,-0.98486328125,-0.0894775390625,-0.0818023681640625
1772562073588526600,4.335526611328125,-0.9870147705078125,-0.0856475830078125,-0.085205078125
1772562073598509300,4.34550927734375,-0.985382080078125,-0.080902099609375,-0.0933990478515625
1772562073608491500,4.355491455078125,-0.9875640869140625,-0.075103759765625,-0.10418701171875
1772562073618474500,4.365474609375,-0.98431396484375,-0.072662353515625,-0.1130523681640625
1772562073628456400,4.37545654296875,-0.9833221435546875,-0.0740966796875,-0.1177215576171875
1772562073638439400,4.385439453125,-0.98583984375,-0.0772552490234375,-0.1223907470703125
1772562073648421600,4.395421630859375,-0.983642578125,-0.0812530517578125,-0.12640380859375
1772562073658403300,4.4054033203125,-0.986328125,-0.0851593017578125,-0.131927490234375
1772562073668386600,4.415386474609375,-0.9863433837890625,-0.0887908935546875,-0.1355133056640625
1772562073678368300,4.4253681640625,-0.983245849609375,-0.09259033203125,-0.138885498046875
1772562073688351500,4.4353515625,-0.9838409423828125,-0.0946044921875,-0.139984130859375
1772562073698333400,4.44533349609375,-0.9850006103515625,-0.096282958984375,-0.1385650634765625
1772562073708319500,4.455319580078125,-0.9887237548828125,-0.100677490234375,-0.1409454345703125
1772562073718301400,4.465301513671875,-0.987762451171875,-0.10565185546875,-0.140106201171875
1772562073728284700,4.47528466796875,-0.9851226806640625,-0.1017913818359375,-0.1378021240234375
1772562073738266400,4.485266357421875,-0.98712158203125,-0.09649658203125,-0.13726806640625
1772562073748249600,4.49524951171875,-0.99273681640625,-0.0955963134765625,-0.13543701171875
1772562073758231300,4.505231201171875,-0.9929656982421875,-0.0922393798828125,-0.1360015869140625
1772562073768213500,4.515213623046875,-0.995086669921875,-0.087677001953125,-0.1330718994140625
1772562073778196500,4.525196533203125,-0.9986572265625,-0.08416748046875,-0.1283416748046875
1772562073788178400,4.535178466796875,-1.0003509521484375,-0.0832061767578125,-0.12554931640625
1772562073798161400,4.545161376953125,-0.9984893798828125,-0.0829925537109375,-0.1210479736328125
1772562073808143600,4.5551435546875,-1.001251220703125,-0.0822601318359375,-0.1196441650390625
1772562073818126300,4.565126220703125,-1.0006561279296875,-0.0821075439453125,-0.116790771484375
1772562073828108500,4.575108642578125,-0.9970245361328125,-0.0827789306640625,-0.1136322021484375
1772562073838091500,4.585091552734375,-0.998443603515625,-0.0827789306640625,-0.11297607421875
1772562073848073500,4.595073486328125,-0.996368408203125,-0.0835113525390625,-0.11358642578125
1772562073858055700,4.6050556640625,-0.9929656982421875,-0.085540771484375,-0.1124725341796875
1772562073868038400,4.615038330078125,-0.9893798828125,-0.0879669189453125,-0.1102447509765625
1772562073878020600,4.6250205078125,-0.9867706298828125,-0.088653564453125,-0.1090087890625
1772562073888004600,4.635004638671875,-0.9852142333984375,-0.0909576416015625,-0.107269287109375
1772562073897987600,4.644987548828125,-0.9825439453125,-0.0921630859375,-0.1062164306640625
1772562073907969500,4.654969482421875,-0.979736328125,-0.091339111328125,-0.106781005859375
1772562073917952500,4.664952392578125,-0.9815216064453125,-0.0905303955078125,-0.107635498046875
1772562073927934500,4.6749345703125,-0.98223876953125,-0.0886383056640625,-0.1080322265625
1772562073937917400,4.68491748046875,-0.9837493896484375,-0.087432861328125,-0.1072845458984375
1772562073947899600,4.694899658203125,-0.9837646484375,-0.08709716796875,-0.1090240478515625
1772562073957882400,4.70488232421875,-0.983245849609375,-0.087005615234375,-0.1082611083984375
1772562073967864600,4.714864501953125,-0.9863739013671875,-0.086700439453125,-0.1065216064453125
1772562073977847600,4.72484765625,-0.9888763427734375,-0.0867767333984375,-0.105133056640625
1772562073987829500,4.73482958984375,-0.9878692626953125,-0.0865936279296875,-0.103607177734375
1772562073997811500,4.7448115234375,-0.98919677734375,-0.087188720703125,-0.1045074462890625
1772562074007794700,4.754794677734375,-0.9897613525390625,-0.0870208740234375,-0.10430908203125
1772562074017776400,4.7647763671875,-0.9882049560546875,-0.0877532958984375,-0.10516357421875
1772562074027759600,4.774759521484375,-0.9874114990234375,-0.0893096923828125,-0.1074371337890625
1772562074037741300,4.7847412109375,-0.986419677734375,-0.0906982421875,-0.1078643798828125
1772562074047724500,4.794724609375,-0.98516845703125,-0.092529296875,-0.106903076171875
1772562074057706500,4.80470654296875,-0.985748291015625,-0.096435546875,-0.10687255859375
1772562074067689500,4.814689453125,-0.9842071533203125,-0.0972900390625,-0.108978271484375
1772562074077671400,4.82467138671875,-0.9815826416015625,-0.0942230224609375,-0.1113128662109375
1772562074087654700,4.834654541015625,-0.9842376708984375,-0.092498779296875,-0.1133270263671875
1772562074097636400,4.84463623046875,-0.988067626953125,-0.093475341796875,-0.116973876953125
1772562074107618600,4.85461865234375,-0.98651123046875,-0.093658447265625,-0.1189422607421875
1772562074117601300,4.864601318359375,-0.9862060546875,-0.09222412109375,-0.119781494140625
1772562074127583500,4.87458349609375,-0.9896240234375,-0.0910797119140625,-0.1171112060546875
1772562074137566500,4.88456640625,-0.9891815185546875,-0.091522216796875,-0.116424560546875
1772562074147548400,4.89454833984375,-0.989959716796875,-0.0938873291015625,-0.1160125732421875
1772562074157531400,4.904531494140625,-0.9915313720703125,-0.0941009521484375,-0.1158447265625
1772562074167513600,4.914513671875,-0.991119384765625,-0.09539794921875,-0.1158599853515625
1772562074177496300,4.924496337890625,-0.9918060302734375,-0.09552001953125,-0.116058349609375
1772562074187478500,4.934478515625,-0.98858642578125,-0.09527587890625,-0.1166534423828125
1772562074197461500,4.94446142578125,-0.9879302978515625,-0.0963897705078125,-0.118194580078125
1772562074207443500,4.954443359375,-0.987396240234375,-0.09674072265625,-0.1172637939453125
1772562074217425700,4.96442578125,-0.986053466796875,-0.095947265625,-0.1184234619140625
1772562074227408400,4.974408447265625,-0.9876708984375,-0.094818115234375,-0.117645263671875
1772562074237390600,4.984390625,-0.9877471923828125,-0.091796875,-0.1191558837890625
1772562074247373600,4.99437353515625,-0.983734130859375,-0.0896759033203125,-0.123016357421875
1772562074257355500,5.00435546875,-0.98431396484375,-0.0887298583984375,-0.1226959228515625
1772562074267338500,5.01433837890625,-0.990997314453125,-0.0864105224609375,-0.1197509765625
1772562074277320400,5.024320556640625,-0.9916839599609375,-0.0864715576171875,-0.1195068359375
1772562074287303400,5.034303466796875,-0.991424560546875,-0.0876007080078125,-0.121673583984375
1772562074297285600,5.04428564453125,-0.9949188232421875,-0.0886993408203125,-0.12127685546875
1772562074307268600,5.0542685546875,-0.993621826171875,-0.0904998779296875,-0.120941162109375
1772562074317250600,5.06425048828125,-0.9883880615234375,-0.090545654296875,-0.120391845703125
1772562074327232500,5.074232421875,-0.9904327392578125,-0.09228515625,-0.12054443359375
1772562074337215500,5.084215576171875,-0.989776611328125,-0.094146728515625,-0.1218414306640625
1772562074347197400,5.094197509765625,-0.985809326171875,-0.0916748046875,-0.122528076171875
1772562074357180700,5.1041806640625,-0.985870361328125,-0.0895538330078125,-0.1240692138671875
1772562074367162400,5.114162353515625,-0.9875030517578125,-0.0888671875,-0.1223602294921875
1772562074377145600,5.1241455078125,-0.9859771728515625,-0.0896148681640625,-0.1204681396484375
1772562074387127300,5.134127197265625,-0.9865264892578125,-0.088714599609375,-0.1209259033203125
1772562074397110500,5.144110595703125,-0.987518310546875,-0.087310791015625,-0.11932373046875
1772562074407092500,5.154092529296875,-0.9872283935546875,-0.0861053466796875,-0.1173248291015625
1772562074417075500,5.164075439453125,-0.9883880615234375,-0.0821380615234375,-0.1179351806640625
1772562074427057400,5.174057373046875,-0.985687255859375,-0.079193115234375,-0.118743896484375
1772562074437039600,5.18403955078125,-0.9847564697265625,-0.078216552734375,-0.118804931640625
1772562074447022300,5.194022216796875,-0.9858245849609375,-0.081390380859375,-0.11798095703125
1772562074457004500,5.204004638671875,-0.98480224609375,-0.0838470458984375,-0.116180419921875
1772562074466987500,5.213987548828125,-0.9837188720703125,-0.08514404296875,-0.1152191162109375
1772562074476969500,5.223969482421875,-0.9814453125,-0.0866851806640625,-0.1143035888671875
1772562074486952400,5.233952392578125,-0.9815521240234375,-0.0877532958984375,-0.115234375
1772562074496934400,5.243934326171875,-0.9840545654296875,-0.0887451171875,-0.115264892578125
1772562074506917400,5.25391748046875,-0.98370361328125,-0.087310791015625,-0.11578369140625
1772562074516899600,5.263899658203125,-0.982879638671875,-0.0875396728515625,-0.1153106689453125
1772562074526881500,5.273881591796875,-0.98712158203125,-0.0899810791015625,-0.1146087646484375
1772562074536864500,5.283864501953125,-0.9875335693359375,-0.091094970703125,-0.114105224609375
1772562074546846500,5.293846435546875,-0.9886322021484375,-0.0916748046875,-0.1156005859375
1772562074556829400,5.303829345703125,-0.9930267333984375,-0.0924835205078125,-0.1176605224609375
1772562074566811600,5.313811767578125,-0.98455810546875,-0.0897064208984375,-0.119476318359375
1772562074576794400,5.32379443359375,-0.9922943115234375,-0.0904998779296875,-0.117340087890625
1772562074586776600,5.333776611328125,-0.99114990234375,-0.0936431884765625,-0.1190032958984375
1772562074596759600,5.343759521484375,-0.984161376953125,-0.0957183837890625,-0.120574951171875
1772562074606741500,5.353741455078125,-0.9910888671875,-0.0951385498046875,-0.12030029296875
1772562074616724500,5.363724365234375,-0.98858642578125,-0.0946044921875,-0.120086669921875
1772562074626706700,5.373706787109375,-0.984649658203125,-0.0952606201171875,-0.119354248046875
1772562074636688400,5.3836884765625,-0.98681640625,-0.0962982177734375,-0.11968994140625
1772562074646671600,5.393671630859375,-0.98895263671875,-0.0944976806640625,-0.1185760498046875
1772562074656653300,5.4036533203125,-0.99346923828125,-0.0888214111328125,-0.117919921875
1772562074666636500,5.413636474609375,-0.988922119140625,-0.086517333984375,-0.1201171875
1772562074676618500,5.423618408203125,-0.99163818359375,-0.085357666015625,-0.1220245361328125
1772562074686601500,5.4336015625,-0.9944610595703125,-0.0864715576171875,-0.1204376220703125
1772562074696583400,5.44358349609375,-0.990570068359375,-0.0873870849609375,-0.1183624267578125
1772562074706563000,5.45356298828125,-0.98773193359375,-0.088165283203125,-0.117401123046875
1772562074716545000,5.463544921875,-0.989410400390625,-0.0889434814453125,-0.11846923828125
1772562074726528000,5.473528076171875,-0.990203857421875,-0.090362548828125,-0.1181640625
1772562074736510000,5.483510009765625,-0.9886016845703125,-0.088836669921875,-0.1190948486328125
1772562074746492000,5.493491943359375,-0.98663330078125,-0.08746337890625,-0.12109375
1772562074756475000,5.503474853515625,-0.9903564453125,-0.089263916015625,-0.1215667724609375
1772562074766457000,5.51345703125,-0.9889068603515625,-0.09185791015625,-0.119354248046875
1772562074776439800,5.523439697265625,-0.9863128662109375,-0.0884552001953125,-0.1186370849609375
1772562074786422000,5.533422119140625,-0.9864959716796875,-0.08428955078125,-0.1231231689453125
1772562074796405000,5.543405029296875,-0.989044189453125,-0.0826568603515625,-0.1245269775390625
1772562074806387000,5.553386962890625,-0.9877166748046875,-0.0822296142578125,-0.1251068115234375
1772562074816370000,5.563369873046875,-0.98834228515625,-0.079010009765625,-0.12677001953125
1772562074826352000,5.57335205078125,-0.9886016845703125,-0.0777740478515625,-0.127410888671875
1772562074836334800,5.5833349609375,-0.98565673828125,-0.0811920166015625,-0.1265106201171875
1772562074846317000,5.593317138671875,-0.984039306640625,-0.08245849609375,-0.1253204345703125
1772562074856299000,5.603299072265625,-0.9854736328125,-0.0852508544921875,-0.124908447265625
1772562074866282000,5.613281982421875,-0.982940673828125,-0.0891265869140625,-0.1251220703125
1772562074876264200,5.62326416015625,-0.9820098876953125,-0.0904388427734375,-0.12469482421875
1772562074886247000,5.633246826171875,-0.9840087890625,-0.0916900634765625,-0.123504638671875
1772562074896229000,5.64322900390625,-0.984954833984375,-0.0941162109375,-0.1230316162109375
1772562074906212000,5.653212158203125,-0.986236572265625,-0.0953826904296875,-0.121856689453125
1772562074916194000,5.663194091796875,-0.9844970703125,-0.0944976806640625,-0.123291015625
1772562074926177000,5.673177001953125,-0.98492431640625,-0.0925445556640625,-0.122467041015625
1772562074936159000,5.683158935546875,-0.9888458251953125,-0.091827392578125,-0.121673583984375
1772562074946142000,5.693141845703125,-0.9878997802734375,-0.0907745361328125,-0.121307373046875
1772562074956124200,5.703124267578125,-0.9866790771484375,-0.0896759033203125,-0.1200714111328125
1772562074966105900,5.71310595703125,-0.98846435546875,-0.0903167724609375,-0.1190338134765625
1772562074976089000,5.723089111328125,-0.9891204833984375,-0.0931854248046875,-0.1176605224609375
1772562074986071000,5.733071044921875,-0.9871063232421875,-0.0958709716796875,-0.1160125732421875
1772562074996054000,5.743053955078125,-0.9869842529296875,-0.097625732421875,-0.114349365234375
1772562075006036000,5.753035888671875,-0.9892120361328125,-0.101318359375,-0.11334228515625
1772562075016019200,5.763019287109375,-0.9890289306640625,-0.1023406982421875,-0.11407470703125
1772562075026001000,5.7730009765625,-0.986419677734375,-0.102783203125,-0.114898681640625
1772562075035984100,5.782984130859375,-0.98907470703125,-0.10137939453125,-0.1159210205078125
1772562075045965800,5.7929658203125,-0.990875244140625,-0.0984649658203125,-0.116851806640625
1772562075055949000,5.802948974609375,-0.9880218505859375,-0.0951690673828125,-0.1168212890625
1772562075065931000,5.812930908203125,-0.98834228515625,-0.094024658203125,-0.11688232421875
1772562075075913000,5.822912841796875,-0.99224853515625,-0.0930328369140625,-0.119659423828125
1772562075085896000,5.83289599609375,-0.986358642578125,-0.0918426513671875,-0.1214752197265625
1772562075095878000,5.8428779296875,-0.9835205078125,-0.09222412109375,-0.12249755859375
1772562075105860900,5.85286083984375,-0.986602783203125,-0.09271240234375,-0.1211395263671875
1772562075115843000,5.862843017578125,-0.9868927001953125,-0.0931854248046875,-0.121124267578125
1772562075125826000,5.872825927734375,-0.986114501953125,-0.091827392578125,-0.12139892578125
1772562075135808000,5.88280810546875,-0.9860687255859375,-0.091278076171875,-0.1229248046875
1772562075145791000,5.892791015625,-0.9879302978515625,-0.091064453125,-0.124267578125
1772562075155773000,5.90277294921875,-0.9882354736328125,-0.09027099609375,-0.1237335205078125
1772562075165755100,5.912755126953125,-0.9872894287109375,-0.088287353515625,-0.12359619140625
1772562075175738000,5.922738037109375,-0.9858856201171875,-0.0885162353515625,-0.125
1772562075185720000,5.932719970703125,-0.9871063232421875,-0.0894775390625,-0.125457763671875
1772562075195703000,5.942703125,-0.9866943359375,-0.09124755859375,-0.1246490478515625
1772562075205685000,5.95268505859375,-0.9862213134765625,-0.0913238525390625,-0.12518310546875
1772562075215668000,5.96266796875,-0.983795166015625,-0.0935211181640625,-0.1253509521484375
1772562075225650200,5.972650146484375,-0.984649658203125,-0.0966339111328125,-0.124786376953125
1772562075235633000,5.9826328125,-0.98260498046875,-0.09716796875,-0.1231842041015625
1772562075245615000,5.992614990234375,-0.9833526611328125,-0.0961151123046875,-0.121795654296875
1772562075255598000,6.00259814453125,-0.9856109619140625,-0.094696044921875,-0.12109375
1772562075265580000,6.012580078125,-0.984466552734375,-0.0912322998046875,-0.121795654296875
1772562075275562000,6.02256201171875,-0.9857177734375,-0.090728759765625,-0.121337890625
1772562075285545200,6.032545166015625,-0.98577880859375,-0.0925445556640625,-0.1214447021484375
1772562075295527000,6.04252685546875,-0.9859771728515625,-0.093658447265625,-0.1208648681640625
1772562075305510100,6.05251025390625,-0.984832763671875,-0.0938262939453125,-0.1203765869140625
1772562075315491800,6.062491943359375,-0.9835052490234375,-0.0936737060546875,-0.119049072265625
1772562075325475000,6.07247509765625,-0.98431396484375,-0.0951995849609375,-0.1176300048828125
1772562075335457000,6.08245703125,-0.984619140625,-0.093536376953125,-0.1165313720703125
1772562075345440000,6.09243994140625,-0.987518310546875,-0.0906982421875,-0.117706298828125
1772562075355422000,6.102421875,-0.985687255859375,-0.0893096923828125,-0.1180572509765625
1772562075365405200,6.1124052734375,-0.9860687255859375,-0.0897064208984375,-0.1184539794921875
1772562075375387000,6.122386962890625,-0.9894256591796875,-0.09014892578125,-0.1191253662109375
1772562075385369000,6.132369140625,-0.990692138671875,-0.0907440185546875,-0.1177520751953125
1772562075395351800,6.142351806640625,-0.9886016845703125,-0.0923309326171875,-0.1170806884765625
1772562075405334000,6.152333984375,-0.98583984375,-0.09149169921875,-0.11883544921875
1772562075415317000,6.16231689453125,-0.985687255859375,-0.092254638671875,-0.1194305419921875
1772562075425299000,6.172298828125,-0.9827880859375,-0.093017578125,-0.119720458984375
1772562075435282000,6.182281982421875,-0.9801177978515625,-0.0934906005859375,-0.119171142578125
1772562075445264100,6.19226416015625,-0.9832000732421875,-0.091522216796875,-0.1192626953125
1772562075455246800,6.202246826171875,-0.98138427734375,-0.0904083251953125,-0.121917724609375
1772562075465229000,6.21222900390625,-0.976806640625,-0.089263916015625,-0.1235809326171875
1772562075475212000,6.2222119140625,-0.98199462890625,-0.0913238525390625,-0.123138427734375
1772562075485194000,6.232194091796875,-0.98480224609375,-0.0945281982421875,-0.122711181640625
1772562075495176200,6.24217626953125,-0.980712890625,-0.09619140625,-0.1217041015625
1772562075505159000,6.252158935546875,-0.983367919921875,-0.0959625244140625,-0.121826171875
1772562075515141000,6.26214111328125,-0.989013671875,-0.093536376953125,-0.1219940185546875
1772562075525124000,6.2721240234375,-0.990020751953125,-0.0920562744140625,-0.12261962890625
1772562075535106000,6.28210595703125,-0.99053955078125,-0.0909271240234375,-0.12353515625
1772562075545089000,6.292089111328125,-0.9924163818359375,-0.0881805419921875,-0.124786376953125
1772562075555071200,6.3020712890625,-0.9926910400390625,-0.0881805419921875,-0.1222991943359375
1772562075565054000,6.312053955078125,-0.991607666015625,-0.0885772705078125,-0.122802734375
1772562075575036200,6.3220361328125,-0.9915618896484375,-0.08953857421875,-0.122650146484375
1772562075585019100,6.33201904296875,-0.990814208984375,-0.0904083251953125,-0.121734619140625
1772562075595001000,6.3420009765625,-0.989288330078125,-0.091400146484375,-0.12164306640625
1772562075604983000,6.351983154296875,-0.989776611328125,-0.0924072265625,-0.1201629638671875
1772562075614966000,6.361966064453125,-0.988922119140625,-0.094696044921875,-0.119354248046875
1772562075624948000,6.371947998046875,-0.9866180419921875,-0.0939178466796875,-0.1194305419921875
1772562075634931200,6.38193115234375,-0.9878387451171875,-0.094696044921875,-0.11993408203125
1772562075644913000,6.391912841796875,-0.9901885986328125,-0.0974273681640625,-0.1191253662109375
1772562075654896000,6.401896240234375,-0.987762451171875,-0.0976715087890625,-0.120269775390625
1772562075664877800,6.4118779296875,-0.9866943359375,-0.096893310546875,-0.122833251953125
1772562075674861000,6.421861083984375,-0.986907958984375,-0.0970458984375,-0.121490478515625
1772562075684843000,6.431843017578125,-0.985870361328125,-0.0940704345703125,-0.121856689453125
1772562075694826000,6.441825927734375,-0.988067626953125,-0.090057373046875,-0.1210174560546875
1772562075704808400,6.451808349609375,-0.982940673828125,-0.0872039794921875,-0.120361328125
1772562075714790700,6.461790771484375,-0.985992431640625,-0.0868988037109375,-0.1211700439453125
1772562075724773400,6.4717734375,-0.987457275390625,-0.087066650390625,-0.1199951171875
1772562075734755600,6.481755615234375,-0.9840240478515625,-0.0868072509765625,-0.1178131103515625
1772562075744738600,6.491738525390625,-0.9871368408203125,-0.0880279541015625,-0.1179962158203125
1772562075754720500,6.501720458984375,-0.990814208984375,-0.087615966796875,-0.1204986572265625
1772562075764703500,6.511703369140625,-0.990447998046875,-0.0874176025390625,-0.1232452392578125
1772562075774685700,6.521685791015625,-0.991180419921875,-0.0884857177734375,-0.1236419677734375
1772562075784668400,6.53166845703125,-0.9945220947265625,-0.08856201171875,-0.12213134765625
1772562075794650600,6.541650634765625,-0.9929046630859375,-0.089324951171875,-0.1230621337890625
1772562075804633600,6.551633544921875,-0.9916534423828125,-0.0895233154296875,-0.1225738525390625
1772562075814615600,6.561615478515625,-0.99462890625,-0.0902099609375,-0.1221466064453125
1772562075824597500,6.571597412109375,-0.993408203125,-0.08935546875,-0.1218109130859375
1772562075834580500,6.58158056640625,-0.9918212890625,-0.0882110595703125,-0.122650146484375
1772562075844562400,6.5915625,-0.9890594482421875,-0.0870513916015625,-0.121856689453125
1772562075854545700,6.601545654296875,-0.9886932373046875,-0.0874786376953125,-0.120941162109375
1772562075864527400,6.61152734375,-0.9882049560546875,-0.0872955322265625,-0.1179351806640625
1772562075874510600,6.621510498046875,-0.986968994140625,-0.084808349609375,-0.1172637939453125
1772562075884492300,6.6314921875,-0.9859619140625,-0.0832672119140625,-0.1186065673828125
1772562075894475500,6.6414755859375,-0.987518310546875,-0.082794189453125,-0.1197357177734375
1772562075904457500,6.65145751953125,-0.9852142333984375,-0.0855255126953125,-0.1198577880859375
1772562075914440400,6.6614404296875,-0.9861907958984375,-0.0896453857421875,-0.1197509765625
1772562075924422400,6.67142236328125,-0.9857025146484375,-0.091156005859375,-0.117950439453125
1772562075934404600,6.681404541015625,-0.985260009765625,-0.092681884765625,-0.1183319091796875
1772562075944387300,6.69138720703125,-0.9861602783203125,-0.0922393798828125,-0.1190185546875
1772562075954369500,6.70136962890625,-0.985748291015625,-0.0905609130859375,-0.1196746826171875
1772562075964352500,6.7113525390625,-0.9840087890625,-0.087738037109375,-0.120086669921875
1772562075974334500,6.72133447265625,-0.984893798828125,-0.0849609375,-0.1207275390625
1772562075984317400,6.7313173828125,-0.9867095947265625,-0.0848846435546875,-0.1216583251953125
1772562075994299400,6.74129931640625,-0.987640380859375,-0.086517333984375,-0.123046875
1772562076004282400,6.751282470703125,-0.9904937744140625,-0.089569091796875,-0.122955322265625
1772562076014264600,6.7612646484375,-0.9929351806640625,-0.09088134765625,-0.1221466064453125
1772562076024246500,6.77124658203125,-0.992156982421875,-0.093536376953125,-0.1221466064453125
1772562076034229500,6.7812294921875,-0.9917144775390625,-0.093963623046875,-0.121612548828125
1772562076044211500,6.79121142578125,-0.9926300048828125,-0.0926055908203125,-0.122100830078125
1772562076054194400,6.8011943359375,-0.9915924072265625,-0.090484619140625,-0.1231536865234375
1772562076064176600,6.8111767578125,-0.9910430908203125,-0.0888824462890625,-0.124053955078125
1772562076074159600,6.82115966796875,-0.98907470703125,-0.086883544921875,-0.12322998046875
1772562076084141600,6.8311416015625,-0.98773193359375,-0.0849151611328125,-0.1231842041015625
1772562076094124500,6.84112451171875,-0.985076904296875,-0.0828704833984375,-0.124847412109375
1772562076104106500,6.8511064453125,-0.9838714599609375,-0.081634521484375,-0.1246337890625
1772562076114089500,6.86108935546875,-0.9871673583984375,-0.0822601318359375,-0.1236572265625
1772562076124071700,6.87107177734375,-0.984832763671875,-0.0843505859375,-0.123077392578125
1772562076134054400,6.881054443359375,-0.983001708984375,-0.0865325927734375,-0.12493896484375
1772562076144036600,6.89103662109375,-0.983734130859375,-0.0882720947265625,-0.123748779296875
1772562076154018300,6.901018310546875,-0.9830474853515625,-0.0912933349609375,-0.1241607666015625
1772562076164001500,6.91100146484375,-0.9836883544921875,-0.0899505615234375,-0.1239013671875
1772562076173983500,6.9209833984375,-0.984375,-0.0879669189453125,-0.1255645751953125
1772562076183966500,6.930966552734375,-0.9878692626953125,-0.0876312255859375,-0.125640869140625
1772562076193948400,6.940948486328125,-0.9897308349609375,-0.0873870849609375,-0.1256103515625
1772562076203931600,6.950931640625,-0.9891357421875,-0.087860107421875,-0.1265411376953125
1772562076213913300,6.960913330078125,-0.9892425537109375,-0.0892181396484375,-0.125823974609375
1772562076223896600,6.970896484375,-0.9880218505859375,-0.0895538330078125,-0.1260528564453125
1772562076233878500,6.98087841796875,-0.98883056640625,-0.09051513671875,-0.125396728515625
1772562076243860500,6.990860595703125,-0.9906005859375,-0.09161376953125,-0.1241912841796875
1772562076253843500,7.000843505859375,-0.99212646484375,-0.092041015625,-0.12353515625
1772562076263825400,7.010825439453125,-0.9897613525390625,-0.0898895263671875,-0.1236114501953125
1772562076273808400,7.020808349609375,-0.9890289306640625,-0.0893707275390625,-0.12249755859375
1772562076283790600,7.03079052734375,-0.9895172119140625,-0.088897705078125,-0.1212921142578125
1772562076293773300,7.040773193359375,-0.989532470703125,-0.085296630859375,-0.12091064453125
1772562076303755500,7.050755615234375,-0.989654541015625,-0.0818634033203125,-0.120849609375
1772562076313738500,7.060738525390625,-0.9875640869140625,-0.0814971923828125,-0.12176513671875
1772562076323720400,7.070720458984375,-0.9847259521484375,-0.08209228515625,-0.1224822998046875
1772562076333703400,7.080703369140625,-0.98602294921875,-0.082916259765625,-0.1218414306640625
1772562076343685400,7.090685302734375,-0.9833526611328125,-0.0857086181640625,-0.12152099609375
1772562076353667600,7.10066748046875,-0.9846954345703125,-0.0885772705078125,-0.1214599609375
1772562076363650600,7.110650634765625,-0.9835968017578125,-0.0900421142578125,-0.1231689453125
1772562076373632500,7.120632568359375,-0.9840850830078125,-0.091400146484375,-0.1244964599609375
1772562076383615500,7.130615478515625,-0.983489990234375,-0.0927734375,-0.1237030029296875
1772562076393597700,7.14059765625,-0.9828033447265625,-0.0914764404296875,-0.1237335205078125
1772562076403580400,7.150580322265625,-0.986114501953125,-0.08984375,-0.1221923828125
1772562076413562600,7.160562744140625,-0.98687744140625,-0.0888824462890625,-0.1222076416015625
1772562076423545600,7.170545654296875,-0.9900970458984375,-0.087249755859375,-0.1215362548828125
1772562076433527600,7.180527587890625,-0.989837646484375,-0.0859527587890625,-0.1209564208984375
1772562076443510500,7.190510498046875,-0.989288330078125,-0.08502197265625,-0.122222900390625
1772562076453492500,7.200492431640625,-0.989410400390625,-0.084503173828125,-0.125396728515625
1772562076463474400,7.210474365234375,-0.9875335693359375,-0.0829925537109375,-0.125579833984375
1772562076473457700,7.220457763671875,-0.988677978515625,-0.0830535888671875,-0.1248779296875
1772562076483439400,7.230439453125,-0.988433837890625,-0.0830535888671875,-0.1255950927734375
1772562076493422600,7.240422607421875,-0.9877166748046875,-0.08575439453125,-0.1250152587890625
1772562076503404500,7.250404541015625,-0.988739013671875,-0.088623046875,-0.1255035400390625
1772562076513387500,7.260387451171875,-0.9886322021484375,-0.0909576416015625,-0.1263427734375
1772562076523369500,7.270369384765625,-0.986236572265625,-0.0913543701171875,-0.129150390625
1772562076533352700,7.280352783203125,-0.9845123291015625,-0.090850830078125,-0.13189697265625
1772562076543334400,7.29033447265625,-0.986053466796875,-0.0915679931640625,-0.1314544677734375
1772562076553317600,7.300317626953125,-0.9871673583984375,-0.089935302734375,-0.1306915283203125
1772562076563299300,7.31029931640625,-0.9852752685546875,-0.0884246826171875,-0.1306915283203125
1772562076573281500,7.320281494140625,-0.98675537109375,-0.088897705078125,-0.130859375
1772562076583264500,7.330264404296875,-0.98529052734375,-0.091339111328125,-0.1285400390625
1772562076593246500,7.34024658203125,-0.983642578125,-0.0915679931640625,-0.1259765625
1772562076603229400,7.3502294921875,-0.9837493896484375,-0.0906829833984375,-0.124298095703125
1772562076613211400,7.36021142578125,-0.985809326171875,-0.0905303955078125,-0.12371826171875
1772562076623194400,7.3701943359375,-0.9906005859375,-0.0915985107421875,-0.1227874755859375
1772562076633176600,7.380176513671875,-0.9923553466796875,-0.0915069580078125,-0.1227874755859375
1772562076643159300,7.3901591796875,-0.991485595703125,-0.0914306640625,-0.1233978271484375
1772562076653141500,7.4001416015625,-0.9901275634765625,-0.0903167724609375,-0.1223602294921875
1772562076663124500,7.41012451171875,-0.9891204833984375,-0.0886383056640625,-0.122406005859375
1772562076673106400,7.4201064453125,-0.9888763427734375,-0.0861968994140625,-0.1240386962890625
1772562076683088600,7.430088623046875,-0.9873809814453125,-0.0854034423828125,-0.1241455078125
1772562076693071600,7.440071533203125,-0.984466552734375,-0.0866851806640625,-0.1244049072265625
1772562076703053600,7.450053466796875,-0.985015869140625,-0.0871734619140625,-0.1233367919921875
1772562076713036500,7.46003662109375,-0.9840850830078125,-0.089324951171875,-0.124053955078125
1772562076723018500,7.4700185546875,-0.9829254150390625,-0.093109130859375,-0.1237640380859375
1772562076733001500,7.48000146484375,-0.9823760986328125,-0.0949859619140625,-0.1233673095703125
1772562076742983700,7.489983642578125,-0.983734130859375,-0.09625244140625,-0.1224517822265625
1772562076752966400,7.49996630859375,-0.9868316650390625,-0.096710205078125,-0.121734619140625
1772562076762948600,7.509948486328125,-0.98590087890625,-0.0949249267578125,-0.1214141845703125
1772562076772931600,7.519931640625,-0.9891815185546875,-0.0897979736328125,-0.124298095703125
1772562076782913500,7.52991357421875,-0.9902496337890625,-0.086700439453125,-0.124481201171875
1772562076792895500,7.5398955078125,-0.98895263671875,-0.085174560546875,-0.1246490478515625
1772562076802878700,7.549878662109375,-0.9915771484375,-0.084381103515625,-0.1267242431640625
1772562076812860400,7.5598603515625,-0.9925537109375,-0.0864410400390625,-0.1260986328125
1772562076822843600,7.56984375,-0.9940948486328125,-0.0885162353515625,-0.12518310546875
1772562076832825300,7.579825439453125,-0.99224853515625,-0.092010498046875,-0.1255035400390625
1772562076842808600,7.58980859375,-0.98956298828125,-0.0926513671875,-0.1257171630859375
1772562076852790500,7.59979052734375,-0.987823486328125,-0.0944061279296875,-0.1261138916015625
1772562076862773500,7.6097734375,-0.9856109619140625,-0.09442138671875,-0.1277313232421875
1772562076872755500,7.61975537109375,-0.983367919921875,-0.0922698974609375,-0.12933349609375
1772562076882738700,7.62973876953125,-0.983734130859375,-0.0921478271484375,-0.1282196044921875
1772562076892720400,7.639720458984375,-0.9864959716796875,-0.090606689453125,-0.1270599365234375
1772562076902702600,7.64970263671875,-0.98675537109375,-0.0879974365234375,-0.1268157958984375
1772562076912685300,7.659685302734375,-0.9872894287109375,-0.0843963623046875,-0.1275787353515625
1772562076922667500,7.66966748046875,-0.986907958984375,-0.0827484130859375,-0.1267852783203125
1772562076932650500,7.679650390625,-0.988006591796875,-0.0852813720703125,-0.1254119873046875
1772562076942632400,7.689632568359375,-0.9869384765625,-0.0849609375,-0.124114990234375
1772562076952615400,7.699615478515625,-0.9854583740234375,-0.0847015380859375,-0.1234588623046875
1772562076962597600,7.70959765625,-0.9851837158203125,-0.0840301513671875,-0.1249542236328125
1772562076972580400,7.719580322265625,-0.98828125,-0.0852813720703125,-0.125244140625
1772562076982562600,7.7295625,-0.99017333984375,-0.0883331298828125,-0.1248321533203125
1772562076992545500,7.739545654296875,-0.98565673828125,-0.0885009765625,-0.125579833984375
1772562077002527500,7.749527587890625,-0.9842376708984375,-0.087158203125,-0.1279449462890625
1772562077012509700,7.759509765625,-0.987274169921875,-0.086822509765625,-0.1291046142578125
1772562077022492400,7.769492431640625,-0.9869232177734375,-0.0860595703125,-0.12969970703125
1772562077032474600,7.779474609375,-0.9844818115234375,-0.0854644775390625,-0.1299591064453125
1772562077042457600,7.78945751953125,-0.98724365234375,-0.0856781005859375,-0.131134033203125
1772562077052439600,7.799439453125,-0.988677978515625,-0.087371826171875,-0.13128662109375
1772562077062422500,7.809422607421875,-0.987335205078125,-0.0874481201171875,-0.130462646484375
1772562077072404700,7.81940478515625,-0.9844818115234375,-0.0859832763671875,-0.1324310302734375
1772562077082387500,7.829387451171875,-0.9868316650390625,-0.0871124267578125,-0.1313018798828125
1772562077092369700,7.83936962890625,-0.98895263671875,-0.0904083251953125,-0.129364013671875
1772562077102351400,7.849351318359375,-0.9892578125,-0.0905303955078125,-0.1283111572265625
1772562077112334600,7.85933447265625,-0.9892120361328125,-0.088775634765625,-0.1293182373046875
1772562077122316500,7.869316650390625,-0.987457275390625,-0.0882720947265625,-0.1279296875
1772562077132299500,7.879299560546875,-0.985626220703125,-0.08660888671875,-0.128448486328125
1772562077142281500,7.889281494140625,-0.9840240478515625,-0.0852813720703125,-0.1285400390625
1772562077152264700,7.8992646484375,-0.9835205078125,-0.086517333984375,-0.1270294189453125
1772562077162246400,7.909246337890625,-0.98516845703125,-0.0898284912109375,-0.12518310546875
1772562077172229600,7.919229736328125,-0.9850921630859375,-0.093414306640625,-0.12396240234375
1772562077182211300,7.92921142578125,-0.98419189453125,-0.0944671630859375,-0.12420654296875
1772562077192194600,7.939194580078125,-0.9831695556640625,-0.0924530029296875,-0.1252288818359375
1772562077202176500,7.949176513671875,-0.9825439453125,-0.090362548828125,-0.125213623046875
1772562077212158500,7.959158447265625,-0.98126220703125,-0.0889434814453125,-0.126190185546875
1772562077222141400,7.969141357421875,-0.981353759765625,-0.088958740234375,-0.1244659423828125
1772562077232123600,7.97912353515625,-0.9868011474609375,-0.0875396728515625,-0.1239166259765625
1772562077242104600,7.9891044921875,-0.9869384765625,-0.0879058837890625,-0.1254730224609375
1772562077252087600,7.999087646484375,-0.9871673583984375,-0.0888214111328125,-0.1263885498046875
1772562077262069500,8.009069580078124,-0.98931884765625,-0.091552734375,-0.1247406005859375
1772562077272052500,8.019052490234374,-0.9918212890625,-0.0945281982421875,-0.1241455078125
1772562077282034400,8.029034423828126,-0.99139404296875,-0.09295654296875,-0.1236572265625
1772562077292016400,8.039016357421875,-0.98944091796875,-0.0914764404296875,-0.1255645751953125
1772562077301999600,8.04899951171875,-0.9920196533203125,-0.09210205078125,-0.125579833984375
1772562077311981300,8.058981201171875,-0.99053955078125,-0.0890350341796875,-0.127166748046875
1772562077321964500,8.068964599609375,-0.985565185546875,-0.085601806640625,-0.12933349609375
1772562077331946500,8.078946533203125,-0.9825439453125,-0.08392333984375,-0.1318817138671875
1772562077341929500,8.088929443359374,-0.98358154296875,-0.0855560302734375,-0.132568359375
1772562077351911400,8.098911376953126,-0.9871368408203125,-0.0863037109375,-0.13134765625
1772562077361894700,8.108894775390626,-0.984527587890625,-0.0868072509765625,-0.1329345703125
1772562077371876400,8.11887646484375,-0.9823760986328125,-0.08782958984375,-0.13372802734375
1772562077381859600,8.128859619140625,-0.984710693359375,-0.0925445556640625,-0.13232421875
1772562077391841500,8.138841552734375,-0.986175537109375,-0.0946807861328125,-0.1312103271484375
1772562077401823500,8.148823486328125,-0.9893341064453125,-0.095245361328125,-0.1301727294921875
1772562077411806500,8.158806396484374,-0.990509033203125,-0.0943450927734375,-0.1322479248046875
1772562077421788400,8.168788330078126,-0.9913330078125,-0.092681884765625,-0.1330718994140625
1772562077431771400,8.178771484375,-0.98956298828125,-0.0885772705078125,-0.13421630859375
1772562077441753300,8.18875341796875,-0.989471435546875,-0.087738037109375,-0.1342620849609375
1772562077451736600,8.198736572265625,-0.9910736083984375,-0.0865936279296875,-0.1332550048828125
1772562077461718500,8.208718505859375,-0.9906463623046875,-0.0858154296875,-0.1336822509765625
1772562077471701500,8.218701416015625,-0.9860076904296875,-0.086700439453125,-0.133331298828125
1772562077481683500,8.228683349609375,-0.9851226806640625,-0.088134765625,-0.13153076171875
1772562077491666400,8.23866650390625,-0.9856414794921875,-0.0927734375,-0.1276397705078125
1772562077501648400,8.2486484375,-0.984893798828125,-0.09564208984375,-0.1265411376953125
1772562077511630600,8.258630615234376,-0.98590087890625,-0.0946044921875,-0.125213623046875
1772562077521613600,8.268613525390625,-0.98468017578125,-0.0936431884765625,-0.12664794921875
1772562077531595500,8.278595458984375,-0.9846954345703125,-0.09234619140625,-0.1263885498046875
1772562077541578500,8.28857861328125,-0.986175537109375,-0.0898590087890625,-0.127532958984375
1772562077551560400,8.298560546875,-0.98785400390625,-0.0872344970703125,-0.126434326171875
1772562077561543400,8.30854345703125,-0.9894561767578125,-0.087127685546875,-0.1266937255859375
1772562077571525600,8.318525634765624,-0.9899139404296875,-0.088409423828125,-0.12591552734375
1772562077581508400,8.32850830078125,-0.9877166748046875,-0.0891265869140625,-0.1261138916015625
1772562077591490600,8.338490478515626,-0.9855499267578125,-0.0901641845703125,-0.12646484375
1772562077601473500,8.3484736328125,-0.984222412109375,-0.092559814453125,-0.1266937255859375
1772562077611455500,8.35845556640625,-0.9853057861328125,-0.0937652587890625,-0.1260833740234375
1772562077621437400,8.3684375,-0.985687255859375,-0.0940704345703125,-0.1275634765625
1772562077631422500,8.37842236328125,-0.9833221435546875,-0.0952911376953125,-0.1284942626953125
1772562077641404400,8.388404296875,-0.9863739013671875,-0.0963897705078125,-0.128936767578125
1772562077651386600,8.39838671875,-0.986846923828125,-0.0968780517578125,-0.128936767578125
1772562077661369600,8.40836962890625,-0.986663818359375,-0.0960540771484375,-0.130218505859375
1772562077671351600,8.4183515625,-0.988037109375,-0.0951080322265625,-0.1320648193359375
1772562077681334500,8.42833447265625,-0.989227294921875,-0.0950469970703125,-0.1340484619140625
1772562077691316500,8.43831640625,-0.991119384765625,-0.09429931640625,-0.1336517333984375
1772562077701299500,8.448299560546875,-0.9917449951171875,-0.0916748046875,-0.134368896484375
1772562077711281200,8.45828125,-0.9918670654296875,-0.089141845703125,-0.135894775390625
1772562077721264000,8.46826416015625,-0.990936279296875,-0.088775634765625,-0.13555908203125
1772562077731246300,8.478246337890624,-0.9888153076171875,-0.0915985107421875,-0.1366119384765625
1772562077741229000,8.48822900390625,-0.9863128662109375,-0.0949554443359375,-0.1381072998046875
1772562077751211300,8.498211181640626,-0.98614501953125,-0.09564208984375,-0.1377410888671875
1772562077761193000,8.50819287109375,-0.985321044921875,-0.0948944091796875,-0.1374969482421875
1772562077771176200,8.51817626953125,-0.983795166015625,-0.095245361328125,-0.1380462646484375
1772562077781158100,8.528158203125,-0.98193359375,-0.0957183837890625,-0.138763427734375
1772562077791141000,8.53814111328125,-0.98187255859375,-0.0955657958984375,-0.136474609375
1772562077801123000,8.548123046875,-0.9824981689453125,-0.094146728515625,-0.13629150390625
1772562077811106300,8.558106201171874,-0.982025146484375,-0.0941162109375,-0.1365203857421875
1772562077821088000,8.568087890625,-0.9789886474609375,-0.0948028564453125,-0.136627197265625
1772562077831071200,8.5780712890625,-0.981231689453125,-0.094451904296875,-0.1361083984375
1772562077841053200,8.58805322265625,-0.9816741943359375,-0.0948944091796875,-0.134613037109375
1772562077851036200,8.5980361328125,-0.9827117919921875,-0.0946197509765625,-0.13372802734375
1772562077861018000,8.60801806640625,-0.985809326171875,-0.0941619873046875,-0.1345062255859375
1772562077871000000,8.618,-0.9864349365234375,-0.0949859619140625,-0.135467529296875
1772562077880983000,8.627983154296874,-0.98736572265625,-0.09381103515625,-0.1360015869140625
1772562077890965200,8.63796533203125,-0.988250732421875,-0.0936431884765625,-0.1356048583984375
1772562077900948000,8.647947998046876,-0.9872894287109375,-0.094451904296875,-0.134124755859375
1772562077910930200,8.65793017578125,-0.989105224609375,-0.095611572265625,-0.133941650390625
1772562077920913200,8.6679130859375,-0.98590087890625,-0.095184326171875,-0.1345672607421875
1772562077930895000,8.67789501953125,-0.9820098876953125,-0.094696044921875,-0.1338958740234375
1772562077940878000,8.687878173828125,-0.98175048828125,-0.0961456298828125,-0.1316375732421875
1772562077950860000,8.697860107421874,-0.98028564453125,-0.094970703125,-0.1303253173828125
1772562077960843000,8.707843017578124,-0.9788360595703125,-0.0939483642578125,-0.131195068359375
1772562077970825200,8.7178251953125,-0.9793548583984375,-0.092742919921875,-0.132232666015625
1772562077980807200,8.72780712890625,-0.978607177734375,-0.0942230224609375,-0.13348388671875
1772562077990790100,8.7377900390625,-0.977203369140625,-0.0957489013671875,-0.13385009765625
1772562078000772400,8.7477724609375,-0.979095458984375,-0.098114013671875,-0.13067626953125
1772562078010755000,8.757755126953125,-0.9801025390625,-0.0984649658203125,-0.1311798095703125
1772562078020737300,8.7677373046875,-0.9799041748046875,-0.0983734130859375,-0.132232666015625
1772562078030720300,8.77772021484375,-0.9810943603515625,-0.09808349609375,-0.133819580078125
1772562078040702200,8.7877021484375,-0.979888916015625,-0.098297119140625,-0.136627197265625
1772562078050685200,8.797685302734376,-0.98358154296875,-0.09698486328125,-0.1364593505859375
1772562078060667100,8.807667236328125,-0.9906463623046875,-0.0968170166015625,-0.1371917724609375
1772562078070649000,8.817649169921875,-0.9915008544921875,-0.0971527099609375,-0.1382293701171875
1772562078080632300,8.82763232421875,-0.9930267333984375,-0.0981597900390625,-0.139190673828125
1772562078090614000,8.837614013671875,-0.9935150146484375,-0.0970611572265625,-0.1397705078125
1772562078100597200,8.84759716796875,-0.992828369140625,-0.09552001953125,-0.1392669677734375
1772562078110579000,8.857578857421874,-0.9939422607421875,-0.0968475341796875,-0.137969970703125
1772562078120562200,8.867562255859376,-0.9930572509765625,-0.0975799560546875,-0.138641357421875
1772562078130544000,8.877544189453126,-0.9889984130859375,-0.0949249267578125,-0.140228271484375
1772562078140527000,8.887527099609375,-0.985443115234375,-0.0947113037109375,-0.1418914794921875
1772562078150509000,8.897509033203125,-0.9828948974609375,-0.09686279296875,-0.1403350830078125
1772562078160492300,8.9074921875,-0.981109619140625,-0.0993499755859375,-0.1367950439453125
1772562078170474000,8.917473876953125,-0.9800872802734375,-0.0988006591796875,-0.136993408203125
1772562078180456200,8.927456298828124,-0.979827880859375,-0.0980072021484375,-0.1360321044921875
1772562078190439200,8.937439208984374,-0.977569580078125,-0.0962066650390625,-0.1353302001953125
1772562078200421000,8.947421142578126,-0.9766082763671875,-0.0929412841796875,-0.1344451904296875
1772562078210404000,8.957404052734375,-0.9774017333984375,-0.089813232421875,-0.1356201171875
1772562078220386000,8.967385986328125,-0.9781341552734375,-0.0896759033203125,-0.136932373046875
1772562078230369000,8.977369140625,-0.97943115234375,-0.0908355712890625,-0.1354522705078125
1772562078240351200,8.987351318359375,-0.981414794921875,-0.0931854248046875,-0.134429931640625
1772562078250334000,8.997333984375,-0.979644775390625,-0.09564208984375,-0.1342315673828125
1772562078260316200,9.007316162109374,-0.982177734375,-0.096710205078125,-0.13348388671875
1772562078270299100,9.017299072265626,-0.9835357666015625,-0.09710693359375,-0.1317138671875
1772562078280281000,9.027281005859376,-0.9844818115234375,-0.09869384765625,-0.1321258544921875
1772562078290263300,9.03726318359375,-0.983795166015625,-0.09722900390625,-0.1335906982421875
1772562078300246300,9.047246337890625,-0.9853668212890625,-0.0958251953125,-0.1339263916015625
1772562078310228200,9.057228271484375,-0.9839019775390625,-0.0939788818359375,-0.134857177734375
1772562078320211200,9.067211181640625,-0.9835357666015625,-0.094482421875,-0.13690185546875
1772562078330193200,9.077193115234374,-0.9847259521484375,-0.095733642578125,-0.136322021484375
1772562078340176100,9.087176025390624,-0.9836883544921875,-0.09686279296875,-0.137054443359375
1772562078350158300,9.097158447265626,-0.983795166015625,-0.095550537109375,-0.137847900390625
1772562078360141000,9.10714111328125,-0.983245849609375,-0.094879150390625,-0.138427734375
1772562078370123300,9.117123291015625,-0.984527587890625,-0.0949859619140625,-0.1384124755859375
1772562078380106200,9.127106201171875,-0.983489990234375,-0.0960845947265625,-0.1383819580078125
1772562078390088200,9.137088134765625,-0.9813385009765625,-0.0980987548828125,-0.1375732421875
1772562078400070100,9.147070068359374,-0.9834442138671875,-0.10009765625,-0.1357879638671875
1772562078410053000,9.15705322265625,-0.984039306640625,-0.1007080078125,-0.136260986328125
1772562078420035000,9.16703515625,-0.9826507568359375,-0.0994110107421875,-0.136688232421875
1772562078430018300,9.177018310546876,-0.9815826416015625,-0.097808837890625,-0.13671875
1772562078440000000,9.187,-0.9810791015625,-0.0951080322265625,-0.13702392578125
1772562078449983200,9.196983154296875,-0.983795166015625,-0.0951385498046875,-0.135162353515625
1772562078459965200,9.206965087890625,-0.986175537109375,-0.0957794189453125,-0.133392333984375
1772562078469948200,9.2169482421875,-0.9863128662109375,-0.0967864990234375,-0.13421630859375
1772562078479930000,9.22693017578125,-0.9894866943359375,-0.09735107421875,-0.134735107421875
1772562078489913300,9.236913330078124,-0.9937896728515625,-0.1006011962890625,-0.1348724365234375
1772562078499895000,9.24689501953125,-0.9959564208984375,-0.1022491455078125,-0.1357879638671875
1772562078509877200,9.256877197265625,-0.9968719482421875,-0.10186767578125,-0.13629150390625
1772562078519860000,9.26685986328125,-0.9984893798828125,-0.100860595703125,-0.13653564453125
1772562078529842200,9.27684228515625,-0.9971160888671875,-0.0978240966796875,-0.1368255615234375
1772562078539825200,9.2868251953125,-0.9902801513671875,-0.092193603515625,-0.13671875
1772562078549807000,9.29680712890625,-0.98046875,-0.0884857177734375,-0.138336181640625
1772562078559790000,9.3067900390625,-0.97381591796875,-0.08746337890625,-0.1405029296875
1772562078569772300,9.316772216796876,-0.9737548828125,-0.08941650390625,-0.139251708984375
1772562078579755000,9.326755126953126,-0.9738006591796875,-0.0901336669921875,-0.13812255859375
1772562078589737200,9.3367373046875,-0.9734954833984375,-0.0931854248046875,-0.137298583984375
1772562078599719200,9.34671923828125,-0.9755859375,-0.09747314453125,-0.135650634765625
1772562078609702100,9.3567021484375,-0.978240966796875,-0.098419189453125,-0.1357269287109375
1772562078619684000,9.36668408203125,-0.97943115234375,-0.096435546875,-0.135345458984375
1772562078629667000,9.3766669921875,-0.980621337890625,-0.094329833984375,-0.1329803466796875
1772562078639649300,9.386649169921874,-0.982696533203125,-0.09228515625,-0.1331024169921875
1772562078649632300,9.39663232421875,-0.9828033447265625,-0.089569091796875,-0.1338653564453125
1772562078659614200,9.4066142578125,-0.9852142333984375,-0.087799072265625,-0.1337432861328125
1772562078669597200,9.41659716796875,-0.9848785400390625,-0.0875091552734375,-0.1343536376953125
1772562078679579100,9.4265791015625,-0.9854278564453125,-0.09002685546875,-0.1335906982421875
1772562078689562000,9.43656201171875,-0.9841156005859375,-0.09271240234375,-0.1336669921875
1772562078699544000,9.4465439453125,-0.983245849609375,-0.094879150390625,-0.136322021484375
1772562078709526500,9.456526611328124,-0.9830780029296875,-0.0951385498046875,-0.13592529296875
1772562078719509500,9.466509521484374,-0.9836578369140625,-0.09649658203125,-0.135498046875
1772562078729491500,9.476491455078126,-0.9851226806640625,-0.0961151123046875,-0.1365814208984375
1772562078739474400,9.486474365234375,-0.9887847900390625,-0.0950469970703125,-0.1371612548828125
1772562078749456400,9.496456298828125,-0.98992919921875,-0.093902587890625,-0.1380615234375
1772562078759439400,9.506439453125,-0.9915618896484375,-0.0915985107421875,-0.139007568359375
1772562078769421600,9.516421630859375,-0.989990234375,-0.0909576416015625,-0.139404296875
1772562078779404300,9.526404296875,-0.9883270263671875,-0.0898590087890625,-0.1392059326171875
1772562078789386500,9.536386474609374,-0.986419677734375,-0.0883331298828125,-0.1379241943359375
1772562078799369500,9.546369384765624,-0.987213134765625,-0.0889739990234375,-0.136688232421875
1772562078809351400,9.556351318359376,-0.9882965087890625,-0.090972900390625,-0.135955810546875
1772562078819333600,9.566333740234375,-0.9861907958984375,-0.0922698974609375,-0.13604736328125
1772562078829316600,9.576316650390625,-0.9855804443359375,-0.0944061279296875,-0.1357574462890625
1772562078839298600,9.586298583984375,-0.986480712890625,-0.0951080322265625,-0.1351470947265625
1772562078849281500,9.596281494140625,-0.987701416015625,-0.094818115234375,-0.1339111328125
1772562078859263500,9.606263427734374,-0.9896087646484375,-0.09326171875,-0.133514404296875
1772562078869246500,9.61624658203125,-0.991119384765625,-0.09161376953125,-0.133697509765625
1772562078879228700,9.626228759765626,-0.99237060546875,-0.090789794921875,-0.1346282958984375
1772562078889211400,9.63621142578125,-0.9914093017578125,-0.08953857421875,-0.1355133056640625
1772562078899193600,9.646193603515625,-0.9880828857421875,-0.0891571044921875,-0.134429931640625
1772562078909176600,9.656176513671875,-0.9862060546875,-0.08740234375,-0.1355743408203125
1772562078919158500,9.666158447265625,-0.985748291015625,-0.0875701904296875,-0.137542724609375
1772562078929140500,9.676140380859374,-0.983917236328125,-0.0877685546875,-0.138214111328125
1772562078939123500,9.68612353515625,-0.9828643798828125,-0.0884857177734375,-0.136810302734375
1772562078949105400,9.69610546875,-0.98046875,-0.0879974365234375,-0.137603759765625
1772562078959088600,9.706088623046876,-0.982269287109375,-0.088958740234375,-0.1402130126953125
1772562078969070300,9.7160703125,-0.98260498046875,-0.088775634765625,-0.1399383544921875
1772562078979053600,9.726053466796875,-0.982574462890625,-0.0889129638671875,-0.138824462890625
1772562078989035500,9.736035400390625,-0.985321044921875,-0.08917236328125,-0.1381072998046875
1772562078999018500,9.7460185546875,-0.9846038818359375,-0.0882568359375,-0.13848876953125
1772562079009000400,9.75600048828125,-0.9837646484375,-0.0871429443359375,-0.138031005859375
1772562079018982400,9.765982421875,-0.9837493896484375,-0.0863800048828125,-0.1377105712890625
1772562079028965400,9.77596533203125,-0.9815826416015625,-0.087677001953125,-0.1388397216796875
1772562079038947600,9.785947509765625,-0.9815673828125,-0.0896453857421875,-0.1368408203125
1772562079048930300,9.795930419921875,-0.9829559326171875,-0.091400146484375,-0.1343994140625
1772562079058912500,9.80591259765625,-0.9840545654296875,-0.091827392578125,-0.1337127685546875
1772562079068895500,9.8158955078125,-0.9864501953125,-0.0909423828125,-0.1332550048828125
1772562079078877400,9.82587744140625,-0.987457275390625,-0.08770751953125,-0.134735107421875
1772562079088860400,9.8358603515625,-0.9898681640625,-0.0862579345703125,-0.1360931396484375
1772562079098842600,9.845842529296876,-0.991424560546875,-0.0850372314453125,-0.135528564453125
1772562079108825300,9.855825439453126,-0.990234375,-0.084716796875,-0.13433837890625
1772562079118807600,9.8658076171875,-0.9903106689453125,-0.08465576171875,-0.1339263916015625
1772562079128790500,9.87579052734375,-0.99072265625,-0.0852203369140625,-0.1353302001953125
1772562079138772500,9.8857724609375,-0.9873809814453125,-0.08685302734375,-0.135650634765625
1772562079148754700,9.895754638671875,-0.985687255859375,-0.089111328125,-0.135894775390625
1772562079158737400,9.9057373046875,-0.984466552734375,-0.0896759033203125,-0.137908935546875
1772562079168719600,9.9157197265625,-0.982818603515625,-0.0898284912109375,-0.140045166015625
1772562079178702600,9.92570263671875,-0.9825286865234375,-0.0892791748046875,-0.14190673828125
1772562079188684500,9.9356845703125,-0.98065185546875,-0.0906829833984375,-0.143463134765625
1772562079198667500,9.94566748046875,-0.980438232421875,-0.0934295654296875,-0.141998291015625
1772562079208649500,9.9556494140625,-0.982421875,-0.093780517578125,-0.1394805908203125
1772562079218632400,9.965632568359375,-0.9842376708984375,-0.0912933349609375,-0.14166259765625
1772562079228614700,9.97561474609375,-0.9854583740234375,-0.0882720947265625,-0.14276123046875
1772562079238597400,9.985597412109374,-0.986663818359375,-0.0866851806640625,-0.14215087890625
1772562079248579600,9.99557958984375,-0.986236572265625,-0.0871734619140625,-0.1412200927734375
1772562079258561500,10.0055615234375,-0.9853668212890625,-0.0867767333984375,-0.14068603515625
1772562079268544500,10.01554443359375,-0.9881134033203125,-0.08648681640625,-0.1393280029296875
1772562079278526500,10.0255263671875,-0.9908599853515625,-0.087371826171875,-0.140411376953125
1772562079288509700,10.035509765625,-0.988983154296875,-0.09002685546875,-0.140594482421875
1772562079298491400,10.045491455078125,-0.9843597412109375,-0.089324951171875,-0.140625
1772562079308474600,10.055474609375,-0.9829559326171875,-0.088958740234375,-0.13970947265625
1772562079318456300,10.065456298828124,-0.982696533203125,-0.0893096923828125,-0.13916015625
1772562079328439600,10.075439453125,-0.97955322265625,-0.0922698974609375,-0.139617919921875
1772562079338421500,10.08542138671875,-0.9804534912109375,-0.0913848876953125,-0.138916015625
1772562079348403500,10.095403564453125,-0.9835968017578125,-0.0888214111328125,-0.1376495361328125
1772562079358386400,10.105386474609375,-0.9853057861328125,-0.088531494140625,-0.136627197265625
1772562079368368400,10.115368408203125,-0.9874267578125,-0.088287353515625,-0.1365814208984375
1772562079378351400,10.125351318359375,-0.9916839599609375,-0.0882720947265625,-0.13580322265625
1772562079388333600,10.13533349609375,-0.996978759765625,-0.0899658203125,-0.132781982421875
1772562079398316500,10.145316650390624,-0.977386474609375,-0.08551025390625,-0.1444854736328125
1772562079408298500,10.155298583984376,-0.989044189453125,-0.08367919921875,-0.1448822021484375
1772562079418281500,10.165281494140626,-0.991668701171875,-0.0816497802734375,-0.1397705078125
1772562079428263400,10.175263427734375,-0.98358154296875,-0.079864501953125,-0.13775634765625
1772562079438246400,10.185246337890625,-0.986907958984375,-0.0786895751953125,-0.1355133056640625
1772562079448228600,10.195228515625,-0.9832763671875,-0.079193115234375,-0.136993408203125
1772562079458210600,10.20521044921875,-0.9846038818359375,-0.0809326171875,-0.136932373046875
1772562079468193500,10.215193603515624,-0.98651123046875,-0.082183837890625,-0.1379547119140625
1772562079478175500,10.225175537109376,-0.9840850830078125,-0.086700439453125,-0.1392669677734375
1772562079488158500,10.235158447265626,-0.98663330078125,-0.0900115966796875,-0.1372833251953125
1772562079498140700,10.245140625,-0.9854736328125,-0.0905303955078125,-0.1376800537109375
1772562079508123400,10.255123291015625,-0.9861907958984375,-0.090179443359375,-0.1360015869140625
1772562079518105600,10.265105712890625,-0.986785888671875,-0.08935546875,-0.1380767822265625
1772562079528088600,10.275088623046875,-0.9851226806640625,-0.08685302734375,-0.1396636962890625
1772562079538070500,10.285070556640624,-0.9852752685546875,-0.0850067138671875,-0.1420135498046875
1772562079548053500,10.295053466796874,-0.9838714599609375,-0.083770751953125,-0.144012451171875
1772562079558035700,10.30503564453125,-0.981170654296875,-0.0839996337890625,-0.1433563232421875
1772562079568017400,10.315017333984375,-0.982421875,-0.0848846435546875,-0.142608642578125
1772562079578000600,10.325000732421875,-0.982452392578125,-0.0876922607421875,-0.1422271728515625
1772562079587982300,10.334982421875,-0.9824981689453125,-0.088348388671875,-0.1432037353515625
1772562079597965600,10.344965576171875,-0.9808807373046875,-0.0888824462890625,-0.14178466796875
1772562079607947500,10.354947509765625,-0.9817047119140625,-0.0889129638671875,-0.1417694091796875
1772562079617930500,10.364930419921874,-0.9807586669921875,-0.0867767333984375,-0.1422119140625
1772562079627912400,10.374912353515626,-0.98199462890625,-0.086883544921875,-0.1416778564453125
1772562079637895700,10.384895751953126,-0.9813385009765625,-0.0869140625,-0.1417388916015625
1772562079647877400,10.39487744140625,-0.9820556640625,-0.0870361328125,-0.1415252685546875
1772562079657860600,10.404860595703125,-0.98236083984375,-0.0888824462890625,-0.1415557861328125
1772562079667842300,10.41484228515625,-0.986480712890625,-0.0887451171875,-0.141326904296875
1772562079677824500,10.424824462890625,-0.9887542724609375,-0.0903167724609375,-0.1396942138671875
1772562079687807500,10.434807373046874,-0.9906463623046875,-0.0899505615234375,-0.1395416259765625
1772562079697789400,10.44478955078125,-0.991912841796875,-0.0874481201171875,-0.139892578125
1772562079707772000,10.45477197265625,-0.9920196533203125,-0.0855865478515625,-0.1425933837890625
1772562079717753900,10.46475390625,-0.98846435546875,-0.0860443115234375,-0.1428680419921875
1772562079727736800,10.47473681640625,-0.9861602783203125,-0.0838775634765625,-0.1437225341796875
1772562079737718800,10.48471875,-0.9835968017578125,-0.0837554931640625,-0.1441192626953125
1772562079747701800,10.49470166015625,-0.980560302734375,-0.0846710205078125,-0.1439666748046875
1772562079757684000,10.50468408203125,-0.9794158935546875,-0.0876312255859375,-0.1450653076171875
1772562079767667000,10.5146669921875,-0.9795379638671875,-0.090362548828125,-0.1436309814453125
1772562079777649000,10.52464892578125,-0.9728546142578125,-0.08990478515625,-0.1417236328125
1772562079787630800,10.534630859375,-0.9781494140625,-0.087127685546875,-0.145477294921875
1772562079797613800,10.54461376953125,-0.9831695556640625,-0.0848541259765625,-0.14459228515625
1772562079807596000,10.554595947265625,-0.982391357421875,-0.0836029052734375,-0.144073486328125
1772562079817578800,10.564578857421875,-0.98516845703125,-0.082672119140625,-0.14111328125
1772562079827561000,10.57456103515625,-0.988861083984375,-0.0835418701171875,-0.139129638671875
1772562079837544000,10.5845439453125,-0.99029541015625,-0.085540771484375,-0.139984130859375
1772562079847526000,10.59452587890625,-0.9916534423828125,-0.0851898193359375,-0.1409759521484375
1772562079857508900,10.6045087890625,-0.993072509765625,-0.0853118896484375,-0.1392822265625
1772562079867490800,10.61449072265625,-0.9911651611328125,-0.0858154296875,-0.140045166015625
1772562079877473800,10.624473876953125,-0.990081787109375,-0.08746337890625,-0.1438446044921875
1772562079887456000,10.6344560546875,-0.986663818359375,-0.08831787109375,-0.1437835693359375
1772562079897437700,10.644437744140625,-0.98291015625,-0.089263916015625,-0.143341064453125
1772562079907421000,10.6544208984375,-0.9813385009765625,-0.0892333984375,-0.14105224609375
1772562079917403000,10.66440283203125,-0.9811553955078125,-0.088623046875,-0.1416778564453125
1772562079927385900,10.6743857421875,-0.9830474853515625,-0.0877685546875,-0.142303466796875
1772562079937367800,10.684367919921876,-0.986175537109375,-0.0854339599609375,-0.1440887451171875
1772562079947351000,10.69435107421875,-0.9859161376953125,-0.0839385986328125,-0.1452484130859375
1772562079957332700,10.704332763671875,-0.985595703125,-0.0831146240234375,-0.143768310546875
1772562079967316000,10.71431591796875,-0.9864959716796875,-0.083282470703125,-0.143218994140625
1772562079977297700,10.724297607421875,-0.985443115234375,-0.0845489501953125,-0.143402099609375
1772562079987281000,10.734281005859375,-0.988128662109375,-0.0841522216796875,-0.1429290771484375
1772562079997262800,10.744262939453124,-0.9870758056640625,-0.083740234375,-0.1445465087890625
1772562080007244800,10.754244873046876,-0.9833831787109375,-0.0829315185546875,-0.14617919921875
1772562080017227800,10.764227783203125,-0.98077392578125,-0.083343505859375,-0.1468048095703125
1772562080027210000,10.7742099609375,-0.9811248779296875,-0.084014892578125,-0.1454620361328125
1772562080037192700,10.784192626953125,-0.97930908203125,-0.083984375,-0.146575927734375
1772562080047175000,10.7941748046875,-0.97900390625,-0.0850372314453125,-0.14642333984375
1772562080057158000,10.804157958984375,-0.9802398681640625,-0.0855255126953125,-0.1468353271484375
1772562080067139800,10.814139892578124,-0.97943115234375,-0.0847625732421875,-0.1482391357421875
1772562080077122800,10.824122802734376,-0.982818603515625,-0.0856170654296875,-0.148712158203125
1772562080087104800,10.834104736328126,-0.983551025390625,-0.0856781005859375,-0.1476898193359375
1772562080097087000,10.8440869140625,-0.982757568359375,-0.085845947265625,-0.1490631103515625
1772562080107070000,10.854070068359375,-0.984466552734375,-0.08624267578125,-0.1484527587890625
1772562080117052000,10.864052001953125,-0.9837493896484375,-0.087005615234375,-0.1466064453125
1772562080127035000,10.874034912109375,-0.9869537353515625,-0.0867767333984375,-0.146331787109375
1772562080137016800,10.884016845703124,-0.9909515380859375,-0.0867462158203125,-0.146270751953125
1772562080146999800,10.893999755859374,-0.9887542724609375,-0.08575439453125,-0.1471710205078125
1772562080156982000,10.90398193359375,-0.98736572265625,-0.0858306884765625,-0.14617919921875
1772562080166964700,10.91396484375,-0.9866180419921875,-0.0880279541015625,-0.1449432373046875
1772562080176947000,10.923947021484375,-0.9818572998046875,-0.0884857177734375,-0.14666748046875
1772562080186930000,10.933929931640625,-0.9807281494140625,-0.0890350341796875,-0.14617919921875
1772562080196911900,10.943911865234375,-0.984710693359375,-0.090423583984375,-0.1453399658203125
1772562080206893800,10.953893798828124,-0.9832763671875,-0.09136962890625,-0.1428680419921875
1772562080216877000,10.963876953125,-0.980804443359375,-0.08929443359375,-0.14276123046875
1772562080226858800,10.973858642578126,-0.9831085205078125,-0.0892181396484375,-0.1446075439453125
1772562080236842000,10.983842041015626,-0.9830780029296875,-0.08935546875,-0.144989013671875
1772562080246823700,10.99382373046875,-0.9838409423828125,-0.0877838134765625,-0.146240234375
1772562080256807000,11.003806884765625,-0.9858245849609375,-0.0871124267578125,-0.1467742919921875
1772562080266788900,11.013788818359375,-0.9869842529296875,-0.088165283203125,-0.146087646484375
1772562080276771800,11.023771728515625,-0.9883880615234375,-0.0897216796875,-0.1466064453125
1772562080286753800,11.03375390625,-0.9879302978515625,-0.089599609375,-0.145843505859375
1772562080296737000,11.043737060546874,-0.9866790771484375,-0.088623046875,-0.1446380615234375
1772562080306718700,11.05371875,-0.9858856201171875,-0.086517333984375,-0.1451568603515625
1772562080316701000,11.063700927734375,-0.981842041015625,-0.0859222412109375,-0.144134521484375
1772562080326683600,11.07368359375,-0.98199462890625,-0.0847625732421875,-0.1447296142578125
1772562080336665900,11.083665771484375,-0.9791717529296875,-0.085174560546875,-0.142822265625
1772562080346648800,11.09364892578125,-0.9769287109375,-0.086273193359375,-0.144500732421875
1772562080356630800,11.103630859375,-0.9755096435546875,-0.0872039794921875,-0.1467132568359375
1772562080366613800,11.11361376953125,-0.97698974609375,-0.090423583984375,-0.1463165283203125
1772562080376596000,11.123595947265626,-0.977447509765625,-0.09283447265625,-0.1453094482421875
1772562080386578700,11.13357861328125,-0.9784393310546875,-0.0928192138671875,-0.1434173583984375
1772562080396561000,11.143560791015625,-0.9799652099609375,-0.0936126708984375,-0.144287109375
1772562080406544000,11.1535439453125,-0.97918701171875,-0.0932464599609375,-0.14483642578125
1772562080416525800,11.16352587890625,-0.9863128662109375,-0.09130859375,-0.1468048095703125
1772562080426508000,11.173508056640625,-0.980255126953125,-0.086578369140625,-0.14788818359375
1772562080436490800,11.18349072265625,-0.9887847900390625,-0.083526611328125,-0.145172119140625
1772562080446473000,11.193472900390624,-0.9931640625,-0.0847320556640625,-0.145782470703125
1772562080456456000,11.2034560546875,-0.987823486328125,-0.084259033203125,-0.1490631103515625
1772562080466438000,11.21343798828125,-0.98785400390625,-0.08251953125,-0.1488037109375
1772562080476420900,11.2234208984375,-0.9890594482421875,-0.0846405029296875,-0.1470794677734375
1772562080486403000,11.233403076171875,-0.9896240234375,-0.0879974365234375,-0.146240234375
1772562080496385800,11.2433857421875,-0.9893646240234375,-0.0887298583984375,-0.1487579345703125
1772562080506368000,11.253367919921875,-0.9892578125,-0.09197998046875,-0.1471099853515625
1772562080516351000,11.26335107421875,-0.98895263671875,-0.0926361083984375,-0.1483612060546875
1772562080526333000,11.2733330078125,-0.9875030517578125,-0.08892822265625,-0.15069580078125
1772562080536315000,11.28331494140625,-0.9865570068359375,-0.0850982666015625,-0.151763916015625
1772562080546297900,11.2932978515625,-0.985687255859375,-0.0847320556640625,-0.1528167724609375
1772562080556279800,11.30327978515625,-0.98388671875,-0.0847015380859375,-0.1494140625
1772562080566263000,11.313262939453125,-0.9865875244140625,-0.08477783203125,-0.1514434814453125
1772562080576244700,11.32324462890625,-0.9823150634765625,-0.08453369140625,-0.1536407470703125
1772562080586228000,11.33322802734375,-0.9802093505859375,-0.0852508544921875,-0.1524505615234375
1772562080596209700,11.343209716796874,-0.9811859130859375,-0.0876617431640625,-0.1502838134765625
1772562080606193000,11.35319287109375,-0.9797210693359375,-0.0914154052734375,-0.1497039794921875
1772562080616174800,11.3631748046875,-0.981475830078125,-0.092010498046875,-0.14874267578125
1772562080626157800,11.37315771484375,-0.9845733642578125,-0.092498779296875,-0.148773193359375
1772562080636139800,11.383139892578125,-0.98138427734375,-0.0906982421875,-0.14874267578125
1772562080646122000,11.3931220703125,-0.981201171875,-0.089691162109375,-0.147705078125
1772562080656104700,11.403104736328125,-0.9815826416015625,-0.0887298583984375,-0.14715576171875
1772562080666087000,11.4130869140625,-0.98077392578125,-0.088287353515625,-0.1466827392578125
1772562080676070000,11.42306982421875,-0.981964111328125,-0.0868988037109375,-0.147186279296875
1772562080686051800,11.4330517578125,-0.9847259521484375,-0.0869293212890625,-0.1469879150390625
1772562080696034800,11.443034912109376,-0.9853057861328125,-0.0878448486328125,-0.146270751953125
1772562080706016800,11.453016845703125,-0.983367919921875,-0.087310791015625,-0.144317626953125
1772562080715999700,11.462999755859375,-0.9866485595703125,-0.0852203369140625,-0.143798828125
1772562080725982000,11.47298193359375,-0.98541259765625,-0.084197998046875,-0.145965576171875
1772562080735964000,11.4829638671875,-0.98309326171875,-0.085601806640625,-0.145599365234375
1772562080745947000,11.49294677734375,-0.983001708984375,-0.0890350341796875,-0.1452484130859375
1772562080755929000,11.50292919921875,-0.9817352294921875,-0.09124755859375,-0.1443328857421875
1772562080765911800,11.512911865234376,-0.9793243408203125,-0.0921783447265625,-0.1458282470703125
1772562080775894000,11.52289404296875,-0.9785919189453125,-0.09112548828125,-0.1486968994140625
1772562080785877000,11.532876953125,-0.9774017333984375,-0.0893096923828125,-0.150146484375
1772562080795859000,11.54285888671875,-0.978179931640625,-0.08843994140625,-0.14910888671875
1772562080805842000,11.552842041015625,-0.9807586669921875,-0.0873565673828125,-0.1463470458984375
1772562080815824000,11.562823974609374,-0.98309326171875,-0.0852813720703125,-0.1463165283203125
1772562080825806800,11.572806884765624,-0.98297119140625,-0.085205078125,-0.146453857421875
1772562080835789000,11.5827890625,-0.9846649169921875,-0.0853729248046875,-0.1458892822265625
1772562080845770800,11.592770751953125,-0.98870849609375,-0.0850830078125,-0.14593505859375
1772562080855754000,11.60275390625,-0.989990234375,-0.0861358642578125,-0.14569091796875
1772562080865735700,11.612735595703125,-0.9923248291015625,-0.08734130859375,-0.1468963623046875
1772562080875719000,11.622718994140625,-0.9898834228515625,-0.0887451171875,-0.1474456787109375
1772562080885700900,11.632700927734374,-0.985992431640625,-0.088104248046875,-0.147186279296875
1772562080895683800,11.642683837890624,-0.986419677734375,-0.087188720703125,-0.147125244140625
1772562080905665800,11.652665771484376,-0.98529052734375,-0.086761474609375,-0.14794921875
1772562080915649000,11.66264892578125,-0.979339599609375,-0.0848236083984375,-0.1483154296875
1772562080925630700,11.672630615234375,-0.9828033447265625,-0.0848846435546875,-0.1487274169921875
1772562080935614000,11.682614013671875,-0.9849090576171875,-0.084991455078125,-0.1506805419921875
1772562080945596000,11.692595947265625,-0.9828338623046875,-0.0858154296875,-0.149627685546875
1772562080955577900,11.702577880859375,-0.9828033447265625,-0.086273193359375,-0.1485137939453125
1772562080965560800,11.712560791015624,-0.983551025390625,-0.0877685546875,-0.1476898193359375
1772562080975542800,11.722542724609376,-0.9853057861328125,-0.0904998779296875,-0.1473388671875
1772562080985525800,11.73252587890625,-0.9836883544921875,-0.0907440185546875,-0.1472625732421875
1772562080995508000,11.742508056640625,-0.9853973388671875,-0.0893402099609375,-0.145782470703125
1772562081005490700,11.75249072265625,-0.9903717041015625,-0.0885467529296875,-0.14739990234375
1772562081015473000,11.762472900390625,-0.9815216064453125,-0.087310791015625,-0.1490478515625
1772562081025455900,11.772455810546875,-0.9844207763671875,-0.08770751953125,-0.1468658447265625
1772562081035437800,11.782437744140625,-0.9870147705078125,-0.08709716796875,-0.1480255126953125
1772562081045420800,11.7924208984375,-0.982421875,-0.0877227783203125,-0.150054931640625
1772562081055403000,11.802403076171874,-0.9828948974609375,-0.08807373046875,-0.148712158203125
1772562081065385000,11.812385009765626,-0.982391357421875,-0.0880889892578125,-0.145751953125
1772562081075368000,11.822367919921875,-0.982940673828125,-0.088409423828125,-0.1443023681640625
1772562081085350000,11.832349853515625,-0.982818603515625,-0.08514404296875,-0.1450347900390625
1772562081095332900,11.842332763671875,-0.984130859375,-0.084503173828125,-0.1432647705078125
1772562081105315000,11.852315185546875,-0.9882354736328125,-0.08514404296875,-0.14263916015625
1772562081115297800,11.8622978515625,-0.98773193359375,-0.0834808349609375,-0.143951416015625
1772562081125280000,11.872280029296874,-0.9837188720703125,-0.08172607421875,-0.1437225341796875
1772562081135263000,11.882262939453126,-0.987213134765625,-0.0841522216796875,-0.136383056640625
1772562081145245000,11.892244873046875,-0.9869384765625,-0.0914306640625,-0.1488800048828125
1772562081155227000,11.902226806640625,-0.985687255859375,-0.09161376953125,-0.15020751953125
1772562081165209900,11.9122099609375,-0.990478515625,-0.089691162109375,-0.1463470458984375
1772562081175191800,11.92219189453125,-0.9886932373046875,-0.088531494140625,-0.140655517578125
1772562081185175000,11.932175048828125,-0.9831695556640625,-0.087554931640625,-0.1435546875
1772562081195156700,11.94215673828125,-0.982208251953125,-0.08837890625,-0.148681640625
1772562081205140000,11.952139892578124,-0.9839324951171875,-0.090423583984375,-0.1505279541015625
1772562081215122000,11.962121826171876,-0.9772186279296875,-0.0919647216796875,-0.1466064453125
1772562081225105000,11.97210498046875,-0.979888916015625,-0.0908355712890625,-0.1537933349609375
1772562081235086800,11.9820869140625,-0.9801483154296875,-0.089874267578125,-0.1568756103515625
1772562081245067800,11.99206787109375,-0.9795684814453125,-0.09259033203125,-0.1514129638671875
1772562081255050000,12.002050048828124,-0.9821319580078125,-0.092742919921875,-0.1475830078125
1772562081265032700,12.01203271484375,-0.9820556640625,-0.0914764404296875,-0.1474456787109375
1772562081275015000,12.022014892578126,-0.985565185546875,-0.0914154052734375,-0.1461181640625
1772562081284998000,12.031997802734375,-0.986572265625,-0.0903472900390625,-0.146270751953125
1772562081294979800,12.041979736328125,-0.986663818359375,-0.0891876220703125,-0.14678955078125
1772562081304962800,12.051962890625,-0.986602783203125,-0.0883331298828125,-0.1455841064453125
1772562081314945000,12.061945068359375,-0.987213134765625,-0.088958740234375,-0.1456298828125
1772562081324927700,12.071927734375,-0.9876251220703125,-0.0888214111328125,-0.1469879150390625
1772562081334910000,12.081909912109374,-0.988677978515625,-0.091217041015625,-0.146881103515625
1772562081344892000,12.091891845703126,-0.987030029296875,-0.09332275390625,-0.1463775634765625
1772562081354875000,12.101875,-0.98480224609375,-0.092864990234375,-0.1465606689453125
1772562081364856800,12.11185693359375,-0.98272705078125,-0.0935516357421875,-0.147491455078125
1772562081374839800,12.12183984375,-0.9829254150390625,-0.0940093994140625,-0.146881103515625
1772562081384822000,12.131822021484375,-0.9826202392578125,-0.0931854248046875,-0.148193359375
1772562081394805000,12.141804931640625,-0.9800262451171875,-0.0920257568359375,-0.147735595703125
1772562081404787000,12.151786865234374,-0.983856201171875,-0.0881805419921875,-0.1481170654296875
1772562081414770000,12.16177001953125,-0.9795989990234375,-0.0833587646484375,-0.1494140625
1772562081424751900,12.171751953125,-0.977996826171875,-0.0883941650390625,-0.1496734619140625
1772562081434734800,12.18173486328125,-0.982666015625,-0.0923004150390625,-0.1478118896484375
1772562081444717000,12.191717041015625,-0.980804443359375,-0.092987060546875,-0.1485748291015625
1772562081454698800,12.20169873046875,-0.98199462890625,-0.0926055908203125,-0.1480865478515625
1772562081464682000,12.211681884765625,-0.9850006103515625,-0.093780517578125,-0.1489715576171875
1772562081474664000,12.221663818359374,-0.9858856201171875,-0.0939483642578125,-0.150146484375
1772562081484647000,12.23164697265625,-0.9876556396484375,-0.0934906005859375,-0.1497650146484375
1772562081494628900,12.24162890625,-0.9869384765625,-0.092864990234375,-0.1497650146484375
1772562081504612000,12.251612060546876,-0.9867706298828125,-0.0914306640625,-0.149566650390625
1772562081514593800,12.26159375,-0.986724853515625,-0.0894927978515625,-0.148590087890625
1772562081524577000,12.271576904296875,-0.9850616455078125,-0.08612060546875,-0.14825439453125
1772562081534558700,12.281558837890625,-0.985870361328125,-0.0853118896484375,-0.1469879150390625
1772562081544542000,12.2915419921875,-0.9863433837890625,-0.08636474609375,-0.1477813720703125
1772562081554524000,12.30152392578125,-0.9842529296875,-0.0884552001953125,-0.148040771484375
1772562081564505900,12.311505859375,-0.98162841796875,-0.089385986328125,-0.148590087890625
1772562081574488800,12.32148876953125,-0.98284912109375,-0.0894927978515625,-0.14886474609375
1772562081584471000,12.331470947265625,-0.982330322265625,-0.0920562744140625,-0.1495819091796875
1772562081594453800,12.341453857421875,-0.980926513671875,-0.0924835205078125,-0.1500091552734375
1772562081604436000,12.35143603515625,-0.981689453125,-0.090484619140625,-0.1519927978515625
1772562081614419000,12.3614189453125,-0.9825897216796875,-0.091339111328125,-0.151519775390625
1772562081624401000,12.37140087890625,-0.9806671142578125,-0.0906219482421875,-0.1527252197265625
1772562081634384000,12.3813837890625,-0.9830169677734375,-0.0898590087890625,-0.1526031494140625
1772562081644365800,12.39136572265625,-0.988067626953125,-0.0896148681640625,-0.1516876220703125
1772562081654348800,12.401348876953126,-0.98553466796875,-0.0897979736328125,-0.1512298583984375
1772562081664331000,12.4113310546875,-0.985260009765625,-0.0891265869140625,-0.151611328125
1772562081674312700,12.421312744140625,-0.9835052490234375,-0.0887908935546875,-0.1530609130859375
1772562081684296000,12.4312958984375,-0.9810791015625,-0.0892791748046875,-0.1513671875
1772562081694278000,12.44127783203125,-0.978912353515625,-0.0894317626953125,-0.151153564453125
1772562081704260900,12.4512607421875,-0.98394775390625,-0.09033203125,-0.15057373046875
1772562081714243600,12.46124365234375,-0.982818603515625,-0.090545654296875,-0.15167236328125
1772562081724226800,12.471226806640624,-0.98126220703125,-0.0893707275390625,-0.152191162109375
1772562081734208500,12.48120849609375,-0.9818878173828125,-0.0905303955078125,-0.1518707275390625
1772562081744191700,12.491191650390626,-0.9858245849609375,-0.092010498046875,-0.1501007080078125
1772562081754173400,12.50117333984375,-0.9878082275390625,-0.0913543701171875,-0.1500396728515625
1772562081764155600,12.51115576171875,-0.9871063232421875,-0.09130859375,-0.15228271484375
1772562081774138600,12.521138671875,-0.9839935302734375,-0.0915069580078125,-0.154876708984375
1772562081784120600,12.53112060546875,-0.9854736328125,-0.0897369384765625,-0.1535797119140625
1772562081794103600,12.541103515625,-0.98394775390625,-0.0857696533203125,-0.1529998779296875
1772562081804085800,12.551085693359376,-0.9810638427734375,-0.0863037109375,-0.1536712646484375
1772562081814068500,12.561068359375,-0.9825286865234375,-0.088714599609375,-0.1545562744140625
1772562081824050700,12.57105078125,-0.9827880859375,-0.08953857421875,-0.1542510986328125
1772562081834033700,12.58103369140625,-0.9790802001953125,-0.089752197265625,-0.1535797119140625
1772562081844015600,12.591015625,-0.9777069091796875,-0.091766357421875,-0.1518707275390625
1772562081853998600,12.60099853515625,-0.9831085205078125,-0.0938720703125,-0.1517181396484375
1772562081863980500,12.61098046875,-0.979736328125,-0.0949859619140625,-0.1538543701171875
1772562081873962800,12.620962646484376,-0.97802734375,-0.0937042236328125,-0.1523590087890625
1772562081883945700,12.63094580078125,-0.98114013671875,-0.094940185546875,-0.15362548828125
1772562081893927700,12.640927734375,-0.980621337890625,-0.0962982177734375,-0.155487060546875
1772562081903910700,12.65091064453125,-0.981689453125,-0.095733642578125,-0.154510498046875
1772562081913892900,12.660892822265625,-0.983306884765625,-0.0932769775390625,-0.1548309326171875
1772562081923875600,12.67087548828125,-0.9834442138671875,-0.091644287109375,-0.1549530029296875
1772562081933857800,12.68085791015625,-0.982391357421875,-0.0917816162109375,-0.15380859375
1772562081943840800,12.6908408203125,-0.9836273193359375,-0.0932159423828125,-0.152923583984375
1772562081953822700,12.70082275390625,-0.9861297607421875,-0.0946197509765625,-0.152618408203125
1772562081963805700,12.7108056640625,-0.9849700927734375,-0.094573974609375,-0.1529388427734375
1772562081973787600,12.72078759765625,-0.9823150634765625,-0.0937957763671875,-0.1533966064453125
1772562081983769600,12.73076953125,-0.983642578125,-0.095184326171875,-0.1542510986328125
1772562081993752800,12.7407529296875,-0.985748291015625,-0.0967864990234375,-0.154541015625
1772562082003734500,12.750734619140625,-0.98150634765625,-0.0968017578125,-0.1551666259765625
1772562082013717800,12.7607177734375,-0.9813690185546875,-0.0931396484375,-0.154449462890625
1772562082023699500,12.770699462890626,-0.9818115234375,-0.092529296875,-0.1544342041015625
