time,seconds_elapsed,z,y,x
1772562069331012900,0.078012939453125,0.04081444442272186,-0.06045202165842056,-0.041760846972465515
1772562069340994800,0.087994873046875,0.03908038139343262,-0.01900894194841385,-0.03766053169965744
1772562069350977000,0.09797705078125,0.034737031906843185,0.010493291541934013,-0.03145004063844681
1772562069360959700,0.107959716796875,0.03087272122502327,0.02927638217806816,-0.025337839499115944
1772562069370942000,0.11794189453125,0.024240916594862938,0.04021185636520386,-0.025025716051459312
1772562069380925000,0.127925048828125,0.018448106944561005,0.03268444165587425,-0.027870744466781616
1772562069390907000,0.137906982421875,0.015521292574703693,0.017992312088608742,-0.029203657060861588
1772562069400889900,0.147889892578125,0.010203160345554352,0.005253695882856846,-0.03342478349804878
1772562069410872000,0.1578720703125,0.008430561050772667,-0.00786556862294674,-0.04146087169647217
1772562069420854800,0.167854736328125,0.0026963395066559315,-0.020274022594094276,-0.04894086346030235
1772562069430837000,0.1778369140625,-0.0013396809808909893,-0.024520166218280792,-0.04957230016589165
1772562069440820000,0.187820068359375,0.001675338251516223,-0.020078083500266075,-0.04044797271490097
1772562069450802000,0.197802001953125,0.0032740337774157524,-0.002850891789421439,-0.029927421361207962
1772562069460783900,0.207783935546875,0.008494258858263493,0.015020178630948067,-0.02161751314997673
1772562069470766800,0.217766845703125,0.01290365494787693,0.02767099253833294,-0.013076221570372581
1772562069480748800,0.227748779296875,0.013073522597551346,0.03962710127234459,-0.010277975350618362
1772562069490732000,0.23773193359375,0.00972885824739933,0.04710472747683525,-0.010435634292662144
1772562069500713700,0.247713623046875,0.011741521768271923,0.05544028431177139,-0.021487608551979065
1772562069510697000,0.257697021484375,0.009808066301047802,0.061223603785037994,-0.03270617127418518
1772562069520679000,0.267678955078125,0.007488301955163479,0.06674705445766449,-0.033827465027570724
1772562069530662000,0.277661865234375,0.0007148180156946182,0.07372613251209259,-0.030578941106796265
1772562069540643800,0.287643798828125,-0.006888813339173794,0.07720328122377396,-0.026567090302705765
1772562069550625800,0.297625732421875,-0.0014817977789789438,0.08346010744571686,-0.02245037443935871
1772562069560608800,0.30760888671875,0.0038523694965988398,0.08909520506858826,-0.015810489654541016
1772562069570591000,0.317591064453125,0.01638573780655861,0.08487676084041595,-0.009960856288671494
1772562069580573700,0.32757373046875,0.019616102799773216,0.06869444996118546,-0.005915928166359663
1772562069590556000,0.337555908203125,0.02661915123462677,0.05668652430176735,0.0013638229575008154
1772562069600539000,0.347538818359375,0.04146137461066246,0.0587482787668705,0.003652057144790888
1772562069610520800,0.357520751953125,0.05860920250415802,0.08322272449731827,-0.01187523640692234
1772562069620503800,0.36750390625,0.06395263224840164,0.12824897468090057,-0.051758453249931335
1772562069630485800,0.37748583984375,0.06957430392503738,0.18259556591510773,-0.11564768850803375
1772562069640468700,0.38746875,0.06941094249486923,0.2536023259162903,-0.19735363125801086
1772562069650451000,0.397450927734375,0.036431148648262024,0.35694894194602966,-0.3017524778842926
1772562069660433000,0.407432861328125,0.006316673010587692,0.5286586880683899,-0.4091331362724304
1772562069670416000,0.417415771484375,-0.010821035131812096,0.7435150742530823,-0.5048945546150208
1772562069680398000,0.427398193359375,-0.019985884428024292,0.921977698802948,-0.5730308890342712
1772562069690380800,0.437380859375,0.0028350097127258778,1.0332403182983398,-0.6200798749923706
1772562069700362800,0.44736279296875,0.03715747967362404,1.0750157833099365,-0.6281537413597107
1772562069710345700,0.457345703125,0.05096650496125221,1.0750850439071655,-0.5766745805740356
1772562069720328000,0.467327880859375,0.011902322992682457,1.0568267107009888,-0.4948669373989105
1772562069730310700,0.477310546875,-0.10820917040109634,0.873292863368988,-0.47272223234176636
1772562069740292900,0.48729296875,-0.2227645367383957,0.7588955760002136,-0.5155349373817444
1772562069750275800,0.49727587890625,-0.2769007682800293,0.8070436716079712,-0.5861348509788513
1772562069760257800,0.5072578125,-0.2551293969154358,0.93525230884552,-0.7594394087791443
1772562069770239700,0.51723974609375,-0.13574440777301788,1.0246132612228394,-1.015030860900879
1772562069780222700,0.52722265625,0.009542828425765038,1.0390303134918213,-1.1970741748809814
1772562069790204700,0.53720458984375,0.0958140641450882,1.0609838962554932,-1.2748507261276245
1772562069800188000,0.54718798828125,0.11139561235904694,0.9752834439277649,-1.2781147956848145
1772562069810169600,0.557169677734375,0.05816381424665451,0.7725585699081421,-1.2210265398025513
1772562069820152800,0.56715283203125,-0.023118149489164352,0.5689388513565063,-1.1060208082199097
1772562069830134800,0.577134765625,-0.08071193844079971,0.3691844344139099,-0.9389495253562927
1772562069840117800,0.58711767578125,-0.09483826160430908,0.1731799989938736,-0.720780074596405
1772562069850099700,0.597099609375,-0.07228794693946838,-0.00001308252103626728,-0.4736722707748413
1772562069860083000,0.6070830078125,-0.019220145419239998,-0.09251359850168228,-0.19797347486019135
1772562069870064600,0.617064697265625,0.06001581996679306,-0.11667273193597794,0.08868730068206787
1772562069880046800,0.627046875,0.16178573668003082,-0.10117989778518677,0.37364551424980164
1772562069890029600,0.637029541015625,0.27555570006370544,-0.0909818559885025,0.626585066318512
1772562069900011800,0.64701171875,0.3967002034187317,-0.14126460254192352,0.8388020992279053
1772562069909994800,0.656994873046875,0.5046788454055786,-0.24791169166564941,0.9971252083778381
1772562069919976700,0.666976806640625,0.5843693614006042,-0.4146499037742615,1.0981074571609497
1772562069929959700,0.676959716796875,0.6265748739242554,-0.5963085889816284,1.1285938024520874
1772562069939941600,0.686941650390625,0.590238094329834,-0.7162281274795532,1.0534248352050781
1772562069949924600,0.696924560546875,0.4830184280872345,-0.8683097958564758,0.8878620266914368
1772562069959906800,0.70690673828125,0.3345763683319092,-1.0562779903411865,0.6711487770080566
1772562069969889500,0.7168896484375,0.15462417900562286,-1.2100955247879028,0.40057456493377686
1772562069979871700,0.726871826171875,-0.033534083515405655,-1.3152053356170654,0.11880345642566681
1772562069989854000,0.73685400390625,-0.22028131783008575,-1.3672267198562622,-0.14130587875843048
1772562069999836700,0.746836669921875,-0.38607513904571533,-1.332686424255371,-0.34944844245910645
1772562070009819000,0.75681884765625,-0.5034504532814026,-1.2548688650131226,-0.504817008972168
1772562070019801900,0.7668017578125,-0.5617520213127136,-1.1831278800964355,-0.6003727912902832
1772562070029783800,0.77678369140625,-0.5797062516212463,-1.1450932025909424,-0.6465528011322021
1772562070039766800,0.786766845703125,-0.5745066404342651,-1.1528693437576294,-0.6505692005157471
1772562070049748700,0.796748779296875,-0.5751274228096008,-1.1949433088302612,-0.6184564828872681
1772562070059731700,0.806731689453125,-0.586986243724823,-1.2897875308990479,-0.5713537335395813
1772562070069714000,0.8167138671875,-0.6215596199035645,-1.3959217071533203,-0.5193485617637634
1772562070079695600,0.826695556640625,-0.6814185380935669,-1.4738805294036865,-0.4715050458908081
1772562070089678800,0.836678955078125,-0.7610055208206177,-1.4877170324325562,-0.441325306892395
1772562070099660500,0.84666064453125,-0.8464475870132446,-1.440673828125,-0.4336976110935211
1772562070109643800,0.856643798828125,-0.9177451729774475,-1.3473271131515503,-0.4402939975261688
1772562070119625700,0.866625732421875,-0.9543752074241638,-1.2320945262908936,-0.461302787065506
1772562070129609000,0.87660888671875,-0.9582804441452026,-1.12057626247406,-0.49354541301727295
1772562070139590700,0.886590576171875,-0.9239315986633301,-1.0234230756759644,-0.5295534133911133
1772562070149574000,0.896573974609375,-0.8619798421859741,-0.927232027053833,-0.5682305097579956
1772562070159555600,0.9065556640625,-0.7936500906944275,-0.8453329205513,-0.6175346970558167
1772562070169538800,0.916538818359375,-0.7204485535621643,-0.7808542847633362,-0.6616110801696777
1772562070179520800,0.926520751953125,-0.6338351964950562,-0.73844313621521,-0.6977958083152771
1772562070189502700,0.936502685546875,-0.5458438396453857,-0.7107015252113342,-0.7091957330703735
1772562070199485700,0.946485595703125,-0.4545366168022156,-0.704231858253479,-0.6925637722015381
1772562070209467600,0.956467529296875,-0.3702411949634552,-0.663803219795227,-0.6270686388015747
1772562070219450600,0.96645068359375,-0.30244219303131104,-0.5941357016563416,-0.5208583474159241
1772562070229432800,0.976432861328125,-0.2551220953464508,-0.5024087429046631,-0.40560558438301086
1772562070239415600,0.98641552734375,-0.225383460521698,-0.38884463906288147,-0.30355459451675415
1772562070249397800,0.996397705078125,-0.22062091529369354,-0.2855001389980316,-0.2242714911699295
1772562070259380700,1.006380615234375,-0.22447016835212708,-0.21581611037254333,-0.19054733216762543
1772562070269362700,1.01636279296875,-0.21574218571186066,-0.17195171117782593,-0.19449812173843384
1772562070279345700,1.026345703125,-0.1820755898952484,-0.15070053935050964,-0.23702308535575867
1772562070289327900,1.036327880859375,-0.12320961058139801,-0.14073285460472107,-0.30610334873199463
1772562070299309800,1.046309814453125,-0.05068469047546387,-0.14371848106384277,-0.38809844851493835
1772562070309292800,1.056292724609375,0.012079890817403793,-0.15645025670528412,-0.4546319246292114
1772562070319274800,1.066274658203125,0.06134925037622452,-0.16332070529460907,-0.48821479082107544
1772562070329257700,1.0762578125,0.09239664673805237,-0.16685259342193604,-0.49050137400627136
1772562070339240000,1.086239990234375,0.10443395376205444,-0.18211966753005981,-0.4631918966770172
1772562070349222700,1.09622265625,0.10619377344846725,-0.1964631825685501,-0.41821804642677307
1772562070359204900,1.106204833984375,0.100875623524189,-0.21081972122192383,-0.3755660653114319
1772562070369187800,1.116187744140625,0.08576591312885284,-0.23553118109703064,-0.33845385909080505
1772562070379169800,1.126169677734375,0.07056595385074615,-0.2365894913673401,-0.30001798272132874
1772562070389152800,1.13615283203125,0.04458441585302353,-0.2162240445613861,-0.2956099212169647
1772562070399134700,1.146134765625,0.00937821064144373,-0.18474127352237701,-0.31113359332084656
1772562070409116700,1.15611669921875,-0.020026016980409622,-0.12365340441465378,-0.3303355276584625
1772562070419100000,1.166099853515625,-0.04077332094311714,-0.034092701971530914,-0.3559076488018036
1772562070429081600,1.17608154296875,-0.04998918995261192,0.07355120033025742,-0.37108153104782104
1772562070439064800,1.18606494140625,-0.042668573558330536,0.17663750052452087,-0.38181212544441223
1772562070449046800,1.196046875,-0.030308309942483902,0.25972840189933777,-0.38394826650619507
1772562070459029800,1.20602978515625,-0.011850524693727493,0.28301700949668884,-0.37755435705184937
1772562070469011700,1.21601171875,0.005178792402148247,0.25595343112945557,-0.3546828627586365
1772562070478995000,1.225994873046875,0.015535010024905205,0.1949147880077362,-0.3140450417995453
1772562070488976600,1.2359765625,0.021059205755591393,0.14612407982349396,-0.2750222682952881
1772562070498960000,1.2459599609375,0.013575981371104717,0.1277596652507782,-0.25251609086990356
1772562070508941600,1.255941650390625,0.009571385569870472,0.1379110962152481,-0.24863238632678986
1772562070518923800,1.265923828125,0.013437635265290737,0.16424885392189026,-0.25427937507629395
1772562070528906800,1.27590673828125,0.02811351604759693,0.19515511393547058,-0.25503304600715637
1772562070538888700,1.285888671875,0.04940573871135712,0.22577689588069916,-0.2404039204120636
1772562070548871700,1.29587158203125,0.06983271986246109,0.24612504243850708,-0.21686743199825287
1772562070558854000,1.30585400390625,0.08315165340900421,0.2552051544189453,-0.1995646208524704
1772562070568836600,1.315836669921875,0.08751470595598221,0.26178503036499023,-0.1862458884716034
1772562070578818800,1.32581884765625,0.08740348368883133,0.2830362915992737,-0.17649737000465393
1772562070588801800,1.3358017578125,0.08370169252157211,0.3023630976676941,-0.16227449476718903
1772562070598783700,1.34578369140625,0.06643328815698624,0.33313292264938354,-0.14386004209518433
1772562070608766000,1.355765869140625,0.033807169646024704,0.351292222738266,-0.11741431057453156
1772562070618748700,1.365748779296875,-0.0016157305799424648,0.35441234707832336,-0.08529611676931381
1772562070628731000,1.37573095703125,-0.02519109658896923,0.35401421785354614,-0.05080445483326912
1772562070638713900,1.3857138671875,-0.05248555541038513,0.3374296724796295,-0.016663124784827232
1772562070648695800,1.39569580078125,-0.07515943795442581,0.29499033093452454,0.004995033610612154
1772562070658678800,1.4056787109375,-0.10006938874721527,0.24290266633033752,0.01906110718846321
1772562070668660700,1.41566064453125,-0.12928159534931183,0.19812746345996857,0.024971727281808853
1772562070678643700,1.425643798828125,-0.1524381786584854,0.15440206229686737,0.03461678326129913
1772562070688626000,1.4356259765625,-0.16418565809726715,0.13022960722446442,0.04869025573134422
1772562070698609000,1.44560888671875,-0.15738193690776825,0.14132390916347504,0.08041520416736603
1772562070708591000,1.455591064453125,-0.12344048917293549,0.154812291264534,0.09906665235757828
1772562070718572800,1.46557275390625,-0.07975146174430847,0.14824184775352478,0.11258675903081894
1772562070728556000,1.47555615234375,-0.03334934264421463,0.11897289752960205,0.12859955430030823
1772562070738537700,1.485537841796875,-0.0008842481765896082,0.08344021439552307,0.1377033293247223
1772562070748521000,1.49552099609375,0.012994815595448017,0.059756189584732056,0.14681319892406464
1772562070758503000,1.5055029296875,0.014551262371242046,0.04055960103869438,0.15900729596614838
1772562070768486000,1.51548583984375,0.015402675606310368,0.04187413677573204,0.17144159972667694
1772562070778467800,1.5254677734375,0.023125287145376205,0.054518330842256546,0.1798674315214157
1772562070788451000,1.535451171875,0.035937219858169556,0.06379438191652298,0.18714317679405212
1772562070798432800,1.545432861328125,0.043506424874067307,0.0683269277215004,0.18981598317623138
1772562070808416000,1.555416015625,0.037478093057870865,0.05696135386824608,0.1887749582529068
1772562070818397700,1.565397705078125,0.020874546840786934,0.030540412291884422,0.17950770258903503
1772562070828380000,1.5753798828125,-0.005635889247059822,-0.005362194962799549,0.1638733446598053
1772562070838363000,1.58536279296875,-0.03528625890612602,-0.04616546258330345,0.1537240892648697
1772562070848344800,1.5953447265625,-0.050898242741823196,-0.06967344880104065,0.14452658593654633
1772562070858327800,1.605327880859375,-0.05346601456403732,-0.06725116819143295,0.14058151841163635
1772562070868310000,1.61531005859375,-0.03803059831261635,-0.052818961441516876,0.13163116574287415
1772562070878292700,1.625292724609375,-0.00815275777131319,-0.040077731013298035,0.11592026054859161
1772562070888275000,1.63527490234375,0.009382026270031929,-0.03060193732380867,0.09546531736850739
1772562070898258000,1.6452578125,0.01815439760684967,-0.031074678525328636,0.0753498524427414
1772562070908240000,1.655239990234375,0.01568564772605896,-0.04717561602592468,0.06464660912752151
1772562070918221800,1.665221923828125,0.01433402206748724,-0.07940331101417542,0.05734161287546158
1772562070928204800,1.675204833984375,0.013515366241335869,-0.10780619084835052,0.061834633350372314
1772562070938187000,1.68518701171875,0.018750254064798355,-0.12295719981193542,0.06995665282011032
1772562070948170000,1.695169921875,0.022971361875534058,-0.13876226544380188,0.07126506417989731
1772562070958152000,1.70515185546875,0.02780357375741005,-0.16508442163467407,0.07661773264408112
1772562070968135000,1.715135009765625,0.0328151099383831,-0.1989622265100479,0.07456443458795547
1772562070978116900,1.725116943359375,0.026831839233636856,-0.2313423454761505,0.06887625902891159
1772562070988099800,1.735099853515625,0.019321460276842117,-0.25920724868774414,0.07222571969032288
1772562070998082000,1.74508203125,0.006718196906149387,-0.27329471707344055,0.07560038566589355
1772562071008065000,1.75506494140625,-0.0017503888811916113,-0.27927058935165405,0.07999380677938461
1772562071018047000,1.765046875,-0.008533726446330547,-0.2752537429332733,0.08643918484449387
1772562071028029000,1.77502880859375,-0.007936378940939903,-0.2551079988479614,0.09443160146474838
1772562071038012000,1.785011962890625,0.00031223311088979244,-0.2444845736026764,0.0988030955195427
1772562071047993900,1.794993896484375,0.014587309211492538,-0.24074949324131012,0.09446267783641815
1772562071057977000,1.80497705078125,0.02637612447142601,-0.2506368160247803,0.0907670259475708
1772562071067958800,1.814958740234375,0.03023344650864601,-0.25360146164894104,0.07773830741643906
1772562071077942000,1.82494189453125,0.020417392253875732,-0.24622614681720734,0.07171513885259628
1772562071087923700,1.834923828125,0.0020860552322119474,-0.23349010944366455,0.0677129402756691
1772562071097907000,1.844906982421875,-0.025227298960089684,-0.21649102866649628,0.06886322796344757
1772562071107889000,1.854888916015625,-0.050584323704242706,-0.19147995114326477,0.07486759126186371
1772562071117870800,1.864870849609375,-0.0765351951122284,-0.16456642746925354,0.08913220465183258
1772562071127853800,1.874853759765625,-0.09551288187503815,-0.13169343769550323,0.10363791882991791
1772562071137836000,1.8848359375,-0.10634683817625046,-0.09966778755187988,0.11598029732704163
1772562071147818800,1.89481884765625,-0.11240313202142715,-0.07322206348180771,0.1227274164557457
1772562071157801000,1.904801025390625,-0.1095707044005394,-0.05910070985555649,0.12426655739545822
1772562071167784000,1.914783935546875,-0.10708331316709518,-0.04834100604057312,0.1258535236120224
1772562071177766000,1.924765869140625,-0.09434860944747925,-0.04720143973827362,0.12180739641189575
1772562071187748900,1.934748779296875,-0.09100904315710068,-0.04820234701037407,0.11673326045274734
1772562071197730800,1.944730712890625,-0.08631174266338348,-0.06973496079444885,0.10722557455301285
1772562071207713800,1.9547138671875,-0.08457722514867783,-0.10972072929143906,0.0975622907280922
1772562071217696000,1.964696044921875,-0.08460453897714615,-0.15930531919002533,0.0889754369854927
1772562071227678700,1.9746787109375,-0.08664985001087189,-0.21633557975292206,0.08710537105798721
1772562071237661000,1.984660888671875,-0.08556145429611206,-0.26204997301101685,0.08755870163440704
1772562071247643000,1.994642822265625,-0.08702673017978668,-0.28919318318367004,0.08982505649328232
1772562071257625900,2.0046259765625,-0.0849570631980896,-0.3039432466030121,0.08112886548042297
1772562071267607800,2.01460791015625,-0.07533026486635208,-0.3121737241744995,0.06928019225597382
1772562071277591000,2.024591064453125,-0.06227441504597664,-0.3271300792694092,0.049141280353069305
1772562071287572700,2.03457275390625,-0.048942096531391144,-0.33062493801116943,0.031559091061353683
1772562071297556000,2.044555908203125,-0.03973544389009476,-0.33151310682296753,0.009216474369168282
1772562071307538000,2.054537841796875,-0.040619879961013794,-0.3060053586959839,-0.011461904272437096
1772562071317521000,2.06452099609375,-0.0441875085234642,-0.2689491808414459,-0.015451948158442974
1772562071327502800,2.0745029296875,-0.05067869648337364,-0.21179403364658356,-0.016163542866706848
1772562071337485800,2.08448583984375,-0.0591464601457119,-0.14465811848640442,-0.014858776703476906
1772562071347467800,2.0944677734375,-0.06310658156871796,-0.08427998423576355,-0.013586051762104034
1772562071357449700,2.10444970703125,-0.058866940438747406,-0.022285381332039833,-0.007474262733012438
1772562071367433000,2.114432861328125,-0.05107639357447624,0.02671518363058567,-0.003135440405458212
1772562071377415000,2.124414794921875,-0.04101424291729927,0.05229540169239044,-0.00122749712318182
1772562071387398000,2.13439794921875,-0.04160413518548012,0.05533353611826897,0.0008385828696191311
1772562071397379800,2.1443798828125,-0.047374799847602844,0.030739404261112213,0.002824732568114996
1772562071407362800,2.15436279296875,-0.04776761680841446,-0.00159722869284451,0.01615465246140957
1772562071417344800,2.1643447265625,-0.045861344784498215,-0.03246171399950981,0.0343063548207283
1772562071427327700,2.17432763671875,-0.036897141486406326,-0.06358873844146729,0.048645347356796265
1772562071437310000,2.18431005859375,-0.02840157225728035,-0.07613939791917801,0.057319607585668564
1772562071447293000,2.19429296875,-0.01539975218474865,-0.0644417256116867,0.06674986332654953
1772562071457275000,2.20427490234375,-0.005928242579102516,-0.034119345247745514,0.06528079509735107
1772562071467256800,2.2142568359375,0.0068006012588739395,0.0027696953620761633,0.0535716786980629
1772562071477239800,2.22423974609375,0.018418891355395317,0.02186664380133152,0.04102538898587227
1772562071487222000,2.234221923828125,0.0310774277895689,0.032733406871557236,0.028722651302814484
1772562071497204700,2.244204833984375,0.038695625960826874,0.027596358209848404,0.018245551735162735
1772562071507187000,2.25418701171875,0.044835008680820465,0.023138757795095444,0.017474833875894547
1772562071517170000,2.264169921875,0.04786359891295433,0.020577408373355865,0.01973395049571991
1772562071527151900,2.27415185546875,0.04929637908935547,0.018665257841348648,0.023241067305207253
1772562071537134800,2.284134765625,0.053768813610076904,0.008631301112473011,0.01802164688706398
1772562071547117000,2.294116943359375,0.050625480711460114,-0.011117102578282356,0.006480572745203972
1772562071557098800,2.3040986328125,0.05489958077669144,-0.02541986107826233,0.0008427123539149761
1772562071567082000,2.31408203125,0.053793035447597504,-0.040921587496995926,-0.005087614990770817
1772562071577063700,2.324063720703125,0.05253966525197029,-0.0626402273774147,-0.01640959084033966
1772562071587047000,2.334046875,0.04188701882958412,-0.08143069595098495,-0.024180961772799492
1772562071597028900,2.34402880859375,0.03521446883678436,-0.07182200998067856,-0.02706276997923851
1772562071607011800,2.35401171875,0.0348442904651165,-0.039051275700330734,-0.0232565775513649
1772562071616993800,2.363993896484375,0.04071122035384178,-0.021729324012994766,-0.018530670553445816
1772562071626977000,2.37397705078125,0.046745412051677704,-0.009801026433706284,-0.013570534065365791
1772562071636958700,2.383958740234375,0.0445508137345314,-0.0048858392983675,-0.011371660977602005
1772562071646942000,2.39394189453125,0.045233383774757385,-0.012064921669661999,-0.007087965961545706
1772562071656923600,2.403923583984375,0.04465409368276596,-0.02898971550166607,-0.011747047305107117
1772562071666905900,2.41390576171875,0.04448152333498001,-0.052010081708431244,-0.019193246960639954
1772562071676888800,2.423888916015625,0.044220563024282455,-0.06980042904615402,-0.026837307959794998
1772562071686870800,2.433870849609375,0.04057656228542328,-0.08730592578649521,-0.030774258077144623
1772562071696854800,2.443854736328125,0.03897503763437271,-0.08501952886581421,-0.03106805309653282
1772562071706837000,2.4538369140625,0.038344401866197586,-0.08094915747642517,-0.03821224719285965
1772562071716819700,2.46381982421875,0.0360507033765316,-0.07007443904876709,-0.03555478900671005
1772562071726802000,2.473802001953125,0.03590476140379906,-0.052541784942150116,-0.033711615949869156
1772562071736785000,2.483784912109375,0.03467186540365219,-0.03734217584133148,-0.023749353364109993
1772562071746766800,2.493766845703125,0.033486492931842804,-0.02643253654241562,-0.01813381351530552
1772562071756749800,2.503749755859375,0.033694539219141006,-0.018320616334676743,-0.012258274480700493
1772562071766732000,2.51373193359375,0.0387183278799057,-0.0038098504301160574,-0.0042586722411215305
1772562071776713700,2.523713623046875,0.04173500835895538,0.016007650643587112,0.0007180655375123024
1772562071786697000,2.533697021484375,0.046809662133455276,0.03884825110435486,0.0011343176010996103
1772562071796678700,2.5436787109375,0.05635783076286316,0.06411393731832504,0.00295778876170516
1772562071806662000,2.553661865234375,0.06113527715206146,0.075101338326931,0.0046960338950157166
1772562071816643800,2.563643798828125,0.06895296275615692,0.0780334398150444,0.011231880635023117
1772562071826626800,2.573626708984375,0.06819555908441544,0.06861969828605652,0.010932007804512978
1772562071836608800,2.58360888671875,0.059476789087057114,0.05235998332500458,0.005495530553162098
1772562071846592000,2.593592041015625,0.05167452618479729,0.02618883177638054,0.000690921675413847
1772562071856573700,2.60357373046875,0.04470345005393028,0.0005298532778397202,-0.004756702575832605
1772562071866556000,2.613555908203125,0.03783036395907402,-0.026303360238671303,-0.011598363518714905
1772562071876539000,2.623538818359375,0.03276091814041138,-0.05288156121969223,-0.010702298954129219
1772562071886520800,2.633520751953125,0.03109697625041008,-0.0769709125161171,-0.003281134646385908
1772562071896503800,2.64350390625,0.029195638373494148,-0.09758545458316803,0.0014369687996804714
1772562071906485800,2.65348583984375,0.02697136625647545,-0.10688281804323196,-0.005746108945459127
1772562071916468700,2.66346875,0.021809233352541924,-0.11343216150999069,-0.014812879264354706
1772562071926451000,2.673450927734375,0.014545993879437447,-0.11292935162782669,-0.02734997496008873
1772562071936434000,2.683433837890625,0.013474340550601482,-0.10765703022480011,-0.03254641592502594
1772562071946415900,2.693415771484375,0.012600557878613472,-0.09676896780729294,-0.020709196105599403
1772562071956398800,2.70339892578125,0.013588950969278812,-0.07731036841869354,-0.004879526328295469
1772562071966380800,2.713380859375,0.014886708930134773,-0.06459643691778183,0.011266953311860561
1772562071976363000,2.723363037109375,0.014834686182439327,-0.049329888075590134,0.026077773422002792
1772562071986345700,2.733345703125,0.02028830721974373,-0.035910218954086304,0.0362451896071434
1772562071996328000,2.743327880859375,0.022659694775938988,-0.02602369710803032,0.03850430250167847
1772562072006311000,2.753310791015625,0.026840589940547943,-0.014834956265985966,0.030306294560432434
1772562072016292900,2.76329296875,0.02937549166381359,-0.0020530452020466328,0.019803008064627647
1772562072026275800,2.77327587890625,0.025679023936390877,0.01145770400762558,0.0018421171698719263
1772562072036258000,2.783258056640625,0.018375683575868607,0.013806401751935482,-0.009389597922563553
1772562072046240800,2.79324072265625,0.015967387706041336,0.0092196399345994,-0.018296007066965103
1772562072056223000,2.803222900390625,0.017741557210683823,-0.0013337712734937668,-0.011338832788169384
1772562072066206000,2.8132060546875,0.02302633598446846,-0.009015126153826714,0.00009544938802719116
1772562072076188000,2.82318798828125,0.029667986556887627,-0.011846588924527168,0.011798767372965813
1772562072086169900,2.833169921875,0.032607316970825195,-0.013646619394421577,0.020373348146677017
1772562072096152800,2.84315283203125,0.03520970046520233,-0.003855970688164234,0.022750411182641983
1772562072106134800,2.853134765625,0.029957948252558708,0.010559985414147377,0.01881532371044159
1772562072116118000,2.863117919921875,0.028887763619422913,0.025589164346456528,0.009622322395443916
1772562072126099700,2.873099609375,0.023295924067497253,0.0332404263317585,0.0030879902187734842
1772562072136083000,2.8830830078125,0.019618749618530273,0.04242658242583275,0.003040144918486476
1772562072146065000,2.89306494140625,0.017087683081626892,0.048181407153606415,0.007603204809129238
1772562072156048000,2.9030478515625,0.013327273540198803,0.04332050308585167,0.007990896701812744
1772562072166029800,2.91302978515625,0.010061439126729965,0.024059191346168518,0.007619119714945555
1772562072176013000,2.923012939453125,0.0070219263434410095,-0.008156143128871918,0.0067156292498111725
1772562072185994800,2.932994873046875,0.006367054767906666,-0.03337761014699936,0.006789665203541517
1772562072195977000,2.94297705078125,-0.0008946286980062723,-0.05363529175519943,0.004418962635099888
1772562072205959700,2.952959716796875,-0.006527747493237257,-0.053443543612957,-0.002330552786588669
1772562072215942000,2.96294189453125,-0.014462803490459919,-0.035505540668964386,-0.018404832109808922
1772562072225924900,2.9729248046875,-0.012621227651834488,-0.01741735450923443,-0.02869608625769615
1772562072235906800,2.98290673828125,-0.007624338380992413,-0.003999549429863691,-0.03432973474264145
1772562072245889800,2.992889892578125,-0.004279940389096737,0.0019795135594904423,-0.02646302431821823
1772562072255871700,3.002871826171875,0.0012449714122340083,-0.00478834193199873,-0.018027352169156075
1772562072265854700,3.012854736328125,0.0006867728661745787,-0.01010853797197342,-0.005235124845057726
1772562072275837000,3.0228369140625,0.0027645165100693703,-0.014684847556054592,0.006262203212827444
1772562072285819600,3.032819580078125,0.0035647964105010033,-0.009796882048249245,0.006715739145874977
1772562072295801900,3.0428017578125,0.004738555755466223,0.0007583620026707649,0.011383946985006332
1772562072305784000,3.0527841796875,0.004737223964184523,0.0021642446517944336,0.0013877716846764088
1772562072315766800,3.062766845703125,0.004200056195259094,0.0013708296464756131,-0.007404313888400793
1772562072325749000,3.0727490234375,0.005049338564276695,-0.00022520276252180338,-0.005756083410233259
1772562072335732000,3.08273193359375,0.003914905246347189,-0.005541161168366671,-0.009428104385733604
1772562072345714000,3.0927138671875,-0.00033736415207386017,-0.01434397418051958,-0.005938032176345587
1772562072355697000,3.10269677734375,-0.003308364422991872,-0.01849021390080452,-0.005132343620061874
1772562072365678800,3.112678955078125,-0.0031544335652142763,-0.017909910529851913,-0.00414457730948925
1772562072375661800,3.122661865234375,0.00017658458091318607,-0.011157652363181114,-0.008629358373582363
1772562072385644000,3.13264404296875,0.00677989237010479,0.004011979326605797,-0.00008647050708532333
1772562072395626800,3.142626708984375,0.009705327451229095,0.0070307995192706585,0.0032774880528450012
1772562072405609000,3.15260888671875,0.012158897705376148,0.0019758534617722034,0.005131048150360584
1772562072415590700,3.162590576171875,0.00980533380061388,0.004454886075109243,0.00997929647564888
1772562072425574000,3.172573974609375,0.01169564574956894,0.004523063078522682,0.013370566070079803
1772562072435555800,3.182555908203125,0.010237175971269608,0.008990665897727013,0.010730748064815998
1772562072445539000,3.1925390625,0.007651779800653458,0.014444819651544094,0.006603647489100695
1772562072455520800,3.202520751953125,0.00880766473710537,0.02022412419319153,0.005073872394859791
1772562072465504000,3.21250390625,-0.0005205895286053419,0.02734222076833248,-0.004940412472933531
1772562072475485700,3.222485595703125,-0.0045641157776117325,0.028948234394192696,-0.012090081349015236
1772562072485469000,3.232468994140625,-0.009899758733808994,0.02825554460287094,-0.014931675046682358
1772562072495451000,3.242450927734375,-0.012816171161830425,0.017082832753658295,-0.018003759905695915
1772562072505433900,3.252433837890625,-0.01853504218161106,0.00558916199952364,-0.015299586579203606
1772562072515415800,3.262415771484375,-0.02286321111023426,-0.0028432048857212067,-0.015883883461356163
1772562072525397800,3.272397705078125,-0.02929767407476902,-0.010876364074647427,-0.01388278417289257
1772562072535380700,3.282380615234375,-0.033586978912353516,-0.019791075959801674,-0.012792890891432762
1772562072545363000,3.292363037109375,-0.03796228766441345,-0.025884121656417847,-0.015029413625597954
1772562072555345700,3.302345703125,-0.041886210441589355,-0.028524218127131462,-0.01251465268433094
1772562072565328000,3.312327880859375,-0.0402265302836895,-0.022765932604670525,-0.006866621319204569
1772562072575310800,3.322310791015625,-0.03357761725783348,-0.011527739465236664,-0.0009282869286835194
1772562072585292800,3.332292724609375,-0.021038390696048737,-0.009226234629750252,0.00722151855006814
1772562072595275800,3.34227587890625,-0.009621258825063705,-0.0066879745572805405,0.008427690714597702
1772562072605258000,3.352258056640625,0.0015693444292992353,0.0008229387458413839,0.009770989418029785
1772562072615240000,3.362239990234375,0.012202412821352482,0.001781246392056346,0.006355789955705404
1772562072625223000,3.372222900390625,0.023867856711149216,-0.0020433194003999233,0.004845777526497841
1772562072635204900,3.382204833984375,0.0319611132144928,-0.007416537031531334,0.003177224425598979
1772562072645187800,3.392187744140625,0.03936576843261719,-0.011565474793314934,0.01023247092962265
1772562072655170000,3.402170166015625,0.043257080018520355,-0.014605219475924969,0.014684982597827911
1772562072665152800,3.41215283203125,0.039042893797159195,-0.02426077425479889,0.017162786796689034
1772562072675135000,3.422135009765625,0.032376404851675034,-0.026611734181642532,0.013206910341978073
1772562072685118000,3.432117919921875,0.02466282621026039,-0.02003053016960621,0.011242561973631382
1772562072695100000,3.442099853515625,0.021087201312184334,-0.015107594430446625,0.0031401419546455145
1772562072705082400,3.452082275390625,0.018947351723909378,-0.012411676347255707,-0.011623358353972435
1772562072715064600,3.462064697265625,0.017887581139802933,-0.009784744121134281,-0.020547375082969666
1772562072725046300,3.47204638671875,0.017006341367959976,-0.016888992860913277,-0.02645639330148697
1772562072735029500,3.482029541015625,0.015637267380952835,-0.021445270627737045,-0.025110872462391853
1772562072745011500,3.492011474609375,0.01525137573480606,-0.022879116237163544,-0.01426275260746479
1772562072754994400,3.501994384765625,0.006939368322491646,-0.014526691287755966,-0.00770964939147234
1772562072764976400,3.511976318359375,0.005136407911777496,-0.0035912184976041317,-0.0003872876986861229
1772562072774959400,3.52195947265625,0.0020209618378430605,0.01634071208536625,0.002556947059929371
1772562072784941300,3.53194140625,-0.003065942320972681,0.03229331225156784,-0.001142982393503189
1772562072794924500,3.541924560546875,-0.0014126519672572613,0.03402223810553551,-0.0077564106322824955
1772562072804906500,3.551906494140625,0.0026667783968150616,0.03676582872867584,-0.0092104971408844
1772562072814889500,3.561889404296875,0.004365512169897556,0.02437412738800049,-0.008460044860839844
1772562072824871400,3.571871337890625,0.002539648674428463,0.014943340793251991,-0.007385460194200277
1772562072834853400,3.581853271484375,0.0030539908912032843,0.012178473174571991,-0.003104881849139929
1772562072844836400,3.59183642578125,0.0029940695967525244,0.009765117429196835,-0.007810687180608511
1772562072854818300,3.601818359375,0.002540544606745243,-0.002680382691323757,-0.015977056697010994
1772562072864801300,3.61180126953125,0.006026089657098055,-0.008420560508966446,-0.01799706369638443
1772562072874783500,3.621783447265625,0.004925009328871965,-0.01159009151160717,-0.025289636105298996
1772562072884766500,3.631766357421875,0.007322919555008411,-0.013280399143695831,-0.02111166901886463
1772562072894748400,3.64174853515625,0.009665772318840027,-0.015684526413679123,-0.018085557967424393
1772562072904731400,3.6517314453125,0.008337387815117836,-0.014577716588973999,-0.013550992123782635
1772562072914713300,3.66171337890625,0.0075117452070117,-0.002282621804624796,0.0028724391013383865
1772562072924696300,3.6716962890625,0.00865450780838728,0.018616002053022385,0.011719459667801857
1772562072934678300,3.68167822265625,0.012424987740814686,0.030877428129315376,0.01815170980989933
1772562072944660500,3.691660400390625,0.014960583299398422,0.04239746555685997,0.017037177458405495
1772562072954643500,3.7016435546875,0.018005723133683205,0.05410335212945938,0.015513207763433456
1772562072964625400,3.71162548828125,0.019463537260890007,0.050446297973394394,0.01396164856851101
1772562072974608400,3.7216083984375,0.01993640884757042,0.041498005390167236,0.009936593472957611
1772562072984590600,3.731590576171875,0.022378262132406235,0.04225967079401016,0.015673575922846794
1772562072994573300,3.7415732421875,0.029542457312345505,0.04701251909136772,0.031330548226833344
1772562073004555500,3.751555419921875,0.038757260888814926,0.04176076501607895,0.04086599871516228
1772562073014538500,3.76153857421875,0.04269129037857056,0.040710870176553726,0.04792366549372673
1772562073024520400,3.7715205078125,0.04534140229225159,0.0414632111787796,0.047290366142988205
1772562073034503400,3.78150341796875,0.04546601325273514,0.0321546345949173,0.03879932686686516
1772562073044485400,3.7914853515625,0.04137646406888962,0.0243369247764349,0.025419339537620544
1772562073054467300,3.80146728515625,0.038310497999191284,0.013190357014536858,0.009894954040646553
1772562073064450600,3.811450439453125,0.03522655740380287,0.010960758663713932,0.004901527427136898
1772562073074432300,3.821432373046875,0.027821026742458344,0.01496991515159607,0.006781298201531172
1772562073084415500,3.83141552734375,0.02425079420208931,0.012775469571352005,0.007484372705221176
1772562073094397200,3.841397216796875,0.015738459303975105,0.0030283944215625525,0.00412003742530942
1772562073104380400,3.85138037109375,0.008419293910264969,-0.0016063047805801034,-0.0001069316640496254
1772562073114362400,3.8613623046875,0.00021647498942911625,-0.016061456874012947,-0.005593182053416967
1772562073124345300,3.871345458984375,-0.001967316959053278,-0.028437698259949684,-0.017016544938087463
1772562073134327300,3.881327392578125,0.0025086577516049147,-0.03902269899845123,-0.02715573087334633
1772562073144309500,3.8913095703125,0.010621445253491402,-0.03203669562935829,-0.025331199169158936
1772562073154292200,3.901292236328125,0.018881797790527344,-0.027816349640488625,-0.01751500368118286
1772562073164274400,3.9112744140625,0.024052590131759644,-0.01792190782725811,-0.007153443526476622
1772562073174257400,3.92125732421875,0.029513191431760788,0.0037162071093916893,0.0011375825852155685
1772562073184239400,3.9312392578125,0.030885785818099976,0.007623597048223019,0.004837512504309416
1772562073194222300,3.941222412109375,0.03594345226883888,0.005594129208475351,-0.0009142928756773472
1772562073204204300,3.951204345703125,0.03423237055540085,0.0013647633604705334,-0.0002098865807056427
1772562073214187300,3.961187255859375,0.03199082985520363,0.004245654214173555,-0.006518444046378136
1772562073224169500,3.97116943359375,0.0232255682349205,0.003738854546099901,-0.010623441077768803
1772562073234152200,3.981152099609375,0.013228874653577805,0.005765566136687994,-0.01245822198688984
1772562073244132600,3.991132568359375,0.003700617467984557,0.008027921430766582,-0.019095351919531822
1772562073254114300,4.0011142578125,-0.002535570180043578,0.010806826874613762,-0.02225336618721485
1772562073264097500,4.01109765625,-0.012316029518842697,0.01230432279407978,-0.030441787093877792
1772562073274079200,4.021079345703125,-0.01370603684335947,-0.004855826497077942,-0.03483915328979492
1772562073284061400,4.0310615234375,-0.01873541623353958,-0.017923159524798393,-0.032795973122119904
1772562073294044400,4.04104443359375,-0.012739512138068676,-0.024978220462799072,-0.029652360826730728
1772562073304026400,4.0510263671875,-0.00683368556201458,-0.028229406103491783,-0.020006923004984856
1772562073314009300,4.06100927734375,0.0023649355862289667,-0.0279365386813879,-0.01469576545059681
1772562073323991600,4.070991455078125,0.012809053994715214,-0.03353237360715866,-0.010136965662240982
1772562073333974300,4.080974365234375,0.020121905952692032,-0.040922075510025024,-0.004647257272154093
1772562073343956500,4.09095654296875,0.025686049833893776,-0.03838008642196655,0.0049198828637599945
1772562073353939500,4.100939453125,0.025735531002283096,-0.02424449659883976,0.009516429156064987
1772562073363921400,4.11092138671875,0.024028977379202843,-0.004974660463631153,0.009633608162403107
1772562073373903600,4.120903564453125,0.02826210856437683,0.015431167557835579,0.008678531274199486
1772562073383886300,4.13088623046875,0.029361193999648094,0.028697436675429344,0.0035567395389080048
1772562073393868500,4.14086865234375,0.03266580030322075,0.03034100867807865,0.006787809543311596
1772562073403851500,4.1508515625,0.03508288785815239,0.020431919023394585,0.009090911597013474
1772562073413833500,4.16083349609375,0.03925907239317894,0.018227320164442062,0.01679931953549385
1772562073423816400,4.17081640625,0.039659611880779266,0.005631100852042437,0.021703265607357025
1772562073433798400,4.18079833984375,0.03903471305966377,-0.0059949737042188644,0.028165580704808235
1772562073443781400,4.190781494140625,0.040787070989608765,-0.003150718053802848,0.034598179161548615
1772562073453763600,4.200763671875,0.041233282536268234,0.00021828326862305403,0.03839721530675888
1772562073463746300,4.210746337890625,0.041417304426431656,0.007790715433657169,0.02763192169368267
1772562073473728500,4.220728515625,0.04330668970942497,0.011138739064335823,0.014062544330954552
1772562073483710500,4.23071044921875,0.048182934522628784,0.01159893348813057,0.0043867481872439384
1772562073493693400,4.240693359375,0.048485152423381805,0.009820541366934776,0.005231164861470461
1772562073503675400,4.25067529296875,0.053814664483070374,0.007056713104248047,0.008684219792485237
1772562073513658600,4.26065869140625,0.05308822914958,0.003555966541171074,0.018697116523981094
1772562073523640300,4.270640380859375,0.0561002641916275,0.013895689509809017,0.03106137365102768
1772562073533623600,4.28062353515625,0.05518171563744545,0.02511627972126007,0.0386478565633297
1772562073543605200,4.290605224609375,0.05131533741950989,0.037005696445703506,0.039670512080192566
1772562073553588500,4.30058837890625,0.05502500757575035,0.06504420191049576,0.03464176505804062
1772562073563570400,4.3105703125,0.05454936996102333,0.08545227348804474,0.024701250717043877
1772562073573553400,4.320553466796875,0.06052270159125328,0.09149082005023956,0.012009726837277412
1772562073583535400,4.330535400390625,0.0663536936044693,0.08757437765598297,-0.002513023093342781
1772562073593517300,4.340517333984375,0.08147071301937103,0.07638908177614212,-0.012449879199266434
1772562073603500300,4.350500244140625,0.10251794010400772,0.05917920172214508,-0.018215622752904892
1772562073613482500,4.360482421875,0.12427420914173126,0.052317775785923004,-0.012819145806133747
1772562073623465500,4.370465576171875,0.14428333938121796,0.041795093566179276,-0.003847489133477211
1772562073633447400,4.380447509765625,0.15442247688770294,0.028934285044670105,0.0028560718055814505
1772562073643430400,4.390430419921875,0.15783904492855072,0.022175980731844902,0.008980010636150837
1772562073653412400,4.400412353515625,0.14949925243854523,0.01596222072839737,0.014998802915215492
1772562073663395300,4.410395263671875,0.1380372792482376,0.017750799655914307,0.010788878425955772
1772562073673377500,4.42037744140625,0.1229761466383934,0.030146008357405663,0.01185058057308197
1772562073683360300,4.4303603515625,0.09937547892332077,0.045272231101989746,0.007529601454734802
1772562073693342500,4.440342529296875,0.07483536005020142,0.05397522449493408,-0.005206863395869732
1772562073703327500,4.450327392578125,0.04866554215550423,0.044012606143951416,-0.015471485443413258
1772562073713310500,4.460310546875,0.02471681497991085,0.031448397785425186,-0.019428744912147522
1772562073723292700,4.470292724609375,-0.004051450174301863,0.030410563573241234,-0.01568540558218956
1772562073733275400,4.480275390625,-0.03372822701931,0.02564910054206848,-0.0179610513150692
1772562073743257600,4.490257568359375,-0.05087445676326752,0.019411178305745125,-0.026765193790197372
1772562073753240600,4.500240478515625,-0.059166327118873596,0.013743320479989052,-0.036091405898332596
1772562073763222500,4.510222412109375,-0.06014610454440117,0.002746063517406583,-0.03736599534749985
1772562073773205500,4.52020556640625,-0.06108406186103821,-0.015493938699364662,-0.03433564305305481
1772562073783187500,4.5301875,-0.05656920745968819,-0.02607068233191967,-0.0288588497787714
1772562073793170400,4.54017041015625,-0.05013709515333176,-0.0294807106256485,-0.008703311905264854
1772562073803152600,4.550152587890625,-0.04137369990348816,-0.041253481060266495,0.009545734152197838
1772562073813134300,4.56013427734375,-0.03799406439065933,-0.04155153036117554,0.02242700755596161
1772562073823117600,4.57011767578125,-0.026648465543985367,-0.034195080399513245,0.03152063861489296
1772562073833099500,4.580099609375,-0.023577820509672165,-0.030661486089229584,0.029072782024741173
1772562073843082500,4.59008251953125,-0.01873592659831047,-0.031009558588266373,0.02182605490088463
1772562073853064400,4.600064453125,-0.01462691929191351,-0.028873924165964127,0.014091040939092636
1772562073863047700,4.610047607421875,-0.010697425343096256,-0.03401222825050354,0.010595642030239105
1772562073873029400,4.620029296875,-0.010198349133133888,-0.03937956318259239,0.00896445568650961
1772562073883013400,4.630013427734375,-0.01159704104065895,-0.04597195237874985,0.011340261436998844
1772562073892996600,4.63999658203125,-0.023035559803247452,-0.04789765179157257,0.011668181046843529
1772562073902978300,4.649978271484375,-0.026364510878920555,-0.04812268912792206,0.007864654064178467
1772562073912961500,4.65996142578125,-0.0320865772664547,-0.054655686020851135,0.0055615524761378765
1772562073922943500,4.669943603515625,-0.030576564371585846,-0.05951409041881561,0.0006227204576134682
1772562073932926500,4.679926513671875,-0.03166253864765167,-0.06300371140241623,-0.0025280476547777653
1772562073942908400,4.689908447265625,-0.026937559247016907,-0.0608697235584259,-0.000730147585272789
1772562073952890400,4.699890380859375,-0.022254396229982376,-0.050312407314777374,0.0014054966159164906
1772562073962873300,4.709873291015625,-0.016606897115707397,-0.04916112497448921,-0.0012094611302018166
1772562073972855600,4.71985546875,-0.011828319169580936,-0.04704126715660095,-0.0075345272198319435
1772562073982838300,4.72983837890625,-0.007408803328871727,-0.05326453968882561,-0.011314883828163147
1772562073992820500,4.739820556640625,-0.0032672930974513292,-0.052454110234975815,-0.01604510471224785
1772562074002803500,4.749803466796875,0.003194867167621851,-0.05313641205430031,-0.02164573222398758
1772562074012785400,4.759785400390625,0.00854482688009739,-0.0448903851211071,-0.013910068199038506
1772562074022768400,4.769768310546875,0.015224833972752094,-0.03166566044092178,-0.007434591185301542
1772562074032750600,4.77975048828125,0.018342847004532814,-0.023297520354390144,-0.0005912035703659058
1772562074042732500,4.789732666015625,0.013722527772188187,-0.01899971067905426,-0.0020349035039544106
1772562074052715500,4.799715576171875,0.014870768412947655,-0.024302389472723007,-0.001639590598642826
1772562074062697500,4.809697509765625,0.009235253557562828,-0.025113321840763092,-0.0029099187813699245
1772562074072680400,4.819680419921875,0.00649039912968874,-0.02067604474723339,-0.012583298608660698
1772562074082662700,4.82966259765625,0.0006112048868089914,-0.01386820524930954,-0.024648217484354973
1772562074092645400,4.839645263671875,0.00007365853525698185,-0.016734682023525238,-0.031161334365606308
1772562074102627600,4.849627685546875,0.0045440406538546085,-0.011493847705423832,-0.028795383870601654
1772562074112610600,4.859610595703125,0.011470075696706772,-0.003455767873674631,-0.017498135566711426
1772562074122592500,4.869592529296875,0.01262775156646967,0.0005112771759741008,-0.0057157776318490505
1772562074132575500,4.879575439453125,0.017406469210982323,0.004358815960586071,0.00853445753455162
1772562074142557700,4.8895576171875,0.02046031691133976,0.007684837561100721,0.013786209747195244
1772562074152539400,4.899539306640625,0.028143562376499176,0.009882582351565361,0.013453913852572441
1772562074162522600,4.909522705078125,0.02756405808031559,0.01063013169914484,0.012199031189084053
1772562074172504300,4.91950439453125,0.025261521339416504,0.01684550940990448,0.01641296036541462
1772562074182487600,4.929487548828125,0.02547377534210682,0.025478145107626915,0.016088055446743965
1772562074192469500,4.939469482421875,0.020444581285119057,0.032665520906448364,0.015396274626255035
1772562074202452500,4.949452392578125,0.013638073578476906,0.03398485109210014,0.012033501639962196
1772562074212434400,4.959434326171875,0.006764818448573351,0.03165219724178314,0.005520237144082785
1772562074222417700,4.969417724609375,0.0044699725694954395,0.02105015516281128,-0.0053899348713457584
1772562074232399400,4.9793994140625,0.0046665300615131855,0.007685925345867872,-0.00844417605549097
1772562074242382600,4.989382568359375,0.013493044301867485,0.006507743149995804,-0.005331473425030708
1772562074252364300,4.9993642578125,0.021829891949892044,0.0019058261532336473,0.0016391647513955832
1772562074262347500,5.009347412109375,0.028263822197914124,-0.007726028561592102,0.008829699829220772
1772562074272329500,5.01932958984375,0.036917321383953094,-0.007701841648668051,0.010779768228530884
1772562074282311400,5.0293115234375,0.04621894285082817,-0.001818919088691473,0.01539076492190361
1772562074292294400,5.03929443359375,0.05113796889781952,0.0005800443468615413,0.018347647041082382
1772562074302276600,5.049276611328125,0.04965405911207199,-0.00005219003651291132,0.02254878357052803
1772562074312259300,5.05925927734375,0.044002436101436615,0.009096995927393436,0.03648959472775459
1772562074322241500,5.069241455078125,0.04065271094441414,0.00468094227835536,0.03723687678575516
1772562074332224500,5.079224609375,0.03427032753825188,0.006930398289114237,0.03494513779878616
1772562074342206500,5.08920654296875,0.030088627710938454,0.008149327710270882,0.02716204896569252
1772562074352189400,5.099189453125,0.022130491212010384,0.003650217317044735,0.012602124363183975
1772562074362171400,5.10917138671875,0.013364164158701897,-0.000057169003412127495,0.0007159039378166199
1772562074372153600,5.119153564453125,0.006022132933139801,-0.003606476355344057,-0.013870828785002232
1772562074382136600,5.129136474609375,0.0019893082790076733,-0.006222499534487724,-0.016194436699151993
1772562074392118500,5.139118408203125,-0.0021406724117696285,-0.00838404893875122,-0.016334371641278267
1772562074402101500,5.1491015625,-0.004388913046568632,-0.011097810231149197,-0.00900908000767231
1772562074412083500,5.15908349609375,-0.00039256480522453785,-0.010910071432590485,0.001168934628367424
1772562074422066400,5.16906640625,0.002534249098971486,-0.004284658934921026,0.011208519339561462
1772562074432048600,5.179048583984375,0.009288148023188114,0.008764146827161312,0.020352840423583984
1772562074442031600,5.189031494140625,0.01061892881989479,0.018516909331083298,0.02585599757730961
1772562074452013600,5.199013671875,0.016723208129405975,0.017189996317029,0.02207205817103386
1772562074461996500,5.20899658203125,0.019362401217222214,0.014865321107208729,0.017236823216080666
1772562074471978500,5.218978515625,0.018889212980866432,0.013290793634951115,0.009223975241184235
1772562074481960400,5.22896044921875,0.017767755314707756,0.001906312652863562,-0.0013453112915158272
1772562074491943700,5.238943603515625,0.01912243850529194,-0.006107056513428688,-0.01058756560087204
1772562074501925400,5.24892529296875,0.018752792850136757,-0.005059103015810251,-0.017789285629987717
1772562074511908600,5.25890869140625,0.019339602440595627,-0.007097696885466576,-0.021268004551529884
1772562074521890300,5.268890380859375,0.026841459795832634,-0.012879686430096626,-0.019158249720931053
1772562074531873500,5.27887353515625,0.027844224125146866,-0.01920147053897381,-0.013160200789570808
1772562074541855500,5.28885546875,0.03270875662565231,-0.0199961569160223,-0.010647507384419441
1772562074551838500,5.29883837890625,0.035829611122608185,-0.02625492587685585,-0.004317921586334705
1772562074561820400,5.3088203125,0.033074572682380676,-0.006246862933039665,-0.0038100574165582657
1772562074571803600,5.3188037109375,0.030956361442804337,-0.010021176189184189,-0.0019972240552306175
1772562074581785300,5.328785400390625,0.02147683873772621,-0.010623583570122719,-0.0004595150239765644
1772562074591767600,5.338767578125,0.01840359903872013,-0.0005668166559189558,0.0020269593223929405
1772562074601750500,5.34875048828125,0.015767868608236313,-0.0015023851301521063,0.0073942942544817924
1772562074611732500,5.358732421875,0.011594564653933048,0.005265403538942337,0.008110646158456802
1772562074621715500,5.368715576171875,0.008345241658389568,0.013749435544013977,0.012027889490127563
1772562074631697400,5.378697509765625,0.007259399630129337,0.01192439254373312,0.010310474783182144
1772562074641680400,5.388680419921875,0.0074804420582950115,0.0011590966023504734,0.009584762156009674
1772562074651662600,5.39866259765625,0.009633112698793411,-0.005626484286040068,0.006779854651540518
1772562074661645300,5.408645263671875,0.015475289896130562,0.00030224479269236326,0.004659712314605713
1772562074671627500,5.41862744140625,0.025646718218922615,0.005240590311586857,0.009756075218319893
1772562074681609500,5.428609375,0.03353899344801903,0.0009787336457520723,0.016584420576691628
1772562074691592400,5.438592529296875,0.04040948301553726,0.005243970081210136,0.025035182014107704
1772562074701571000,5.448571044921875,0.04101881384849548,0.005568875931203365,0.030398255214095116
1772562074711554000,5.458553955078125,0.03679444268345833,0.0013563699321821332,0.032507192343473434
1772562074721536000,5.468535888671875,0.030140269547700882,-0.0025563461240381002,0.03138014301657677
1772562074731519000,5.47851904296875,0.02661866694688797,-0.002098354510962963,0.01991315372288227
1772562074741501200,5.488501220703125,0.019537588581442833,-0.0031140842474997044,0.010062653571367264
1772562074751484000,5.49848388671875,0.01739860326051712,-0.015803329646587372,-0.002497594803571701
1772562074761466000,5.508466064453125,0.013050192967057228,-0.025849036872386932,-0.006513375323265791
1772562074771449000,5.518448974609375,0.005969369783997536,-0.02116825245320797,-0.003370527643710375
1772562074781431000,5.52843115234375,0.0011557061225175858,-0.014118331484496593,0.001786151435226202
1772562074791414000,5.5384140625,-0.002031167270615697,-0.014172558672726154,-0.0020833821035921574
1772562074801396000,5.54839599609375,0.0020176363177597523,-0.016450626775622368,-0.002427462488412857
1772562074811378000,5.5583779296875,0.008071556687355042,-0.014533115550875664,-0.0038788034580647945
1772562074821361200,5.568361083984375,0.008012700825929642,-0.01679547131061554,0.0011665555648505688
1772562074831342800,5.5783427734375,0.013345342129468918,-0.004736850969493389,0.01795755699276924
1772562074841326000,5.588326171875,0.012952527031302452,0.0024014862719923258,0.02462984062731266
1772562074851308000,5.59830810546875,0.006332747638225555,0.0033296775072813034,0.030385151505470276
1772562074861291000,5.608291015625,0.0049585564993321896,0.005030372180044651,0.03199689835309982
1772562074871273000,5.61827294921875,-0.003351618768647313,0.007321616634726524,0.02288501150906086
1772562074881256200,5.628256103515625,-0.008459827862679958,0.0036885321605950594,0.012155935168266296
1772562074891238000,5.63823779296875,-0.01891886070370674,-0.004111333750188351,-0.0071977898478507996
1772562074901220000,5.64822021484375,-0.023929599672555923,-0.013391651213169098,-0.01892528496682644
1772562074911202800,5.658202880859375,-0.02316383272409439,-0.014989415183663368,-0.019821563735604286
1772562074921185000,5.66818505859375,-0.02544482797384262,-0.012567269615828991,-0.017422588542103767
1772562074931168000,5.67816796875,-0.02400384284555912,-0.01222072821110487,-0.010603366419672966
1772562074941150000,5.68814990234375,-0.01961841620504856,-0.002540669869631529,0.0016367875505238771
1772562074951133000,5.6981328125,-0.012422596104443073,0.008034058846533298,0.010787473991513252
1772562074961115100,5.708115234375,-0.0030898142140358686,0.007099022623151541,0.019330894574522972
1772562074971097900,5.718097900390625,0.005298650823533535,0.008241137489676476,0.01771322637796402
1772562074981080000,5.728080078125,0.011773860082030296,0.005659469403326511,0.018156908452510834
1772562074991063000,5.73806298828125,0.013129725120961666,-0.007150995545089245,0.013581478968262672
1772562075001045000,5.748044921875,0.013371273875236511,-0.021313421428203583,0.010387815535068512
1772562075011028000,5.758028076171875,0.015308521687984467,-0.031582385301589966,0.005545142572373152
1772562075021010000,5.768010009765625,0.012408871203660965,-0.028549043461680412,0.0018201794009655714
1772562075030992100,5.7779921875,0.008154413662850857,-0.023953422904014587,-0.0004696818068623543
1772562075040975000,5.78797509765625,0.006894205696880817,-0.016118668019771576,-0.0000036284327507019043
1772562075050957000,5.79795703125,0.005282356403768063,-0.0008309935219585896,0.0013694439548999071
1772562075060940000,5.80793994140625,0.0056259045377373695,0.009349738247692585,0.0046259574592113495
1772562075070922000,5.817921875,0.006804668344557285,0.010877400636672974,0.002371021080762148
1772562075080905000,5.827905029296875,0.009796996600925922,0.016497470438480377,0.010203910991549492
1772562075090887200,5.83788720703125,0.013312987983226776,0.018826358020305634,0.01730106770992279
1772562075100870000,5.847869873046875,0.015302635729312897,-0.00011271191760897636,0.021350137889385223
1772562075110852000,5.85785205078125,0.017302116379141808,-0.0066651892848312855,0.02250666730105877
1772562075120834000,5.867833984375,0.017044056206941605,-0.008917424827814102,0.021295728161931038
1772562075130817000,5.877817138671875,0.014961229637265205,-0.01005849614739418,0.02367420680820942
1772562075140799000,5.887799072265625,0.01703742891550064,-0.010459035634994507,0.020473619922995567
1772562075150782200,5.8977822265625,0.016681397333741188,-0.01229306310415268,0.019925285130739212
1772562075160764000,5.907763916015625,0.020648442208766937,-0.006503882817924023,0.023241452872753143
1772562075170747100,5.9177470703125,0.020189732313156128,-0.0070237889885902405,0.024510016664862633
1772562075180728800,5.927728759765625,0.02670595422387123,-0.006775582209229469,0.024587247520685196
1772562075190712000,5.937712158203125,0.022468600422143936,0.0018772943876683712,0.022103583440184593
1772562075200694000,5.947694091796875,0.01726371794939041,0.014178701676428318,0.019603408873081207
1772562075210677000,5.957677001953125,0.01499390508979559,0.017022691667079926,0.019292883574962616
1772562075220659000,5.967658935546875,0.0084726233035326,0.013391737826168537,0.018732821568846703
1772562075230641000,5.977640869140625,0.002635837532579899,0.009914366528391838,0.021515842527151108
1772562075240623900,5.987623779296875,-0.003129639895632863,0.006666374858468771,0.016344783827662468
1772562075250606000,5.997606201171875,-0.003675550688058138,0.0015287587884813547,0.009013034403324127
1772562075260589000,6.007589111328125,-0.004690747708082199,-0.0013005834771320224,0.0018278253264725208
1772562075270571000,6.017571044921875,-0.0012859597336500883,0.0013082579243928194,-0.008808039128780365
1772562075280554000,6.027553955078125,0.003429433098062873,-0.001819891040213406,-0.01827610842883587
1772562075290536000,6.037535888671875,0.010064013302326202,-0.008657694794237614,-0.017597388476133347
1772562075300519000,6.047518798828125,0.012480298057198524,-0.006729831453412771,-0.01846824213862419
1772562075310501000,6.057501220703125,0.015698960050940514,-0.00017702067270874977,-0.00974371936172247
1772562075320483800,6.06748388671875,0.013746330514550209,0.0019511113641783595,-0.004104741849005222
1772562075330466000,6.077466064453125,0.010953268967568874,0.0037358901463449,0.0053104073740541935
1772562075340448000,6.087447998046875,0.010908260941505432,0.0005744516965933144,0.006265150848776102
1772562075350431000,6.097430908203125,0.01258036307990551,0.01013039518147707,0.005828098393976688
1772562075360413200,6.1074130859375,0.018266744911670685,0.013195959851145744,0.0050528524443507195
1772562075370396000,6.11739599609375,0.01985275372862816,0.01154108252376318,0.00005492568016052246
1772562075380378000,6.127378173828125,0.02033771574497223,0.008905352093279362,-0.008988103829324245
1772562075390361000,6.137361083984375,0.023206494748592377,0.005052929278463125,-0.013572672381997108
1772562075400343000,6.147343017578125,0.02215028554201126,0.005438555032014847,-0.009847443550825119
1772562075410326000,6.157325927734375,0.01988140307366848,0.00246390700340271,-0.011066600680351257
1772562075420308200,6.16730810546875,0.01772370934486389,0.005571282934397459,-0.009569637477397919
1772562075430291000,6.177291015625,0.014736627228558064,0.008156449533998966,-0.0015896321274340153
1772562075440273200,6.187273193359375,0.017307909205555916,0.0016783098690211773,-0.0037342761643230915
1772562075450254800,6.1972548828125,0.01898913085460663,0.0021248299162834883,-0.005997973028570414
1772562075460238000,6.207238037109375,0.020342282950878143,0.01170608401298523,-0.008442223072052002
1772562075470220000,6.217219970703125,0.01930130273103714,0.007741904817521572,-0.018271081149578094
1772562075480203000,6.227203125,0.011313418857753277,0.0013979891082271934,-0.024517260491847992
1772562075490185000,6.23718505859375,0.007389117032289505,0.006938263773918152,-0.027673330157995224
1772562075500168200,6.247168212890625,-0.0029295666608959436,0.006775810848921537,-0.03192639723420143
1772562075510150000,6.25714990234375,-0.010940627194941044,0.0019277313258498907,-0.03283526003360748
1772562075520133000,6.267133056640625,-0.013341465964913368,-0.0010406279470771551,-0.0372137650847435
1772562075530114800,6.27711474609375,-0.00897475890815258,0.0002452440094202757,-0.040779173374176025
1772562075540098000,6.28709814453125,-0.0038481736555695534,-0.0017425393452867866,-0.03747791796922684
1772562075550080000,6.297080078125,0.003332068445160985,-0.002948736771941185,-0.03318612650036812
1772562075560062000,6.30706201171875,0.010256021283566952,0.00189209112431854,-0.02538386546075344
1772562075570045000,6.317044921875,0.018222086131572723,0.003181898035109043,-0.019075555726885796
1772562075580027100,6.327027099609375,0.025706633925437927,0.0027661784552037716,-0.010722018778324127
1772562075590009900,6.337009765625,0.028210584074258804,0.004395914264023304,0.0007790480740368366
1772562075599992000,6.346991943359375,0.02980315499007702,0.002810534555464983,0.006151708774268627
1772562075609975000,6.35697509765625,0.030755501240491867,0.0005551034701056778,0.003106118179857731
1772562075619957000,6.36695703125,0.03120557591319084,-0.002473975997418165,-0.005204808432608843
1772562075629940000,6.37693994140625,0.028549479320645332,-0.012051544152200222,-0.014069519937038422
1772562075639922000,6.386921875,0.022239917889237404,-0.020455148071050644,-0.025226566940546036
1772562075649905000,6.39690478515625,0.014992638491094112,-0.02298472821712494,-0.03125070035457611
1772562075659887000,6.40688720703125,0.006022845860570669,-0.022779397666454315,-0.03143339231610298
1772562075669869000,6.416869140625,-0.0005438574589788914,-0.015219897031784058,-0.03131026402115822
1772562075679852000,6.42685205078125,-0.0019137873314321041,-0.002825812203809619,-0.031341955065727234
1772562075689834200,6.436834228515625,-0.0009369947947561741,0.0008241173345595598,-0.03341423347592354
1772562075699817000,6.44681689453125,0.003075589891523123,0.007884690538048744,-0.028824541717767715
1772562075709799400,6.45679931640625,0.008846231736242771,0.009261615574359894,-0.028407003730535507
1772562075719782700,6.46678271484375,0.013771481812000275,0.0054857851937413216,-0.022024471312761307
1772562075729764400,6.476764404296875,0.015765173360705376,0.008273188024759293,-0.018465010449290276
1772562075739747600,6.48674755859375,0.012084685266017914,0.004920800682157278,-0.010220928117632866
1772562075749729300,6.496729248046875,0.011582557111978531,0.0031427578069269657,-0.010264428332448006
1772562075759712500,6.50671240234375,0.013584988191723824,0.006478899624198675,-0.009259084239602089
1772562075769694500,6.516694580078125,0.0164176058024168,0.006757964380085468,-0.009911137633025646
1772562075779676400,6.526676513671875,0.01677872985601425,0.0025360556319355965,-0.010892246849834919
1772562075789659400,6.536659423828125,0.016057636588811874,-0.00295269675552845,-0.0031159999780356884
1772562075799641600,6.5466416015625,0.008817832916975021,-0.008342135697603226,0.001977296080440283
1772562075809624300,6.556624267578125,0.00659575592726469,-0.012861601077020168,0.007265820167958736
1772562075819606500,6.5666064453125,0.001440142747014761,-0.011557984165847301,0.008319633081555367
1772562075829589500,6.576589599609375,-0.0055876015685498714,0.003853974398225546,0.012058921158313751
1772562075839571500,6.586571533203125,-0.00466268602758646,0.012667439877986908,0.01566537469625473
1772562075849554400,6.596554443359375,-0.0029308488592505455,0.015520171262323856,0.016720112413167953
1772562075859536400,6.606536376953125,0.002786425407975912,0.0026850670110434294,0.01590758189558983
1772562075869518600,6.6165185546875,0.0056723738089203835,-0.010379986837506294,0.019165070727467537
1772562075879501600,6.62650146484375,0.013431494124233723,-0.00987238809466362,0.014235826209187508
1772562075889483500,6.6364833984375,0.017640288919210434,-0.0093079824000597,0.006455648690462112
1772562075899466500,6.646466552734375,0.020475756376981735,-0.003112404141575098,0.0046524228528141975
1772562075909448400,6.656448486328125,0.023159489035606384,-0.005083094816654921,0.00024634646251797676
1772562075919431400,6.666431396484375,0.018167925998568535,-0.004708654247224331,-0.0026455800980329514
1772562075929413600,6.67641357421875,0.011904355138540268,-0.004909018985927105,-0.005574253853410482
1772562075939396600,6.686396728515625,0.011781849898397923,-0.005462423898279667,-0.009384704753756523
1772562075949378600,6.696378662109375,0.010386941023170948,-0.008141702972352505,-0.01226295717060566
1772562075959361500,6.706361572265625,0.011202666908502579,-0.0037054093554615974,-0.009824833832681179
1772562075969343500,6.716343505859375,0.012898897752165794,-0.004108088091015816,-0.0082399882376194
1772562075979325400,6.726325439453125,0.014351386576890945,0.001077353022992611,-0.010535366833209991
1772562075989308700,6.73630859375,0.018079111352562904,-0.0021405350416898727,-0.009208550676703453
1772562075999290400,6.746290283203125,0.018188301473855972,-0.006237541791051626,-0.010106302797794342
1772562076009273600,6.756273681640625,0.019040504470467567,-0.011981507763266563,-0.010888131335377693
1772562076019255300,6.76625537109375,0.012206302024424076,-0.016623396426439285,-0.008516852743923664
1772562076029238500,6.776238525390625,0.004869543481618166,-0.015553118661046028,-0.00673267338424921
1772562076039220500,6.786220458984375,-0.001637091627344489,-0.01725621148943901,-0.0015895762480795383
1772562076049203500,6.796203369140625,-0.005130954086780548,-0.020777637138962746,0.0005003963597118855
1772562076059185400,6.806185302734375,-0.010872462764382362,-0.01156629528850317,0.008358585648238659
1772562076069168600,6.816168701171875,-0.012772520072758198,-0.009043681435286999,0.01328246109187603
1772562076079150300,6.826150390625,-0.0068536438047885895,-0.006859889253973961,0.021805908530950546
1772562076089132500,6.836132568359375,0.0009058055002242327,-0.003749398048967123,0.03191635012626648
1772562076099115500,6.846115478515625,0.01035816315561533,0.0023519040551036596,0.03558405488729477
1772562076109097500,6.856097412109375,0.01130547933280468,0.0012085094349458814,0.03002176433801651
1772562076119080400,6.86608056640625,0.012508162297308445,0.0019739018753170967,0.01914088800549507
1772562076129062400,6.8760625,0.010934012942016125,0.004497322719544172,0.007753169629722834
1772562076139045400,6.88604541015625,0.007178689353168011,0.005099729634821415,-0.0034856367856264114
1772562076149027600,6.896027587890625,-0.00003202049992978573,-0.002022709231823683,-0.013164877891540527
1772562076159010300,6.90601025390625,-0.002981737721711397,-0.00035903253592550755,-0.02112879417836666
1772562076168992500,6.915992431640625,-0.0015894854441285133,-0.0017229762161150575,-0.02136995829641819
1772562076178975500,6.9259755859375,-0.0015255697071552277,-0.004919568542391062,-0.025142058730125427
1772562076188957400,6.93595751953125,0.0010660889092832804,-0.0016402549808844924,-0.025933854281902313
1772562076198939600,6.945939697265625,0.00002665724605321884,-0.00017365231178700924,-0.01459464617073536
1772562076208922400,6.95592236328125,0.004215710796415806,0.0035909824073314667,-0.0003161379136145115
1772562076218904600,6.965904541015625,0.003181339241564274,0.008730882778763771,0.010994840413331985
1772562076228887600,6.975887451171875,0.0006481239106506109,0.009886649437248707,0.021642819046974182
1772562076238869500,6.985869384765625,-0.0037343737203627825,0.004505732096731663,0.017138347029685974
1772562076248852500,6.9958525390625,-0.009694810956716537,0.00022279086988419294,0.012218019925057888
1772562076258834700,7.005834716796875,-0.015270404517650604,-0.0011801624204963446,0.004332932643592358
1772562076268817400,7.0158173828125,-0.01795133575797081,-0.009453102014958858,-0.0003936793655157089
1772562076278799600,7.025799560546875,-0.019984126091003418,-0.015707002952694893,-0.005618534982204437
1772562076288781300,7.03578125,-0.017032545059919357,-0.022382482886314392,-0.01080530695617199
1772562076298764500,7.0457646484375,-0.011463607661426067,-0.02158593200147152,-0.00482571218162775
1772562076308746500,7.05574658203125,-0.005433736369013786,-0.011063107289373875,0.00526038371026516
1772562076318729500,7.0657294921875,0.0010752949165180326,-0.0019915818702429533,0.016061365604400635
1772562076328711400,7.07571142578125,0.00364471273496747,0.0015613414580002427,0.025399472564458847
1772562076338694700,7.085694580078125,0.007574473507702351,0.005643434822559357,0.032124221324920654
1772562076348676400,7.09567626953125,0.0061260126531124115,-0.0001603002892807126,0.031065626069903374
1772562076358659600,7.10565966796875,0.004227978177368641,-0.003803771222010255,0.021678248420357704
1772562076368641500,7.1156416015625,-0.0027006862219423056,-0.005668818950653076,0.0092233344912529
1772562076378624500,7.12562451171875,-0.011839057318866253,-0.0032168463803827763,0.0031814209651201963
1772562076388606500,7.1356064453125,-0.018591338768601418,-0.0002850430319085717,0.00004452979192137718
1772562076398589700,7.145589599609375,-0.023793291300535202,-0.0017351341666653752,-0.008869603276252747
1772562076408571400,7.1555712890625,-0.02784527651965618,-0.002692760434001684,-0.010103840380907059
1772562076418553600,7.1655537109375,-0.02977340668439865,-0.008810041472315788,-0.011747542768716812
1772562076428536300,7.175536376953125,-0.03080182708799839,-0.005473875440657139,-0.007971098646521568
1772562076438518500,7.1855185546875,-0.0295924860984087,-0.0008258604211732745,-0.0028889882378280163
1772562076448501500,7.19550146484375,-0.02236218750476837,0.004120189230889082,0.007134962826967239
1772562076458483500,7.2054833984375,-0.015775125473737717,0.007695483043789864,0.01502005010843277
1772562076468466400,7.215466552734375,-0.008023480884730816,0.0017884830012917519,0.014726508408784866
1772562076478448400,7.225448486328125,-0.0016832936089485884,-0.007346425671130419,0.013815442100167274
1772562076488431400,7.235431396484375,0.0031818177085369825,-0.013474754057824612,0.0061789751052856445
1772562076498413600,7.24541357421875,0.001862221397459507,-0.021529216319322586,-0.002714384812861681
1772562076508395500,7.2553955078125,0.0002141192089766264,-0.02268199622631073,-0.006425197701901197
1772562076518378500,7.26537841796875,-0.008437425829470158,-0.021866269409656525,0.0003565419465303421
1772562076528360700,7.275360595703125,-0.010238537564873695,-0.012285327538847923,0.004522653296589851
1772562076538343400,7.285343505859375,-0.01659337244927883,-0.012314622290432453,0.0060696834698319435
1772562076548325600,7.29532568359375,-0.018693886697292328,-0.007203714922070503,0.004756323527544737
1772562076558308600,7.30530859375,-0.017784951254725456,0.0013796527637168765,0.0002031167969107628
1772562076568290600,7.31529052734375,-0.01739169843494892,0.004104854539036751,-0.003513618838042021
1772562076578273500,7.3252734375,-0.015010565519332886,0.0025141481310129166,-0.007255892734974623
1772562076588255500,7.33525537109375,-0.016626160591840744,-0.0016623372212052345,-0.007452525198459625
1772562076598238500,7.345238525390625,-0.017233895137906075,-0.003561437362805009,-0.003967513330280781
1772562076608220700,7.355220703125,-0.01977865770459175,-0.006352754309773445,-0.009905729442834854
1772562076618202400,7.365202392578125,-0.01959756389260292,-0.013042614795267582,-0.01878018118441105
1772562076628185600,7.375185546875,-0.02622634917497635,-0.015240496955811977,-0.03108843043446541
1772562076638167600,7.38516748046875,-0.02654379978775978,-0.015293226577341557,-0.03514309227466583
1772562076648150500,7.395150634765625,-0.021731466054916382,-0.0112822400406003,-0.028359487652778625
1772562076658132500,7.405132568359375,-0.021321872249245644,-0.006795345339924097,-0.014427163638174534
1772562076668115700,7.41511572265625,-0.010995019227266312,0.0005368435522541404,-0.00048239948228001595
1772562076678097400,7.425097412109375,-0.0016609064768999815,0.006175820715725422,0.01576128602027893
1772562076688080600,7.43508056640625,0.006766400299966335,0.008073057048022747,0.025659721344709396
1772562076698062300,7.445062255859375,0.016825692728161812,0.00371292931959033,0.027651766315102577
1772562076708045600,7.455045654296875,0.01873275451362133,-0.0006678075296804309,0.0244913287460804
1772562076718027500,7.465027587890625,0.017250174656510353,-0.006133147049695253,0.016148708760738373
1772562076728009500,7.475009521484375,0.01126562524586916,-0.007201805245131254,0.004780695307999849
1772562076737992400,7.484992431640625,0.004026087932288647,-0.005833473056554794,-0.005549706518650055
1772562076747974400,7.494974365234375,0.0014380761422216892,-0.008487706072628498,-0.02116527035832405
1772562076757957400,7.504957275390625,-0.002853075275197625,-0.00799155980348587,-0.030213627964258194
1772562076767939600,7.514939697265625,-0.0037966971285641193,-0.00800239760428667,-0.032967086881399155
1772562076777922300,7.52492236328125,0.00244255643337965,-0.0045717135071754456,-0.027191754430532455
1772562076787904500,7.534904541015625,0.005598424002528191,-0.00037206755951046944,-0.01641840860247612
1772562076797887500,7.544887451171875,0.013557281345129013,0.0033198725432157516,-0.004306086339056492
1772562076807869400,7.554869384765625,0.020701061934232712,0.0012845384189859033,0.010768825188279152
1772562076817852400,7.564852294921875,0.022812683135271072,-0.005051122047007084,0.02056526392698288
1772562076827834600,7.574834716796875,0.024351757019758224,-0.003803339321166277,0.027895890176296234
1772562076837816600,7.584816650390625,0.02413710579276085,-0.003000662662088871,0.03449200838804245
1772562076847799600,7.594799560546875,0.019444148987531662,-0.00478000333532691,0.0291204322129488
1772562076857781500,7.604781494140625,0.01221499778330326,-0.008134787902235985,0.021762916818261147
1772562076867764500,7.614764404296875,0.007439604960381985,-0.007739346008747816,0.012990063056349754
1772562076877746700,7.62474658203125,0.004471777938306332,-0.007429088000208139,-0.000517756212502718
1772562076887729400,7.6347294921875,0.002430225256830454,-0.016408365219831467,-0.012240393087267876
1772562076897711600,7.644711669921875,0.0036419634707272053,-0.017013434320688248,-0.018422389402985573
1772562076907694600,7.654694580078125,0.004859705455601215,-0.010512241162359715,-0.016083959490060806
1772562076917676500,7.664676513671875,0.010083761997520924,-0.006194724701344967,-0.007015629671514034
1772562076927659500,7.674659423828125,0.015206359326839447,-0.006355786230415106,0.003985814284533262
1772562076937641700,7.684641845703125,0.015962431207299232,-0.008221330121159554,0.008571777492761612
1772562076947623400,7.69462353515625,0.01808115839958191,-0.007446384988725185,0.013442826457321644
1772562076957606700,7.704606689453125,0.02006467990577221,-0.00916199292987585,0.011759708635509014
1772562076967588400,7.71458837890625,0.021583445370197296,-0.014301178976893425,0.00947503186762333
1772562076977571600,7.724571533203125,0.020569579675793648,-0.017439180985093117,0.0042163534089922905
1772562076987553500,7.734553466796875,0.018264466896653175,-0.01235295832157135,0.0018715306650847197
1772562076997536500,7.74453662109375,0.016207175329327583,-0.01013081707060337,0.0006573954597115517
1772562077007518500,7.7545185546875,0.011577303521335125,-0.021180979907512665,0.0007977541536092758
1772562077017501700,7.764501708984375,0.008231041952967644,-0.022382598370313644,0.0007191905751824379
1772562077027483400,7.7744833984375,0.005031068343669176,-0.011827727779746056,-0.001553927082568407
1772562077037466600,7.784466552734375,0.002608923241496086,-0.014448277652263641,-0.003592842724174261
1772562077047448300,7.7944482421875,0.002183148404583335,-0.013340217992663383,-0.006873306352645159
1772562077057430500,7.804430419921875,0.004639381542801857,-0.009934034198522568,-0.0023358124308288097
1772562077067413500,7.81441357421875,0.007839273661375046,-0.002981248777359724,0.004806205164641142
1772562077077395500,7.8243955078125,0.003423752961680293,-0.001198795042000711,0.008205996826291084
1772562077087378400,7.83437841796875,-0.0018995257560163736,-0.008017496205866337,0.0047227488830685616
1772562077097360600,7.844360595703125,-0.008252229541540146,-0.00852269772440195,0.0017352146096527576
1772562077107343400,7.85434326171875,-0.012159466743469238,-0.015145503915846348,0.0028322702273726463
1772562077117325600,7.86432568359375,-0.011000726372003555,-0.01663287729024887,0.00857377890497446
1772562077127308500,7.87430859375,-0.007889720611274242,-0.012256248854100704,0.015032714232802391
1772562077137290500,7.88429052734375,-0.0028614059556275606,-0.01181096863001585,0.01887778751552105
1772562077147273500,7.8942734375,0.00021146447397768497,-0.012276966124773026,0.018322419375181198
1772562077157255400,7.90425537109375,-0.003680745605379343,-0.01398778147995472,0.007716912776231766
1772562077167237600,7.914237548828125,-0.005860527046024799,-0.016657553613185883,-0.0033832709304988384
1772562077177220600,7.924220703125,-0.005659990943968296,-0.013561363331973553,-0.01135784201323986
1772562077187202600,7.93420263671875,-0.012848210521042347,-0.005882634781301022,-0.018500063568353653
1772562077197185500,7.944185546875,-0.012409055605530739,0.0038360392209142447,-0.019908875226974487
1772562077207167500,7.95416748046875,-0.014634381979703903,0.012673192657530308,-0.01421722024679184
1772562077217150500,7.964150390625,-0.0061956243589520454,0.011342677287757397,-0.017194634303450584
1772562077227132700,7.974132568359375,-0.0036188256926834583,0.003956762608140707,-0.01221315935254097
1772562077237115600,7.98411572265625,0.00038070976734161377,0.0025753811933100224,-0.016216689720749855
1772562077247095600,7.994095458984375,0.0049815368838608265,0.007497031707316637,-0.015638131648302078
1772562077257078500,8.00407861328125,0.008423939347267151,0.00305541162379086,-0.010174923576414585
1772562077267060500,8.014060546875,0.011872049421072006,-0.00713724922388792,-0.003831105772405863
1772562077277043500,8.02404345703125,0.007597941905260086,-0.007590519264340401,-0.0026502604596316814
1772562077287025400,8.034025390625,0.00813991203904152,-0.0010137974750250578,0.0029403851367533207
1772562077297008600,8.044008544921875,0.007255475968122482,0.002117813564836979,0.007831812836229801
1772562077306990300,8.053990234375,0.0046234577894210815,-0.00026709306985139847,0.013814199715852737
1772562077316973600,8.0639736328125,0.004494294058531523,0.004895977210253477,0.01893812231719494
1772562077326955500,8.07395556640625,0.009579317644238472,0.009354062378406525,0.02377535030245781
1772562077336938500,8.0839384765625,0.014774078503251076,0.002359536709263921,0.026755161583423615
1772562077346920400,8.09392041015625,0.01985790953040123,-0.004781685769557953,0.017592933028936386
1772562077356902700,8.103902587890625,0.021868329495191574,0.0012359931133687496,0.015477051958441734
1772562077366885400,8.113885498046875,0.022898167371749878,0.009366369806230068,0.013042444363236427
1772562077376867600,8.12386767578125,0.01947866752743721,0.007890179753303528,0.01582171954214573
1772562077386850600,8.1338505859375,0.008207501843571663,0.0032081790268421173,0.007815496996045113
1772562077396832500,8.14383251953125,0.0010278853587806225,0.000818791042547673,-0.000893839169293642
1772562077406815500,8.1538154296875,-0.005580510478466749,-0.006456197239458561,-0.011531656607985497
1772562077416797400,8.16379736328125,-0.009830115363001823,-0.008220541290938854,-0.017552796751260757
1772562077426780400,8.173780517578125,-0.010514287278056145,-0.005470889154821634,-0.013500186614692211
1772562077436762600,8.1837626953125,-0.01024530827999115,-0.007149746175855398,-0.0061392104253172874
1772562077446745300,8.193745361328125,-0.008166476152837276,-0.006030511576682329,0.00784264225512743
1772562077456727600,8.2037275390625,-0.003137096529826522,-0.0014093945501372218,0.019885988906025887
1772562077466709500,8.21370947265625,0.0006929801311343908,0.0030301306396722794,0.03247299790382385
1772562077476692500,8.2236923828125,0.0018155024154111743,0.00310789467766881,0.04074850305914879
1772562077486674400,8.23367431640625,0.003821589518338442,0.0002333007287234068,0.03880764916539192
1772562077496657700,8.24365771484375,0.001281466451473534,-0.009737041778862476,0.027028486132621765
1772562077506639400,8.253639404296875,0.0018371924525126815,-0.0152345085516572,0.00860663503408432
1772562077516622600,8.26362255859375,0.0013117508497089148,-0.020524078980088234,-0.005686283577233553
1772562077526604300,8.273604248046874,0.000639450503513217,-0.024574600160121918,-0.016217578202486038
1772562077536587500,8.28358740234375,0.003569460241124034,-0.025537066161632538,-0.01508093997836113
1772562077546569500,8.293569580078126,0.006683453917503357,-0.019949639216065407,-0.011704253032803535
1772562077556551400,8.303551513671875,0.00977059081196785,-0.017056114971637726,-0.004007185343652964
1772562077566534400,8.313534423828125,0.011561757884919643,-0.004567657597362995,0.008292924612760544
1772562077576516400,8.323516357421875,0.016177015379071236,0.006647712551057339,0.021795950829982758
1772562077586499300,8.333499267578125,0.01693393662571907,0.011461247690021992,0.03528234362602234
1772562077596481500,8.3434814453125,0.020038381218910217,0.004457400646060705,0.040975119918584824
1772562077606464500,8.353464599609374,0.021429497748613358,-0.006885918788611889,0.03229152783751488
1772562077616446500,8.363446533203126,0.017733830958604813,-0.014408815652132034,0.022508136928081512
1772562077626429400,8.373429443359376,0.016256824135780334,-0.01859428733587265,0.0068163881078362465
1772562077636413700,8.38341357421875,0.0155361732468009,-0.024810904636979103,-0.006575317587703466
1772562077646395400,8.3933955078125,0.01472964696586132,-0.023854944854974747,-0.0077570537105202675
1772562077656378600,8.403378662109375,0.010116785764694214,-0.02105702832341194,-0.007841741666197777
1772562077666360600,8.413360595703125,0.006252279505133629,-0.017983147874474525,-0.0015594195574522018
1772562077676343600,8.423343505859375,0.008649391122162342,-0.015980716794729233,0.003392195561900735
1772562077686325500,8.433325439453125,0.0075527094304561615,-0.019510217010974884,0.009041504934430122
1772562077696307500,8.443307373046874,0.013979450799524784,-0.016083527356386185,0.012381907552480698
1772562077706290200,8.453290283203126,0.01626156084239483,-0.017316432669758797,0.021927621215581894
1772562077716272000,8.463272216796875,0.019142569974064827,-0.01734226383268833,0.03299678489565849
1772562077726255000,8.473255126953125,0.024795467033982277,-0.014794709160923958,0.03824581950902939
1772562077736237000,8.483237060546875,0.027297241613268852,-0.013227438554167747,0.041963592171669006
1772562077746220000,8.493219970703125,0.023667173460125923,-0.01997825875878334,0.04260549694299698
1772562077756202200,8.5032021484375,0.024170244112610817,-0.023937581107020378,0.03516622260212898
1772562077766185000,8.51318505859375,0.022560719400644302,-0.023815389722585678,0.02717071771621704
1772562077776167200,8.523167236328124,0.01670602709054947,-0.024562940001487732,0.020394835621118546
1772562077786150100,8.533150146484376,0.010272787883877754,-0.02226063422858715,0.011593913659453392
1772562077796132000,8.543132080078125,0.004513169638812542,-0.01953861676156521,0.006725122220814228
1772562077806114300,8.5531142578125,0.0050490801222622395,-0.015684792771935463,0.011381549760699272
1772562077816097000,8.563096923828125,0.0050341663882136345,-0.006134964060038328,0.01407613605260849
1772562077826079200,8.573079345703125,0.0038305686321109533,-0.0014526500599458814,0.017013968899846077
1772562077836062200,8.583062255859375,0.0014720731414854527,-0.006753938272595406,0.01092172134667635
1772562077846044200,8.593044189453124,-0.002828034572303295,-0.021407706663012505,0.008014910854399204
1772562077856027100,8.603027099609376,-0.005885876249521971,-0.02854817360639572,-0.003948541358113289
1772562077866009300,8.61300927734375,-0.003749196883291006,-0.03235593065619469,-0.01054484210908413
1772562077875992000,8.622991943359375,-0.00462910532951355,-0.029457876458764076,-0.0052629937417805195
1772562077885974300,8.632974365234375,-0.005530827678740025,-0.018853597342967987,-0.002011743374168873
1772562077895957200,8.642957275390625,-0.011414549313485622,-0.015104664489626884,0.007134084589779377
1772562077905939200,8.652939208984375,-0.016229260712862015,-0.006247477140277624,0.021282531321048737
1772562077915921200,8.662921142578124,-0.016072135418653488,0.006286690477281809,0.023796021938323975
1772562077925904100,8.672904052734374,-0.01846543699502945,0.014838065020740032,0.02115405723452568
1772562077935886000,8.682885986328126,-0.01582384668290615,0.016103332862257957,0.02272425778210163
1772562077945869300,8.692869384765626,-0.009950229898095131,0.0071410429663956165,0.019779205322265625
1772562077955851000,8.70285107421875,-0.004075296223163605,0.004482941702008247,0.019487056881189346
1772562077965834200,8.712834228515625,0.004303476773202419,-0.005192773416638374,0.015720795840024948
1772562077975816000,8.72281591796875,0.01170546654611826,-0.009658361785113811,0.019321922212839127
1772562077985799200,8.732799072265625,0.0179485771805048,-0.010351745411753654,0.014415884390473366
1772562077995781000,8.742781005859374,0.013489646837115288,-0.011713951826095581,0.008298869244754314
1772562078005764400,8.752764404296874,0.007584135048091412,-0.0074490271508693695,0.003775103949010372
1772562078015746000,8.76274609375,-0.0017603642772883177,0.004665958695113659,-0.010399304330348969
1772562078025728300,8.772728271484375,-0.004555512219667435,0.005227423273026943,-0.015963226556777954
1772562078035711000,8.7827109375,-0.0002912590280175209,0.008284998126327991,-0.020261302590370178
1772562078045693200,8.792693115234375,0.0008918857201933861,0.003936045803129673,-0.01962803117930889
1772562078055676200,8.80267626953125,0.0026602246798574924,-0.009544875472784042,-0.01919020712375641
1772562078065658000,8.812658203125,0.00812692753970623,-0.016026385128498077,-0.019457045942544937
1772562078075641000,8.82264111328125,0.008664886467158794,-0.02537594363093376,-0.007733811158686876
1772562078085623000,8.832623046875,0.010751417838037014,-0.023275980725884438,0.006984547711908817
1772562078095606000,8.84260595703125,0.012985543347895145,-0.016842583194375038,0.023288952186703682
1772562078105588200,8.852588134765625,0.00882379524409771,-0.012775694020092487,0.04085913300514221
1772562078115570200,8.862570068359375,0.005597375333309174,-0.011826010420918465,0.04973651468753815
1772562078125553200,8.87255322265625,0.004016072489321232,0.0012868252815678716,0.051682643592357635
1772562078135535400,8.882535400390625,0.002400332596153021,0.007913302630186081,0.04462499916553497
1772562078145518000,8.89251806640625,-0.004392874892801046,0.01026056706905365,0.03684496879577637
1772562078155500300,8.902500244140626,-0.012482759542763233,0.007727101445198059,0.02236083522439003
1772562078165483300,8.912483154296876,-0.01764259673655033,-0.000567771727219224,0.00694794999435544
1772562078175465200,8.92246533203125,-0.02364855632185936,-0.0076746828854084015,-0.00421415688470006
1772562078185448200,8.9324482421875,-0.02683093771338463,-0.004663623403757811,-0.0022886227816343307
1772562078195430100,8.94243017578125,-0.025483379140496254,0.0038595572113990784,0.0032723238691687584
1772562078205413000,8.9524130859375,-0.020697977393865585,0.005872549023479223,0.0030757728964090347
1772562078215395300,8.962395263671874,-0.014082950539886951,0.006027012597769499,0.004524532239884138
1772562078225377000,8.972376953125,-0.008883312344551086,-0.0003747307928279042,0.0012492681853473186
1772562078235360300,8.9823603515625,-0.004339960403740406,-0.00791467260569334,-0.005954582244157791
1772562078245342000,8.992342041015625,-0.004119472578167915,-0.007467368617653847,-0.010780025273561478
1772562078255325200,9.0023251953125,-0.005549057386815548,-0.005643635522574186,-0.014421898871660233
1772562078265307100,9.01230712890625,-0.006008751690387726,-0.00333929480984807,-0.016199033707380295
1772562078275290000,9.0222900390625,-0.004611390642821789,-0.0053752814419567585,-0.016450703144073486
1772562078285272000,9.03227197265625,-0.0007722680456936359,0.001787533750757575,-0.016397524625062943
1772562078295255300,9.04225537109375,-0.00042286142706871033,-0.0009579190518707037,-0.016057971864938736
1772562078305237000,9.052237060546876,-0.0017910157330334187,0.001404352835379541,-0.012124316766858101
1772562078315220200,9.06222021484375,-0.004451513756066561,0.0038488684222102165,-0.010687543079257011
1772562078325202200,9.0722021484375,0.004568210802972317,-0.0008341979701071978,-0.008865369483828545
1772562078335185200,9.08218505859375,0.009855118580162525,-0.0017479285597801208,-0.009726636111736298
1772562078345167000,9.0921669921875,0.011577102355659008,-0.002050776034593582,-0.005280093755573034
1772562078355149000,9.102149169921875,0.00993206724524498,-0.0016539652133360505,-0.005306458566337824
1772562078365132000,9.112132080078124,0.010295724496245384,-0.00130732380785048,-0.007665259297937155
1772562078375114200,9.1221142578125,0.005412286147475243,0.006096264347434044,-0.007311325054615736
1772562078385097000,9.132096923828126,-0.0024905106984078884,0.012084546498954296,-0.00578191177919507
1772562078395079200,9.1420791015625,-0.011259500868618488,0.014562351629137993,-0.0075270808301866055
1772562078405062100,9.152062255859375,-0.01952444016933441,0.014058987610042095,-0.014033794403076172
1772562078415044000,9.162044189453125,-0.02318788506090641,0.021176552399992943,-0.01775396429002285
1772562078425027000,9.172027099609375,-0.0235175509005785,0.02179795876145363,-0.025411874055862427
1772562078435009300,9.18200927734375,-0.0163738876581192,0.019797392189502716,-0.030563227832317352
1772562078444992000,9.191991943359374,-0.006871316581964493,0.006949121598154306,-0.04137175902724266
1772562078454974200,9.20197412109375,0.0032122100237756968,-0.006885734386742115,-0.044399239122867584
1772562078464956200,9.2119560546875,0.0142774423584342,-0.01742500811815262,-0.042974695563316345
1772562078474939100,9.221939208984375,0.02508454956114292,-0.03128782659769058,-0.036528781056404114
1772562078484921300,9.23192138671875,0.032447416335344315,-0.03805508092045784,-0.02347470074892044
1772562078494904000,9.241904052734375,0.030712896957993507,-0.040845803916454315,-0.010551977902650833
1772562078504886300,9.25188623046875,0.02630268596112728,-0.03757675737142563,0.004056040663272142
1772562078514869200,9.261869140625,0.018995238468050957,-0.032797981053590775,0.01443810760974884
1772562078524851200,9.271851318359374,0.00902828760445118,-0.01958341896533966,0.019454309716820717
1772562078534834200,9.281834228515624,0.00048247002996504307,-0.004655070137232542,0.034073200076818466
1772562078544816000,9.291816162109376,-0.0041062007658183575,0.011809580028057098,0.04292958229780197
1772562078554798000,9.301798095703125,0.0014518162934109569,0.024364253506064415,0.04612430930137634
1772562078564781300,9.31178125,0.010535717010498047,0.019831063225865364,0.03657859191298485
1772562078574763000,9.321762939453125,0.012193268164992332,0.0030299790669232607,0.016693299636244774
1772562078584746200,9.331746337890625,0.013662154786288738,-0.014859597198665142,-0.005829217843711376
1772562078594728200,9.341728271484374,0.009692447260022163,-0.02311859093606472,-0.030350275337696075
1772562078604711200,9.351711181640624,0.005270768888294697,-0.01499204896390438,-0.04808613657951355
1772562078614693000,9.361693115234376,-0.002397004282101989,-0.0065234629437327385,-0.0516585037112236
1772562078624676400,9.37167626953125,-0.008930973708629608,0.012639323249459267,-0.0474189892411232
1772562078634658000,9.381657958984375,-0.012845819815993309,0.026656605303287506,-0.0368928425014019
1772562078644641300,9.391641357421875,-0.008753244765102863,0.035816825926303864,-0.022483784705400467
1772562078654623000,9.401623046875,-0.001513441326096654,0.037157993763685226,-0.01543279830366373
1772562078664605200,9.411605224609374,0.005196967162191868,0.038366422057151794,-0.010719599202275276
1772562078674588200,9.421588134765624,0.013936929404735565,0.03381481394171715,-0.010593365877866745
1772562078684570000,9.431570068359376,0.016509905457496643,0.024449285119771957,-0.017699185758829117
1772562078694553000,9.441552978515626,0.018678518012166023,0.019862256944179535,-0.027079369872808456
1772562078704535600,9.45153564453125,0.01713099330663681,0.011648954823613167,-0.03302307799458504
1772562078714518500,9.4615185546875,0.015224969014525414,0.0034370976500213146,-0.03772488981485367
1772562078724500500,9.47150048828125,0.009805534966289997,-0.0015515255508944392,-0.03990332782268524
1772562078734483500,9.4814833984375,0.007863025180995464,-0.01107871811836958,-0.045880261808633804
1772562078744465700,9.491465576171874,0.0029884560499340296,-0.010574882850050926,-0.044342126697301865
1772562078754448400,9.501448486328124,0.002165805548429489,-0.00611488800495863,-0.037613652646541595
1772562078764430600,9.5114306640625,0.0004001343622803688,0.0028098877519369125,-0.028558693826198578
1772562078774412300,9.521412353515625,0.00026404671370983124,0.00926911924034357,-0.017704449594020844
1772562078784395500,9.5313955078125,0.0000072391703724861145,0.01604929380118847,-0.0070676724426448345
1772562078794377500,9.54137744140625,-0.0016979826614260674,0.014005851000547409,-0.001557325478643179
1772562078804360400,9.5513603515625,0.0014826564583927393,0.007024211809039116,-0.0024627353996038437
1772562078814342400,9.56134228515625,0.007043869234621525,-0.0033293594606220722,-0.00648597301915288
1772562078824325600,9.57132568359375,0.005650040227919817,-0.011408078484237194,-0.007919611409306526
1772562078834307300,9.581307373046876,0.007041541859507561,-0.02086655981838703,-0.013826236128807068
1772562078844290600,9.59129052734375,0.008956712670624256,-0.029562365263700485,-0.01555771753191948
1772562078854272500,9.6012724609375,0.004797920119017363,-0.028973806649446487,-0.014293782413005829
1772562078864255500,9.61125537109375,0.00447491928935051,-0.025569336488842964,-0.007711312267929316
1772562078874237400,9.621237548828125,0.0007190629839897156,-0.014226933941245079,-0.007280146237462759
1772562078884219400,9.631219482421875,0.00020936643704771996,-0.010219049639999866,-0.0025594173930585384
1772562078894202400,9.641202392578125,-0.001595457550138235,-0.0069934288039803505,0.011381431482732296
1772562078904184600,9.6511845703125,-0.0007780794985592365,-0.005157584324479103,0.014864936470985413
1772562078914167300,9.661167236328126,-0.0018433439545333385,-0.004885409492999315,0.01864156499505043
1772562078924149500,9.6711494140625,0.00009081489406526089,-0.003052900778129697,0.015427635982632637
1772562078934132500,9.681132568359375,0.0007864325307309628,-0.00018121430184692144,0.01327819935977459
1772562078944114400,9.691114501953125,-0.0019317963160574436,-0.0028931163251399994,0.010455776005983353
1772562078954097400,9.701097412109375,-0.005048493854701519,-0.007182137109339237,0.0050652711652219296
1772562078964079600,9.71107958984375,-0.005066285841166973,-0.010044438764452934,-0.0026902169920504093
1772562078974061600,9.7210615234375,-0.0045216698199510574,-0.005110133904963732,-0.010580897331237793
1772562078984044500,9.73104443359375,-0.007767034694552422,-0.006274282932281494,-0.01182641088962555
1772562078994026500,9.741026611328126,-0.009707147255539894,-0.0021354644559323788,-0.009647412225604057
1772562079004009500,9.751009521484375,-0.010921848006546497,0.0031337738037109375,-0.0023112110793590546
1772562079013991700,9.76099169921875,-0.011122384108603,0.012382932007312775,0.00343216210603714
1772562079023974400,9.770974365234375,-0.007318222429603338,0.014796094968914986,0.0061312271282076836
1772562079033956600,9.78095654296875,-0.006473201792687178,0.01873011700809002,0.006047337781637907
1772562079043939600,9.790939697265625,-0.011289766989648342,0.012202473357319832,0.0011762359645217657
1772562079053921500,9.800921630859374,-0.009607714600861073,0.006012221332639456,-0.009628474712371826
1772562079063904500,9.810904541015624,-0.012739237397909164,-0.00031728879548609257,-0.0200504083186388
1772562079073886500,9.820886474609376,-0.012341894209384918,-0.007012209855020046,-0.02893657609820366
1772562079083868400,9.830868408203125,-0.008442509919404984,-0.008661017753183842,-0.02496168203651905
1772562079093851600,9.8408515625,-0.0019132383167743683,-0.013211561366915703,-0.017038511112332344
1772562079103833300,9.850833251953125,-0.00013615028001368046,-0.011154688894748688,-0.006969565059989691
1772562079113816600,9.860816650390625,0.00760565884411335,-0.005192670039832592,0.0031003791373223066
1772562079123798500,9.870798583984374,0.008010732010006905,0.004363344982266426,0.011738533154129982
1772562079133781500,9.880781494140624,0.011574041098356247,0.003563864156603813,0.018236646428704262
1772562079143763500,9.890763427734376,0.01156987901777029,-0.00280933640897274,0.018691275268793106
1772562079153746700,9.90074658203125,0.010687041096389294,-0.008457368239760399,0.02021060883998871
1772562079163728400,9.910728271484375,0.010856052860617638,-0.014799163676798344,0.009054599329829216
1772562079173711600,9.920711669921875,0.009645912796258926,-0.010816939175128937,0.0005556531250476837
1772562079183693300,9.930693359375,0.0011805228423327208,-0.0058275070041418076,-0.009441588073968887
1772562079193675500,9.940675537109374,-0.006331722252070904,-0.0030208018142729998,-0.01558869518339634
1772562079203658500,9.950658447265624,-0.013540017418563366,-0.00617588497698307,-0.0210363008081913
1772562079213640400,9.960640380859376,-0.013379163108766079,-0.0074584633111953735,-0.025896036997437477
1772562079223623400,9.97062353515625,-0.013988743536174297,-0.0011427303543314338,-0.02779633179306984
1772562079233605400,9.98060546875,-0.008875475265085697,0.0006969813839532435,-0.026995517313480377
1772562079243588400,9.99058837890625,-0.0009133894927799702,-0.00031759089324623346,-0.018665675073862076
1772562079253570600,10.000570556640625,0.003218771191313863,-0.001871811575256288,-0.01153159886598587
1772562079263553500,10.010553466796875,0.002630452858284116,-0.01186596043407917,-0.00015969853848218918
1772562079273535500,10.020535400390624,-0.00009449361823499203,-0.02395910769701004,-0.0060202511958777905
1772562079283518500,10.0305185546875,0.0021518596913665533,-0.02856135182082653,-0.0012705852277576923
1772562079293500400,10.04050048828125,-0.0005368676502257586,-0.017683137208223343,-0.00041224854066967964
1772562079303482600,10.050482666015625,-0.010464564897119999,-0.0066620223224163055,-0.0026562977582216263
1772562079313465600,10.060465576171875,-0.022250384092330933,-0.004302461165934801,-0.005944768898189068
1772562079323447600,10.070447509765625,-0.025527292862534523,0.0006632624426856637,-0.01783021166920662
1772562079333430500,10.080430419921875,-0.031011806800961494,-0.00012796279042959213,-0.02722823992371559
1772562079343412500,10.09041259765625,-0.03207267075777054,-0.012893129140138626,-0.04273400083184242
1772562079353395500,10.1003955078125,-0.030906207859516144,-0.01815686747431755,-0.046417154371738434
1772562079363377700,10.110377685546876,-0.03278067708015442,-0.022552311420440674,-0.049446992576122284
1772562079373360400,10.1203603515625,-0.03799940645694733,-0.04104849696159363,-0.047054145485162735
1772562079383342600,10.130342529296875,-0.044074080884456635,-0.06953686475753784,-0.0393938273191452
1772562079393325600,10.14032568359375,-0.04106603562831879,-0.03408912569284439,-0.0343782976269722
1772562079403307500,10.1503076171875,-0.02952948398888111,-0.01845550909638405,-0.021370962262153625
1772562079413289500,10.16028955078125,-0.020774876698851585,-0.013064472936093807,-0.010584359988570213
1772562079423272700,10.170272705078125,-0.01549224741756916,0.00006992544513195753,0.006880246102809906
1772562079433254400,10.18025439453125,-0.01157979667186737,0.0008872495382092893,0.017111312597990036
1772562079443237600,10.190237548828126,0.00002509821206331253,-0.0001930126454681158,0.0284329354763031
1772562079453219300,10.20021923828125,0.010259892791509628,0.0014381734654307365,0.03384687751531601
1772562079463202600,10.21020263671875,0.015928739681839943,-0.00026689842343330383,0.026064256206154823
1772562079473184500,10.2201845703125,0.015208621509373188,-0.0036435206420719624,0.018324045464396477
1772562079483167500,10.23016748046875,0.013346805237233639,-0.009145078249275684,0.00895211473107338
1772562079493149400,10.2401494140625,0.011860495433211327,-0.020321566611528397,0.0038724015466868877
1772562079503132700,10.250132568359374,0.007061526644974947,-0.02577078714966774,-0.0010862573981285095
1772562079513114400,10.2601142578125,0.002450796077027917,-0.026212872937321663,-0.0015800073742866516
1772562079523096600,10.2700966796875,-0.0015219380147755146,-0.025632314383983612,0.0008735349401831627
1772562079533079300,10.280079345703125,-0.0035006669349968433,-0.019671892747282982,0.006028083153069019
1772562079543061500,10.2900615234375,-0.0018022668082267046,-0.011682071723043919,0.01177273876965046
1772562079553044500,10.30004443359375,-0.003923474811017513,-0.002695501083508134,0.01875528134405613
1772562079563026400,10.3100263671875,-0.0030161524191498756,0.003927201498299837,0.018309596925973892
1772562079573009400,10.320009521484375,-0.00932731106877327,0.000771089515183121,0.0118586216121912
1772562079582991600,10.32999169921875,-0.01139469537883997,-0.0011069406755268574,0.001726711168885231
1772562079592974300,10.339974365234376,-0.009659379720687866,-0.0039842198602855206,-0.007725646253675222
1772562079602956500,10.34995654296875,-0.007515083998441696,-0.00902448408305645,-0.012128807604312897
1772562079612939500,10.359939453125,-0.006200813688337803,-0.014429636299610138,-0.015738189220428467
1772562079622921500,10.36992138671875,-0.00381082808598876,-0.01578792743384838,-0.020091906189918518
1772562079632903700,10.379903564453125,-0.0015633865259587765,-0.013536226004362106,-0.01613764464855194
1772562079642886400,10.389886474609375,-0.005953921936452389,-0.006734385155141354,-0.012244516983628273
1772562079652868600,10.39986865234375,-0.007565666921436787,-0.0024054166860878468,-0.0095768291503191
1772562079662851600,10.4098515625,-0.010229280218482018,0.0017605309840291739,-0.006605383008718491
1772562079672833500,10.41983349609375,-0.013722549192607403,-0.003931709565222263,-0.012323988601565361
1772562079682816500,10.42981640625,-0.014138496480882168,-0.01394530851393938,-0.015743020921945572
1772562079692798700,10.439798828125,-0.019452035427093506,-0.013353820890188217,-0.01946185901761055
1772562079702781400,10.449781494140625,-0.017368925735354424,-0.017173372209072113,-0.01559082604944706
1772562079712763000,10.459762939453125,-0.014400833286345005,-0.011651573702692986,-0.008354751393198967
1772562079722744800,10.469744873046874,-0.012847780250012875,-0.007493918761610985,0.004036718513816595
1772562079732727800,10.479727783203124,-0.016270741820335388,-0.007291784510016441,0.013367636129260063
1772562079742709800,10.489709716796876,-0.01615632325410843,0.0046014138497412205,0.015352381393313408
1772562079752693000,10.49969287109375,-0.019364632666110992,0.003975571133196354,0.013344092294573784
1772562079762674700,10.5096748046875,-0.02475680783390999,-0.011724870651960373,0.00930101703852415
1772562079772658000,10.519657958984375,-0.025505423545837402,-0.005094931926578283,-0.00027650920674204826
1772562079782639900,10.529639892578125,-0.020747961476445198,-0.005456308368593454,-0.013635671697556973
1772562079792622800,10.539622802734375,-0.012368857860565186,-0.0030426853336393833,-0.02466968074440956
1772562079802604800,10.549604736328124,-0.006970463320612907,0.0020237029530107975,-0.02764046937227249
1772562079812588000,10.559588134765624,-0.004096379969269037,0.00020529667381197214,-0.02564416080713272
1772562079822569700,10.56956982421875,-0.0027098560240119696,-0.005835322197526693,-0.021360043436288834
1772562079832552000,10.579552001953125,0.0041379304602742195,-0.0086268475279212,-0.011066657491028309
1772562079842534700,10.58953466796875,0.01004784181714058,-0.00962664745748043,-0.0011976789683103561
1772562079852516900,10.599516845703125,0.01059032790362835,-0.012836023233830929,0.010013963095843792
1772562079862499800,10.609499755859375,0.010248830541968346,-0.009369617328047752,0.020607860758900642
1772562079872481800,10.619481689453124,0.012114373967051506,-0.0044419714249670506,0.023939209058880806
1772562079882464800,10.62946484375,0.014664553105831146,-0.002871423726901412,0.029500404372811317
1772562079892447000,10.639447021484376,0.013672259636223316,-0.001541973790153861,0.030267128720879555
1772562079902429700,10.6494296875,0.014851022511720657,-0.0066705504432320595,0.023477813228964806
1772562079912412000,10.659411865234375,0.015395106747746468,-0.01187889464199543,0.016249461099505424
1772562079922395000,10.669394775390625,0.020107010379433632,-0.021678026765584946,0.00308750057592988
1772562079932376800,10.679376953125,0.023272709921002388,-0.02784111350774765,-0.0058535304851830006
1772562079942359000,10.689359130859375,0.024478137493133545,-0.025025922805070877,-0.013665487989783287
1772562079952341800,10.699341796875,0.024262424558401108,-0.023816315457224846,-0.005964426789432764
1772562079962324000,10.709323974609376,0.023983677849173546,-0.0189057607203722,0.009532343596220016
1772562079972307000,10.719306884765626,0.019951919093728065,-0.009610796347260475,0.017531413584947586
1772562079982289000,10.729288818359375,0.014327848330140114,0.00044904107926413417,0.02521868422627449
1772562079992272000,10.73927197265625,0.009361851960420609,0.007780457381159067,0.027360931038856506
1772562080002253800,10.74925390625,0.007433192804455757,0.013085005804896355,0.029206156730651855
1772562080012236800,10.75923681640625,0.006789506878703833,0.011006674729287624,0.0286926981061697
1772562080022219000,10.769218994140624,0.008074423298239708,0.0038004314992576838,0.01906431093811989
1772562080032201700,10.77920166015625,0.0064943693578243256,-0.0029072724282741547,0.009259884245693684
1772562080042184000,10.789183837890626,0.007818518206477165,-0.009040692821145058,-0.0011884314008057117
1772562080052166000,10.799165771484375,0.006394525524228811,-0.017552688717842102,-0.007125149946659803
1772562080062148900,10.80914892578125,0.0008305287919938564,-0.01509444136172533,-0.015752818435430527
1772562080072130800,10.819130859375,-0.0026968279853463173,-0.012952993623912334,-0.019592564553022385
1772562080082114000,10.829114013671875,-0.005440362263470888,-0.007779538631439209,-0.01904529519379139
1772562080092095700,10.839095703125,-0.009332573041319847,0.0047194757498800755,-0.00833672285079956
1772562080102079000,10.849078857421874,-0.009031967259943485,0.005522896070033312,0.003528006374835968
1772562080112060700,10.859060791015626,-0.007085463032126427,0.010392220690846443,0.011448513716459274
1772562080122044000,10.8690439453125,-0.006490196567028761,0.004909779876470566,0.018346762284636497
1772562080132025900,10.87902587890625,-0.0023971842601895332,-0.006838222499936819,0.0060647958889603615
1772562080142008800,10.8890087890625,-0.0027719130739569664,-0.011896205134689808,-0.0002496205270290375
1772562080151990800,10.89899072265625,-0.0015756208449602127,-0.016165252774953842,-0.0011484376154839993
1772562080161972700,10.90897265625,-0.0022816029377281666,-0.014998414553701878,0.0010750973597168922
1772562080171955700,10.918955810546874,-0.0014227335341274738,-0.005523419938981533,0.012806854210793972
1772562080181938000,10.92893798828125,-0.0010994751937687397,0.005098193418234587,0.01534469984471798
1772562080191921000,10.9389208984375,0.0023937930818647146,0.0021181164775043726,0.015267467126250267
1772562080201902800,10.94890283203125,0.0025075594894587994,-0.0022005941718816757,0.014208742417395115
1772562080211885800,10.9588857421875,-0.0018144845962524414,-0.0016123017994686961,0.006135369651019573
1772562080221867800,10.96886767578125,0.00001638452522456646,-0.01115034706890583,-0.004986860789358616
1772562080231850800,10.978850830078125,0.003349064150825143,-0.015690770000219345,-0.01611354574561119
1772562080241833000,10.9888330078125,0.004989214241504669,-0.016221294179558754,-0.0157900582998991
1772562080251815700,10.998815673828124,0.004054711200296879,-0.01704687438905239,-0.01812245510518551
1772562080261798000,11.0087978515625,0.0007795847486704588,-0.010042326524853706,-0.012351131066679955
1772562080271779800,11.01877978515625,0.0004951590672135353,-0.0034499377943575382,0.0020395261235535145
1772562080281762800,11.0287626953125,-0.002006048569455743,0.0015094924019649625,0.013421354815363884
1772562080291745000,11.0387451171875,-0.008251161314547062,0.0020522447302937508,0.02271472103893757
1772562080301727700,11.048727783203125,-0.008082899264991283,0.0007639362011104822,0.03114001452922821
1772562080311710000,11.0587099609375,-0.009780398570001125,0.002827619668096304,0.03413607180118561
1772562080321693000,11.06869287109375,-0.001179827144369483,-0.0019749924540519714,0.029920944944024086
1772562080331675000,11.0786748046875,0.002235943451523781,-0.005623523145914078,0.025829264894127846
1772562080341657900,11.088657958984374,0.007062929682433605,-0.00684026163071394,0.017646893858909607
1772562080351640000,11.09864013671875,0.004866886883974075,-0.005012799985706806,0.006795843597501516
1772562080361621800,11.108621826171875,0.0029081888496875763,-0.004796425811946392,0.00044190045446157455
1772562080371605000,11.11860498046875,-0.0033233417198061943,-0.003577497089281678,-0.007091117091476917
1772562080381586700,11.128586669921875,-0.010544268414378166,-0.010171842761337757,-0.01828545704483986
1772562080391570000,11.13856982421875,-0.019879447296261787,-0.008830674923956394,-0.027827829122543335
1772562080401552000,11.1485517578125,-0.012919783592224121,-0.0038003912195563316,-0.03200999274849892
1772562080411534800,11.158534912109374,-0.013052942231297493,-0.008432161062955856,-0.030728481709957123
1772562080421516800,11.168516845703126,-0.008689284324645996,0.0005266943480819464,-0.02942812070250511
1772562080431500000,11.1785,-0.0036015817895531654,-0.009637259878218174,-0.023609379306435585
1772562080441481700,11.188481689453125,0.0005974054802209139,-0.014834794215857983,-0.01517893560230732
1772562080451465000,11.19846484375,0.010420208796858788,-0.008331355638802052,-0.0007640430703759193
1772562080461446700,11.20844677734375,0.01816503144800663,0.010719789192080498,0.0185873843729496
1772562080471428900,11.218428955078124,0.020476656034588814,0.01583865098655224,0.028134815394878387
1772562080481411800,11.228411865234374,0.024514568969607353,0.014360698871314526,0.027922362089157104
1772562080491393800,11.238393798828126,0.022471925243735313,0.006375476717948914,0.01579752191901207
1772562080501376800,11.248376708984376,0.019584041088819504,-0.01039297878742218,-0.0021973098628222942
1772562080511359000,11.25835888671875,0.02023465186357498,-0.023772699758410454,-0.00793349277228117
1772562080521341700,11.268341796875,0.01832563616335392,-0.0251364316791296,-0.01682479865849018
1772562080531324000,11.278323974609375,0.011105007492005825,-0.01184166595339775,-0.004947632551193237
1772562080541307000,11.288306884765625,0.011464078910648823,0.00012042908929288387,0.009652563370764256
1772562080551288800,11.298288818359374,0.00846615806221962,0.003068814519792795,0.0210769921541214
1772562080561271800,11.308271728515624,0.010357009246945381,0.0030997670255601406,0.028627244755625725
1772562080571253800,11.318253662109376,0.010100014507770538,0.010143828578293324,0.027502592653036118
1772562080581236000,11.328236083984375,0.009874309413135052,0.00799768976867199,0.02400776371359825
1772562080591219000,11.338218994140625,0.01203067135065794,-0.0046850829385221004,0.016741061583161354
1772562080601201000,11.348200927734375,0.009335752576589584,-0.011622268706560135,0.005003693513572216
1772562080611183900,11.358183837890625,0.005739420652389526,-0.014007129706442356,-0.005197012331336737
1772562080621166000,11.368166015625,-0.0011340633500367403,-0.01199441496282816,-0.010568646714091301
1772562080631148800,11.378148681640624,-0.010955534875392914,-0.0019772006198763847,-0.011329512111842632
1772562080641131000,11.388131103515626,-0.0096922991797328,0.0030042515136301517,-0.00923144444823265
1772562080651114000,11.398114013671876,-0.010011611506342888,0.004922526888549328,-0.009182708337903023
1772562080661096000,11.408095947265625,-0.010189130902290344,0.007136735133826733,-0.01140335388481617
1772562080671079000,11.418078857421875,-0.009359023533761501,0.0048509445041418076,-0.014596482738852501
1772562080681060900,11.428060791015625,-0.006348320282995701,-0.0009467573836445808,-0.019917212426662445
1772562080691042800,11.438042724609375,-0.004101145081222057,-0.005045095458626747,-0.01674725115299225
1772562080701026000,11.448026123046875,-0.00019909744150936604,-0.005051267333328724,-0.009013835340738297
1772562080711007700,11.4580078125,0.00046216556802392006,-0.010597567074000835,0.0020870182197541
1772562080720991000,11.467990966796876,0.006107065826654434,-0.011858387850224972,0.007321213837713003
1772562080730972700,11.47797265625,0.00969540886580944,0.001256082090549171,0.01050315797328949
1772562080740956000,11.487955810546875,0.004949470050632954,0.0008256806177087128,0.008169585838913918
1772562080750937900,11.497937744140625,0.001111588440835476,0.006051335483789444,0.0024163592606782913
1772562080760920800,11.5079208984375,-0.007956450805068016,0.00840088166296482,-0.010963032022118568
1772562080770902800,11.51790283203125,-0.010876340791583061,0.011141806840896606,-0.018998321145772934
1772562080780886000,11.527885986328124,-0.009434489533305168,0.011619357392191887,-0.023464571684598923
1772562080790867700,11.53786767578125,-0.009113844484090805,0.011363428086042404,-0.03209348022937775
1772562080800850000,11.547849853515626,-0.0018455102108418941,-0.0009788364404812455,-0.026271877810359
1772562080810833000,11.5578330078125,-0.0006862359587103128,-0.0023258631117641926,-0.027781091630458832
1772562080820814800,11.56781494140625,0.0003729495219886303,-0.0014826314290985465,-0.018511468544602394
1772562080830797800,11.5777978515625,-0.0009210803546011448,0.001556301605887711,-0.011131849139928818
1772562080840779800,11.58777978515625,0.0003770305775105953,0.0006271504680626094,-0.0062592485919594765
1772562080850762800,11.5977626953125,-0.00290504889562726,-0.0040184673853218555,-0.007043282501399517
1772562080860745000,11.607744873046874,-0.003445692826062441,-0.004909934941679239,-0.010083608329296112
1772562080870727700,11.617727783203126,-0.003646761178970337,-0.0015647381078451872,-0.012795239686965942
1772562080880710000,11.6277099609375,-0.005895454436540604,0.0014294192660599947,-0.00600242568179965
1772562080890692900,11.63769287109375,-0.009285392239689827,0.0037780608981847763,0.00044854963198304176
1772562080900674800,11.6476748046875,-0.009470822289586067,0.0029352661222219467,0.012436537072062492
1772562080910657000,11.657656982421875,-0.004908561706542969,0.013139434158802032,0.02107742801308632
1772562080920640000,11.667639892578125,-0.0016959316562861204,0.006977003533393145,0.017552297562360764
1772562080930622000,11.6776220703125,0.005835487507283688,-0.0008598805870860815,0.01075857412070036
1772562080940605000,11.68760498046875,0.013863827101886272,-0.002384838880971074,0.0072029028087854385
1772562080950587000,11.6975869140625,0.012174317613244057,-0.004224549978971481,0.0008525955490767956
1772562080960569900,11.70756982421875,0.007319989614188671,-0.0042168633081018925,-0.002224529627710581
1772562080970552000,11.717552001953125,0.004036578815430403,-0.002748928964138031,-0.005890637170523405
1772562080980534800,11.72753466796875,-0.00018283608369529247,-0.00434148870408535,-0.0024759043008089066
1772562080990517000,11.73751708984375,-0.0032417429611086845,-0.006238725036382675,0.0034336503595113754
1772562081000498700,11.747498779296874,-0.009225082583725452,-0.007178600877523422,0.005883088335394859
1772562081010482000,11.75748193359375,-0.0093334736302495,0.004790977109223604,0.011566007509827614
1772562081020463900,11.7674638671875,-0.015335571020841599,0.0023066778667271137,0.010486057959496975
1772562081030446800,11.77744677734375,-0.017045587301254272,0.0003061111783608794,0.011251184158027172
1772562081040428800,11.7874287109375,-0.017277264967560768,0.006560857407748699,0.007338871248066425
1772562081050412000,11.797412109375,-0.015874311327934265,0.008730800822377205,0.004531366750597954
1772562081060393700,11.807393798828125,-0.01329631544649601,0.008636917918920517,0.0039210631512105465
1772562081070377000,11.817376953125,-0.012308815494179726,0.008994047529995441,0.0039205304346978664
1772562081080359000,11.82735888671875,-0.0072171809151768684,0.012186459265649319,0.003350063692778349
1772562081090342000,11.837341796875,-0.0013276005629450083,0.005959456320852041,0.0005103349685668945
1772562081100323800,11.84732373046875,0.006612144876271486,-0.0065337796695530415,0.0017055794596672058
1772562081110305800,11.857305908203125,0.008854793384671211,-0.008467501029372215,0.008154956623911858
1772562081120288800,11.867288818359375,0.009099660441279411,-0.010778742842376232,0.018310748040676117
1772562081130271000,11.87727099609375,-0.0013998523354530334,-0.024052735418081284,0.027331139892339706
1772562081140253700,11.887253662109375,0.00416098115965724,-0.014661955647170544,0.030952872708439827
1772562081150236000,11.89723583984375,0.010717684403061867,0.008723528124392033,0.03422057256102562
1772562081160219000,11.907218994140624,0.006740775890648365,0.014486018568277359,0.024848980829119682
1772562081170200800,11.917200927734376,0.0026072831824421883,0.004875469021499157,0.020700842142105103
1772562081180183800,11.927183837890626,0.0011278742458671331,-0.004108206368982792,0.01975107565522194
1772562081190166000,11.937166015625,0.0031135270837694407,-0.01173416804522276,0.012069454416632652
