time,seconds_elapsed,z,y,x
1772649859878058000,0.12905810546875,9.970293998718262,0.9954141974449158,1.1832507848739624
1772649859897811000,0.14881103515625,10.131211280822754,0.5790630578994751,0.7459624409675598
1772649859917564200,0.168564208984375,9.66102123260498,0.6059823632240295,0.7328019142150879
1772649859927440600,0.178440673828125,9.55753231048584,0.7423732280731201,0.841675341129303
1772649859937317400,0.1883173828125,9.569496154785156,0.8201399445533752,1.007378339767456
1772649859947193900,0.19819384765625,9.626923561096191,0.7878368496894836,1.093519926071167
1772649859957070300,0.2080703125,9.641280174255371,0.8901300430297852,1.2735798358917236
1772649859966947000,0.217947021484375,9.68913745880127,0.9822536706924438,1.4321043491363525
1772649859976823600,0.227823486328125,9.612566947937012,1.046859860420227,1.5152549743652344
1772649859986700000,0.237699951171875,9.399605751037598,1.079761266708374,1.5224334001541138
1772649859996576800,0.24757666015625,9.263813018798828,1.057029366493225,1.4446666240692139
1772649860006453200,0.257453369140625,9.215956687927246,1.0253244638442993,1.3854442834854126
1772649860016329700,0.267329833984375,9.2255277633667,1.0031908750534058,1.3142578601837158
1772649860026206500,0.27720654296875,9.30449104309082,1.0007981061935425,1.2711870670318604
1772649860036083000,0.2870830078125,9.378069877624512,1.0079765319824219,1.256830096244812
1772649860045959400,0.29695947265625,9.392427444458008,1.012762188911438,1.2233306169509888
1772649860055836200,0.306836181640625,9.387641906738281,1.0336993932724,1.170688509941101
1772649860065712600,0.316712646484375,9.387042999267578,1.046859860420227,1.1012966632843018
1772649860075589000,0.326589111328125,9.41336441040039,1.0396814346313477,1.0654042959213257
1772649860085465900,0.3364658203125,9.592227935791016,1.0205388069152832,0.9936196208000183
1772649860095342300,0.34634228515625,9.869794845581055,0.9786644577980042,1.007378339767456
1772649860105218800,0.35621875,10.0612211227417,0.9128618240356445,1.0097711086273193
1772649860115095300,0.36609521484375,10.173684120178223,0.8225327730178833,0.9954141974449158
1772649860124972000,0.375971923828125,10.13300609588623,0.8033902049064636,1.0007981061935425
1772649860134848500,0.3858486328125,9.968499183654785,0.7908278703689575,1.0372886657714844
1772649860144725000,0.39572509765625,9.93978500366211,0.711864709854126,0.9786644577980042
1772649860154601700,0.405601806640625,9.942776679992676,0.6089733839035034,0.9864411354064941
1772649860164478200,0.415478271484375,9.754341125488281,0.597607433795929,1.090528964996338
1772649860174354700,0.425354736328125,9.508479118347168,0.6927221417427063,1.1665010452270508
1772649860184231400,0.4352314453125,9.230911254882812,0.8267202377319336,1.306481122970581
1772649860194108000,0.44510791015625,8.989236831665039,0.9326026439666748,1.475175142288208
1772649860203984400,0.454984375,8.915059089660645,0.9906286001205444,1.5900306701660156
1772649860213861000,0.464861083984375,8.922237396240234,1.0253244638442993,1.7060825824737549
1772649860223737600,0.474737548828125,9.101698875427246,1.073180913925171,1.688734531402588
1772649860233614000,0.484614013671875,9.457033157348633,1.0648061037063599,1.6582261323928833
1772649860243490600,0.494490478515625,9.6795654296875,0.9571290612220764,1.5798611640930176
1772649860253367300,0.5043671875,9.825528144836426,0.914058268070221,1.4416756629943848
1772649860263243800,0.514243896484375,9.8871431350708,0.867398202419281,1.2891331911087036
1772649860273120300,0.524120361328125,9.93978500366211,0.8476574420928955,1.215553879737854
1772649860282997000,0.5339970703125,10.021141052246094,0.8548358678817749,1.2035897970199585
1772649860292873500,0.54387353515625,9.992427825927734,0.8566305041313171,1.1270195245742798
1772649860302750000,0.55375,9.966106414794922,0.8356932997703552,1.0157532691955566
1772649860312626700,0.563626708984375,9.856036186218262,0.8644071817398071,1.0037890672683716
1772649860322503200,0.573503173828125,9.705288887023926,0.8973084688186646,1.042074203491211
1772649860332379600,0.583379638671875,9.610174179077148,0.9212366938591003,1.0636097192764282
1772649860342256000,0.593256103515625,9.524032592773438,0.9547362327575684,1.1330015659332275
1772649860352132900,0.6031328125,9.509675025939941,0.9750752449035645,1.2113664150238037
1772649860362009300,0.61300927734375,9.619745254516602,0.9349954724311829,1.2448660135269165
1772649860371885800,0.6228857421875,9.751350402832031,0.8303094506263733,1.2424731254577637
1772649860381762600,0.632762451171875,9.77109146118164,0.7447660565376282,1.2580264806747437
1772649860391639000,0.64263916015625,9.735198974609375,0.7537391185760498,1.2556337118148804
1772649860401515500,0.652515625,9.639486312866211,0.7657032608985901,1.2394821643829346
1772649860411392300,0.662392333984375,9.541379928588867,0.8135597109794617,1.296311616897583
1772649860421268700,0.672268798828125,9.493523597717285,0.8614161610603333,1.32921302318573
1772649860431145200,0.682145263671875,9.42891788482666,0.8925228714942932,1.3956137895584106
1772649860441022000,0.69202197265625,9.390632629394531,0.9284151792526245,1.4428720474243164
1772649860450898400,0.7018984375,9.404989242553711,0.9457631707191467,1.4691931009292603
1772649860460775000,0.71177490234375,9.467203140258789,0.9367900490760803,1.495514154434204
1772649860470651400,0.7216513671875,9.500701904296875,0.8865407705307007,1.4835500717163086
1772649860480528100,0.731528076171875,9.515059471130371,0.8446664214134216,1.3668999671936035
1772649860490404600,0.741404541015625,9.498309135437012,0.7603194117546082,1.2610175609588623
1772649860500281000,0.751281005859375,9.45583724975586,0.6903293132781982,1.1784651279449463
1772649860510157800,0.76115771484375,9.427123069763184,0.6544370055198669,1.1413763761520386
1772649860520034300,0.771034423828125,9.525228500366211,0.623330295085907,1.1030912399291992
1772649860529910800,0.780910888671875,9.764511108398438,0.5665007829666138,1.1024930477142334
1772649860539787500,0.79078759765625,9.996016502380371,0.4456632137298584,1.0528420209884644
1772649860549664000,0.8006640625,10.063015937805176,0.37148571014404297,1.0319048166275024
1772649860559540500,0.81054052734375,10.039087295532227,0.4175475537776947,1.0767701864242554
1772649860569417000,0.8204169921875,10.017552375793457,0.5228317379951477,1.176072359085083
1772649860579293700,0.830293701171875,10.022337913513184,0.6652047038078308,1.3316057920455933
1772649860589170200,0.840170166015625,10.026525497436523,0.7645068168640137,1.4877375364303589
1772649860599046700,0.850046630859375,10.055238723754883,0.8225327730178833,1.6037893295288086
1772649860608923400,0.85992333984375,9.947562217712402,0.9026923179626465,1.730010747909546
1772649860618799900,0.8697998046875,9.79262638092041,0.9595218896865845,1.7653049230575562
1772649860628676400,0.87967626953125,9.617950439453125,0.9421738982200623,1.7258232831954956
1772649860638553000,0.889552978515625,9.434301376342773,0.8835497498512268,1.6390835046768188
1772649860648429600,0.8994296875,9.276973724365234,0.8123632669448853,1.566102385520935
1772649860658306000,0.90930615234375,9.174081802368164,0.7657032608985901,1.4644074440002441
1772649860668182800,0.919182861328125,9.134002685546875,0.722034215927124,1.389033555984497
1772649860678059300,0.929059326171875,9.181859016418457,0.6089733839035034,1.2664014101028442
1772649860687935700,0.938935791015625,9.253643035888672,0.5222335457801819,1.1383854150772095
1772649860697812200,0.948812255859375,9.346364974975586,0.529412031173706,1.089930772781372
1772649860707689000,0.95868896484375,9.492327690124512,0.537188708782196,1.0917253494262695
1772649860717565400,0.9685654296875,9.608977317810059,0.5473581552505493,1.1485549211502075
1772649860727442000,0.97844189453125,9.707083702087402,0.605384111404419,1.1904292106628418
1772649860737318700,0.988318603515625,9.7064847946167,0.6442674994468689,1.2329018115997314
1772649860747195100,0.998195068359375,9.652048110961914,0.6658028960227966,1.256830096244812
1772649860757071600,1.008071533203125,9.599406242370605,0.6777670383453369,1.280758261680603
1772649860766948400,1.0179482421875,9.616155624389648,0.7094719409942627,1.3728820085525513
1772649860776824800,1.027824951171875,9.704689979553223,0.7226324677467346,1.4727823734283447
1772649860786701300,1.037701416015625,9.754940032958984,0.7088736891746521,1.532004714012146
1772649860796577800,1.047577880859375,9.752547264099121,0.7160521745681763,1.5296118259429932
1772649860806454500,1.05745458984375,9.690333366394043,0.698704183101654,1.4847464561462402
1772649860816331000,1.0673310546875,9.587442398071289,0.6358926296234131,1.4141582250595093
1772649860826207500,1.07720751953125,9.521040916442871,0.6041877269744873,1.353141188621521
1772649860836084200,1.087084228515625,9.497113227844238,0.6011967062950134,1.3226326704025269
1772649860845960700,1.096960693359375,9.470791816711426,0.6299105882644653,1.333998680114746
1772649860855837200,1.106837158203125,9.503693580627441,0.6729813814163208,1.3381860256195068
1772649860865713700,1.116713623046875,9.622735977172852,0.7088736891746521,1.3489537239074707
1772649860875590400,1.12659033203125,9.728020668029785,0.7316055297851562,1.3818551301956177
1772649860885467000,1.136466796875,9.77826976776123,0.7316055297851562,1.384247899055481
1772649860895343400,1.14634326171875,9.773484230041504,0.7124629616737366,1.3770694732666016
1772649860905219800,1.1562197265625,9.730413436889648,0.7004988193511963,1.363310694694519
1772649860915096600,1.1660966796875,9.64965534210205,0.7166503667831421,1.363310694694519
1772649860924973000,1.17597314453125,9.606584548950195,0.7238288521766663,1.363310694694519
1772649860934849500,1.185849609375,9.632905960083008,0.7238288521766663,1.3609179258346558
1772649860944726300,1.195726318359375,9.685547828674316,0.6879364848136902,1.3399807214736938
1772649860954602800,1.205602783203125,9.690333366394043,0.6735795736312866,1.3160524368286133
1772649860964479200,1.215479248046875,9.673583984375,0.6604190468788147,1.252044439315796
1772649860974355700,1.225355712890625,9.611370086669922,0.6508477330207825,1.2191431522369385
1772649860984232400,1.235232421875,9.592227935791016,0.6580262184143066,1.2167502641677856
1772649860994109000,1.24510888671875,9.65683364868164,0.638883650302887,1.2335001230239868
1772649861003985400,1.2549853515625,9.735796928405762,0.6275177597999573,1.2616157531738281
1772649861013862100,1.264862060546875,9.7998046875,0.6209374666213989,1.2849457263946533
1772649861023738600,1.274738525390625,9.82373332977295,0.6406782865524292,1.2921242713928223
1772649861033615000,1.284614990234375,9.759127616882324,0.6520441770553589,1.2945170402526855
1772649861043491800,1.294491943359375,9.597013473510742,0.6819544434547424,1.280758261680603
1772649861053368300,1.304368408203125,9.407979965209961,0.6981059908866882,1.2550355195999146
1772649861063244800,1.314244873046875,9.30329418182373,0.6951149702072144,1.2269197702407837
1772649861073121500,1.32412158203125,9.33440113067627,0.656829833984375,1.1892328262329102
1772649861082998000,1.333998046875,9.382257461547852,0.6209374666213989,1.2179467678070068
1772649861092874500,1.34387451171875,9.489336013793945,0.6406782865524292,1.23589289188385
1772649861102751000,1.3537509765625,9.620942115783691,0.6197410821914673,1.2143574953079224
1772649861112627700,1.363627685546875,9.692726135253906,0.582054078578949,1.1982059478759766
1772649861122504200,1.373504150390625,9.726225852966309,0.5748756527900696,1.2095718383789062
1772649861132380700,1.383380615234375,9.771689414978027,0.5682953596115112,1.2263215780258179
1772649861142257400,1.39325732421875,9.776474952697754,0.5659025311470032,1.2478569746017456
1772649861152134000,1.4031337890625,9.802796363830566,0.5994020700454712,1.2831511497497559
1772649861162010400,1.41301025390625,9.79083251953125,0.6095715761184692,1.3351950645446777
1772649861171886800,1.422886962890625,9.759725570678711,0.6532405614852905,1.4039887189865112
1772649861181763600,1.432763671875,9.752547264099121,0.7130611538887024,1.4464613199234009
1772649861191640000,1.44264013671875,9.738189697265625,0.7226324677467346,1.4632110595703125
1772649861201516500,1.4525166015625,9.740582466125488,0.7130611538887024,1.444068431854248
1772649861211393000,1.46239306640625,9.668798446655273,0.6664010882377625,1.3591232299804688
1772649861221269800,1.472269775390625,9.5324068069458,0.6269195079803467,1.2478569746017456
1772649861231146200,1.482146240234375,9.45882797241211,0.5826523303985596,1.1270195245742798
1772649861241022700,1.492022705078125,9.482755661010742,0.5413761138916016,1.0612168312072754
1772649861250899200,1.501899169921875,9.592227935791016,0.5300102233886719,1.0534402132034302
1772649861260776000,1.51177587890625,9.81954574584961,0.50907301902771,1.0671988725662231
1772649861270652400,1.52165234375,9.907482147216797,0.4815555512905121,1.1030912399291992
1772649861280529000,1.53152880859375,9.864411354064941,0.5318048596382141,1.1377872228622437
1772649861290405600,1.541405517578125,9.787840843200684,0.5868397355079651,1.195214867591858
1772649861300282000,1.5512822265625,9.659226417541504,0.6251249313354492,1.2759727239608765
1772649861310158600,1.56115869140625,9.539586067199707,0.6610172390937805,1.3262219429016113
1772649861320035300,1.571035400390625,9.489336013793945,0.6681957244873047,1.3334003686904907
1772649861329911800,1.580911865234375,9.525228500366211,0.6394818425178528,1.32921302318573
1772649861339788300,1.590788330078125,9.589835166931152,0.623330295085907,1.3334003686904907
1772649861349664800,1.600664794921875,9.640084266662598,0.6209374666213989,1.3381860256195068
1772649861359541500,1.61054150390625,9.620942115783691,0.6209374666213989,1.3262219429016113
1772649861369418000,1.62041796875,9.544371604919434,0.615553617477417,1.290927767753601
1772649861379294500,1.63029443359375,9.486943244934082,0.605384111404419,1.2484551668167114
1772649861389171200,1.640171142578125,9.498908042907715,0.5952146053314209,1.2083754539489746
1772649861399047700,1.650047607421875,9.604191780090332,0.5790630578994751,1.179063320159912
1772649861408924200,1.659924072265625,9.728618621826172,0.5623133182525635,1.1431710720062256
1772649861418800600,1.669800537109375,9.77826976776123,0.5647061467170715,1.1335997581481934
1772649861428677400,1.679677490234375,9.749555587768555,0.5838487148284912,1.1288141012191772
1772649861438553900,1.689553955078125,9.728020668029785,0.600000262260437,1.1114661693572998
1772649861448430300,1.699430419921875,9.66640567779541,0.5665007829666138,1.1312068700790405
1772649861458306800,1.709306884765625,9.589835166931152,0.5545366406440735,1.1365907192230225
1772649861468183600,1.71918359375,9.582656860351562,0.5760720372200012,1.1174482107162476
1772649861478060000,1.72906005859375,9.652048110961914,0.5473581552505493,1.1341979503631592
1772649861487936500,1.7389365234375,9.714262008666992,0.5509474277496338,1.2077772617340088
1772649861497813200,1.748813232421875,9.771689414978027,0.5850451588630676,1.2640085220336914
1772649861507689700,1.758689697265625,9.754940032958984,0.5970092415809631,1.292722463607788
1772649861517566200,1.768566162109375,9.716654777526855,0.6065805554389954,1.2855439186096191
1772649861527443000,1.77844287109375,9.699904441833496,0.6281159520149231,1.287936806678772
1772649861537319400,1.7883193359375,9.728618621826172,0.6209374666213989,1.2759727239608765
1772649861547196000,1.79819580078125,9.726225852966309,0.6065805554389954,1.2855439186096191
1772649861557072400,1.808072265625,9.726225852966309,0.6137589812278748,1.280758261680603
1772649861566949000,1.81794921875,9.720842361450195,0.6251249313354492,1.2640085220336914
1772649861576825600,1.82782568359375,9.704092025756836,0.6131607890129089,1.2352946996688843
1772649861586702000,1.8377021484375,9.697511672973633,0.6005984544754028,1.1904292106628418
1772649861596578600,1.84757861328125,9.711869239807129,0.5718846321105957,1.150349497795105
1772649861606455300,1.857455322265625,9.690333366394043,0.544965386390686,1.074377417564392
1772649861616331800,1.867331787109375,9.623334884643555,0.50129634141922,1.012762188911438
1772649861626208300,1.877208251953125,9.5324068069458,0.48813581466674805,0.9702895879745483
1772649861636084700,1.887084716796875,9.489336013793945,0.4833501875400543,0.9517452120780945
1772649861645961500,1.89696142578125,9.494122505187988,0.5168496966362,0.9846464991569519
1772649861655838000,1.906837890625,9.591629981994629,0.5946164131164551,1.0648061037063599
1772649861665714400,1.91671435546875,9.7064847946167,0.6263213157653809,1.1234302520751953
1772649861675591200,1.926591064453125,9.732806205749512,0.6149554252624512,1.1497513055801392
1772649861685467600,1.936467529296875,9.7064847946167,0.6197410821914673,1.144965648651123
1772649861695344000,1.94634423828125,9.713663101196289,0.5958128571510315,1.1264212131500244
1772649861705220600,1.956220703125,9.790233612060547,0.5575276613235474,1.1312068700790405
1772649861715097300,1.966097412109375,9.850054740905762,0.5485545992851257,1.1617153882980347
1772649861724973800,1.975973876953125,9.878767967224121,0.5539384484291077,1.176072359085083
1772649861734850300,1.985850341796875,9.835697174072266,0.5724828243255615,1.1784651279449463
1772649861744727000,1.99572705078125,9.699904441833496,0.5910272002220154,1.1736794710159302
1772649861754603500,2.005603515625,9.551549911499023,0.5802595019340515,1.1270195245742798
1772649861764480000,2.01547998046875,9.422337532043457,0.582054078578949,1.098903775215149
1772649861774356500,2.0253564453125,9.403194427490234,0.6107679605484009,1.100698471069336
1772649861784233200,2.035233154296875,9.510871887207031,0.6329016089439392,1.1072787046432495
1772649861794109700,2.045109619140625,9.611370086669922,0.6041877269744873,1.1048858165740967
1772649861803986200,2.054986083984375,9.661619186401367,0.597607433795929,1.1001001596450806
1772649861813862700,2.064862548828125,9.682557106018066,0.5706881880760193,1.0265209674835205
1772649861823739400,2.074739501953125,9.661619186401367,0.5318048596382141,0.9858429431915283
1772649861833616000,2.084615966796875,9.659226417541504,0.5437689423561096,0.9954141974449158
1772649861843492400,2.094492431640625,9.716055870056152,0.5491527915000916,1.0193424224853516
1772649861853369000,2.104369140625,9.773484230041504,0.5443671345710754,1.0193424224853516
1772649861863245600,2.11424560546875,9.795019149780273,0.5569294691085815,1.0402796268463135
1772649861873122000,2.1241220703125,9.80937671661377,0.5832505226135254,1.0713863372802734
1772649861882998500,2.13399853515625,9.769296646118164,0.5694918036460876,1.1072787046432495
1772649861892875300,2.143875244140625,9.683155059814453,0.5718846321105957,1.1431710720062256
1772649861902751700,2.153751708984375,9.592227935791016,0.5856433510780334,1.155135154724121
1772649861912628200,2.163628173828125,9.527621269226074,0.6191428303718567,1.1599208116531372
1772649861922504700,2.173504638671875,9.534799575805664,0.6305087804794312,1.1431710720062256
1772649861932381400,2.18338134765625,9.611370086669922,0.5880361795425415,1.1078768968582153
1772649861942258000,2.1932578125,9.683155059814453,0.5617151260375977,1.069591760635376
1772649861952134400,2.203134521484375,9.69511890411377,0.5401797294616699,1.0552347898483276
1772649861962011000,2.213010986328125,9.692726135253906,0.5210371017456055,1.0654042959213257
1772649861971887600,2.2228876953125,9.654440879821777,0.5162515044212341,1.0582258701324463
1772649861981764000,2.23276416015625,9.64965534210205,0.5521438121795654,1.0719845294952393
1772649861991640600,2.242640625,9.65683364868164,0.5736792087554932,1.0839486122131348
1772649862001517300,2.252517333984375,9.668798446655273,0.5641079545021057,1.0887342691421509
1772649862011393800,2.262393798828125,9.675976753234863,0.5832505226135254,1.1048858165740967
1772649862021270300,2.272270263671875,9.685547828674316,0.5952146053314209,1.119242787361145
1772649862031146800,2.282146728515625,9.69511890411377,0.5832505226135254,1.1312068700790405
1772649862041023500,2.2920234375,9.69511890411377,0.605384111404419,1.1425727605819702
1772649862050900000,2.30189990234375,9.664012908935547,0.6263213157653809,1.1497513055801392
1772649862060776400,2.3117763671875,9.663414001464844,0.6406782865524292,1.1306086778640747
1772649862070653000,2.32165283203125,9.694520950317383,0.631106972694397,1.1018948554992676
1772649862080529700,2.33152978515625,9.7064847946167,0.592223584651947,1.0737791061401367
1772649862090406100,2.34140625,9.663414001464844,0.5730810165405273,1.0456634759902954
1772649862100282600,2.35128271484375,9.620343208312988,0.5850451588630676,1.0456634759902954
1772649862110159000,2.3611591796875,9.651450157165527,0.5850451588630676,1.038485050201416
1772649862120035800,2.371035888671875,9.65384292602539,0.5802595019340515,1.0528420209884644
1772649862129912300,2.380912353515625,9.658628463745117,0.6041877269744873,1.0432707071304321
1772649862139788800,2.390788818359375,9.694520950317383,0.592223584651947,1.0336993932724
1772649862149665500,2.40066552734375,9.69930648803711,0.5754738450050354,1.0600204467773438
1772649862159542000,2.4105419921875,9.687342643737793,0.5904290080070496,1.083350419998169
1772649862169418500,2.42041845703125,9.711270332336426,0.6287141442298889,1.0947163105010986
1772649862179295000,2.430294921875,9.713663101196289,0.6287141442298889,1.1234302520751953
1772649862189171700,2.440171630859375,9.716055870056152,0.6245267391204834,1.140179991722107
1772649862199048200,2.450048095703125,9.723235130310059,0.6095715761184692,1.113858938217163
1772649862208924700,2.459924560546875,9.671191215515137,0.5880361795425415,1.1096714735031128
1772649862218801200,2.46980126953125,9.628120422363281,0.600000262260437,1.1264212131500244
1772649862228678000,2.479677978515625,9.608379364013672,0.6382854580879211,1.1288141012191772
1772649862238554400,2.489554443359375,9.615557670593262,0.6239284873008728,1.1312068700790405
1772649862248430800,2.499430908203125,9.625128746032715,0.6143572330474854,1.1168500185012817
1772649862258307300,2.509307373046875,9.651450157165527,0.6137589812278748,1.0737791061401367
1772649862268184000,2.51918408203125,9.664012908935547,0.5563312768936157,1.0360921621322632
1772649862278060500,2.529060546875,9.659226417541504,0.5539384484291077,1.038485050201416
1772649862287937000,2.53893701171875,9.66819953918457,0.5994020700454712,1.0498509407043457
1772649862297813800,2.548813720703125,9.66819953918457,0.6185446381568909,1.0785647630691528
1772649862307690200,2.558690185546875,9.66102123260498,0.6281159520149231,1.088136076927185
1772649862317566700,2.568566650390625,9.656235694885254,0.6448656916618347,1.0857433080673218
1772649862327443200,2.578443115234375,9.689735412597656,0.6520441770553589,1.089930772781372
1772649862337320000,2.58831982421875,9.69930648803711,0.6119644045829773,1.083350419998169
1772649862347196400,2.598196533203125,9.720842361450195,0.5760720372200012,1.0857433080673218
1772649862357073000,2.608072998046875,9.81655502319336,0.544965386390686,1.064207911491394
1772649862366949400,2.617949462890625,9.826126098632812,0.5312066078186035,1.0857433080673218
1772649862376826000,2.627826171875,9.759127616882324,0.5862415432929993,1.1096714735031128
1772649862386702600,2.63770263671875,9.66102123260498,0.6263213157653809,1.114457130432129
1772649862396579000,2.6475791015625,9.518050193786621,0.6472585201263428,1.1264212131500244
1772649862406455800,2.657455810546875,9.422337532043457,0.6640082597732544,1.155135154724121
1772649862416332300,2.667332275390625,9.458230018615723,0.6376872062683105,1.1389836072921753
1772649862426208800,2.677208740234375,9.520442962646484,0.6017948985099792,1.100698471069336
1772649862436085200,2.687085205078125,9.629914283752441,0.6065805554389954,1.059422254562378
1772649862445962000,2.6969619140625,9.80219841003418,0.5970092415809631,1.0211371183395386
1772649862455838500,2.70683837890625,9.89970588684082,0.5665007829666138,1.0037890672683716
1772649862465715000,2.71671484375,9.907482147216797,0.5641079545021057,1.0133603811264038
1772649862475591400,2.72659130859375,9.830911636352539,0.5635097622871399,1.0091729164123535
1772649862485468200,2.73646826171875,9.723235130310059,0.5635097622871399,1.0139585733413696
1772649862495344600,2.7463447265625,9.635298728942871,0.5802595019340515,1.0504491329193115
1772649862505221000,2.75622119140625,9.630513191223145,0.5778666734695435,1.0767701864242554
1772649862515097600,2.76609765625,9.661619186401367,0.597607433795929,1.1216355562210083
1772649862524974300,2.775974365234375,9.670592308044434,0.6293123364448547,1.1569297313690186
1772649862534850800,2.785850830078125,9.656235694885254,0.6382854580879211,1.1545369625091553
1772649862544727300,2.795727294921875,9.606584548950195,0.631106972694397,1.1497513055801392
1772649862554604000,2.80560400390625,9.568299293518066,0.6305087804794312,1.1383854150772095
1772649862564480500,2.81548046875,9.587442398071289,0.6382854580879211,1.1479566097259521
1772649862574357000,2.82535693359375,9.69212818145752,0.6119644045829773,1.1216355562210083
1772649862584233500,2.8352333984375,9.720842361450195,0.5808576941490173,1.0929217338562012
1772649862594110000,2.84510986328125,9.682557106018066,0.5730810165405273,1.0408778190612793
1772649862603986700,2.854986572265625,9.639486312866211,0.5796613097190857,0.9882357716560364
1772649862613863200,2.86486328125,9.632308006286621,0.5772684812545776,0.9858429431915283
1772649862623739600,2.87473974609375,9.6466646194458,0.6035895347595215,1.0169496536254883
1772649862633616100,2.8846162109375,9.739984512329102,0.625723123550415,1.0426725149154663
1772649862643492900,2.894492919921875,9.82373332977295,0.6047859191894531,1.073180913925171
1772649862653369300,2.904369384765625,9.80219841003418,0.6023930907249451,1.089930772781372
1772649862663245800,2.914245849609375,9.735198974609375,0.6065805554389954,1.057029366493225
1772649862673122600,2.92412255859375,9.604191780090332,0.5796613097190857,1.0336993932724
1772649862682999000,2.9339990234375,9.482157707214355,0.5940182209014893,1.0414760112762451
1772649862692875500,2.94387548828125,9.479764938354492,0.6221339106559753,1.038485050201416
1772649862702752000,2.953751953125,9.565906524658203,0.5988038778305054,1.038485050201416
1772649862712628700,2.963628662109375,9.66640567779541,0.589830756187439,1.0689935684204102
1772649862722505200,2.973505126953125,9.751948356628418,0.597607433795929,1.088136076927185
1772649862732381700,2.983381591796875,9.756733894348145,0.6071787476539612,1.113858938217163
1772649862742258200,2.993258056640625,9.77109146118164,0.6197410821914673,1.1425727605819702
1772649862752135000,3.003135009765625,9.759127616882324,0.6005984544754028,1.1306086778640747
1772649862762011400,3.013011474609375,9.708877563476562,0.600000262260437,1.0929217338562012
1772649862771887900,3.022887939453125,9.6466646194458,0.6017948985099792,1.0432707071304321
1772649862781764600,3.0327646484375,9.640084266662598,0.5748756527900696,1.0121639966964722
1772649862791641000,3.04264111328125,9.625727653503418,0.5796613097190857,1.0049854516983032
1772649862801517600,3.052517578125,9.568299293518066,0.6011967062950134,1.031306505203247
1772649862811394000,3.06239404296875,9.570094108581543,0.6376872062683105,1.0761719942092896
1772649862821270500,3.0722705078125,9.658628463745117,0.6113662123680115,1.0857433080673218
1772649862831147300,3.082147216796875,9.696913719177246,0.6215356588363647,1.1042876243591309
1772649862841023700,3.092023681640625,9.716055870056152,0.6622136831283569,1.1018948554992676
1772649862850900200,3.101900146484375,9.768698692321777,0.6358926296234131,1.0683952569961548
1772649862860776700,3.111776611328125,9.756733894348145,0.5850451588630676,1.0211371183395386
1772649862870653400,3.1216533203125,9.7064847946167,0.5916253924369812,0.99481600522995
1772649862880530000,3.131530029296875,9.68494987487793,0.5802595019340515,1.0217353105545044
1772649862890406400,3.141406494140625,9.675378799438477,0.5808576941490173,1.069591760635376
1772649862900283100,3.151283203125,9.632308006286621,0.5994020700454712,1.0767701864242554
1772649862910159600,3.16115966796875,9.615557670593262,0.5994020700454712,1.0504491329193115
1772649862920036000,3.1710361328125,9.610772132873535,0.6065805554389954,1.0528420209884644
1772649862929912600,3.18091259765625,9.610772132873535,0.6305087804794312,1.119242787361145
1772649862939789300,3.190789306640625,9.608379364013672,0.6287141442298889,1.1407781839370728
1772649862949665800,3.200665771484375,9.629914283752441,0.6281159520149231,1.0929217338562012
1772649862959542300,3.210542236328125,9.680164337158203,0.6400800347328186,1.0713863372802734
1772649862969418800,3.220418701171875,9.701699256896973,0.6430711150169373,1.109073281288147
1772649862979295500,3.23029541015625,9.672985076904297,0.6544370055198669,1.0875378847122192
1772649862989172000,3.240171875,9.617950439453125,0.6514459848403931,1.0426725149154663
1772649862999048400,3.25004833984375,9.577272415161133,0.6083751320838928,1.007378339767456
1772649863008925000,3.259925048828125,9.584450721740723,0.5599204897880554,0.9529415965080261
1772649863018801700,3.2698017578125,9.67777156829834,0.5742774605751038,0.9427721500396729
1772649863028678100,3.27967822265625,9.811769485473633,0.5994020700454712,0.997208833694458
1772649863038554600,3.2895546875,9.878170013427734,0.6119644045829773,1.073180913925171
1772649863048431000,3.29943115234375,9.825528144836426,0.6550351977348328,1.0941181182861328
1772649863058307800,3.309307861328125,9.7064847946167,0.6861419081687927,1.1108678579330444
1772649863068184300,3.319184326171875,9.591629981994629,0.6424728631973267,1.1096714735031128
1772649863078060800,3.329060791015625,9.503693580627441,0.6083751320838928,1.0887342691421509
1772649863087937300,3.338937255859375,9.522237777709961,0.6275177597999573,1.0737791061401367
1772649863097814000,3.34881396484375,9.639486312866211,0.6281159520149231,1.090528964996338
1772649863107690500,3.3586904296875,9.730413436889648,0.6215356588363647,1.1234302520751953
1772649863117567000,3.36856689453125,9.80937671661377,0.6436693072319031,1.1443674564361572
1772649863127443500,3.378443359375,9.825528144836426,0.6436693072319031,1.1300104856491089
1772649863137320200,3.3883203125,9.76391315460205,0.6478567123413086,1.134796142578125
1772649863147196700,3.39819677734375,9.634700775146484,0.6352944374084473,1.090528964996338
1772649863157073200,3.4080732421875,9.594022750854492,0.6323033571243286,1.0265209674835205
1772649863166949600,3.41794970703125,9.591629981994629,0.6251249313354492,1.0241280794143677
1772649863176826400,3.427826416015625,9.608379364013672,0.6131607890129089,1.0043872594833374
1772649863186702800,3.437702880859375,9.66102123260498,0.6083751320838928,0.997208833694458
1772649863196579300,3.447579345703125,9.704092025756836,0.6065805554389954,1.0163514614105225
1772649863206456000,3.4574560546875,9.747162818908691,0.6017948985099792,1.0450652837753296
1772649863216332500,3.46733251953125,9.747162818908691,0.6167500615119934,1.085145115852356
1772649863226209000,3.477208984375,9.78544807434082,0.6478567123413086,1.0845468044281006
1772649863236085500,3.48708544921875,9.868598937988281,0.6765705943107605,1.0941181182861328
1772649863245962200,3.496962158203125,9.747162818908691,0.6813562512397766,1.1156535148620605
1772649863255838700,3.506838623046875,9.715457916259766,0.6855437159538269,1.0821540355682373
1772649863265715200,3.516715087890625,9.625128746032715,0.6999006271362305,1.0827522277832031
1772649863275591700,3.526591796875,9.52941608428955,0.6843472719192505,1.0546365976333618
1772649863285468200,3.53646826171875,9.644271850585938,0.6897311210632324,1.0253244638442993
1772649863295345000,3.546344970703125,9.670592308044434,0.6681957244873047,1.0325030088424683
1772649863305221400,3.556221435546875,9.790233612060547,0.6083751320838928,0.9493523836135864
1772649863315097900,3.566097900390625,9.926026344299316,0.6478567123413086,1.0055837631225586
1772649863324974600,3.575974609375,9.808777809143066,0.6640082597732544,1.0271191596984863
1772649863334851000,3.58585107421875,9.741779327392578,0.6610172390937805,0.9798609018325806
1772649863344727600,3.5957275390625,9.550951957702637,0.6915257573127747,1.0133603811264038
1772649863354604000,3.60560400390625,9.416953086853027,0.7178468108177185,1.0498509407043457
1772649863364480800,3.615480712890625,9.460023880004883,0.7657032608985901,1.0564311742782593
1772649863374357200,3.625357177734375,9.55753231048584,0.7824530005455017,1.0462616682052612
1772649863384233700,3.635233642578125,9.727422714233398,0.7734799385070801,1.0671988725662231
1772649863394110200,3.645110107421875,9.756135940551758,0.7621139883995056,1.0839486122131348
1772649863403987000,3.654987060546875,9.725028991699219,0.737587571144104,1.0414760112762451
1772649863413863400,3.664863525390625,9.734601020812988,0.7591229677200317,1.0247262716293335
1772649863423740000,3.674739990234375,9.620343208312988,0.7202396392822266,1.0085747241973877
1772649863433616400,3.684616455078125,9.684351921081543,0.7178468108177185,0.9840483069419861
1772649863443493000,3.6944931640625,9.669994354248047,0.7561319470405579,1.0121639966964722
1772649863453369600,3.70436962890625,9.693922996520996,0.7537391185760498,0.9954141974449158
1772649863463246000,3.71424609375,9.812965393066406,0.7567301392555237,0.9906286001205444
1772649863473122600,3.72412255859375,9.705886840820312,0.7639086246490479,1.0271191596984863
1772649863482999300,3.733999267578125,9.636494636535645,0.7722834944725037,0.9720842242240906
1772649863492875800,3.743875732421875,9.629316329956055,0.7752745151519775,0.9768698215484619
1772649863502752300,3.753752197265625,9.69631576538086,0.771087110042572,1.0342975854873657
1772649863512628700,3.763628662109375,9.57188892364502,0.7704889178276062,1.043868899345398
1772649863522505500,3.77350537109375,9.440881729125977,0.7908278703689575,0.9864411354064941
1772649863532382000,3.7833818359375,9.385847091674805,0.802193820476532,0.9296116232872009
1772649863542258400,3.793258544921875,9.407382011413574,0.7645068168640137,0.9439685344696045
1772649863552135000,3.803135009765625,9.504889488220215,0.7549355626106262,0.9343972206115723
1772649863562011600,3.81301171875,9.65085220336914,0.7651050686836243,0.9529415965080261
1772649863571888000,3.82288818359375,9.760921478271484,0.771087110042572,1.007378339767456
1772649863581764600,3.8327646484375,9.848857879638672,0.7980063557624817,1.0354939699172974
1772649863591641000,3.84264111328125,9.829715728759766,0.7932206988334656,1.0498509407043457
1772649863601517800,3.852517822265625,9.748957633972168,0.8069794178009033,1.0504491329193115
1772649863611394300,3.862394287109375,9.722636222839355,0.8069794178009033,1.0289137363433838
1772649863621270800,3.872270751953125,9.677172660827637,0.7728816866874695,1.0097711086273193
1772649863631147300,3.882147216796875,9.653244972229004,0.7752745151519775,0.9810572862625122
1772649863641024000,3.89202392578125,9.681958198547363,0.7770691514015198,0.9499505758285522
1772649863650900500,3.901900390625,9.686744689941406,0.7579265832901001,0.9433703422546387
1772649863660777000,3.91177685546875,9.684351921081543,0.763310432434082,0.9625129103660583
1772649863670653400,3.9216533203125,9.69631576538086,0.7728816866874695,0.9810572862625122
1772649863680530200,3.9315302734375,9.65085220336914,0.7920243144035339,1.0049854516983032
1772649863690406700,3.94140673828125,9.5862455368042,0.8057830333709717,0.9954141974449158
1772649863700283100,3.951283203125,9.55513858795166,0.7890332937240601,0.9649057388305664
1772649863710159600,3.96115966796875,9.559925079345703,0.7914260625839233,0.9720842242240906
1772649863720036400,3.971036376953125,9.624530792236328,0.7818548083305359,0.9882357716560364
1772649863729912800,3.980912841796875,9.734601020812988,0.7657032608985901,1.0097711086273193
1772649863739789300,3.990789306640625,9.818349838256836,0.7716853022575378,1.057627558708191
1772649863749665800,4.000665771484375,9.801599502563477,0.7932206988334656,1.0618150234222412
1772649863759542500,4.01054248046875,9.753743171691895,0.7878368496894836,1.0019944906234741
1772649863769419000,4.0204189453125,9.736993789672852,0.7998009920120239,1.0115658044815063
1772649863779295500,4.03029541015625,9.550353050231934,0.8057830333709717,1.0271191596984863
1772649863789172000,4.040171875,9.500103950500488,0.8057830333709717,0.9840483069419861
1772649863799048700,4.050048583984375,9.550353050231934,0.8057830333709717,1.0097711086273193
1772649863808925200,4.05992529296875,9.624530792236328,0.7824530005455017,1.0342975854873657
1772649863818801700,4.0698017578125,9.667601585388184,0.7680960893630981,1.007378339767456
1772649863828678100,4.07967822265625,9.634101867675781,0.7728816866874695,0.9888339638710022
1772649863838555000,4.089554931640625,9.569496154785156,0.7890332937240601,0.9888339638710022
1772649863848431400,4.099431396484375,9.507282257080078,0.8057830333709717,1.0223335027694702
1772649863858307800,4.109307861328125,9.512067794799805,0.8207381963729858,1.0630114078521729
1772649863868184300,4.119184326171875,9.591031074523926,0.802193820476532,1.0767701864242554
1772649863878061000,4.12906103515625,9.66520881652832,0.7806583642959595,1.062413215637207
1772649863887937500,4.1389375,9.708279609680176,0.771087110042572,1.0408778190612793
1772649863897814000,4.14881396484375,9.713065147399902,0.7663014531135559,1.007378339767456
1772649863907690500,4.1586904296875,9.68913745880127,0.763310432434082,0.973878800868988
1772649863917567200,4.168567138671875,9.6795654296875,0.7585247755050659,0.9696913957595825
1772649863927443700,4.178443603515625,9.732208251953125,0.7471588850021362,0.9954141974449158
1772649863937320200,4.1883203125,9.77527904510498,0.7495517134666443,1.0193424224853516
1772649863947196700,4.19819677734375,9.7938232421875,0.7663014531135559,1.0241280794143677
1772649863957073400,4.208073486328125,9.810572624206543,0.771087110042572,0.99481600522995
1772649863966950000,4.217949951171875,9.784252166748047,0.7639086246490479,0.9834501147270203
1772649863976826400,4.227826416015625,9.705886840820312,0.763310432434082,0.9810572862625122
1772649863986702800,4.237702880859375,9.66520881652832,0.7728816866874695,0.9643075466156006
1772649863996579600,4.24757958984375,9.641280174255371,0.7561319470405579,0.9672985672950745
1772649864006456000,4.2574560546875,9.646066665649414,0.7585247755050659,1.0007981061935425
1772649864016332500,4.26733251953125,9.686744689941406,0.7615157961845398,1.0121639966964722
1772649864026209000,4.277208984375,9.725028991699219,0.7663014531135559,1.0193424224853516
1772649864036085500,4.28708544921875,9.729815483093262,0.7734799385070801,1.0360921621322632
1772649864045962200,4.296962158203125,9.720243453979492,0.7758727669715881,1.0648061037063599
1772649864055838700,4.306838623046875,9.669994354248047,0.7884350419044495,1.1054840087890625
1772649864065715200,4.316715087890625,9.602995872497559,0.802193820476532,1.1174482107162476
1772649864075592000,4.326592041015625,9.5862455368042,0.802193820476532,1.098305583000183
1772649864085468400,4.336468505859375,9.583852767944336,0.7806583642959595,1.067797064781189
1772649864095345000,4.346344970703125,9.565308570861816,0.7663014531135559,1.0701899528503418
1772649864105221400,4.356221435546875,9.546165466308594,0.7680960893630981,1.0444670915603638
1772649864115097900,4.366097900390625,9.567103385925293,0.7680960893630981,1.0205388069152832
1772649864124974600,4.375974609375,9.54078197479248,0.7752745151519775,1.0277173519134521
1772649864134851000,4.38585107421875,9.507282257080078,0.8111668825149536,1.0462616682052612
1772649864144727600,4.3957275390625,9.531210899353027,0.8368897438049316,1.031306505203247
1772649864154604300,4.405604248046875,9.634101867675781,0.8159525394439697,1.0169496536254883
1772649864164480800,4.415480712890625,9.768099784851074,0.7998009920120239,1.0019944906234741
1772649864174357200,4.425357177734375,9.8871431350708,0.771087110042572,0.9708877801895142
1772649864184233700,4.435233642578125,9.949356079101562,0.7399803996086121,0.9421738982200623
1772649864194110200,4.445110107421875,9.930213928222656,0.7136593461036682,0.9332008361816406
1772649864203987000,4.454987060546875,9.827920913696289,0.7256234884262085,0.97148597240448
1772649864213863400,4.464863525390625,9.736993789672852,0.7519445419311523,1.00259268283844
1772649864223740000,4.474739990234375,9.653244972229004,0.7830511927604675,1.057627558708191
1772649864233616600,4.48461669921875,9.524032592773438,0.8189435601234436,1.1078768968582153
1772649864243493000,4.4944931640625,9.44327449798584,0.8566305041313171,1.1222338676452637
1772649864253369600,4.50436962890625,9.445069313049316,0.8709874153137207,1.1054840087890625
1772649864263246000,4.51424609375,9.473783493041992,0.8470591902732849,1.093519926071167
1772649864273122600,4.52412255859375,9.5264253616333,0.8183453679084778,1.0582258701324463
1772649864282999300,4.533999267578125,9.607781410217285,0.7872386574745178,1.0121639966964722
1772649864292875800,4.543875732421875,9.662816047668457,0.7561319470405579,0.9864411354064941
1772649864302752300,4.553752197265625,9.698708534240723,0.7657032608985901,0.9930213689804077
1772649864312628700,4.563628662109375,9.744172096252441,0.7752745151519775,0.9882357716560364
1772649864322505500,4.57350537109375,9.755537986755371,0.7854440212249756,0.9996016621589661
1772649864332382000,4.5833818359375,9.753145217895508,0.8189435601234436,1.0235298871994019
1772649864342258400,4.593258544921875,9.812965393066406,0.8117650747299194,1.0061819553375244
1772649864352135000,4.603135009765625,9.834501266479492,0.7950153350830078,1.0115658044815063
1772649864362011600,4.61301171875,9.757930755615234,0.8213363885879517,1.0474581718444824
1772649864371888000,4.62288818359375,9.686744689941406,0.8452646136283875,1.0666006803512573
1772649864381764600,4.6327646484375,9.631709098815918,0.8303094506263733,1.0552347898483276
1772649864391641000,4.64264111328125,9.535996437072754,0.8225327730178833,1.0360921621322632
1772649864401517800,4.652517822265625,9.428318977355957,0.8147560954093933,1.0079765319824219
1772649864411394300,4.662394287109375,9.40917682647705,0.7956135272979736,0.9511470198631287
1772649864421270800,4.672270751953125,9.512067794799805,0.745364248752594,0.9152546525001526
1772649864431147300,4.682147216796875,9.602995872497559,0.7627122402191162,0.9553344249725342
1772649864441023700,4.692023681640625,9.684351921081543,0.794417142868042,0.9762716293334961
1772649864450900500,4.701900390625,9.743574142456055,0.8039883971214294,0.9708877801895142
1772649864460777000,4.71177685546875,9.748359680175781,0.8213363885879517,1.0235298871994019
1772649864470653400,4.7216533203125,9.736394882202148,0.8333004713058472,1.052243709564209
1772649864480530200,4.7315302734375,9.748359680175781,0.8093722462654114,1.0360921621322632
1772649864490406700,4.74140673828125,9.745966911315918,0.7950153350830078,1.0408778190612793
1772649864500283100,4.751283203125,9.714859962463379,0.8069794178009033,1.0552347898483276
1772649864510159600,4.76115966796875,9.647860527038574,0.8309076428413391,1.064207911491394
1772649864520036000,4.7710361328125,9.602995872497559,0.8135597109794617,1.057627558708191
1772649864529912800,4.780912841796875,9.559925079345703,0.8087740540504456,1.0342975854873657
1772649864539789300,4.790789306640625,9.581459999084473,0.7848458290100098,1.0271191596984863
1772649864549665800,4.800665771484375,9.591031074523926,0.7776673436164856,1.0145567655563354
1772649864559542300,4.810542236328125,9.629316329956055,0.7872386574745178,1.0001999139785767
1772649864569419000,4.8204189453125,9.717252731323242,0.8039883971214294,1.0169496536254883
1772649864579295500,4.83029541015625,9.767501831054688,0.8189435601234436,1.028315544128418
1772649864589172000,4.840171875,9.750752449035645,0.8309076428413391,1.0259226560592651
1772649864599048400,4.85004833984375,9.736394882202148,0.8159525394439697,0.9996016621589661
1772649864608925200,4.85992529296875,9.698708534240723,0.7824530005455017,0.9834501147270203
1772649864618801700,4.8698017578125,9.641280174255371,0.7818548083305359,0.97148597240448
1772649864628678100,4.87967822265625,9.583852767944336,0.7794619798660278,0.9649057388305664
1772649864638554600,4.8895546875,9.55753231048584,0.7794619798660278,0.9768698215484619
1772649864648431400,4.899431396484375,9.543174743652344,0.7962117195129395,0.9912267923355103
1772649864658307800,4.909307861328125,9.54796028137207,0.8087740540504456,1.0145567655563354
1772649864668184300,4.919184326171875,9.576674461364746,0.8111668825149536,1.0414760112762451
1772649864678060800,4.929060791015625,9.624530792236328,0.8135597109794617,1.057627558708191
1772649864687937300,4.938937255859375,9.674779891967773,0.8141579031944275,1.0863415002822876
1772649864697814000,4.94881396484375,9.714859962463379,0.8171489238739014,1.0857433080673218
1772649864707690500,4.9586904296875,9.767501831054688,0.8051848411560059,1.0857433080673218
1772649864717567000,4.96856689453125,9.741181373596191,0.8123632669448853,1.0737791061401367
1772649864727443500,4.978443359375,9.707681655883789,0.8213363885879517,1.0450652837753296
1772649864737320200,4.9883203125,9.68375301361084,0.8093722462654114,1.0408778190612793
1772649864747196700,4.99819677734375,9.667601585388184,0.7968099117279053,1.0217353105545044
1772649864757073200,5.0080732421875,9.698110580444336,0.7824530005455017,0.9882357716560364
1772649864766949600,5.01794970703125,9.767501831054688,0.7585247755050659,0.9547362327575684
1772649864776826400,5.027826416015625,9.765109062194824,0.7543373107910156,0.9690931439399719
1772649864786702800,5.037702880859375,9.68913745880127,0.7800601720809937,0.9858429431915283
1772649864796579300,5.047579345703125,9.659825325012207,0.8039883971214294,0.97148597240448
1772649864806455800,5.057455810546875,9.66520881652832,0.794417142868042,1.0193424224853516
1772649864816332300,5.067332275390625,9.634101867675781,0.7854440212249756,1.0510473251342773
1772649864826209000,5.077208984375,9.624530792236328,0.7992027401924133,1.017547845840454
1772649864836085500,5.08708544921875,9.636494636535645,0.7704889178276062,0.9858429431915283
1772649864845962000,5.0969619140625,9.629316329956055,0.7441678643226624,0.9960124492645264
1772649864855838700,5.106838623046875,9.629316329956055,0.763310432434082,1.0121639966964722
1772649864865715200,5.116715087890625,9.617352485656738,0.760917603969574,1.0319048166275024
1772649864875591700,5.126591796875,9.614959716796875,0.7663014531135559,1.0558329820632935
1772649864885468200,5.13646826171875,9.614959716796875,0.768694281578064,1.0654042959213257
1772649864895344600,5.1463447265625,9.636494636535645,0.7663014531135559,1.048654556274414
1772649864905221400,5.156221435546875,9.655637741088867,0.7447660565376282,1.0414760112762451
1772649864915097900,5.166097900390625,9.626923561096191,0.7657032608985901,1.0295119285583496
1772649864924974300,5.175974365234375,9.612566947937012,0.7704889178276062,1.0247262716293335
1772649864934850800,5.185850830078125,9.641280174255371,0.7663014531135559,1.0606186389923096
1772649864944727600,5.1957275390625,9.677172660827637,0.7854440212249756,1.069591760635376
1772649864954604000,5.20560400390625,9.756135940551758,0.7543373107910156,1.0336993932724
1772649864964480500,5.21548046875,9.832108497619629,0.735194742679596,1.00259268283844
1772649864974357000,5.22535693359375,9.844072341918945,0.7405785918235779,1.0043872594833374
1772649864984233500,5.2352333984375,9.763314247131348,0.7591229677200317,1.0193424224853516
1772649864994110200,5.245110107421875,9.653244972229004,0.7585247755050659,1.0145567655563354
1772649865003986700,5.254986572265625,9.576674461364746,0.7585247755050659,1.0205388069152832
1772649865013863200,5.26486328125,9.514460563659668,0.7800601720809937,1.036690354347229
1772649865023739600,5.27473974609375,9.478569030761719,0.7968099117279053,1.067797064781189
1772649865033616100,5.2846162109375,9.483354568481445,0.8183453679084778,1.0869396924972534
1772649865043492900,5.294492919921875,9.516854286193848,0.8207381963729858,1.062413215637207
1772649865053369300,5.304369384765625,9.598209381103516,0.7968099117279053,1.0342975854873657
1772649865063245800,5.314245849609375,9.739386558532715,0.7471588850021362,1.0049854516983032
1772649865073122300,5.324122314453125,9.856036186218262,0.745364248752594,1.0115658044815063
1772649865082999000,5.3339990234375,9.927821159362793,0.7405785918235779,0.9924231767654419
1772649865092875500,5.34387548828125,9.93260669708252,0.7190431952476501,0.997208833694458
1772649865102752000,5.353751953125,9.841679573059082,0.7357929348945618,1.0217353105545044
1772649865112628500,5.36362841796875,9.691530227661133,0.7561319470405579,1.0145567655563354
1772649865122505200,5.373505126953125,9.54796028137207,0.7579265832901001,1.0007981061935425
1772649865132381700,5.383381591796875,9.442676544189453,0.7818548083305359,1.0079765319824219
1772649865142258200,5.393258056640625,9.401998519897461,0.7962117195129395,1.0396814346313477
1772649865152134700,5.403134765625,9.46899700164795,0.8009973764419556,1.0462616682052612
1772649865162011100,5.41301123046875,9.55753231048584,0.8015955686569214,1.0510473251342773
1772649865171887900,5.422887939453125,9.671789169311523,0.8045865893363953,1.0648061037063599
1772649865181764400,5.432764404296875,9.767501831054688,0.7573283910751343,1.0336993932724
1772649865191640800,5.442640869140625,9.805787086486816,0.7399803996086121,1.0121639966964722
1772649865201517300,5.452517333984375,9.805787086486816,0.737587571144104,0.9954141974449158
1772649865211394000,5.46239404296875,9.779465675354004,0.7256234884262085,0.973878800868988
1772649865221270500,5.4722705078125,9.726823806762695,0.7441678643226624,0.97148597240448
1772649865231147000,5.48214697265625,9.681360244750977,0.7728816866874695,0.9930213689804077
1772649865241023500,5.4920234375,9.698110580444336,0.7926225066184998,1.0241280794143677
1772649865250900200,5.501900146484375,9.66520881652832,0.7926225066184998,1.062413215637207
1772649865260776700,5.511776611328125,9.641280174255371,0.7878368496894836,1.0863415002822876
1772649865270653200,5.521653076171875,9.626923561096191,0.7902296781539917,1.0839486122131348
1772649865280529700,5.53152978515625,9.598209381103516,0.7806583642959595,1.098903775215149
1772649865290406100,5.54140625,9.567103385925293,0.7926225066184998,1.0839486122131348
1772649865300283000,5.551282958984375,9.562317848205566,0.7752745151519775,1.0630114078521729
1772649865310159400,5.561159423828125,9.5862455368042,0.7657032608985901,1.0103694200515747
1772649865320035800,5.571035888671875,9.634101867675781,0.7202396392822266,0.9631111025810242
1772649865329912300,5.580912353515625,9.68913745880127,0.7058826684951782,0.9696913957595825
1772649865339788800,5.590788818359375,9.744172096252441,0.7465606927871704,0.9834501147270203
1772649865349665500,5.60066552734375,9.779465675354004,0.768694281578064,1.0265209674835205
1772649865359542000,5.6105419921875,9.734002113342285,0.7878368496894836,1.038485050201416
1772649865369418500,5.62041845703125,9.69631576538086,0.7854440212249756,1.0360921621322632
1772649865379295000,5.630294921875,9.67238712310791,0.7806583642959595,1.0342975854873657
1772649865389171700,5.640171630859375,9.646066665649414,0.7902296781539917,1.0408778190612793
1772649865399048200,5.650048095703125,9.646066665649414,0.7896314859390259,1.0097711086273193
1772649865408924700,5.659924560546875,9.631709098815918,0.7369893789291382,1.0007981061935425
1772649865418801200,5.66980126953125,9.674779891967773,0.7734799385070801,1.0289137363433838
1772649865428678000,5.679677978515625,9.648459434509277,0.7992027401924133,1.0336993932724
1772649865438554400,5.689554443359375,9.617352485656738,0.7776673436164856,1.0121639966964722
1772649865448430800,5.699430908203125,9.595816612243652,0.7920243144035339,1.0199406147003174
1772649865458307300,5.709307373046875,9.5862455368042,0.8015955686569214,1.036690354347229
1772649865468183800,5.719183837890625,9.641280174255371,0.7854440212249756,1.048654556274414
1772649865478060500,5.729060546875,9.69631576538086,0.7615157961845398,1.0414760112762451
1772649865487937000,5.73893701171875,9.69631576538086,0.7519445419311523,1.0295119285583496
1772649865497813500,5.7488134765625,9.653244972229004,0.7465606927871704,0.9984052777290344
1772649865507690000,5.75868994140625,9.626923561096191,0.7393822073936462,1.0007981061935425
1772649865517566500,5.76856640625,9.57906723022461,0.7369893789291382,1.0205388069152832
1772649865527443200,5.778443115234375,9.593423843383789,0.7423732280731201,1.0462616682052612
1772649865537319700,5.788319580078125,9.67238712310791,0.7567301392555237,1.074975609779358
1772649865547196200,5.798196044921875,9.725028991699219,0.7357929348945618,1.0893324613571167
1772649865557072600,5.80807275390625,9.765707015991211,0.7405785918235779,1.0911271572113037
1772649865566949000,5.81794921875,9.736993789672852,0.7525427341461182,1.0671988725662231
1772649865576825900,5.827825927734375,9.698708534240723,0.7447660565376282,1.0558329820632935
1772649865586702300,5.837702392578125,9.653244972229004,0.7423732280731201,1.0462616682052612
1772649865596578800,5.847578857421875,9.600603103637695,0.7345965504646301,1.0079765319824219
1772649865606455300,5.857455322265625,9.595816612243652,0.7393822073936462,1.0031908750534058
1772649865616332000,5.86733203125,9.629316329956055,0.7537391185760498,1.0031908750534058
1772649865626208500,5.87720849609375,9.66520881652832,0.7585247755050659,1.0007981061935425
1772649865636085000,5.8870849609375,9.684351921081543,0.768694281578064,1.017547845840454
1772649865645961500,5.89696142578125,9.662816047668457,0.7758727669715881,1.036690354347229
1772649865655838000,5.906837890625,9.626923561096191,0.7704889178276062,1.0319048166275024
1772649865665714700,5.916714599609375,9.5862455368042,0.7704889178276062,1.0151549577713013
1772649865675591200,5.926591064453125,9.631709098815918,0.7585247755050659,0.9960124492645264
1772649865685467600,5.936467529296875,9.717850685119629,0.7495517134666443,1.0145567655563354
1772649865695344000,5.94634423828125,9.748957633972168,0.7591229677200317,1.0432707071304321
1772649865705220600,5.956220703125,9.753743171691895,0.7567301392555237,1.0408778190612793
1772649865715097300,5.966097412109375,9.717850685119629,0.7740781307220459,1.0719845294952393
1772649865724973800,5.975973876953125,9.667601585388184,0.7663014531135559,1.0701899528503418
1772649865734850300,5.985850341796875,9.636494636535645,0.7543373107910156,1.043868899345398
1772649865744726800,5.995726806640625,9.65803050994873,0.7423732280731201,1.0319048166275024
1772649865754603300,6.005603271484375,9.686744689941406,0.7280163168907166,1.0319048166275024
1772649865764480000,6.01547998046875,9.691530227661133,0.735194742679596,1.0121639966964722
1772649865774356500,6.0253564453125,9.6795654296875,0.7232306599617004,0.9984052777290344
1772649865784233000,6.03523291015625,9.626923561096191,0.7178468108177185,1.0031908750534058
1772649865794109400,6.045109375,9.617352485656738,0.7226324677467346,1.012762188911438
1772649865803986200,6.054986083984375,9.629316329956055,0.7465606927871704,1.0151549577713013
1772649865813862700,6.064862548828125,9.677172660827637,0.7447660565376282,1.0223335027694702
1772649865823739100,6.0747392578125,9.69631576538086,0.7519445419311523,1.0247262716293335
1772649865833615600,6.08461572265625,9.684351921081543,0.7806583642959595,1.0271191596984863
1772649865843492000,6.0944921875,9.660423278808594,0.7830511927604675,1.0552347898483276
1772649865853368800,6.104368896484375,9.634101867675781,0.8093722462654114,1.0911271572113037
1772649865863245300,6.114245361328125,9.641280174255371,0.8237292170524597,1.1072787046432495
1772649865873121800,6.124121826171875,9.614959716796875,0.8237292170524597,1.098305583000183
1772649865882998300,6.133998291015625,9.614959716796875,0.8213363885879517,1.1024930477142334
1772649865892874800,6.143874755859375,9.634101867675781,0.7926225066184998,1.0600204467773438
1772649865902751500,6.15375146484375,9.617352485656738,0.763310432434082,1.0055837631225586
1772649865912628000,6.1636279296875,9.634101867675781,0.729810893535614,0.9672985672950745
1772649865922504400,6.17350439453125,9.641280174255371,0.7465606927871704,0.9888339638710022
1772649865932381000,6.183380859375,9.64367389678955,0.7728816866874695,1.007378339767456
1772649865942257700,6.193257568359375,9.662816047668457,0.7824530005455017,1.00259268283844
1772649865952134100,6.203134033203125,9.68375301361084,0.7752745151519775,0.9595218896865845
1772649865962010600,6.2130107421875,9.698110580444336,0.7752745151519775,0.9619147181510925
1772649865971887000,6.22288720703125,9.748359680175781,0.7752745151519775,0.973878800868988
1772649865981763600,6.232763671875,9.820143699645996,0.7208378314971924,1.0049854516983032
1772649865991640300,6.242640380859375,9.844670295715332,0.6448656916618347,0.9846464991569519
1772649866001516800,6.252516845703125,9.832706451416016,0.5994020700454712,0.9535398483276367
1772649866011393300,6.262393310546875,9.763314247131348,0.6203392744064331,0.9655039310455322
1772649866021269800,6.272269775390625,9.653244972229004,0.6801598072052002,1.0301101207733154
1772649866031146200,6.282146240234375,9.5264253616333,0.727418065071106,1.054038405418396
1772649866041023000,6.29202294921875,9.440881729125977,0.7561319470405579,1.0755738019943237
1772649866050899500,6.3018994140625,9.404989242553711,0.7920243144035339,1.0821540355682373
1772649866060776000,6.31177587890625,9.445069313049316,0.7872386574745178,1.0755738019943237
1772649866070652400,6.32165234375,9.545567512512207,0.7680960893630981,1.0606186389923096
1772649866080529000,6.33152880859375,9.669994354248047,0.7495517134666443,1.0462616682052612
1772649866090405600,6.341405517578125,9.791430473327637,0.7423732280731201,1.0241280794143677
1772649866100282000,6.3512822265625,9.865608215332031,0.7070791125297546,1.007378339767456
1772649866110158600,6.36115869140625,9.848857879638672,0.6903293132781982,0.9882357716560364
1772649866120035000,6.37103515625,9.787242889404297,0.7040880918502808,0.9720842242240906
1772649866129911600,6.38091162109375,9.751350402832031,0.7010970115661621,0.9481559991836548
1772649866139788300,6.390788330078125,9.727422714233398,0.7106683254241943,0.9457631707191467
1772649866149664800,6.400664794921875,9.734601020812988,0.727418065071106,0.9553344249725342
1772649866159541200,6.410541259765625,9.736993789672852,0.737587571144104,0.9954141974449158
1772649866169417700,6.420417724609375,9.715457916259766,0.7447660565376282,1.0462616682052612
1772649866179294200,6.430294189453125,9.648459434509277,0.7645068168640137,1.098305583000183
1772649866189171000,6.4401708984375,9.574281692504883,0.7525427341461182,1.1204391717910767
1772649866199047400,6.45004736328125,9.498309135437012,0.7447660565376282,1.1018948554992676
1772649866208924000,6.459923828125,9.464810371398926,0.7322037220001221,1.0755738019943237
1772649866218800400,6.46980029296875,9.500701904296875,0.7082754969596863,1.0378868579864502
1772649866228676900,6.4796767578125,9.610174179077148,0.6699903607368469,0.9990034699440002
1772649866238553600,6.4895537109375,9.732208251953125,0.6394818425178528,0.9726824164390564
1772649866248430000,6.49943017578125,9.799206733703613,0.6418746709823608,0.9559326171875
1772649866258306600,6.509306640625,9.79681396484375,0.6825526356697083,0.9672985672950745
1772649866268183000,6.51918310546875,9.763314247131348,0.7256234884262085,0.9978070259094238
1772649866278059500,6.5290595703125,9.701101303100586,0.7543373107910156,1.00259268283844
1772649866287936300,6.538936279296875,9.648459434509277,0.7465606927871704,0.9840483069419861
1772649866297812700,6.548812744140625,9.600603103637695,0.7465606927871704,0.97926265001297
1772649866307689200,6.558689208984375,9.581459999084473,0.7393822073936462,0.9864411354064941
1772649866317565700,6.568565673828125,9.595816612243652,0.7441678643226624,0.9912267923355103
1772649866327442200,6.578442138671875,9.646066665649414,0.7561319470405579,0.9888339638710022
1772649866337319000,6.58831884765625,9.715457916259766,0.771087110042572,1.0241280794143677
1772649866347195400,6.5981953125,9.772287368774414,0.776470959186554,1.0480563640594482
1772649866357072000,6.60807177734375,9.77707290649414,0.7663014531135559,1.0241280794143677
1772649866366948400,6.6179482421875,9.751350402832031,0.7280163168907166,1.0007981061935425
1772649866376824800,6.627824951171875,9.734601020812988,0.6705885529518127,0.9583254456520081
1772649866386701600,6.63770166015625,9.684351921081543,0.6580262184143066,0.9439685344696045
1772649866396578000,6.647578125,9.626923561096191,0.698704183101654,0.9822536706924438
1772649866406454500,6.65745458984375,9.648459434509277,0.737587571144104,1.022931694984436
1772649866416331000,6.6673310546875,9.641280174255371,0.737587571144104,1.0654042959213257
1772649866426207500,6.67720751953125,9.636494636535645,0.7567301392555237,1.0773683786392212
1772649866436084000,6.687083984375,9.612566947937012,0.7639086246490479,1.0845468044281006
1772649866445960700,6.696960693359375,9.5862455368042,0.7734799385070801,1.0965110063552856
1772649866455837200,6.706837158203125,9.559925079345703,0.7639086246490479,1.0869396924972534
1772649866465713700,6.716713623046875,9.595816612243652,0.735194742679596,1.058824062347412
1772649866475590100,6.726590087890625,9.65803050994873,0.7256234884262085,1.0510473251342773
1772649866485466600,6.736466552734375,9.720243453979492,0.7238288521766663,1.0462616682052612
1772649866495343400,6.74634326171875,9.765707015991211,0.7232306599617004,1.0145567655563354
1772649866505219800,6.7562197265625,9.774680137634277,0.735194742679596,1.0049854516983032
1772649866515096300,6.766096435546875,9.762716293334961,0.7495517134666443,1.0145567655563354
1772649866524972800,6.775972900390625,9.751350402832031,0.7328019142150879,0.9930213689804077
1772649866534849300,6.785849365234375,9.70349407196045,0.7328019142150879,0.9936196208000183
1772649866544726000,6.79572607421875,9.655637741088867,0.760917603969574,1.0145567655563354
1772649866554602500,6.8056025390625,9.634101867675781,0.7585247755050659,0.9768698215484619
1772649866564479000,6.81547900390625,9.612566947937012,0.7417750358581543,0.9720842242240906
1772649866574355500,6.82535546875,9.617352485656738,0.7680960893630981,1.0031908750534058
1772649866584232000,6.83523193359375,9.66939640045166,0.7872386574745178,1.0289137363433838
1772649866594108700,6.845108642578125,9.667003631591797,0.802193820476532,1.0504491329193115
1772649866603985200,6.854985107421875,9.655637741088867,0.7998009920120239,1.069591760635376
1772649866613861600,6.864861572265625,9.655637741088867,0.7782655358314514,1.0552347898483276
1772649866623738000,6.874738037109375,9.660423278808594,0.7471588850021362,1.036690354347229
1772649866633614600,6.884614501953125,9.677172660827637,0.7399803996086121,1.0121639966964722
1772649866643491300,6.8944912109375,9.701101303100586,0.7399803996086121,1.0097711086273193
1772649866653367800,6.904367919921875,9.70349407196045,0.7639086246490479,1.0223335027694702
1772649866663244300,6.914244384765625,9.698110580444336,0.7878368496894836,1.0648061037063599
1772649866673120800,6.924120849609375,9.65803050994873,0.7830511927604675,1.074377417564392
1772649866682997200,6.933997314453125,9.612566947937012,0.7782655358314514,1.0558329820632935
1772649866692873700,6.943873779296875,9.593423843383789,0.7896314859390259,1.0390832424163818
1772649866702750500,6.95375048828125,9.605388641357422,0.7806583642959595,1.0630114078521729
1772649866712627000,6.963626953125,9.600603103637695,0.7585247755050659,1.017547845840454
1772649866722503400,6.97350341796875,9.629316329956055,0.7489534616470337,0.981655478477478
1772649866732380000,6.9833798828125,9.66520881652832,0.7561319470405579,1.0001999139785767
1772649866742256400,6.99325634765625,9.695717811584473,0.7734799385070801,1.0456634759902954
1772649866752132900,7.0031328125,9.698110580444336,0.7974081635475159,1.0600204467773438
1772649866762009600,7.013009521484375,9.717252731323242,0.8027920126914978,1.069591760635376
1772649866771886000,7.022885986328125,9.710672378540039,0.7639086246490479,1.0552347898483276
1772649866781762600,7.032762451171875,9.66520881652832,0.7328019142150879,1.0247262716293335
1772649866791639000,7.04263916015625,9.634101867675781,0.7537391185760498,1.0103694200515747
1772649866801515500,7.052515625,9.638887405395508,0.760917603969574,1.0097711086273193
1772649866811392300,7.062392333984375,9.622138023376465,0.771087110042572,1.036690354347229
1772649866821268700,7.072268798828125,9.628718376159668,0.8189435601234436,1.090528964996338
1772649866831145200,7.082145263671875,9.621540069580078,0.8644071817398071,1.1240284442901611
1772649866841021700,7.092021728515625,9.602396965026855,0.8500502705574036,1.114457130432129
1772649866850898200,7.101898193359375,9.600004196166992,0.8374879360198975,1.0671988725662231
1772649866860775000,7.11177490234375,9.628718376159668,0.8255237936973572,1.0043872594833374
1772649866870651400,7.1216513671875,9.681360244750977,0.7704889178276062,0.9553344249725342
1772649866880528000,7.13152783203125,9.757930755615234,0.7010970115661621,0.9122636318206787
1772649866890404400,7.141404296875,9.817750930786133,0.6843472719192505,0.9026923179626465
1772649866900280800,7.15128076171875,9.827322959899902,0.6825526356697083,0.9361918568611145
1772649866910157300,7.1611572265625,9.772287368774414,0.7160521745681763,0.9810572862625122
1772649866920033800,7.17103369140625,9.671789169311523,0.771087110042572,1.0408778190612793
1772649866929910500,7.18091064453125,9.53061294555664,0.8446664214134216,1.069591760635376
1772649866939787000,7.190787109375,9.425328254699707,0.8877372145652771,1.0815558433532715
1772649866949663500,7.20066357421875,9.401998519897461,0.8877372145652771,1.0959128141403198
1772649866959540000,7.2105400390625,9.482755661010742,0.8638089895248413,1.093519926071167
1772649866969416400,7.22041650390625,9.58325481414795,0.828514814376831,1.0839486122131348
1772649866979293200,7.230293212890625,9.686145782470703,0.7902296781539917,1.0552347898483276
1772649866989169700,7.240169677734375,9.757930755615234,0.7519445419311523,0.9810572862625122
1772649866999046100,7.250046142578125,9.798608779907227,0.7280163168907166,0.9475577473640442
1772649867008922600,7.259922607421875,9.7938232421875,0.7328019142150879,0.9571290612220764
1772649867018799000,7.269799072265625,9.77707290649414,0.771087110042572,0.9762716293334961
1772649867028675600,7.279675537109375,9.781859397888184,0.8045865893363953,1.0163514614105225
1772649867038552300,7.28955224609375,9.795618057250977,0.8267202377319336,1.052243709564209
1772649867048428800,7.2994287109375,9.765109062194824,0.828514814376831,1.0689935684204102
1772649867058305300,7.30930517578125,9.702896118164062,0.8309076428413391,1.0546365976333618
1772649867068181800,7.319181640625,9.631111145019531,0.8476574420928955,1.0761719942092896
1772649867078058200,7.329058349609375,9.556933403015137,0.8548358678817749,1.1024930477142334
1772649867087935000,7.33893505859375,9.528220176696777,0.851844847202301,1.093519926071167
1772649867097811500,7.3488115234375,9.495318412780762,0.8368897438049316,1.0408778190612793
1772649867107688000,7.35868798828125,9.507282257080078,0.8105686902999878,0.9978070259094238
1772649867117564400,7.368564453125,9.561718940734863,0.8033902049064636,0.9643075466156006
1772649867127441000,7.37844091796875,9.659825325012207,0.8081758618354797,0.9667003750801086
1772649867137317400,7.3883173828125,9.741181373596191,0.8015955686569214,0.9924231767654419
1772649867147194000,7.398194091796875,9.7938232421875,0.8165507316589355,1.0235298871994019
1772649867157070600,7.408070556640625,9.77408218383789,0.8524430394172668,1.0564311742782593
1772649867166947000,7.417947021484375,9.710074424743652,0.8859425783157349,1.0923235416412354
1772649867176823600,7.427823486328125,9.628718376159668,0.8979067206382751,1.0971091985702515
1772649867186700000,7.437699951171875,9.547362327575684,0.8566305041313171,1.0785647630691528
1772649867196576500,7.447576416015625,9.513862609863281,0.841675341129303,1.0360921621322632
1772649867206453200,7.457453369140625,9.554540634155273,0.8464609980583191,1.0001999139785767
1772649867216329700,7.467329833984375,9.619147300720215,0.8207381963729858,0.9930213689804077
1772649867226206200,7.477206298828125,9.678967475891113,0.8398807644844055,1.0091729164123535
1772649867236082700,7.487082763671875,9.738788604736328,0.8422735929489136,0.9942178130149841
1772649867245959200,7.496959228515625,9.759725570678711,0.8422735929489136,0.9918249845504761
1772649867255836000,7.5068359375,9.734002113342285,0.8398807644844055,0.9966106414794922
1772649867265712400,7.51671240234375,9.7005033493042,0.8446664214134216,1.0139585733413696
1772649867275588900,7.5265888671875,9.671789169311523,0.8350951075553894,1.031306505203247
1772649867285465300,7.53646533203125,9.657432556152344,0.851844847202301,1.0235298871994019
1772649867295341800,7.546341796875,9.659825325012207,0.8374879360198975,0.9996016621589661
1772649867305218300,7.55621826171875,9.66221809387207,0.8183453679084778,0.997208833694458
1772649867315094800,7.5660947265625,9.652647018432617,0.8063812255859375,0.9954141974449158
1772649867324971500,7.575971435546875,9.635896682739258,0.8111668825149536,1.0139585733413696
1772649867334848000,7.585847900390625,9.588040351867676,0.8398807644844055,1.0456634759902954
1772649867344724500,7.595724365234375,9.58325481414795,0.8691928386688232,1.083350419998169
1772649867354601000,7.60560107421875,9.590433120727539,0.8668000102043152,1.1120643615722656
1772649867364477400,7.6154775390625,9.635896682739258,0.8668000102043152,1.114457130432129
1772649867374354000,7.62535400390625,9.67657470703125,0.8602197170257568,1.1042876243591309
1772649867384230400,7.63523046875,9.693324089050293,0.8620143532752991,1.073180913925171
1772649867394107100,7.645107177734375,9.659825325012207,0.8644071817398071,1.0713863372802734
1772649867403983600,7.654983642578125,9.628718376159668,0.8662018179893494,1.0546365976333618
1772649867413860000,7.664860107421875,9.604789733886719,0.851844847202301,1.052243709564209
1772649867423736600,7.674736572265625,9.571290969848633,0.849452018737793,1.0600204467773438
1772649867433613000,7.684613037109375,9.580862045288086,0.851844847202301,1.031306505203247
1772649867443489800,7.69448974609375,9.659825325012207,0.8398807644844055,1.0043872594833374
1772649867453366300,7.7043662109375,9.722038269042969,0.8542376756668091,1.0109676122665405
1772649867463242800,7.71424267578125,9.724431037902832,0.8781659007072449,1.028315544128418
1772649867473119200,7.724119140625,9.68375301361084,0.8709874153137207,1.0307083129882812
1772649867482995700,7.73399560546875,9.628718376159668,0.851844847202301,1.0235298871994019
1772649867492872200,7.7438720703125,9.58325481414795,0.8225327730178833,1.00259268283844
1772649867502749000,7.7537490234375,9.556933403015137,0.8057830333709717,0.9834501147270203
1772649867512625400,7.76362548828125,9.573683738708496,0.7986045479774475,0.9978070259094238
1772649867522502000,7.773501953125,9.638289451599121,0.8135597109794617,1.0121639966964722
1772649867532378400,7.78337841796875,9.681360244750977,0.8213363885879517,1.057029366493225
1772649867542254800,7.7932548828125,9.68375301361084,0.8309076428413391,1.0929217338562012
1772649867552131300,7.80313134765625,9.66221809387207,0.865005373954773,1.1186445951461792
1772649867562007800,7.8130078125,9.597611427307129,0.8668000102043152,1.1168500185012817
1772649867571884500,7.822884521484375,9.564111709594727,0.8668000102043152,1.1048858165740967
1772649867581761000,7.832760986328125,9.621540069580078,0.8620143532752991,1.0785647630691528
1772649867591637500,7.842637451171875,9.702896118164062,0.8476574420928955,1.0498509407043457
1772649867601514000,7.852513916015625,9.726823806762695,0.8261220455169678,1.0307083129882812
1772649867611390500,7.862390380859375,9.702896118164062,0.851844847202301,1.0259226560592651
1772649867621267200,7.87226708984375,9.65503978729248,0.8757730722427368,1.0211371183395386
1772649867631143700,7.882143798828125,9.638289451599121,0.8757730722427368,1.0061819553375244
1772649867641020200,7.892020263671875,9.659825325012207,0.851844847202301,0.99481600522995
1772649867650896600,7.901896728515625,9.67657470703125,0.8207381963729858,0.96370929479599
1772649867660773000,7.911773193359375,9.714859962463379,0.8087740540504456,0.9708877801895142
1772649867670649600,7.921649658203125,9.731609344482422,0.8165507316589355,1.0139585733413696
1772649867680526000,7.931526123046875,9.68375301361084,0.8404789566993713,1.0689935684204102
1772649867690402800,7.94140283203125,9.614361763000488,0.8691928386688232,1.095314621925354
1772649867700279300,7.951279296875,9.542576789855957,0.8739784955978394,1.1072787046432495
1772649867710155800,7.96115576171875,9.504291534423828,0.893121063709259,1.119242787361145
1772649867720032300,7.9710322265625,9.497113227844238,0.9050851464271545,1.1312068700790405
1772649867729908700,7.98090869140625,9.518648147583008,0.8901300430297852,1.1048858165740967
1772649867739785200,7.99078515625,9.549755096435547,0.8368897438049316,1.0217353105545044
1772649867749662000,8.000661865234376,9.774680137634277,0.763310432434082,0.9332008361816406
1772649867759538400,8.010538330078125,9.796216011047363,0.836291491985321,1.0971091985702515
1772649867769415000,8.020414794921875,9.765109062194824,0.8291130661964417,1.0923235416412354
1772649867779291400,8.03029150390625,9.748359680175781,0.8141579031944275,1.0474581718444824
1772649867789167900,8.04016796875,9.69093132019043,0.8075776696205139,1.0929217338562012
1772649867799044400,8.05004443359375,9.616754531860352,0.7974081635475159,1.062413215637207
1772649867808920800,8.0599208984375,9.564111709594727,0.8303094506263733,1.062413215637207
1772649867818797600,8.069797607421876,9.53061294555664,0.8566305041313171,1.0791629552841187
1772649867828674000,8.079674072265625,9.535398483276367,0.8691928386688232,1.1048858165740967
1772649867838550500,8.089550537109375,9.564111709594727,0.8883354067802429,1.114457130432129
1772649867848427000,8.099427001953124,9.597611427307129,0.8805587291717529,1.0402796268463135
1772649867858303500,8.109303466796876,9.698110580444336,0.8374879360198975,1.0426725149154663
1772649867868180000,8.119179931640625,9.765109062194824,0.8069794178009033,1.0426725149154663
1772649867878056400,8.129056396484375,9.824930191040039,0.8045865893363953,1.0109676122665405
1772649867887933200,8.13893310546875,9.850652694702148,0.8117650747299194,1.0109676122665405
1772649867897809700,8.1488095703125,9.798608779907227,0.7758727669715881,1.0043872594833374
1772649867907686100,8.15868603515625,9.729216575622559,0.7848458290100098,0.9786644577980042
1772649867917562600,8.168562744140624,9.69093132019043,0.8350951075553894,1.0019944906234741
1772649867927439000,8.178439208984376,9.667003631591797,0.8470591902732849,1.0402796268463135
1772649867937315600,8.188315673828125,9.657432556152344,0.8428717851638794,1.064207911491394
1772649867947192000,8.198192138671875,9.650253295898438,0.8548358678817749,1.0977073907852173
1772649867957068800,8.20806884765625,9.633503913879395,0.8721838593482971,1.1258230209350586
1772649867966945300,8.2179453125,9.645467758178711,0.8261220455169678,1.0737791061401367
1772649867976821800,8.22782177734375,9.647860527038574,0.7830511927604675,1.0528420209884644
1772649867986698200,8.2376982421875,9.66221809387207,0.7974081635475159,1.0432707071304321
1772649867996574700,8.24757470703125,9.678967475891113,0.7926225066184998,1.0169496536254883
1772649868006451200,8.257451171875,9.688538551330566,0.7734799385070801,1.0145567655563354
1772649868016328000,8.267327880859375,9.65503978729248,0.7800601720809937,1.0049854516983032
1772649868026204400,8.277204345703124,9.607182502746582,0.8015955686569214,1.031306505203247
1772649868036081000,8.287080810546875,9.57188892364502,0.8356932997703552,1.0815558433532715
1772649868045957400,8.296957275390625,9.549755096435547,0.8787640929222107,1.1264212131500244
1772649868055833900,8.306833740234374,9.592825889587402,0.898504912853241,1.1545369625091553
1772649868065710300,8.31671044921875,9.693324089050293,0.8823533654212952,1.1617153882980347
1772649868075586800,8.3265869140625,9.748359680175781,0.8560323119163513,1.1826525926589966
1772649868085463600,8.336463623046875,9.717252731323242,0.8584251403808594,1.1521440744400024
1772649868095340000,8.346340087890624,9.66221809387207,0.8524430394172668,1.083350419998169
1772649868105216500,8.356216552734375,9.626325607299805,0.8350951075553894,1.0091729164123535
1772649868115093000,8.366093017578125,9.626325607299805,0.8063812255859375,0.9954141974449158
1772649868124969500,8.375969482421874,9.65503978729248,0.7704889178276062,0.9744769930839539
1772649868134846000,8.385845947265626,9.657432556152344,0.7746763229370117,0.9290133714675903
1772649868144722400,8.395722412109375,9.657432556152344,0.7746763229370117,0.9266205430030823
1772649868154599200,8.40559912109375,9.698110580444336,0.8015955686569214,0.9834501147270203
1772649868164475600,8.4154755859375,9.717252731323242,0.8500502705574036,1.0378868579864502
1772649868174352100,8.42535205078125,9.686145782470703,0.893121063709259,1.073180913925171
1772649868184228600,8.435228515625,9.650253295898438,0.8955138921737671,1.113858938217163
1772649868194105000,8.44510498046875,9.638289451599121,0.8620143532752991,1.1048858165740967
1772649868203981600,8.454981689453126,9.621540069580078,0.8404789566993713,1.0737791061401367
1772649868213858000,8.464858154296875,9.604789733886719,0.8063812255859375,1.0480563640594482
1772649868223734800,8.47473486328125,9.607781410217285,0.7854440212249756,1.048654556274414
1772649868233611300,8.484611328125,9.621540069580078,0.8039883971214294,1.0408778190612793
1772649868243487700,8.49448779296875,9.631111145019531,0.8141579031944275,1.0671988725662231
1772649868253364200,8.5043642578125,9.65503978729248,0.8476574420928955,1.0689935684204102
1772649868263240700,8.51424072265625,9.678967475891113,0.8404789566993713,1.083350419998169
1772649868273117200,8.5241171875,9.705288887023926,0.8333004713058472,1.057029366493225
1772649868282993700,8.53399365234375,9.702896118164062,0.8350951075553894,1.028315544128418
1772649868292870100,8.5438701171875,9.647860527038574,0.8129615187644958,0.9762716293334961
1772649868302747000,8.553746826171874,9.698708534240723,0.7052844762802124,0.8793623447418213
1772649868312623400,8.563623291015626,9.390034675598145,0.8464609980583191,1.0630114078521729
1772649868322499800,8.573499755859375,9.148359298706055,0.857228696346283,1.0037890672683716
1772649868332376300,8.583376220703125,9.186644554138184,0.9720842242240906,1.0169496536254883
1772649868342252800,8.593252685546876,9.637691497802734,0.8638089895248413,1.0259226560592651
1772649868352129300,8.60312939453125,10.121041297912598,0.7692924737930298,1.1635099649429321
1772649868362006000,8.613006103515625,10.2478609085083,0.8255237936973572,1.2693923711776733
1772649868371882500,8.622882568359374,10.153943061828613,0.900897741317749,1.231107234954834
1772649868381759000,8.632759033203126,9.998409271240234,0.9379864931106567,1.140179991722107
1772649868391635500,8.642635498046875,9.833903312683105,0.8943174481391907,1.1318050622940063
1772649868401512000,8.652511962890625,9.781859397888184,0.828514814376831,1.0683952569961548
1772649868411388400,8.662388427734374,9.66221809387207,0.7896314859390259,0.9930213689804077
1772649868421265000,8.672264892578125,9.494720458984375,0.7663014531135559,0.8889335989952087
1772649868431141400,8.682141357421875,9.370891571044922,0.7579265832901001,0.8111668825149536
1772649868441017900,8.692017822265624,9.29910659790039,0.7597211599349976,0.7657032608985901
1772649868450894600,8.70189453125,9.272786140441895,0.776470959186554,0.7776673436164856
1772649868460771000,8.71177099609375,9.325428009033203,0.8081758618354797,0.8297112584114075
1772649868470647600,8.7216474609375,9.401400566101074,0.8374879360198975,0.9128618240356445
1772649868480524000,8.73152392578125,9.475577354431152,0.8626125454902649,0.97148597240448
1772649868490400500,8.741400390625,9.501898765563965,0.844068169593811,0.9834501147270203
1772649868500277000,8.751277099609375,9.540184020996094,0.8273184299468994,1.0169496536254883
1772649868510153500,8.761153564453124,9.671789169311523,0.8500502705574036,1.1066805124282837
1772649868520030200,8.7710302734375,9.824331283569336,0.885344386100769,1.2011969089508057
1772649868529906700,8.78090673828125,9.90568733215332,0.8835497498512268,1.2394821643829346
1772649868539783200,8.790783203125,9.850652694702148,0.9122636318206787,1.2699905633926392
1772649868549659600,8.80065966796875,9.7938232421875,0.8949156403541565,1.2251251935958862
1772649868559536000,8.8105361328125,9.812965393066406,0.8303094506263733,1.1922239065170288
1772649868569412600,8.82041259765625,9.841679573059082,0.8255237936973572,1.1802598237991333
1772649868579289000,8.8302890625,9.824930191040039,0.8273184299468994,1.140179991722107
1772649868589165600,8.84016552734375,9.674181938171387,0.8428717851638794,1.1066805124282837
1772649868599042300,8.850042236328125,9.487542152404785,0.8488538265228271,1.0528420209884644
1772649868608918800,8.859918701171875,9.332606315612793,0.8380861282348633,0.9798609018325806
1772649868618795300,8.869795166015624,9.251250267028809,0.8015955686569214,0.9014959335327148
1772649868628671700,8.879671630859375,9.289535522460938,0.7920243144035339,0.8703892230987549
1772649868638548200,8.88954833984375,9.512067794799805,0.7423732280731201,0.8512466549873352
1772649868648424700,8.8994248046875,9.757930755615234,0.771087110042572,1.0067801475524902
1772649868658301200,8.90930126953125,10.039685249328613,0.8063812255859375,1.098903775215149
1772649868668178000,8.919177978515625,10.14018440246582,0.7902296781539917,1.1581261157989502
1772649868678054400,8.929054443359375,10.01156997680664,0.7758727669715881,1.1778669357299805
1772649868687931000,8.938930908203124,9.784252166748047,0.8135597109794617,1.200000524520874
1772649868697807400,8.948807373046876,9.524032592773438,0.8434699773788452,1.186241865158081
1772649868707683800,8.958683837890625,9.318249702453613,0.8739784955978394,1.1748759746551514
1772649868717560300,8.968560302734375,9.270991325378418,0.851844847202301,1.1491531133651733
1772649868727436800,8.978436767578126,9.294919967651367,0.8446664214134216,1.1443674564361572
1772649868737313300,8.988313232421875,9.380462646484375,0.8685946464538574,1.1461620330810547
1772649868747190000,8.99818994140625,9.502496719360352,0.8524430394172668,1.1413763761520386
1772649868757066500,9.00806640625,9.634101867675781,0.7740781307220459,1.1030912399291992
1772649868766943000,9.01794287109375,9.858428955078125,0.7363911867141724,1.0671988725662231
1772649868776819500,9.0278193359375,9.930213928222656,0.6843472719192505,1.0959128141403198
1772649868786696000,9.037696044921875,9.80100154876709,0.7621139883995056,1.0666006803512573
1772649868796572400,9.047572509765626,9.495318412780762,0.7322037220001221,1.0109676122665405
1772649868806449000,9.057448974609375,9.163313865661621,0.6837490797042847,0.8219345808029175
1772649868816325400,9.067325439453125,8.797810554504395,0.6921239495277405,0.8566305041313171
1772649868826201900,9.077201904296874,9.021539688110352,0.8997012972831726,0.9990034699440002
1772649868836078600,9.08707861328125,9.896116256713867,0.8871390223503113,1.098903775215149
1772649868845955000,9.096955078125,10.597811698913574,0.5593222975730896,1.2538390159606934
1772649868855831600,9.10683154296875,10.755139350891113,0.6693921089172363,1.4931213855743408
1772649868865708000,9.1167080078125,10.63250732421875,0.8668000102043152,1.4656038284301758
1772649868875584500,9.12658447265625,10.419546127319336,0.8967102766036987,1.4111671447753906
1772649868885461000,9.1364609375,10.142577171325684,0.7728816866874695,1.3058829307556152
1772649868895337500,9.14633740234375,9.777671813964844,0.7034898400306702,1.1629117727279663
1772649868905214000,9.1562138671875,9.388239860534668,0.6915257573127747,1.031306505203247
1772649868915090700,9.166090576171875,9.128020286560059,0.6436693072319031,0.9200403094291687
1772649868924967200,9.17596728515625,8.974879264831543,0.6215356588363647,0.8733802437782288
1772649868934843600,9.18584375,8.94377326965332,0.6430711150169373,0.9068797826766968
1772649868944720100,9.19572021484375,9.060422897338867,0.6795616149902344,0.9631111025810242
1772649868954596600,9.2055966796875,9.249456405639648,0.7172485589981079,1.0737791061401367
1772649868964473000,9.21547314453125,9.347561836242676,0.771087110042572,1.1778669357299805
1772649868974349600,9.225349609375,9.43310546875,0.833898663520813,1.1988041400909424
1772649868984226000,9.23522607421875,9.547362327575684,0.8315058946609497,1.174277663230896
1772649868994102800,9.245102783203125,9.68375301361084,0.849452018737793,1.2400803565979004
1772649869003979300,9.254979248046874,9.886545181274414,0.9032905697822571,1.3148560523986816
1772649869013855700,9.264855712890625,10.03011417388916,0.8757730722427368,1.3746765851974487
1772649869023732200,9.274732177734375,10.183255195617676,0.8117650747299194,1.3722838163375854
1772649869033608700,9.284608642578124,10.192826271057129,0.7513462901115417,1.272383451461792
1772649869043485200,9.294485107421876,10.013962745666504,0.6921239495277405,1.155135154724121
1772649869053361700,9.304361572265625,9.810572624206543,0.6903293132781982,1.074975609779358
1772649869063238100,9.314238037109375,9.65085220336914,0.6969096064567566,1.0492527484893799
1772649869073114600,9.324114501953124,9.617352485656738,0.6849454641342163,1.0396814346313477
1772649869082991400,9.333991455078126,9.583852767944336,0.6711867451667786,1.0689935684204102
1772649869092867800,9.343867919921875,9.591031074523926,0.6687939167022705,1.1042876243591309
1772649869102744300,9.353744384765625,9.614959716796875,0.6933203339576721,1.201795220375061
1772649869112620800,9.363620849609376,9.512067794799805,0.7124629616737366,1.2305090427398682
1772649869122497300,9.373497314453125,9.345169067382812,0.6825526356697083,1.1479566097259521
1772649869132373800,9.383373779296875,9.357132911682129,0.7112665176391602,1.1431710720062256
1772649869142250200,9.393250244140624,9.311071395874023,0.8578268885612488,1.2747762203216553
1772649869152126700,9.403126708984376,9.122636795043945,0.7244270443916321,1.0959128141403198
1772649869162003500,9.41300341796875,9.473783493041992,0.6969096064567566,1.085145115852356
1772649869171880000,9.4228798828125,9.980463027954102,0.6705885529518127,1.181456208229065
1772649869181756400,9.43275634765625,10.434501647949219,0.6909275650978088,1.3465609550476074
1772649869191633000,9.4426328125,10.484152793884277,0.828514814376831,1.4757733345031738
1772649869201509400,9.45250927734375,10.496116638183594,0.9188438653945923,1.4297115802764893
1772649869211385900,9.4623857421875,10.323833465576172,0.9230313301086426,1.4488540887832642
1772649869221262300,9.472262451171876,10.063613891601562,0.8638089895248413,1.3507484197616577
1772649869231138800,9.482138916015625,9.77707290649414,0.8225327730178833,1.1569297313690186
1772649869241015300,9.492015380859375,9.600004196166992,0.7280163168907166,1.054038405418396
1772649869250892000,9.50189208984375,9.223134994506836,0.6185446381568909,1.0085747241973877
1772649869260768500,9.5117685546875,8.874381065368652,0.6131607890129089,0.7782655358314514
1772649869270645000,9.52164501953125,8.721240043640137,0.6113662123680115,0.6484549641609192
1772649869280521500,9.531521484375,8.752346992492676,0.5874379873275757,0.6867401003837585
