time,seconds_elapsed,z,y,x
1772562198598581500,0.06858154296875,-0.93701171875,-0.2632598876953125,-0.052490234375
1772562198608564700,0.078564697265625,-0.9493255615234375,-0.2659759521484375,-0.05389404296875
1772562198618546400,0.08854638671875,-0.9694366455078125,-0.272003173828125,-0.0534820556640625
1772562198628529700,0.09852978515625,-0.9827728271484375,-0.27545166015625,-0.05401611328125
1772562198638511400,0.108511474609375,-0.98431396484375,-0.2772064208984375,-0.0517578125
1772562198648494600,0.11849462890625,-0.9782562255859375,-0.2755889892578125,-0.0511932373046875
1772562198658477600,0.1284775390625,-0.9717254638671875,-0.27301025390625,-0.05072021484375
1772562198668459500,0.13845947265625,-0.96990966796875,-0.27130126953125,-0.046234130859375
1772562198678442500,0.1484423828125,-0.9656982421875,-0.269927978515625,-0.0410614013671875
1772562198688424700,0.1584248046875,-0.9663238525390625,-0.26861572265625,-0.0350189208984375
1772562198698407400,0.168407470703125,-0.9666748046875,-0.2683563232421875,-0.0301513671875
1772562198708389600,0.1783896484375,-0.9664306640625,-0.2678070068359375,-0.031646728515625
1772562198718372600,0.18837255859375,-0.961090087890625,-0.267822265625,-0.0364532470703125
1772562198728354600,0.1983544921875,-0.957244873046875,-0.26824951171875,-0.0395050048828125
1772562198738337500,0.208337646484375,-0.9569091796875,-0.2676239013671875,-0.040618896484375
1772562198748320500,0.218320556640625,-0.9593658447265625,-0.2682647705078125,-0.042236328125
1772562198758302500,0.228302490234375,-0.9605712890625,-0.268463134765625,-0.044219970703125
1772562198768285400,0.238285400390625,-0.9592742919921875,-0.267608642578125,-0.0445556640625
1772562198778267600,0.248267578125,-0.960845947265625,-0.265716552734375,-0.0429534912109375
1772562198788250400,0.25825048828125,-0.9648284912109375,-0.263397216796875,-0.047882080078125
1772562198798232600,0.268232666015625,-0.977081298828125,-0.2635498046875,-0.046844482421875
1772562198808215600,0.278215576171875,-0.9872283935546875,-0.261383056640625,-0.04718017578125
1772562198818198500,0.288198486328125,-0.9914398193359375,-0.2587432861328125,-0.0432586669921875
1772562198828180700,0.2981806640625,-0.9934234619140625,-0.2559051513671875,-0.037994384765625
1772562198838164000,0.3081640625,-0.9864959716796875,-0.2524871826171875,-0.039276123046875
1772562198848145700,0.318145751953125,-0.976043701171875,-0.2477264404296875,-0.036895751953125
1772562198858129000,0.32812890625,-0.9748687744140625,-0.24285888671875,-0.033355712890625
1772562198868110600,0.338110595703125,-0.97705078125,-0.242340087890625,-0.0254058837890625
1772562198878093800,0.34809375,-0.9792633056640625,-0.244384765625,-0.0232696533203125
1772562198888075800,0.35807568359375,-0.9777069091796875,-0.24224853515625,-0.0343780517578125
1772562198898058800,0.368058837890625,-0.9703826904296875,-0.2373504638671875,-0.0500335693359375
1772562198908041700,0.378041748046875,-0.9642181396484375,-0.2322235107421875,-0.0633087158203125
1772562198918024000,0.38802392578125,-0.9579620361328125,-0.2209320068359375,-0.0653839111328125
1772562198928006700,0.398006591796875,-0.9428863525390625,-0.2181243896484375,-0.0677337646484375
1772562198937988900,0.40798876953125,-0.9215240478515625,-0.231842041015625,-0.0708160400390625
1772562198947971800,0.417971923828125,-0.9312896728515625,-0.2227020263671875,-0.076263427734375
1772562198957953800,0.427953857421875,-0.9266357421875,-0.22088623046875,-0.0694580078125
1772562198967936800,0.437936767578125,-0.9351348876953125,-0.23284912109375,-0.065277099609375
1772562198977919000,0.4479189453125,-0.93341064453125,-0.2367401123046875,-0.0592803955078125
1772562198987901700,0.457901611328125,-0.93951416015625,-0.2284393310546875,-0.034393310546875
1772562198997884700,0.467884765625,-0.928924560546875,-0.2110595703125,-0.0088653564453125
1772562199007867000,0.477866943359375,-0.92596435546875,-0.216278076171875,-0.0150909423828125
1772562199017849600,0.487849609375,-0.9423828125,-0.2326202392578125,-0.0135650634765625
1772562199027831800,0.497831787109375,-0.9405059814453125,-0.246002197265625,-0.02154541015625
1772562199037814800,0.507814697265625,-0.9307098388671875,-0.252716064453125,-0.0502777099609375
1772562199047796700,0.517796630859375,-0.930267333984375,-0.25335693359375,-0.0717010498046875
1772562199057779700,0.52777978515625,-0.9412384033203125,-0.252471923828125,-0.096588134765625
1772562199067763000,0.537762939453125,-0.9717254638671875,-0.2543182373046875,-0.1081695556640625
1772562199077744600,0.54774462890625,-0.997283935546875,-0.2685546875,-0.1047821044921875
1772562199087727900,0.557727783203125,-0.984375,-0.2953948974609375,-0.097686767578125
1772562199097709600,0.56770947265625,-0.96795654296875,-0.3058319091796875,-0.0922698974609375
1772562199107692800,0.57769287109375,-0.9528656005859375,-0.2960662841796875,-0.0867156982421875
1772562199117674800,0.5876748046875,-0.951263427734375,-0.290985107421875,-0.08355712890625
1772562199127657700,0.59765771484375,-0.9583587646484375,-0.2955322265625,-0.081939697265625
1772562199137639700,0.6076396484375,-0.964141845703125,-0.298797607421875,-0.0814971923828125
1772562199147623000,0.617622802734375,-0.9573516845703125,-0.294464111328125,-0.08349609375
1772562199157605600,0.627605712890625,-0.9412078857421875,-0.286041259765625,-0.08367919921875
1772562199167587800,0.637587890625,-0.915985107421875,-0.270355224609375,-0.0826416015625
1772562199177570800,0.64757080078125,-0.908172607421875,-0.248016357421875,-0.078521728515625
1772562199187552800,0.657552734375,-0.91485595703125,-0.2318878173828125,-0.0689849853515625
1772562199197535700,0.66753564453125,-0.9276580810546875,-0.230865478515625,-0.057403564453125
1772562199207518000,0.67751806640625,-0.9343414306640625,-0.2389068603515625,-0.048919677734375
1772562199217500700,0.687500732421875,-0.931304931640625,-0.2507781982421875,-0.038543701171875
1772562199227483000,0.69748291015625,-0.942962646484375,-0.2610626220703125,-0.0216064453125
1772562199237465900,0.7074658203125,-0.9847564697265625,-0.2714996337890625,-0.00750732421875
1772562199247448600,0.717448486328125,-1.0142822265625,-0.28875732421875,0.0095367431640625
1772562199257430800,0.7274306640625,-1.055938720703125,-0.2994842529296875,0.02264404296875
1772562199267413800,0.737413818359375,-1.0780487060546875,-0.2988128662109375,0.033203125
1772562199277395700,0.747395751953125,-1.0452423095703125,-0.2840118408203125,0.0396575927734375
1772562199287378700,0.757378662109375,-1.0454254150390625,-0.263214111328125,0.0460662841796875
1772562199297360600,0.767360595703125,-1.06689453125,-0.245758056640625,0.0729522705078125
1772562199307343600,0.777343505859375,-1.0054931640625,-0.2287750244140625,0.062225341796875
1772562199317326800,0.787326904296875,-1.054443359375,-0.2270965576171875,0.0453338623046875
1772562199327308500,0.79730859375,-1.049591064453125,-0.218841552734375,0.048797607421875
1772562199337291800,0.807291748046875,-1.0279998779296875,-0.214263916015625,0.0406036376953125
1772562199347273700,0.817273681640625,-1.0202178955078125,-0.2139739990234375,0.052398681640625
1772562199357256700,0.827256591796875,-1.01654052734375,-0.2138214111328125,0.0697784423828125
1772562199367238700,0.83723876953125,-1.0085601806640625,-0.2142333984375,0.0836029052734375
1772562199377222000,0.847221923828125,-0.99761962890625,-0.214691162109375,0.087493896484375
1772562199387203600,0.85720361328125,-0.98046875,-0.20989990234375,0.092010498046875
1772562199397186800,0.867186767578125,-0.9707794189453125,-0.2098388671875,0.104583740234375
1772562199407169800,0.877169677734375,-0.9795989990234375,-0.2147979736328125,0.116607666015625
1772562199417151700,0.88715185546875,-0.9970855712890625,-0.2167816162109375,0.1143646240234375
1772562199427134700,0.897134765625,-1.0074615478515625,-0.2133636474609375,0.100738525390625
1772562199437117000,0.907116943359375,-1.016387939453125,-0.2029266357421875,0.0914154052734375
1772562199447099600,0.917099609375,-1.022308349609375,-0.1977996826171875,0.0881500244140625
1772562199457081900,0.927081787109375,-1.0234222412109375,-0.1993560791015625,0.103363037109375
1772562199467064800,0.93706494140625,-1.0175018310546875,-0.201385498046875,0.1191253662109375
1772562199477046800,0.947046875,-0.998809814453125,-0.199127197265625,0.1315460205078125
1772562199487029800,0.95702978515625,-0.9957275390625,-0.191009521484375,0.1541900634765625
1772562199497012700,0.9670126953125,-0.9904022216796875,-0.187164306640625,0.16650390625
1772562199506994700,0.97699462890625,-0.9804229736328125,-0.1846923828125,0.1678924560546875
1772562199516977700,0.986977783203125,-0.9744110107421875,-0.1807098388671875,0.1721343994140625
1772562199526959600,0.996959716796875,-0.963287353515625,-0.1753692626953125,0.1746063232421875
1772562199536942800,1.00694287109375,-0.955078125,-0.1717529296875,0.1879425048828125
1772562199546924800,1.0169248046875,-0.9532928466796875,-0.16876220703125,0.19976806640625
1772562199556907800,1.02690771484375,-0.9486083984375,-0.1665191650390625,0.2116851806640625
1772562199566890800,1.036890869140625,-0.952239990234375,-0.172271728515625,0.230987548828125
1772562199576872700,1.046872802734375,-0.983642578125,-0.1770172119140625,0.245147705078125
1772562199586855700,1.056855712890625,-0.994232177734375,-0.1734466552734375,0.2389068603515625
1772562199596837600,1.066837646484375,-0.9790496826171875,-0.1603240966796875,0.2270355224609375
1772562199606820900,1.07682080078125,-0.969390869140625,-0.149993896484375,0.2250823974609375
1772562199616802800,1.086802734375,-0.9630584716796875,-0.144134521484375,0.219451904296875
1772562199626785800,1.096785888671875,-0.960357666015625,-0.1416015625,0.2107391357421875
1772562199636767700,1.106767822265625,-0.96221923828125,-0.14532470703125,0.1995849609375
1772562199646750700,1.116750732421875,-0.9591064453125,-0.151763916015625,0.1891326904296875
1772562199656733700,1.126733642578125,-0.9602508544921875,-0.1540069580078125,0.18157958984375
1772562199666716000,1.1367158203125,-0.960113525390625,-0.1560516357421875,0.1754608154296875
1772562199676698600,1.14669873046875,-0.9464874267578125,-0.155731201171875,0.168548583984375
1772562199686680800,1.156680908203125,-0.9322052001953125,-0.1537017822265625,0.166259765625
1772562199696663800,1.166663818359375,-0.926605224609375,-0.1501007080078125,0.1641693115234375
1772562199706645800,1.176645751953125,-0.9180755615234375,-0.151092529296875,0.1664276123046875
1772562199716628700,1.186628662109375,-0.9168548583984375,-0.160614013671875,0.1768035888671875
1772562199726610700,1.196610595703125,-0.9119873046875,-0.171142578125,0.18304443359375
1772562199736593700,1.20659375,-0.9097442626953125,-0.1794586181640625,0.186614990234375
1772562199746577000,1.216576904296875,-0.9097747802734375,-0.188873291015625,0.1872100830078125
1772562199756558600,1.22655859375,-0.905181884765625,-0.1917724609375,0.1779022216796875
1772562199766541800,1.236541748046875,-0.913330078125,-0.186737060546875,0.1684112548828125
1772562199776523800,1.246523681640625,-0.92034912109375,-0.16693115234375,0.1578216552734375
1772562199786506800,1.2565068359375,-0.926513671875,-0.1510162353515625,0.1509552001953125
1772562199796488700,1.26648876953125,-0.936767578125,-0.156494140625,0.137908935546875
1772562199806472000,1.276471923828125,-0.93902587890625,-0.1606597900390625,0.1273193359375
1772562199816454700,1.28645458984375,-0.9487457275390625,-0.16412353515625,0.1246185302734375
1772562199826436600,1.2964365234375,-0.9546661376953125,-0.162109375,0.1173095703125
1772562199836419600,1.306419677734375,-0.955291748046875,-0.160430908203125,0.1250152587890625
1772562199846401500,1.316401611328125,-0.9668731689453125,-0.17095947265625,0.136383056640625
1772562199856384500,1.326384521484375,-0.9728546142578125,-0.1748809814453125,0.1416778564453125
1772562199866366700,1.33636669921875,-0.9784698486328125,-0.169342041015625,0.1467132568359375
1772562199876349400,1.346349365234375,-0.9822845458984375,-0.16766357421875,0.151275634765625
1772562199886331600,1.35633154296875,-0.976898193359375,-0.166473388671875,0.1502838134765625
1772562199896314600,1.366314697265625,-0.98077392578125,-0.1664581298828125,0.1531829833984375
1772562199906297300,1.37629736328125,-0.986358642578125,-0.16888427734375,0.1561431884765625
1772562199916279600,1.386279541015625,-0.9901580810546875,-0.1682281494140625,0.1642608642578125
1772562199926262500,1.396262451171875,-0.9976043701171875,-0.164520263671875,0.1642303466796875
1772562199936244500,1.406244384765625,-1.0017242431640625,-0.153778076171875,0.147430419921875
1772562199946227500,1.4162275390625,-1.0141448974609375,-0.1397857666015625,0.13916015625
1772562199956209400,1.42620947265625,-1.0309295654296875,-0.139434814453125,0.131439208984375
1772562199966192400,1.4361923828125,-1.0291748046875,-0.1429901123046875,0.122314453125
1772562199976175600,1.446175537109375,-1.027069091796875,-0.1464080810546875,0.1197052001953125
1772562199986157300,1.4561572265625,-1.0143890380859375,-0.151611328125,0.1194610595703125
1772562199996140500,1.466140625,-0.991607666015625,-0.1586456298828125,0.13055419921875
1772562200006122500,1.47612255859375,-0.9746551513671875,-0.1672210693359375,0.147186279296875
1772562200016105500,1.48610546875,-0.9569854736328125,-0.175201416015625,0.160675048828125
1772562200026087400,1.49608740234375,-0.931365966796875,-0.182861328125,0.169464111328125
1772562200036070700,1.506070556640625,-0.9122772216796875,-0.182769775390625,0.1826019287109375
1772562200046052400,1.51605224609375,-0.9060516357421875,-0.1835784912109375,0.2013702392578125
1772562200056035600,1.52603564453125,-0.909698486328125,-0.1844482421875,0.2161407470703125
1772562200066018600,1.5360185546875,-0.914215087890625,-0.185211181640625,0.2292327880859375
1772562200076000500,1.54600048828125,-0.9222564697265625,-0.1889801025390625,0.2318115234375
1772562200085983500,1.5559833984375,-0.9308013916015625,-0.182861328125,0.227325439453125
1772562200095965700,1.565965576171875,-0.9405517578125,-0.17218017578125,0.21856689453125
1772562200105948400,1.575948486328125,-0.94476318359375,-0.1597442626953125,0.2034912109375
1772562200115930600,1.5859306640625,-0.9607696533203125,-0.1497650146484375,0.190399169921875
1772562200125913600,1.59591357421875,-0.97857666015625,-0.1435089111328125,0.179534912109375
1772562200135895600,1.6058955078125,-0.9939117431640625,-0.1412506103515625,0.182586669921875
1772562200145878500,1.61587841796875,-1.008056640625,-0.142578125,0.19677734375
1772562200155861500,1.625861572265625,-1.00433349609375,-0.1445465087890625,0.201568603515625
1772562200165843500,1.635843505859375,-0.998260498046875,-0.1495819091796875,0.2100067138671875
1772562200175826400,1.645826416015625,-1.0007781982421875,-0.1599578857421875,0.2210845947265625
1772562200185808400,1.655808349609375,-0.9918365478515625,-0.166595458984375,0.23016357421875
1772562200195791400,1.665791259765625,-0.996490478515625,-0.169189453125,0.2352142333984375
1772562200205773600,1.675773681640625,-1.0019989013671875,-0.171905517578125,0.226470947265625
1772562200215756500,1.685756591796875,-0.999176025390625,-0.166412353515625,0.202606201171875
1772562200225739500,1.695739501953125,-0.9994659423828125,-0.159149169921875,0.1729583740234375
1772562200235721500,1.705721435546875,-1.00311279296875,-0.157928466796875,0.1514739990234375
1772562200245704400,1.715704345703125,-1.0142669677734375,-0.1625823974609375,0.139984130859375
1772562200255686400,1.725686279296875,-1.0196075439453125,-0.167694091796875,0.1357879638671875
1772562200265669600,1.735669677734375,-1.024322509765625,-0.170654296875,0.1274261474609375
1772562200275651300,1.7456513671875,-1.0320281982421875,-0.1735076904296875,0.1202850341796875
1772562200285634600,1.755634521484375,-1.032470703125,-0.1739654541015625,0.1143951416015625
1772562200295616500,1.765616455078125,-1.0240478515625,-0.1752471923828125,0.10174560546875
1772562200305599500,1.775599609375,-1.016632080078125,-0.184783935546875,0.0927734375
1772562200315582500,1.78558251953125,-1.0049896240234375,-0.18292236328125,0.084747314453125
1772562200325564700,1.795564697265625,-0.9946441650390625,-0.17584228515625,0.08233642578125
1772562200335547400,1.80554736328125,-0.9920501708984375,-0.174163818359375,0.0787506103515625
1772562200345529600,1.815529541015625,-0.98876953125,-0.1790008544921875,0.0721893310546875
1772562200355512600,1.8255126953125,-0.986328125,-0.1819610595703125,0.0635833740234375
1772562200365494500,1.83549462890625,-0.9828643798828125,-0.1802520751953125,0.0495147705078125
1772562200375477500,1.8454775390625,-0.978485107421875,-0.182769775390625,0.037078857421875
1772562200385460700,1.855460693359375,-0.979888916015625,-0.189239501953125,0.0283966064453125
1772562200395442400,1.8654423828125,-0.9882659912109375,-0.19403076171875,0.02532958984375
1772562200405425700,1.87542578125,-0.9966583251953125,-0.20306396484375,0.02294921875
1772562200415407400,1.885407470703125,-0.99468994140625,-0.2125091552734375,0.0158843994140625
1772562200425390600,1.895390625,-0.9958953857421875,-0.2208709716796875,0.011016845703125
1772562200435372500,1.90537255859375,-1.0059967041015625,-0.22650146484375,0.0089111328125
1772562200445355500,1.91535546875,-1.018096923828125,-0.2279052734375,0.01318359375
1772562200455337500,1.92533740234375,-1.0245208740234375,-0.2296600341796875,0.01922607421875
1772562200465320700,1.93532080078125,-1.016265869140625,-0.232757568359375,0.017913818359375
1772562200475303400,1.945303466796875,-1.0057525634765625,-0.234466552734375,0.009613037109375
1772562200485285600,1.95528564453125,-0.9961090087890625,-0.2321319580078125,-0.000732421875
1772562200495268600,1.9652685546875,-0.98797607421875,-0.2265167236328125,-0.0117034912109375
1772562200505250600,1.97525048828125,-0.9856719970703125,-0.22271728515625,-0.019287109375
1772562200515233500,1.985233642578125,-0.991241455078125,-0.223388671875,-0.0176849365234375
1772562200525215700,1.9952158203125,-0.9897918701171875,-0.2288055419921875,-0.0155792236328125
1772562200535198500,2.005198486328125,-0.9795074462890625,-0.230255126953125,-0.013153076171875
1772562200545181400,2.015181396484375,-0.9835357666015625,-0.2310333251953125,-0.007110595703125
1772562200555163600,2.02516357421875,-0.982818603515625,-0.2339935302734375,-0.0079803466796875
1772562200565146400,2.035146484375,-0.977508544921875,-0.235198974609375,-0.01251220703125
1772562200575128600,2.045128662109375,-0.971954345703125,-0.2357635498046875,-0.0171966552734375
1772562200585111600,2.055111572265625,-0.9698944091796875,-0.2353363037109375,-0.023284912109375
1772562200595093500,2.065093505859375,-0.9715728759765625,-0.2338409423828125,-0.02374267578125
1772562200605076500,2.075076416015625,-0.963287353515625,-0.2357635498046875,-0.017669677734375
1772562200615058400,2.085058349609375,-0.9673004150390625,-0.2352447509765625,-0.0105743408203125
1772562200625041400,2.09504150390625,-0.990509033203125,-0.2344818115234375,-0.004058837890625
1772562200635024600,2.105024658203125,-1.00341796875,-0.2331390380859375,0.006683349609375
1772562200645006300,2.11500634765625,-0.99224853515625,-0.2336578369140625,0.01019287109375
1772562200654989600,2.124989501953125,-0.9805755615234375,-0.22698974609375,0.0054931640625
1772562200664971500,2.134971435546875,-0.9727325439453125,-0.216827392578125,0.0012054443359375
1772562200674954500,2.14495458984375,-0.9499664306640625,-0.2087860107421875,-0.0013427734375
1772562200684936400,2.1549365234375,-0.9168548583984375,-0.200469970703125,0.0040130615234375
1772562200694919700,2.164919677734375,-0.8892364501953125,-0.1934814453125,0.0146942138671875
1772562200704902400,2.17490234375,-0.8658905029296875,-0.1901397705078125,0.0222320556640625
1772562200714884600,2.184884521484375,-0.8417510986328125,-0.1892242431640625,0.028228759765625
1772562200724867600,2.19486767578125,-0.832244873046875,-0.1917724609375,0.0450286865234375
1772562200734849500,2.204849609375,-0.8466949462890625,-0.2001953125,0.06024169921875
1772562200744832500,2.21483251953125,-0.8511810302734375,-0.20208740234375,0.0634002685546875
1772562200754814700,2.224814697265625,-0.84698486328125,-0.1980438232421875,0.0645599365234375
1772562200764797400,2.23479736328125,-0.851776123046875,-0.1942291259765625,0.0720062255859375
1772562200774779600,2.244779541015625,-0.8656158447265625,-0.1890716552734375,0.07757568359375
1772562200784762600,2.2547626953125,-0.8879547119140625,-0.1898193359375,0.079345703125
1772562200794745300,2.264745361328125,-0.8972930908203125,-0.195770263671875,0.075714111328125
1772562200804727600,2.2747275390625,-0.8997650146484375,-0.1979522705078125,0.0718994140625
1772562200814710500,2.28471044921875,-0.9193572998046875,-0.2015380859375,0.07720947265625
1772562200824692500,2.2946923828125,-0.9415740966796875,-0.21307373046875,0.085906982421875
1772562200834675500,2.304675537109375,-0.947998046875,-0.2225189208984375,0.092071533203125
1772562200844657700,2.31465771484375,-0.94561767578125,-0.22393798828125,0.090606689453125
1772562200854640400,2.324640380859375,-0.948394775390625,-0.2233123779296875,0.0898284912109375
1772562200864622600,2.33462255859375,-0.956787109375,-0.2247772216796875,0.0919342041015625
1772562200874605600,2.34460546875,-0.97052001953125,-0.2298126220703125,0.0981903076171875
1772562200884588500,2.354588623046875,-0.9803314208984375,-0.232666015625,0.102935791015625
1772562200894570500,2.364570556640625,-0.9725799560546875,-0.2273712158203125,0.1013031005859375
1772562200904553700,2.3745537109375,-0.9668426513671875,-0.210540771484375,0.0968475341796875
1772562200914535400,2.384535400390625,-0.9750823974609375,-0.1930694580078125,0.092315673828125
1772562200924518700,2.3945185546875,-0.9835968017578125,-0.18499755859375,0.0839080810546875
1772562200934500400,2.404500244140625,-0.9801025390625,-0.1763153076171875,0.0747833251953125
1772562200944483600,2.414483642578125,-0.9815521240234375,-0.170135498046875,0.066162109375
1772562200954466600,2.424466552734375,-0.9845733642578125,-0.1642913818359375,0.06634521484375
1772562200964448500,2.434448486328125,-0.9914703369140625,-0.1552276611328125,0.0673370361328125
1772562200974431500,2.444431396484375,-0.995147705078125,-0.148468017578125,0.06451416015625
1772562200984413700,2.45441357421875,-0.9827117919921875,-0.141998291015625,0.062225341796875
1772562200994396400,2.464396484375,-0.97918701171875,-0.133087158203125,0.0587615966796875
1772562201004378600,2.474378662109375,-0.9750823974609375,-0.12628173828125,0.0489044189453125
1772562201014361600,2.484361572265625,-0.962646484375,-0.121551513671875,0.0558929443359375
1772562201024343600,2.494343505859375,-0.9784088134765625,-0.1261444091796875,0.0879364013671875
1772562201034326500,2.504326416015625,-1.0074920654296875,-0.1439208984375,0.1217498779296875
1772562201044309500,2.5143095703125,-0.99468994140625,-0.15814208984375,0.136627197265625
1772562201054291500,2.52429150390625,-0.9861907958984375,-0.1556243896484375,0.142547607421875
1772562201064274400,2.5342744140625,-0.9875946044921875,-0.145721435546875,0.14129638671875
1772562201074256600,2.544256591796875,-0.9669189453125,-0.1381683349609375,0.1315155029296875
1772562201084239400,2.5542392578125,-0.949798583984375,-0.1349029541015625,0.1176910400390625
1772562201094221600,2.5642216796875,-0.9520111083984375,-0.134857177734375,0.1028289794921875
1772562201104204500,2.57420458984375,-0.9576263427734375,-0.1381072998046875,0.093658447265625
1772562201114187500,2.5841875,-0.959747314453125,-0.142364501953125,0.0860748291015625
1772562201124169500,2.59416943359375,-0.9601287841796875,-0.1465301513671875,0.0768585205078125
1772562201134152700,2.604152587890625,-0.9567413330078125,-0.1512451171875,0.0849151611328125
1772562201144134400,2.614134521484375,-0.94549560546875,-0.1510467529296875,0.118194580078125
1772562201154117600,2.62411767578125,-0.965545654296875,-0.166015625,0.1187591552734375
1772562201164099300,2.634099365234375,-0.9492340087890625,-0.1789398193359375,0.1001434326171875
1772562201174082600,2.64408251953125,-0.942291259765625,-0.1836700439453125,0.0932769775390625
1772562201184064500,2.654064453125,-0.9360198974609375,-0.1883087158203125,0.0811767578125
1772562201194047500,2.664047607421875,-0.92816162109375,-0.1890411376953125,0.0752105712890625
1772562201204030500,2.674030517578125,-0.9287261962890625,-0.172119140625,0.0726318359375
1772562201214012700,2.6840126953125,-0.9393463134765625,-0.167236328125,0.068603515625
1772562201223995400,2.693995361328125,-0.9453887939453125,-0.1854705810546875,0.0647430419921875
1772562201233977600,2.7039775390625,-0.95770263671875,-0.197174072265625,0.056243896484375
1772562201243960600,2.713960693359375,-0.9738006591796875,-0.194366455078125,0.04400634765625
1772562201253942500,2.723942626953125,-0.9911346435546875,-0.187469482421875,0.0379791259765625
1772562201263925500,2.733925537109375,-0.9936676025390625,-0.1865386962890625,0.029571533203125
1772562201273908700,2.74390869140625,-0.9637298583984375,-0.189910888671875,0.022613525390625
1772562201283890400,2.753890380859375,-0.93798828125,-0.1934661865234375,0.01318359375
1772562201293873700,2.763873779296875,-0.90869140625,-0.1887664794921875,0.0092315673828125
1772562201303855600,2.773855712890625,-0.8751983642578125,-0.1838836669921875,0.00213623046875
1772562201313838600,2.783838623046875,-0.848297119140625,-0.17681884765625,-0.0171661376953125
1772562201323820500,2.793820556640625,-0.822265625,-0.1658172607421875,-0.0198211669921875
1772562201333803800,2.8038037109375,-0.7962799072265625,-0.1586761474609375,-0.0239410400390625
1772562201343785500,2.813785400390625,-0.7736358642578125,-0.1572723388671875,-0.0247650146484375
1772562201353768700,2.823768798828125,-0.7465972900390625,-0.160186767578125,-0.0267791748046875
1772562201363751700,2.833751708984375,-0.728302001953125,-0.16473388671875,-0.031890869140625
1772562201373733600,2.843733642578125,-0.7196044921875,-0.165496826171875,-0.030181884765625
1772562201383716600,2.853716552734375,-0.72406005859375,-0.1674041748046875,-0.0221710205078125
1772562201393698600,2.863698486328125,-0.7674407958984375,-0.1751708984375,-0.01165771484375
1772562201403681500,2.873681640625,-0.836181640625,-0.1909027099609375,0.0049285888671875
1772562201413663700,2.883663818359375,-0.9055023193359375,-0.2168731689453125,0.026580810546875
1772562201423646500,2.893646484375,-0.987152099609375,-0.2477569580078125,0.0387115478515625
1772562201433628700,2.903628662109375,-1.07476806640625,-0.277008056640625,0.025054931640625
1772562201443611600,2.913611572265625,-1.1187744140625,-0.2920684814453125,0.0069122314453125
1772562201453594400,2.923594482421875,-1.1732940673828125,-0.2914581298828125,-0.0016632080078125
1772562201463576600,2.93357666015625,-1.252410888671875,-0.290863037109375,-0.0257720947265625
1772562201473559600,2.9435595703125,-1.3145751953125,-0.2961273193359375,-0.0711212158203125
1772562201483541500,2.95354150390625,-1.3585662841796875,-0.299652099609375,-0.10870361328125
1772562201493524500,2.9635244140625,-1.459991455078125,-0.314849853515625,-0.120574951171875
1772562201503506700,2.973506591796875,-1.5333709716796875,-0.3469390869140625,-0.114593505859375
1772562201513489400,2.983489501953125,-1.5451507568359375,-0.361602783203125,-0.097503662109375
1772562201523472600,2.99347265625,-1.5652618408203125,-0.3536529541015625,-0.0748291015625
1772562201533454600,3.00345458984375,-1.57940673828125,-0.3511810302734375,-0.05474853515625
1772562201543437600,3.0134375,-1.5933380126953125,-0.3716583251953125,-0.039337158203125
1772562201553419500,3.02341943359375,-1.6119842529296875,-0.3997650146484375,-0.017578125
1772562201563402800,3.03340283203125,-1.6691436767578125,-0.4178314208984375,0.005950927734375
1772562201573384400,3.043384521484375,-1.70867919921875,-0.42169189453125,0.0300445556640625
1772562201583367700,3.05336767578125,-1.7408599853515625,-0.4138031005859375,0.035308837890625
1772562201593349400,3.063349365234375,-1.7877197265625,-0.4084014892578125,0.005645751953125
1772562201603332600,3.07333251953125,-1.75775146484375,-0.413787841796875,-0.0327911376953125
1772562201613315600,3.083315673828125,-1.7053985595703125,-0.399078369140625,-0.0476531982421875
1772562201623297500,3.093297607421875,-1.644439697265625,-0.386474609375,-0.048919677734375
1772562201633280500,3.103280517578125,-1.5827789306640625,-0.396331787109375,-0.04046630859375
1772562201643262700,3.1132626953125,-1.5158233642578125,-0.412994384765625,-0.0247039794921875
1772562201653245400,3.123245361328125,-1.4583892822265625,-0.4241943359375,-0.0024871826171875
1772562201663227600,3.1332275390625,-1.394317626953125,-0.431243896484375,0.017822265625
1772562201673210600,3.143210693359375,-1.3260345458984375,-0.4347381591796875,0.050323486328125
1772562201683193300,3.153193359375,-1.2697296142578125,-0.4233856201171875,0.088226318359375
1772562201693175600,3.163175537109375,-1.2175140380859375,-0.400299072265625,0.110992431640625
1772562201703158500,3.173158447265625,-1.147705078125,-0.3681488037109375,0.1104278564453125
1772562201713140500,3.183140380859375,-1.0572357177734375,-0.318389892578125,0.0979461669921875
1772562201723123500,3.19312353515625,-0.960968017578125,-0.2637939453125,0.0749053955078125
1772562201733105700,3.203105712890625,-0.8780517578125,-0.22808837890625,0.0634307861328125
1772562201743088400,3.21308837890625,-0.824005126953125,-0.2133636474609375,0.0439605712890625
1772562201753070600,3.223070556640625,-0.7841644287109375,-0.2056732177734375,0.0098419189453125
1772562201763053600,3.233053466796875,-0.7253570556640625,-0.1931610107421875,-0.02215576171875
1772562201773036500,3.24303662109375,-0.6508636474609375,-0.1671142578125,-0.0443878173828125
1772562201783018500,3.2530185546875,-0.5787353515625,-0.1320037841796875,-0.061553955078125
1772562201793001700,3.263001708984375,-0.5107421875,-0.0991058349609375,-0.0677642822265625
1772562201802983400,3.2729833984375,-0.4441375732421875,-0.0794219970703125,-0.0584869384765625
1772562201812966700,3.282966552734375,-0.3672027587890625,-0.079071044921875,-0.0350494384765625
1772562201822948400,3.2929482421875,-0.2980194091796875,-0.087982177734375,-0.0039825439453125
1772562201832931000,3.30293115234375,-0.250091552734375,-0.08917236328125,0.027252197265625
1772562201842914000,3.3129140625,-0.2057952880859375,-0.0897369384765625,0.060089111328125
1772562201852896000,3.32289599609375,-0.1684112548828125,-0.09649658203125,0.089385986328125
1772562201862879000,3.33287890625,-0.13580322265625,-0.1005859375,0.11163330078125
1772562201872861200,3.342861083984375,-0.1026153564453125,-0.1043548583984375,0.1268463134765625
1772562201882844000,3.352843994140625,-0.0756683349609375,-0.102996826171875,0.132537841796875
1772562201892826000,3.362826171875,-0.0559234619140625,-0.098907470703125,0.130889892578125
1772562201902809000,3.37280908203125,-0.039154052734375,-0.0944976806640625,0.1188507080078125
1772562201912791000,3.382791015625,-0.0334320068359375,-0.094512939453125,0.102935791015625
1772562201922774000,3.39277392578125,-0.0302734375,-0.094970703125,0.0855712890625
1772562201932757200,3.40275732421875,-0.035980224609375,-0.077392578125,0.065338134765625
1772562201942739000,3.412739013671875,-0.042388916015625,-0.0473785400390625,0.0620269775390625
1772562201952722200,3.42272216796875,-0.0548248291015625,-0.02984619140625,0.0628204345703125
1772562201962704000,3.432703857421875,-0.077301025390625,-0.0224609375,0.0614166259765625
1772562201972687000,3.44268701171875,-0.1000823974609375,-0.02734375,0.0535125732421875
1772562201982669000,3.4526689453125,-0.11517333984375,-0.038299560546875,0.0408172607421875
1772562201992652000,3.462652099609375,-0.1287689208984375,-0.04693603515625,0.024871826171875
1772562202002635000,3.472635009765625,-0.1555023193359375,-0.053680419921875,0.0170440673828125
1772562202012617200,3.4826171875,-0.1821441650390625,-0.067535400390625,0.0195770263671875
1772562202022600000,3.492599853515625,-0.2004547119140625,-0.0986328125,0.01495361328125
1772562202032582100,3.50258203125,-0.2162933349609375,-0.116424560546875,0.0138092041015625
1772562202042565000,3.512565185546875,-0.273895263671875,-0.128173828125,0.0489501953125
1772562202052547000,3.522547119140625,-0.38623046875,-0.191802978515625,0.125457763671875
1772562202062530000,3.532530029296875,-0.51837158203125,-0.2801513671875,0.1818389892578125
1772562202072512300,3.54251220703125,-0.609405517578125,-0.3605194091796875,0.1913604736328125
1772562202082495000,3.552494873046875,-0.740478515625,-0.4343109130859375,0.215972900390625
1772562202092478000,3.56247802734375,-0.8681488037109375,-0.450408935546875,0.234405517578125
1772562202102460200,3.572460205078125,-1.0625457763671875,-0.4629669189453125,0.265045166015625
1772562202112443000,3.58244287109375,-1.213623046875,-0.5401458740234375,0.2962646484375
1772562202122425000,3.592425048828125,-1.303955078125,-0.665252685546875,0.3019256591796875
1772562202132408000,3.602407958984375,-1.3828125,-0.72393798828125,0.3202362060546875
1772562202142390000,3.61239013671875,-1.5020904541015625,-0.7111663818359375,0.3565826416015625
1772562202152373000,3.622373046875,-1.7076873779296875,-0.646759033203125,0.4146270751953125
1772562202162356200,3.632356201171875,-1.966156005859375,-0.5805511474609375,0.5361785888671875
1772562202172338000,3.642337890625,-2.15936279296875,-0.5427093505859375,0.6041259765625
1772562202182321200,3.652321044921875,-2.260772705078125,-0.461395263671875,0.541595458984375
1772562202192302800,3.662302734375,-2.2404937744140625,-0.3437042236328125,0.4273223876953125
1772562202202286000,3.6722861328125,-2.106048583984375,-0.2749176025390625,0.2937774658203125
1772562202212268000,3.68226806640625,-1.972991943359375,-0.266082763671875,0.112762451171875
1772562202222251000,3.6922509765625,-2.00457763671875,-0.32904052734375,0.046142578125
1772562202232233000,3.70223291015625,-2.1666717529296875,-0.3767852783203125,0.177825927734375
1772562202242216200,3.71221630859375,-2.215118408203125,-0.4583740234375,0.2646636962890625
1772562202252199000,3.722198974609375,-2.184326171875,-0.4940185546875,0.357086181640625
1772562202262181000,3.73218115234375,-2.1098480224609375,-0.5079498291015625,0.4441986083984375
1772562202272164000,3.7421640625,-2.0306243896484375,-0.5284271240234375,0.4537200927734375
1772562202282146000,3.75214599609375,-1.9548187255859375,-0.5026397705078125,0.3956451416015625
1772562202292129000,3.76212890625,-1.9287872314453125,-0.431549072265625,0.3182525634765625
1772562202302111200,3.772111328125,-1.9350128173828125,-0.3633575439453125,0.2563323974609375
1772562202312094000,3.782093994140625,-1.9368438720703125,-0.319122314453125,0.2338409423828125
1772562202322077000,3.792076904296875,-1.900054931640625,-0.3093719482421875,0.270538330078125
1772562202332059100,3.80205908203125,-1.8079833984375,-0.3201141357421875,0.31640625
1772562202342041900,3.812041748046875,-1.705230712890625,-0.3178558349609375,0.3363494873046875
1772562202352024000,3.822024169921875,-1.59027099609375,-0.3048095703125,0.3389892578125
1772562202362007000,3.832007080078125,-1.4527435302734375,-0.2937469482421875,0.30731201171875
1772562202371989000,3.841989013671875,-1.2995452880859375,-0.262481689453125,0.2342987060546875
1772562202381972000,3.851971923828125,-1.1561279296875,-0.219085693359375,0.1560821533203125
1772562202391955200,3.861955078125,-1.0074005126953125,-0.18896484375,0.1133575439453125
1772562202401937000,3.87193701171875,-0.913970947265625,-0.17022705078125,0.1121368408203125
1772562202411920100,3.881920166015625,-0.842620849609375,-0.1555633544921875,0.1193084716796875
1772562202421901800,3.89190185546875,-0.767364501953125,-0.1334381103515625,0.1330718994140625
1772562202431885000,3.901885009765625,-0.6898040771484375,-0.1250762939453125,0.14093017578125
1772562202441867000,3.911866943359375,-0.5943145751953125,-0.123016357421875,0.131317138671875
1772562202451850000,3.92185009765625,-0.4794464111328125,-0.1219482421875,0.127838134765625
1772562202461832000,3.93183203125,-0.36669921875,-0.1283416748046875,0.1235198974609375
1772562202471815200,3.941815185546875,-0.2569580078125,-0.1446685791015625,0.119354248046875
1772562202481798000,3.9517978515625,-0.1680450439453125,-0.1687774658203125,0.12286376953125
1772562202491780000,3.961780029296875,-0.112274169921875,-0.1862640380859375,0.1337890625
1772562202501763000,3.97176318359375,-0.071624755859375,-0.2079925537109375,0.146484375
1772562202511743000,3.981742919921875,-0.047882080078125,-0.2393951416015625,0.1421051025390625
1772562202521725000,3.991724853515625,-0.0255279541015625,-0.2659149169921875,0.135101318359375
1772562202531708000,4.0017080078125,-0.0225372314453125,-0.27081298828125,0.131103515625
1772562202541690000,4.011690185546875,-0.0438232421875,-0.2581939697265625,0.130279541015625
1772562202551672800,4.0216728515625,-0.062530517578125,-0.2443695068359375,0.11529541015625
1772562202561656000,4.031656005859375,-0.0707855224609375,-0.2310791015625,0.095062255859375
1772562202571638000,4.041637939453125,-0.0801239013671875,-0.210662841796875,0.0854339599609375
1772562202581621000,4.05162109375,-0.099639892578125,-0.191192626953125,0.092987060546875
1772562202591603000,4.06160302734375,-0.1112518310546875,-0.17779541015625,0.1116943359375
1772562202601586200,4.071586181640625,-0.1102752685546875,-0.157073974609375,0.123321533203125
1772562202611567900,4.08156787109375,-0.089630126953125,-0.118438720703125,0.1102752685546875
1772562202621551000,4.091551025390625,-0.066162109375,-0.0759124755859375,0.0842742919921875
1772562202631534000,4.1015341796875,-0.0677947998046875,-0.055145263671875,0.0670013427734375
1772562202641516000,4.11151611328125,-0.0808258056640625,-0.050506591796875,0.05169677734375
1772562202651499000,4.1214990234375,-0.0939483642578125,-0.0442657470703125,0.0281219482421875
1772562202661481200,4.131481201171875,-0.125518798828125,-0.02532958984375,0.0148468017578125
1772562202671464000,4.1414638671875,-0.15283203125,-0.001220703125,0.01251220703125
1772562202681446100,4.151446044921875,-0.19036865234375,0.0060577392578125,0.0254364013671875
1772562202691429000,4.16142919921875,-0.23248291015625,-0.00537109375,0.029052734375
1772562202701411000,4.1714111328125,-0.2845611572265625,-0.027130126953125,0.0168914794921875
1772562202711394000,4.18139404296875,-0.3226470947265625,-0.080841064453125,0.019866943359375
1772562202721377000,4.191376953125,-0.3705291748046875,-0.162017822265625,0.054840087890625
1772562202731359000,4.20135888671875,-0.481414794921875,-0.246551513671875,0.101959228515625
1772562202741342000,4.211342041015625,-0.606170654296875,-0.3559417724609375,0.178863525390625
1772562202751324000,4.221323974609375,-0.70306396484375,-0.4815521240234375,0.2805633544921875
1772562202761307000,4.231306884765625,-0.7714385986328125,-0.5227203369140625,0.359161376953125
1772562202771289000,4.2412890625,-0.9099578857421875,-0.5366058349609375,0.3306427001953125
1772562202781271800,4.251271728515625,-1.1094970703125,-0.5163116455078125,0.2344970703125
1772562202791255000,4.261255126953125,-1.23809814453125,-0.4803009033203125,0.173828125
1772562202801237000,4.271237060546875,-1.3743743896484375,-0.531982421875,0.1649322509765625
1772562202811220000,4.281219970703125,-1.483856201171875,-0.5689849853515625,0.234832763671875
1772562202821202000,4.291201904296875,-1.5753936767578125,-0.5762939453125,0.319610595703125
1772562202831185200,4.30118505859375,-1.647308349609375,-0.5948028564453125,0.3826904296875
1772562202841167400,4.31116748046875,-1.7393035888671875,-0.609527587890625,0.44097900390625
1772562202851150600,4.321150634765625,-1.8341522216796875,-0.6053009033203125,0.464874267578125
1772562202861133600,4.331133544921875,-1.924591064453125,-0.5589599609375,0.4507904052734375
1772562202871115500,4.341115478515625,-2.0206146240234375,-0.4734649658203125,0.39208984375
1772562202881098500,4.351098388671875,-2.08660888671875,-0.412689208984375,0.2964935302734375
1772562202891080700,4.361080810546875,-2.1041412353515625,-0.374237060546875,0.1909332275390625
1772562202901063400,4.3710634765625,-2.1234588623046875,-0.3513031005859375,0.112457275390625
1772562202911045600,4.381045654296875,-2.1880645751953125,-0.3450775146484375,0.0928497314453125
1772562202921028600,4.391028564453125,-2.2604217529296875,-0.345947265625,0.1569366455078125
1772562202931010600,4.401010498046875,-2.2932891845703125,-0.3642730712890625,0.233245849609375
1772562202940993500,4.41099365234375,-2.2714996337890625,-0.38299560546875,0.300048828125
1772562202950976500,4.4209765625,-2.2143707275390625,-0.3885955810546875,0.3621978759765625
1772562202960958500,4.43095849609375,-2.11749267578125,-0.3846435546875,0.38677978515625
1772562202970941400,4.44094140625,-1.9931182861328125,-0.3779144287109375,0.3494720458984375
1772562202980923400,4.45092333984375,-1.8902435302734375,-0.359130859375,0.33056640625
1772562202990906400,4.46090625,-1.8112640380859375,-0.3511810302734375,0.343841552734375
1772562203000888600,4.470888671875,-1.7249298095703125,-0.36102294921875,0.3739166259765625
1772562203010871300,4.480871337890625,-1.5890655517578125,-0.3527679443359375,0.4004364013671875
1772562203020854500,4.4908544921875,-1.413665771484375,-0.3278350830078125,0.405609130859375
1772562203030836500,4.50083642578125,-1.227783203125,-0.2885589599609375,0.37164306640625
1772562203040819500,4.5108193359375,-1.074981689453125,-0.2368621826171875,0.324310302734375
1772562203050801400,4.520801513671875,-0.9572296142578125,-0.188385009765625,0.2882232666015625
1772562203060784600,4.53078466796875,-0.854339599609375,-0.1547393798828125,0.2635955810546875
1772562203070766300,4.540766357421875,-0.76751708984375,-0.123016357421875,0.2358856201171875
1772562203080749600,4.55074951171875,-0.693084716796875,-0.07855224609375,0.2133026123046875
1772562203090731500,4.5607314453125,-0.6412811279296875,-0.03900146484375,0.198455810546875
1772562203100714500,4.570714599609375,-0.6071624755859375,-0.003814697265625,0.2006683349609375
1772562203110697500,4.580697509765625,-0.595489501953125,0.0199737548828125,0.1981048583984375
1772562203120679700,4.5906796875,-0.5933074951171875,0.0287017822265625,0.1781463623046875
1772562203130662400,4.600662353515625,-0.54449462890625,0.03668212890625,0.163177490234375
1772562203140644600,4.61064453125,-0.56842041015625,0.035369873046875,0.11248779296875
1772562203150627600,4.620627685546875,-0.5366058349609375,0.011871337890625,0.073272705078125
1772562203160610600,4.630610595703125,-0.5083465576171875,-0.0157928466796875,0.032562255859375
1772562203170593500,4.640593505859375,-0.47174072265625,-0.04541015625,0.0257415771484375
1772562203180575500,4.650575439453125,-0.4306793212890625,-0.0779876708984375,0.0521392822265625
1772562203190558500,4.660558349609375,-0.3893280029296875,-0.108184814453125,0.0915679931640625
1772562203200541400,4.67054150390625,-0.3594970703125,-0.1434783935546875,0.1161956787109375
1772562203210523600,4.680523681640625,-0.3250732421875,-0.1751556396484375,0.1445159912109375
1772562203220506400,4.69050634765625,-0.28192138671875,-0.189300537109375,0.16571044921875
1772562203230488600,4.700488525390625,-0.2322540283203125,-0.192291259765625,0.166473388671875
1772562203240471600,4.710471435546875,-0.1912994384765625,-0.183441162109375,0.153045654296875
1772562203250453500,4.72045361328125,-0.1667022705078125,-0.160919189453125,0.1448211669921875
1772562203260436500,4.7304365234375,-0.1558380126953125,-0.140289306640625,0.1406402587890625
1772562203270418400,4.74041845703125,-0.1656646728515625,-0.1334075927734375,0.1338043212890625
1772562203280401400,4.7504013671875,-0.173858642578125,-0.13787841796875,0.124755859375
1772562203290384600,4.760384521484375,-0.187896728515625,-0.121673583984375,0.1263580322265625
1772562203300366300,4.770366455078125,-0.203948974609375,-0.0960235595703125,0.131317138671875
1772562203310349600,4.780349609375,-0.21392822265625,-0.079345703125,0.1251983642578125
1772562203320331500,4.79033154296875,-0.2276458740234375,-0.05645751953125,0.106964111328125
1772562203330314500,4.800314453125,-0.2524566650390625,-0.024658203125,0.0843658447265625
1772562203340296400,4.81029638671875,-0.2913665771484375,-0.0049896240234375,0.063720703125
1772562203350279700,4.82027978515625,-0.3432769775390625,-0.0013427734375,0.050994873046875
1772562203360262400,4.830262451171875,-0.4021148681640625,-0.00506591796875,0.0428924560546875
1772562203370244600,4.84024462890625,-0.455596923828125,-0.01629638671875,0.03277587890625
1772562203380227600,4.8502275390625,-0.496246337890625,-0.030181884765625,0.03082275390625
1772562203390209500,4.86020947265625,-0.5545501708984375,-0.0599365234375,0.05572509765625
1772562203400192500,4.870192626953125,-0.6166534423828125,-0.1220855712890625,0.075592041015625
1772562203410174700,4.8801748046875,-0.6656341552734375,-0.19329833984375,0.09100341796875
1772562203420157400,4.890157470703125,-0.721405029296875,-0.2633514404296875,0.1183013916015625
1772562203430139600,4.9001396484375,-0.780914306640625,-0.332427978515625,0.156097412109375
1772562203440122600,4.91012255859375,-0.845062255859375,-0.4056854248046875,0.1867523193359375
1772562203450105300,4.920105224609375,-0.9047088623046875,-0.4592742919921875,0.2109222412109375
1772562203460087600,4.930087646484375,-1.0104827880859375,-0.474090576171875,0.240020751953125
1772562203470070500,4.940070556640625,-1.1395721435546875,-0.4909515380859375,0.2874755859375
1772562203480052500,4.950052490234375,-1.2514190673828125,-0.5369110107421875,0.3276214599609375
1772562203490035500,4.960035400390625,-1.3785552978515625,-0.591278076171875,0.3454437255859375
1772562203500017400,4.970017333984375,-1.5091552734375,-0.632720947265625,0.36651611328125
1772562203510000400,4.98000048828125,-1.6586761474609375,-0.6319122314453125,0.3698577880859375
1772562203519983600,4.989983642578125,-1.8052978515625,-0.6162109375,0.358978271484375
1772562203529965300,4.99996533203125,-1.9480438232421875,-0.6146087646484375,0.3592987060546875
1772562203539948500,5.009948486328125,-2.073028564453125,-0.6028594970703125,0.3441314697265625
1772562203549930500,5.019930419921875,-2.1415557861328125,-0.5755767822265625,0.3159027099609375
1772562203559913500,5.02991357421875,-2.1566314697265625,-0.538055419921875,0.2868804931640625
1772562203569895400,5.0398955078125,-2.1275482177734375,-0.530059814453125,0.27288818359375
1772562203579878700,5.049878662109375,-2.0846710205078125,-0.545806884765625,0.273681640625
1772562203589861400,5.059861328125,-2.061767578125,-0.5921173095703125,0.300689697265625
1772562203599843600,5.069843505859375,-2.090118408203125,-0.634246826171875,0.355377197265625
1772562203609826600,5.07982666015625,-2.1166229248046875,-0.664581298828125,0.429901123046875
1772562203619808500,5.08980859375,-2.0682525634765625,-0.6719818115234375,0.5008544921875
1772562203629791500,5.09979150390625,-1.9956512451171875,-0.647369384765625,0.5509033203125
1772562203639773700,5.109773681640625,-1.917724609375,-0.6377716064453125,0.575164794921875
1772562203649756400,5.11975634765625,-1.8480377197265625,-0.6327056884765625,0.577545166015625
1772562203659739400,5.129739501953125,-1.8108062744140625,-0.6148529052734375,0.5392913818359375
1772562203669721600,5.1397216796875,-1.7935638427734375,-0.598236083984375,0.4720306396484375
1772562203679704300,5.149704345703125,-1.7689971923828125,-0.597259521484375,0.4270782470703125
1772562203689686500,5.1596865234375,-1.6966400146484375,-0.602203369140625,0.419097900390625
1772562203699669500,5.16966943359375,-1.5536956787109375,-0.6027069091796875,0.4202423095703125
1772562203709651500,5.1796513671875,-1.3989105224609375,-0.5878753662109375,0.4215240478515625
1772562203719634400,5.189634521484375,-1.2281341552734375,-0.5683441162109375,0.430267333984375
1772562203729616400,5.199616455078125,-1.0835418701171875,-0.5364990234375,0.4309844970703125
1772562203739599400,5.209599365234375,-0.932769775390625,-0.50604248046875,0.406402587890625
1772562203749582600,5.21958251953125,-0.794158935546875,-0.458892822265625,0.358245849609375
1772562203759564300,5.229564208984375,-0.6777496337890625,-0.387420654296875,0.2937469482421875
1772562203769547500,5.239547607421875,-0.575164794921875,-0.311737060546875,0.2249603271484375
1772562203779529500,5.249529541015625,-0.4960174560546875,-0.2462158203125,0.1732940673828125
1772562203789512400,5.259512451171875,-0.4887237548828125,-0.186553955078125,0.140289306640625
1772562203799494400,5.269494384765625,-0.5287017822265625,-0.1504669189453125,0.1162261962890625
1772562203809477600,5.2794775390625,-0.531524658203125,-0.1259765625,0.0900421142578125
1772562203819460400,5.28946044921875,-0.473541259765625,-0.0834808349609375,0.067169189453125
1772562203829442600,5.299442626953125,-0.424591064453125,-0.0560455322265625,0.034942626953125
1772562203839425500,5.309425537109375,-0.408843994140625,-0.05426025390625,0.0013580322265625
1772562203849407700,5.31940771484375,-0.3633270263671875,-0.0546875,-0.01025390625
1772562203859390700,5.329390625,-0.316925048828125,-0.050445556640625,-0.0241851806640625
1772562203869372700,5.33937255859375,-0.273162841796875,-0.0554046630859375,-0.0311279296875
1772562203879355600,5.349355712890625,-0.2320556640625,-0.0691070556640625,-0.0299224853515625
1772562203889337900,5.359337890625,-0.1927490234375,-0.0789031982421875,-0.020599365234375
1772562203899320600,5.369320556640625,-0.172332763671875,-0.080841064453125,-0.005096435546875
1772562203909303600,5.379303466796875,-0.163299560546875,-0.0838165283203125,0.015350341796875
1772562203919285800,5.38928564453125,-0.174346923828125,-0.0880279541015625,0.044036865234375
1772562203929268500,5.3992685546875,-0.1998138427734375,-0.096588134765625,0.0899505615234375
1772562203939250700,5.409250732421875,-0.1904449462890625,-0.117523193359375,0.1268157958984375
1772562203949233700,5.419233642578125,-0.1516876220703125,-0.1296539306640625,0.1416778564453125
1772562203959215600,5.429215576171875,-0.115203857421875,-0.11578369140625,0.1301116943359375
1772562203969198600,5.439198486328125,-0.126739501953125,-0.0937347412109375,0.105133056640625
1772562203979181800,5.449181884765625,-0.13079833984375,-0.096466064453125,0.08837890625
1772562203989163500,5.45916357421875,-0.1187591552734375,-0.10101318359375,0.0660552978515625
1772562203999146800,5.469146728515625,-0.13763427734375,-0.089508056640625,0.05029296875
1772562204009128400,5.47912841796875,-0.1505584716796875,-0.082611083984375,0.0483856201171875
1772562204019111700,5.489111572265625,-0.16180419921875,-0.082275390625,0.0494384765625
1772562204029093600,5.49909375,-0.1807098388671875,-0.0863494873046875,0.0597991943359375
1772562204039076600,5.50907666015625,-0.195770263671875,-0.088897705078125,0.074554443359375
1772562204049059600,5.5190595703125,-0.2177581787109375,-0.0905914306640625,0.0793609619140625
1772562204059041800,5.529041748046875,-0.2569122314453125,-0.0981903076171875,0.0639801025390625
1772562204069024500,5.5390244140625,-0.306243896484375,-0.1171417236328125,0.0495758056640625
1772562204079006700,5.5490068359375,-0.3187255859375,-0.1240386962890625,0.03515625
1772562204088989700,5.55898974609375,-0.341949462890625,-0.1332550048828125,0.0288238525390625
1772562204098971600,5.5689716796875,-0.451080322265625,-0.1915130615234375,0.0331268310546875
1772562204108954600,5.57895458984375,-0.5352630615234375,-0.2592315673828125,0.052642822265625
1772562204118936800,5.588936767578125,-0.6292266845703125,-0.311492919921875,0.061614990234375
1772562204128919600,5.59891943359375,-0.6521148681640625,-0.36981201171875,0.0960235595703125
1772562204138902800,5.60890283203125,-0.6253814697265625,-0.46490478515625,0.162628173828125
1772562204148884700,5.618884765625,-0.61578369140625,-0.5951995849609375,0.231170654296875
1772562204158867700,5.62886767578125,-0.76800537109375,-0.649749755859375,0.2782135009765625
1772562204168849700,5.638849609375,-0.995941162109375,-0.58489990234375,0.314422607421875
1772562204178833000,5.6488330078125,-1.042388916015625,-0.539794921875,0.3289031982421875
1772562204188814600,5.658814697265625,-1.037139892578125,-0.5910491943359375,0.3506011962890625
1772562204198797800,5.6687978515625,-1.1097412109375,-0.680389404296875,0.3831939697265625
1772562204208780800,5.67878076171875,-1.1998138427734375,-0.7135009765625,0.3815765380859375
1772562204218762800,5.6887626953125,-1.2668304443359375,-0.6990203857421875,0.393951416015625
1772562204228745700,5.698745849609375,-1.349212646484375,-0.690826416015625,0.399505615234375
1772562204238727700,5.708727783203125,-1.4364013671875,-0.6953277587890625,0.40985107421875
1772562204248710700,5.718710693359375,-1.505889892578125,-0.739410400390625,0.431671142578125
1772562204258692900,5.72869287109375,-1.5702972412109375,-0.78790283203125,0.4759368896484375
1772562204268675600,5.738675537109375,-1.6226654052734375,-0.7974090576171875,0.5151824951171875
1772562204278658600,5.748658447265625,-1.6703643798828125,-0.8211212158203125,0.54693603515625
1772562204288640800,5.758640869140625,-1.7454833984375,-0.877655029296875,0.56317138671875
1772562204298623500,5.76862353515625,-1.8270263671875,-0.8940582275390625,0.5430908203125
1772562204308605700,5.778605712890625,-1.9081878662109375,-0.8215179443359375,0.4366302490234375
1772562204318588700,5.788588623046875,-1.9334564208984375,-0.7303466796875,0.34759521484375
1772562204328570600,5.798570556640625,-1.9266204833984375,-0.6724090576171875,0.3233489990234375
1772562204338553600,5.8085537109375,-1.94525146484375,-0.649658203125,0.3763885498046875
1772562204348536800,5.818536865234375,-1.9397735595703125,-0.6665191650390625,0.4411163330078125
1772562204358518500,5.8285185546875,-1.90576171875,-0.68341064453125,0.4634552001953125
1772562204368501800,5.838501708984375,-1.859710693359375,-0.6947021484375,0.4653167724609375
1772562204378483700,5.848483642578125,-1.8279876708984375,-0.7085113525390625,0.453125
1772562204388466700,5.858466796875,-1.783966064453125,-0.7099761962890625,0.4381256103515625
1772562204398448600,5.86844873046875,-1.72552490234375,-0.6798248291015625,0.408050537109375
1772562204408431900,5.878431884765625,-1.6361541748046875,-0.626983642578125,0.368011474609375
1772562204418413600,5.88841357421875,-1.534393310546875,-0.5771484375,0.3338470458984375
1772562204428396800,5.898396728515625,-1.44012451171875,-0.535125732421875,0.3062744140625
1772562204438379800,5.9083798828125,-1.3658905029296875,-0.4751434326171875,0.289398193359375
1772562204448361700,5.91836181640625,-1.2848358154296875,-0.423919677734375,0.267486572265625
1772562204458344700,5.9283447265625,-1.165985107421875,-0.3710174560546875,0.240447998046875
1772562204468326700,5.93832666015625,-1.0427703857421875,-0.2924957275390625,0.2077178955078125
1772562204478309600,5.9483095703125,-0.9290924072265625,-0.2183074951171875,0.1741485595703125
1772562204488291800,5.958291748046875,-0.822906494140625,-0.1590118408203125,0.1367340087890625
1772562204498274600,5.968274658203125,-0.7174835205078125,-0.1112518310546875,0.098602294921875
1772562204508257500,5.978257568359375,-0.615020751953125,-0.0743408203125,0.0775299072265625
1772562204518239700,5.98823974609375,-0.5466156005859375,-0.0397186279296875,0.07080078125
1772562204528222500,5.998222412109375,-0.5141754150390625,-0.0198516845703125,0.0808563232421875
1772562204538204700,6.00820458984375,-0.493011474609375,-0.001983642578125,0.0950469970703125
1772562204548187600,6.018187744140625,-0.4695892333984375,0.017578125,0.0791168212890625
1772562204558169600,6.028169677734375,-0.4290771484375,0.019622802734375,0.053253173828125
1772562204568152600,6.038152587890625,-0.38018798828125,0.016357421875,0.04156494140625
1772562204578135800,6.0481357421875,-0.32769775390625,0.0075836181640625,0.0372467041015625
1772562204588117500,6.058117431640625,-0.2827606201171875,-0.0183563232421875,0.038177490234375
1772562204598100700,6.068100830078125,-0.2537994384765625,-0.04840087890625,0.0491790771484375
1772562204608082700,6.078082763671875,-0.2233734130859375,-0.0821990966796875,0.065185546875
1772562204618065700,6.088065673828125,-0.184539794921875,-0.1113128662109375,0.0856781005859375
1772562204628047600,6.098047607421875,-0.149444580078125,-0.1309051513671875,0.109375
1772562204638030800,6.10803076171875,-0.1263885498046875,-0.1439666748046875,0.1172943115234375
1772562204648012500,6.118012451171875,-0.1124114990234375,-0.155548095703125,0.1134033203125
1772562204657995800,6.127995849609375,-0.0892486572265625,-0.1658935546875,0.11639404296875
1772562204667978800,6.137978759765625,-0.065399169921875,-0.166595458984375,0.1124267578125
1772562204677960700,6.147960693359375,-0.0660400390625,-0.1672821044921875,0.101531982421875
1772562204687943700,6.157943603515625,-0.06982421875,-0.1769256591796875,0.0892333984375
1772562204697925600,6.167925537109375,-0.0771484375,-0.1806488037109375,0.082672119140625
1772562204707908600,6.17790869140625,-0.0854949951171875,-0.1700592041015625,0.0832977294921875
1772562204717890800,6.187890869140625,-0.08447265625,-0.15863037109375,0.08441162109375
1772562204727873500,6.19787353515625,-0.0863494873046875,-0.1399383544921875,0.0790557861328125
1772562204737856500,6.2078564453125,-0.0971221923828125,-0.1180267333984375,0.0670013427734375
1772562204747838700,6.217838623046875,-0.117340087890625,-0.092071533203125,0.050506591796875
1772562204757821400,6.227821533203125,-0.142242431640625,-0.0692596435546875,0.0381927490234375
1772562204767803600,6.2378037109375,-0.17071533203125,-0.052001953125,0.0245513916015625
1772562204777786600,6.24778662109375,-0.2278594970703125,-0.0468597412109375,0.018218994140625
1772562204787768600,6.2577685546875,-0.298919677734375,-0.067840576171875,0.030059814453125
1772562204797751600,6.26775146484375,-0.350372314453125,-0.090423583984375,0.0603485107421875
1772562204807734800,6.27773486328125,-0.38458251953125,-0.105743408203125,0.10675048828125
1772562204817716500,6.287716552734375,-0.42242431640625,-0.1368865966796875,0.1660308837890625
1772562204827699700,6.29769970703125,-0.4554595947265625,-0.2099151611328125,0.2166900634765625
1772562204837681400,6.307681396484375,-0.5154266357421875,-0.295013427734375,0.2372589111328125
1772562204847664400,6.317664306640625,-0.61773681640625,-0.3780059814453125,0.2690887451171875
1772562204857646600,6.327646484375,-0.7129058837890625,-0.4552459716796875,0.2980804443359375
1772562204867629600,6.337629638671875,-0.8396759033203125,-0.5192108154296875,0.3408966064453125
1772562204877611500,6.347611572265625,-0.9735260009765625,-0.568389892578125,0.4253692626953125
1772562204887594500,6.357594482421875,-1.067138671875,-0.635284423828125,0.542694091796875
1772562204897577500,6.367577392578125,-1.16790771484375,-0.6957244873046875,0.64068603515625
1772562204907559400,6.377559326171875,-1.308837890625,-0.71435546875,0.7130889892578125
1772562204917542400,6.38754248046875,-1.46380615234375,-0.6798553466796875,0.70355224609375
1772562204927524400,6.3975244140625,-1.651702880859375,-0.5680999755859375,0.6046295166015625
1772562204937507300,6.40750732421875,-1.8334197998046875,-0.438873291015625,0.5103759765625
1772562204947489500,6.417489501953125,-1.959197998046875,-0.3402099609375,0.469757080078125
1772562204957472300,6.42747216796875,-2.029083251953125,-0.2908935546875,0.4874114990234375
1772562204967455500,6.43745556640625,-2.057647705078125,-0.270538330078125,0.53271484375
1772562204977437400,6.4474375,-2.037109375,-0.2861480712890625,0.5714111328125
1772562204987420400,6.45742041015625,-1.9646453857421875,-0.3245849609375,0.59368896484375
1772562204997402400,6.46740234375,-1.9118194580078125,-0.355865478515625,0.6422576904296875
1772562205007385600,6.477385498046875,-1.909912109375,-0.382598876953125,0.696502685546875
1772562205017367300,6.4873671875,-1.9059600830078125,-0.4228057861328125,0.7246551513671875
1772562205027350500,6.4973505859375,-1.872589111328125,-0.4528045654296875,0.745697021484375
1772562205037333500,6.50733349609375,-1.84246826171875,-0.4585113525390625,0.7654571533203125
1772562205047315500,6.5173154296875,-1.8054656982421875,-0.4703826904296875,0.7733917236328125
1772562205057298400,6.52729833984375,-1.7711944580078125,-0.468597412109375,0.7697601318359375
1772562205067280600,6.53728076171875,-1.7476959228515625,-0.44512939453125,0.7548065185546875
1772562205077263400,6.547263427734375,-1.7431793212890625,-0.41400146484375,0.726470947265625
1772562205087245600,6.55724560546875,-1.7531585693359375,-0.377685546875,0.685455322265625
1772562205097228500,6.567228515625,-1.7555694580078125,-0.34637451171875,0.6540985107421875
1772562205107211300,6.577211181640625,-1.740264892578125,-0.343841552734375,0.6393890380859375
1772562205117193500,6.587193359375,-1.703399658203125,-0.353179931640625,0.63336181640625
1772562205127176400,6.597176513671875,-1.649017333984375,-0.358489990234375,0.6299896240234375
1772562205137158400,6.607158447265625,-1.5890350341796875,-0.3738250732421875,0.6146697998046875
1772562205147141400,6.617141357421875,-1.5156402587890625,-0.394195556640625,0.5893402099609375
1772562205157123300,6.627123291015625,-1.4145965576171875,-0.4108428955078125,0.555908203125
1772562205167106300,6.637106201171875,-1.291412353515625,-0.4258575439453125,0.51251220703125
1772562205177088500,6.647088623046875,-1.1575469970703125,-0.433746337890625,0.4627227783203125
1772562205187071200,6.6570712890625,-1.0342559814453125,-0.425048828125,0.410614013671875
1772562205197054500,6.667054443359375,-0.9274444580078125,-0.3982086181640625,0.3685760498046875
1772562205207036400,6.677036376953125,-0.85009765625,-0.3615264892578125,0.332061767578125
1772562205217019400,6.687019287109375,-0.7840118408203125,-0.3173980712890625,0.2809906005859375
1772562205227001300,6.69700146484375,-0.7115936279296875,-0.2784576416015625,0.2225799560546875
1772562205236984600,6.706984619140625,-0.64642333984375,-0.244537353515625,0.176849365234375
1772562205246966300,6.71696630859375,-0.5875091552734375,-0.211517333984375,0.1341094970703125
1772562205256949500,6.726949462890625,-0.526153564453125,-0.182952880859375,0.0892791748046875
1772562205266932500,6.736932373046875,-0.462860107421875,-0.1609344482421875,0.0543212890625
1772562205276914400,6.74691455078125,-0.402191162109375,-0.13055419921875,0.0289154052734375
1772562205286897400,6.7568974609375,-0.3574676513671875,-0.0986785888671875,0.014007568359375
1772562205296879600,6.766879638671875,-0.3310089111328125,-0.07757568359375,0.0039520263671875
1772562205306862300,6.7768623046875,-0.3008575439453125,-0.0764312744140625,-0.000213623046875
1772562205316844500,6.786844482421875,-0.2731170654296875,-0.08251953125,0.0037384033203125
1772562205326827500,6.79682763671875,-0.2504119873046875,-0.0935821533203125,0.0132293701171875
1772562205336810200,6.806810302734375,-0.221221923828125,-0.105438232421875,0.0288238525390625
1772562205346792400,6.81679248046875,-0.1907958984375,-0.1186065673828125,0.033599853515625
1772562205356775400,6.826775390625,-0.172698974609375,-0.13470458984375,0.033416748046875
1772562205366757400,6.83675732421875,-0.16064453125,-0.1441802978515625,0.0329742431640625
1772562205376740400,6.846740234375,-0.156707763671875,-0.150238037109375,0.02996826171875
1772562205386722300,6.856722412109375,-0.1467437744140625,-0.16766357421875,0.023406982421875
1772562205396705300,6.866705322265625,-0.1276092529296875,-0.1769561767578125,0.0106964111328125
1772562205406688500,6.8766884765625,-0.11083984375,-0.172393798828125,-0.0003662109375
1772562205416670200,6.886670166015625,-0.095794677734375,-0.1640625,-0.0067291259765625
1772562205426653400,6.8966533203125,-0.0879669189453125,-0.1557464599609375,-0.0075836181640625
1772562205436635400,6.906635498046875,-0.0881805419921875,-0.143524169921875,-0.004486083984375
1772562205446618400,6.916618408203125,-0.0966644287109375,-0.13104248046875,-0.0037994384765625
1772562205456600300,6.926600341796875,-0.1096343994140625,-0.1259918212890625,-0.004913330078125
1772562205466583600,6.93658349609375,-0.1260833740234375,-0.1255035400390625,-0.00701904296875
1772562205476565200,6.946565185546875,-0.1486968994140625,-0.1199798583984375,0
1772562205486548500,6.956548583984375,-0.1870880126953125,-0.1095428466796875,0.0223541259765625
1772562205496531500,6.966531494140625,-0.2187347412109375,-0.1153564453125,0.0453948974609375
1772562205506513400,6.976513427734375,-0.24920654296875,-0.124786376953125,0.04931640625
1772562205516496400,6.986496337890625,-0.2920074462890625,-0.1383209228515625,0.056060791015625
1772562205526478600,6.996478515625,-0.3390960693359375,-0.1665496826171875,0.05145263671875
1772562205536461300,7.00646142578125,-0.3909454345703125,-0.2222900390625,0.0611572265625
1772562205546443500,7.016443603515625,-0.4514617919921875,-0.3176422119140625,0.1062774658203125
1772562205556426500,7.026426513671875,-0.4689788818359375,-0.483612060546875,0.163330078125
1772562205566409500,7.036409423828125,-0.5242767333984375,-0.6914825439453125,0.2457427978515625
1772562205576391400,7.046391357421875,-0.728851318359375,-0.7573089599609375,0.3191070556640625
1772562205586374400,7.05637451171875,-0.89300537109375,-0.7116851806640625,0.392974853515625
1772562205596356400,7.0663564453125,-1.03582763671875,-0.704620361328125,0.457916259765625
1772562205606339300,7.07633935546875,-1.16595458984375,-0.7871551513671875,0.497467041015625
1772562205616321300,7.0863212890625,-1.3533172607421875,-0.8531951904296875,0.49114990234375
1772562205626304500,7.096304443359375,-1.61981201171875,-0.7705535888671875,0.469818115234375
1772562205636287500,7.10628759765625,-1.8481597900390625,-0.6155548095703125,0.43304443359375
1772562205646269400,7.11626953125,-1.9906768798828125,-0.548492431640625,0.370269775390625
1772562205656252400,7.12625244140625,-2.101959228515625,-0.50006103515625,0.308013916015625
1772562205666234400,7.136234375,-2.1416473388671875,-0.4316864013671875,0.2487335205078125
1772562205676217300,7.14621728515625,-2.0971832275390625,-0.35345458984375,0.208038330078125
1772562205686199600,7.156199462890625,-1.9802398681640625,-0.3062591552734375,0.1817474365234375
1772562205696182500,7.1661826171875,-1.84503173828125,-0.3263702392578125,0.146148681640625
1772562205706165200,7.176165283203125,-1.787384033203125,-0.375213623046875,0.159820556640625
1772562205716147500,7.1861474609375,-1.7529296875,-0.404937744140625,0.2312774658203125
1772562205726130400,7.19613037109375,-1.7296295166015625,-0.40802001953125,0.3246917724609375
1772562205736112400,7.2061123046875,-1.7665557861328125,-0.4272613525390625,0.44561767578125
1772562205746095400,7.216095458984375,-1.83740234375,-0.4638519287109375,0.5388031005859375
1772562205756077600,7.22607763671875,-1.87152099609375,-0.482940673828125,0.5681610107421875
1772562205766060300,7.236060302734375,-1.876617431640625,-0.4735870361328125,0.544647216796875
1772562205776043500,7.24604345703125,-1.89544677734375,-0.4347076416015625,0.50848388671875
1772562205786025500,7.256025390625,-1.928009033203125,-0.3687896728515625,0.4552154541015625
1772562205796008400,7.266008544921875,-1.9576263427734375,-0.30859375,0.40545654296875
1772562205805990400,7.275990478515625,-1.9409942626953125,-0.2865447998046875,0.3941650390625
1772562205815973600,7.2859736328125,-1.8292694091796875,-0.3194122314453125,0.3992156982421875
1772562205825955300,7.295955322265625,-1.674041748046875,-0.367095947265625,0.39007568359375
1772562205835938600,7.3059384765625,-1.5129852294921875,-0.3905181884765625,0.362548828125
1772562205845920500,7.31592041015625,-1.327728271484375,-0.3994598388671875,0.32940673828125
1772562205855903700,7.32590380859375,-1.1228179931640625,-0.39752197265625,0.315032958984375
1772562205865886500,7.335886474609375,-0.9095611572265625,-0.3856048583984375,0.31640625
1772562205875868700,7.34586865234375,-0.7273406982421875,-0.3565216064453125,0.29949951171875
1772562205885851600,7.3558515625,-0.6081085205078125,-0.293548583984375,0.28997802734375
1772562205895833600,7.36583349609375,-0.599212646484375,-0.2052459716796875,0.326263427734375
1772562205905816600,7.375816650390625,-0.6272125244140625,-0.127197265625,0.3352508544921875
1772562205915798500,7.385798583984375,-0.6274566650390625,-0.0601043701171875,0.2888641357421875
1772562205925781500,7.395781494140625,-0.6184844970703125,-0.011199951171875,0.2314300537109375
1772562205935764500,7.405764404296875,-0.5142822265625,0.0133056640625,0.170806884765625
1772562205945746400,7.415746337890625,-0.4623565673828125,0.016357421875,0.1053924560546875
1772562205955729400,7.4257294921875,-0.412445068359375,-0.019561767578125,0.0782928466796875
1772562205965711600,7.435711669921875,-0.36407470703125,-0.05145263671875,0.0591888427734375
1772562205975694300,7.4456943359375,-0.3259429931640625,-0.08160400390625,0.0542144775390625
1772562205985676500,7.455676513671875,-0.26678466796875,-0.1231536865234375,0.0584869384765625
1772562205995659500,7.465659423828125,-0.22760009765625,-0.161712646484375,0.070465087890625
1772562206005642500,7.475642578125,-0.1952362060546875,-0.18865966796875,0.0820159912109375
1772562206015624400,7.48562451171875,-0.1688690185546875,-0.199005126953125,0.0932769775390625
1772562206025607700,7.495607666015625,-0.14892578125,-0.2050323486328125,0.10455322265625
1772562206035589400,7.50558935546875,-0.154571533203125,-0.2090606689453125,0.0995025634765625
1772562206045572600,7.515572509765625,-0.1669921875,-0.212860107421875,0.08251953125
1772562206055554300,7.52555419921875,-0.1793670654296875,-0.211517333984375,0.06683349609375
1772562206065537500,7.53553759765625,-0.1842193603515625,-0.2095947265625,0.0631561279296875
1772562206075520500,7.5455205078125,-0.1881866455078125,-0.2086181640625,0.064849853515625
1772562206085502700,7.555502685546875,-0.19073486328125,-0.20843505859375,0.06622314453125
1772562206095485400,7.5654853515625,-0.198089599609375,-0.207794189453125,0.069854736328125
1772562206105467600,7.575467529296875,-0.2070465087890625,-0.1974945068359375,0.073455810546875
1772562206115450600,7.58545068359375,-0.22174072265625,-0.17999267578125,0.0699005126953125
1772562206125432600,7.5954326171875,-0.2379302978515625,-0.163726806640625,0.054718017578125
1772562206135415600,7.60541552734375,-0.2491912841796875,-0.1440887451171875,0.0421905517578125
1772562206145397500,7.6153974609375,-0.269744873046875,-0.1140899658203125,0.03228759765625
1772562206155380500,7.62538037109375,-0.2813262939453125,-0.0892181396484375,0.014251708984375
1772562206165363500,7.635363525390625,-0.30877685546875,-0.073883056640625,-0.0145263671875
1772562206175345400,7.645345458984375,-0.332855224609375,-0.068634033203125,-0.0407257080078125
1772562206185328400,7.655328369140625,-0.3751068115234375,-0.0749969482421875,-0.0651702880859375
1772562206195310600,7.665310546875,-0.419647216796875,-0.102325439453125,-0.078216552734375
1772562206205293300,7.675293212890625,-0.4521331787109375,-0.1554107666015625,-0.0530548095703125
1772562206215275500,7.685275634765625,-0.481475830078125,-0.2306976318359375,-0.01995849609375
1772562206225258500,7.695258544921875,-0.52606201171875,-0.333984375,0.02557373046875
1772562206235241500,7.705241455078125,-0.6365966796875,-0.4383392333984375,0.09771728515625
1772562206245223400,7.715223388671875,-0.777252197265625,-0.5282745361328125,0.1789398193359375
1772562206255206700,7.72520654296875,-0.9169921875,-0.615264892578125,0.2479400634765625
1772562206265188400,7.735188232421875,-1.036346435546875,-0.676483154296875,0.2820587158203125
1772562206275171600,7.745171630859375,-1.142730712890625,-0.7318267822265625,0.32098388671875
1772562206285153300,7.7551533203125,-1.3096466064453125,-0.7800750732421875,0.3671112060546875
1772562206295136500,7.765136474609375,-1.4771575927734375,-0.796630859375,0.42510986328125
1772562206305119500,7.775119384765625,-1.6129302978515625,-0.764404296875,0.4618682861328125
1772562206315101700,7.785101806640625,-1.710784912109375,-0.7185516357421875,0.4484100341796875
1772562206325084400,7.79508447265625,-1.801910400390625,-0.683013916015625,0.40924072265625
1772562206335066600,7.805066650390625,-1.8952178955078125,-0.649871826171875,0.39068603515625
1772562206345049600,7.815049560546875,-1.9558258056640625,-0.6233673095703125,0.4045867919921875
1772562206355031600,7.825031494140625,-1.9814605712890625,-0.5992584228515625,0.4072723388671875
1772562206365014500,7.8350146484375,-1.98016357421875,-0.5679779052734375,0.3880615234375
1772562206374997500,7.84499755859375,-1.97796630859375,-0.5379486083984375,0.370513916015625
1772562206384979500,7.8549794921875,-1.976837158203125,-0.5205078125,0.3690338134765625
1772562206394962400,7.86496240234375,-2.0102081298828125,-0.5088348388671875,0.380950927734375
1772562206404944400,7.8749443359375,-2.0542449951171875,-0.505462646484375,0.382415771484375
1772562206414927400,7.88492724609375,-2.0704803466796875,-0.500274658203125,0.40789794921875
1772562206424909600,7.89490966796875,-2.0523834228515625,-0.48175048828125,0.463531494140625
1772562206434892500,7.904892578125,-2.0186920166015625,-0.48681640625,0.517364501953125
1772562206444875500,7.91487548828125,-1.983489990234375,-0.49005126953125,0.560302734375
1772562206454857500,7.924857421875,-1.9285888671875,-0.4716339111328125,0.57208251953125
1772562206464840400,7.93484033203125,-1.8486480712890625,-0.4488525390625,0.5395660400390625
1772562206474822400,7.944822509765625,-1.7431640625,-0.4229736328125,0.494415283203125
1772562206484805600,7.9548056640625,-1.6406402587890625,-0.3986663818359375,0.4441680908203125
1772562206494787300,7.964787353515625,-1.5464630126953125,-0.39910888671875,0.394561767578125
1772562206504770600,7.9747705078125,-1.417388916015625,-0.3952789306640625,0.344970703125
1772562206514752500,7.98475244140625,-1.24285888671875,-0.3848114013671875,0.296630859375
1772562206524734500,7.994734375,-1.075103759765625,-0.370941162109375,0.255096435546875
1772562206534717400,8.004717529296874,-0.9348297119140625,-0.34295654296875,0.2305145263671875
1772562206544699400,8.014699462890626,-0.8205108642578125,-0.318267822265625,0.2298431396484375
1772562206554682400,8.024682373046875,-0.728729248046875,-0.2946929931640625,0.24530029296875
1772562206564665600,8.03466552734375,-0.6475372314453125,-0.2718505859375,0.2543792724609375
1772562206574647600,8.0446474609375,-0.5620574951171875,-0.2476654052734375,0.2579345703125
1772562206584630500,8.054630615234375,-0.4862213134765625,-0.21917724609375,0.2461700439453125
1772562206594612500,8.064612548828125,-0.424468994140625,-0.1908416748046875,0.233856201171875
1772562206604595500,8.074595458984374,-0.3743133544921875,-0.1631622314453125,0.2164764404296875
1772562206614577400,8.084577392578124,-0.3498382568359375,-0.1322784423828125,0.1934051513671875
1772562206624560600,8.094560546875,-0.3591766357421875,-0.1080474853515625,0.1754608154296875
1772562206634542600,8.10454248046875,-0.3829498291015625,-0.099365234375,0.1591644287109375
1772562206644525600,8.114525634765625,-0.394561767578125,-0.0970306396484375,0.14288330078125
1772562206654508500,8.124508544921875,-0.42169189453125,-0.087554931640625,0.1194915771484375
1772562206664490500,8.134490478515625,-0.3854217529296875,-0.086669921875,0.10504150390625
1772562206674473500,8.144473388671875,-0.36822509765625,-0.07843017578125,0.0645751953125
1772562206684455400,8.154455322265624,-0.3498992919921875,-0.081390380859375,0.0452880859375
1772562206694438400,8.1644384765625,-0.325469970703125,-0.0974884033203125,0.0197296142578125
1772562206704420600,8.174420654296876,-0.3121337890625,-0.117401123046875,0.0078277587890625
1772562206714403300,8.1844033203125,-0.3038787841796875,-0.1316070556640625,0.014007568359375
1772562206724386600,8.194386474609376,-0.289306640625,-0.12921142578125,0.042266845703125
1772562206734368500,8.204368408203125,-0.2633209228515625,-0.1284637451171875,0.0648956298828125
1772562206744351700,8.214351806640625,-0.2342071533203125,-0.1389312744140625,0.078887939453125
1772562206754333400,8.22433349609375,-0.22613525390625,-0.1459503173828125,0.092529296875
1772562206764316700,8.234316650390625,-0.2264251708984375,-0.1531524658203125,0.1102447509765625
1772562206774298400,8.24429833984375,-0.2168121337890625,-0.1664886474609375,0.1272735595703125
1772562206784281600,8.254281494140624,-0.207611083984375,-0.169952392578125,0.13818359375
1772562206794264600,8.2642646484375,-0.214141845703125,-0.155120849609375,0.1386871337890625
1772562206804246500,8.27424658203125,-0.2236785888671875,-0.14459228515625,0.1349334716796875
1772562206814229500,8.2842294921875,-0.2467193603515625,-0.1378326416015625,0.132354736328125
1772562206824211700,8.294211669921875,-0.276336669921875,-0.121185302734375,0.1170806884765625
1772562206834194400,8.3041943359375,-0.2926025390625,-0.0925140380859375,0.0985107421875
1772562206844176000,8.31417578125,-0.327911376953125,-0.079742431640625,0.0979766845703125
1772562206854158800,8.324158935546874,-0.3736572265625,-0.07635498046875,0.1172332763671875
1772562206864141800,8.334141845703124,-0.4156341552734375,-0.0759735107421875,0.1264190673828125
1772562206874123800,8.344123779296876,-0.469879150390625,-0.0948486328125,0.1571502685546875
1772562206884106800,8.354106689453126,-0.5237274169921875,-0.128387451171875,0.1814422607421875
1772562206894088700,8.364088623046875,-0.5849761962890625,-0.17047119140625,0.2094879150390625
1772562206904071700,8.37407177734375,-0.689178466796875,-0.227874755859375,0.2733612060546875
1772562206914054000,8.384053955078125,-0.8203277587890625,-0.2835693359375,0.34954833984375
1772562206924036900,8.394036865234375,-0.940155029296875,-0.31854248046875,0.40557861328125
1772562206934019800,8.404019775390625,-1.0072174072265625,-0.358917236328125,0.4496612548828125
1772562206944001800,8.414001708984374,-1.07159423828125,-0.3864288330078125,0.4665069580078125
1772562206953984800,8.42398486328125,-1.162811279296875,-0.3882598876953125,0.4747467041015625
1772562206963966700,8.433966796875,-1.2488861083984375,-0.41290283203125,0.5106048583984375
1772562206973950000,8.443949951171875,-1.361572265625,-0.4149932861328125,0.572906494140625
1772562206983932000,8.453931884765625,-1.4054107666015625,-0.4080047607421875,0.638702392578125
1772562206993915000,8.463914794921875,-1.4628448486328125,-0.4147491455078125,0.6767425537109375
1772562207003897900,8.47389794921875,-1.5272216796875,-0.412994384765625,0.67730712890625
1772562207013879800,8.4838798828125,-1.600494384765625,-0.420013427734375,0.677459716796875
1772562207023862800,8.49386279296875,-1.6674652099609375,-0.425506591796875,0.682403564453125
1772562207033844700,8.5038447265625,-1.66558837890625,-0.4112091064453125,0.6443023681640625
1772562207043827700,8.51382763671875,-1.640106201171875,-0.38409423828125,0.572540283203125
1772562207053810000,8.523809814453125,-1.5965118408203125,-0.3554840087890625,0.51776123046875
1772562207063792600,8.533792724609375,-1.687957763671875,-0.3660736083984375,0.4962310791015625
1772562207073775900,8.54377587890625,-1.79803466796875,-0.3830718994140625,0.5155792236328125
1772562207083757800,8.5537578125,-1.806732177734375,-0.3829803466796875,0.520904541015625
1772562207093740800,8.56374072265625,-1.7546539306640625,-0.4023895263671875,0.486297607421875
1772562207103722800,8.57372265625,-1.7245635986328125,-0.42657470703125,0.444366455078125
1772562207113706000,8.5837060546875,-1.9090728759765625,-0.327178955078125,0.3963470458984375
1772562207123687700,8.593687744140626,-1.9154205322265625,-0.2200164794921875,0.31365966796875
1772562207133671000,8.6036708984375,-1.8585357666015625,-0.1785888671875,0.235931396484375
1772562207143654000,8.61365380859375,-1.8509368896484375,-0.1137237548828125,0.1702423095703125
1772562207153635800,8.6236357421875,-1.86065673828125,-0.0914459228515625,0.1635589599609375
1772562207163618800,8.633618896484375,-1.8619842529296875,-0.11285400390625,0.1812896728515625
1772562207173601000,8.64360107421875,-1.8203887939453125,-0.136260986328125,0.224578857421875
1772562207183583700,8.653583740234374,-1.7800445556640625,-0.1567840576171875,0.2662506103515625
1772562207193566000,8.66356591796875,-1.7548370361328125,-0.176788330078125,0.2965850830078125
1772562207203549000,8.673548828125,-1.671478271484375,-0.22662353515625,0.324432373046875
1772562207213531600,8.68353173828125,-1.5600128173828125,-0.2713165283203125,0.3410491943359375
1772562207223513900,8.693513916015625,-1.47052001953125,-0.28851318359375,0.3243408203125
1772562207233496800,8.703496826171875,-1.3616180419921875,-0.2841644287109375,0.2582244873046875
1772562207243478800,8.713478759765625,-1.2209014892578125,-0.263824462890625,0.175750732421875
1772562207253461800,8.723461669921875,-1.04718017578125,-0.24652099609375,0.12359619140625
1772562207263443700,8.733443603515624,-0.8515167236328125,-0.22491455078125,0.13641357421875
1772562207273426700,8.7434267578125,-0.7344818115234375,-0.2288055419921875,0.122528076171875
1772562207283410000,8.753409912109374,-0.69866943359375,-0.2592315673828125,0.0792388916015625
1772562207293391600,8.7633916015625,-0.7154388427734375,-0.25933837890625,0.0498809814453125
1772562207303374800,8.773374755859376,-0.7464447021484375,-0.2197113037109375,-0.015380859375
1772562207313356800,8.783356689453125,-0.741607666015625,-0.2058868408203125,-0.1025390625
1772562207323339800,8.79333984375,-0.712799072265625,-0.2230224609375,-0.1770172119140625
1772562207333321700,8.80332177734375,-0.7162933349609375,-0.1934967041015625,-0.2211151123046875
1772562207343305000,8.813304931640625,-0.6917266845703125,-0.13348388671875,-0.251922607421875
1772562207353286700,8.82328662109375,-0.593597412109375,-0.096038818359375,-0.2654876708984375
1772562207363270000,8.833269775390624,-0.4498443603515625,-0.070709228515625,-0.226287841796875
1772562207373252900,8.8432529296875,-0.3058624267578125,-0.0589752197265625,-0.1361541748046875
1772562207383234800,8.85323486328125,-0.2253570556640625,-0.0718841552734375,-0.10028076171875
1772562207393217800,8.8632177734375,-0.37860107421875,-0.0532073974609375,-0.0885162353515625
1772562207403200000,8.873199951171875,-0.6599578857421875,-0.0247955322265625,-0.0269012451171875
1772562207413182700,8.8831826171875,-0.54083251953125,-0.0960540771484375,0.0811614990234375
1772562207423165000,8.8931650390625,-0.4095001220703125,-0.1598358154296875,0.1365814208984375
1772562207433148000,8.90314794921875,-0.385986328125,-0.1754302978515625,0.1122589111328125
1772562207443130600,8.913130615234374,-0.2954864501953125,-0.1608428955078125,0.050537109375
1772562207453112800,8.92311279296875,-0.1932220458984375,-0.1340789794921875,0.0200958251953125
1772562207463095800,8.933095703125,-0.1616363525390625,-0.1273956298828125,0.030059814453125
1772562207473077800,8.943077880859375,-0.17681884765625,-0.1393280029296875,0.040252685546875
1772562207483060700,8.953060791015625,-0.191741943359375,-0.157440185546875,0.053619384765625
1772562207493042700,8.963042724609375,-0.189239501953125,-0.1775054931640625,0.0624542236328125
1772562207503025700,8.973025634765625,-0.1724700927734375,-0.1919708251953125,0.066436767578125
1772562207513009000,8.9830087890625,-0.16058349609375,-0.1985931396484375,0.0634307861328125
1772562207522990600,8.992990478515624,-0.17169189453125,-0.199676513671875,0.057830810546875
1772562207532973800,9.002973876953124,-0.2101593017578125,-0.193084716796875,0.056976318359375
1772562207542955800,9.012955810546876,-0.2340240478515625,-0.185302734375,0.046661376953125
1772562207552938800,9.022938720703126,-0.2230987548828125,-0.187286376953125,0.0401763916015625
1772562207562920700,9.032920654296875,-0.208160400390625,-0.1876068115234375,0.0304107666015625
1772562207572904000,9.042904052734375,-0.216796875,-0.1772308349609375,0.0054473876953125
1772562207582886700,9.05288671875,-0.2452239990234375,-0.1529083251953125,-0.0039825439453125
1772562207592868900,9.062868896484375,-0.2816925048828125,-0.1428375244140625,0.000946044921875
1772562207602851800,9.072851806640625,-0.3329925537109375,-0.1661376953125,0.00189208984375
1772562207612833800,9.082833740234374,-0.4105072021484375,-0.22454833984375,0.0297393798828125
1772562207622816800,9.092816650390626,-0.487579345703125,-0.3005828857421875,0.0821990966796875
1772562207632799000,9.102799072265626,-0.544219970703125,-0.3647613525390625,0.12750244140625
1772562207642781700,9.11278173828125,-0.589111328125,-0.413848876953125,0.1792449951171875
1772562207652764700,9.1227646484375,-0.6237335205078125,-0.4665374755859375,0.224700927734375
1772562207662747000,9.132746826171875,-0.6551971435546875,-0.5403900146484375,0.28863525390625
1772562207672729900,9.142729736328125,-0.70599365234375,-0.6007080078125,0.2840423583984375
1772562207682711800,9.1527119140625,-0.8272857666015625,-0.594085693359375,0.23016357421875
1772562207692694800,9.16269482421875,-0.95660400390625,-0.5944976806640625,0.2259674072265625
1772562207702676700,9.1726767578125,-1.010955810546875,-0.680450439453125,0.2811431884765625
1772562207712659700,9.18265966796875,-1.052734375,-0.77587890625,0.3282318115234375
1772562207722643000,9.192642822265626,-1.130126953125,-0.7712554931640625,0.2904205322265625
1772562207732625000,9.202625,-1.2061920166015625,-0.6883544921875,0.202972412109375
1772562207742608000,9.21260791015625,-1.2861480712890625,-0.641571044921875,0.1313629150390625
1772562207752589800,9.22258984375,-1.3557891845703125,-0.647430419921875,0.081756591796875
1772562207762572800,9.23257275390625,-1.401824951171875,-0.657989501953125,0.0372772216796875
1772562207772554800,9.2425546875,-1.441253662109375,-0.6690521240234375,-0.009429931640625
1772562207782537700,9.252537841796874,-1.42694091796875,-0.6660614013671875,-0.0273895263671875
1772562207792520700,9.262520751953126,-1.3606109619140625,-0.6499481201171875,-0.03851318359375
1772562207802503000,9.2725029296875,-1.2971038818359375,-0.6373291015625,-0.0691680908203125
1772562207812485600,9.282485595703125,-1.280792236328125,-0.6389312744140625,-0.088775634765625
1772562207822467800,9.2924677734375,-1.357391357421875,-0.658294677734375,-0.033477783203125
1772562207832450800,9.302450927734375,-1.49652099609375,-0.6990509033203125,0.065826416015625
1772562207842433800,9.312433837890625,-1.574798583984375,-0.74041748046875,0.1600189208984375
1772562207852416800,9.322416748046875,-1.6106414794921875,-0.769378662109375,0.2257080078125
1772562207862399500,9.3323994140625,-1.6684112548828125,-0.81536865234375,0.2440643310546875
1772562207872381700,9.342381591796874,-1.668060302734375,-0.83648681640625,0.22418212890625
1772562207882364700,9.35236474609375,-1.6625518798828125,-0.8185577392578125,0.1768341064453125
1772562207892346600,9.3623466796875,-1.68017578125,-0.79803466796875,0.11529541015625
1772562207902329600,9.37232958984375,-1.6952362060546875,-0.76593017578125,0.0548248291015625
1772562207912311800,9.382311767578125,-1.7477874755859375,-0.7479095458984375,-0.012054443359375
1772562207922294500,9.39229443359375,-1.80609130859375,-0.74615478515625,-0.053497314453125
1772562207932276700,9.40227685546875,-1.8467864990234375,-0.7353057861328125,-0.0607757568359375
1772562207942259700,9.412259765625,-1.8606719970703125,-0.7052764892578125,-0.05615234375
1772562207952242700,9.42224267578125,-1.7972412109375,-0.6596832275390625,-0.0472259521484375
1772562207962224600,9.432224609375,-1.6876068115234375,-0.6005401611328125,-0.0329132080078125
1772562207972207900,9.442207763671876,-1.564453125,-0.5358428955078125,-0.017578125
1772562207982189600,9.452189453125,-1.4303436279296875,-0.4741973876953125,0.0052337646484375
1772562207992172800,9.4621728515625,-1.29193115234375,-0.4191436767578125,0.0155487060546875
1772562208002154500,9.472154541015625,-1.1605987548828125,-0.3826141357421875,0.0028076171875
1772562208012137700,9.4821376953125,-1.031097412109375,-0.3524627685546875,-0.0122833251953125
1772562208022120700,9.49212060546875,-0.9084320068359375,-0.33062744140625,-0.019439697265625
1772562208032102700,9.5021025390625,-0.8150177001953125,-0.32452392578125,-0.0252838134765625
1772562208042085600,9.512085693359374,-0.7474517822265625,-0.3252105712890625,-0.0281829833984375
1772562208052067800,9.52206787109375,-0.6823883056640625,-0.3216705322265625,-0.0338287353515625
1772562208062050600,9.532050537109376,-0.6211395263671875,-0.3083038330078125,-0.048736572265625
1772562208072032800,9.54203271484375,-0.572601318359375,-0.2879638671875,-0.0640869140625
1772562208082015700,9.552015625,-0.536285400390625,-0.267547607421875,-0.0771484375
1772562208091998500,9.56199853515625,-0.5057220458984375,-0.2452850341796875,-0.0828399658203125
1772562208101980700,9.571980712890625,-0.46343994140625,-0.2170562744140625,-0.07183837890625
1772562208111963600,9.581963623046875,-0.412261962890625,-0.186004638671875,-0.0567626953125
1772562208121945600,9.591945556640624,-0.368927001953125,-0.1665191650390625,-0.0333709716796875
1772562208131928600,9.601928466796876,-0.3338775634765625,-0.161468505859375,0.0000152587890625
1772562208141910800,9.611910888671876,-0.30694580078125,-0.1631011962890625,0.0263214111328125
1772562208151893500,9.6218935546875,-0.289459228515625,-0.1754913330078125,0.0454254150390625
1772562208161876700,9.631876708984375,-0.277923583984375,-0.1944122314453125,0.0604095458984375
1772562208171858700,9.641858642578125,-0.2617950439453125,-0.2071380615234375,0.0722808837890625
1772562208181841700,9.651841552734375,-0.2433929443359375,-0.2173919677734375,0.080230712890625
1772562208191823600,9.66182373046875,-0.2333831787109375,-0.2280120849609375,0.08795166015625
1772562208201806800,9.671806884765624,-0.235626220703125,-0.2337799072265625,0.0992431640625
1772562208211788500,9.68178857421875,-0.2359161376953125,-0.2411346435546875,0.0933685302734375
1772562208221771800,9.691771728515626,-0.223419189453125,-0.240753173828125,0.0721588134765625
1772562208231754800,9.701754638671876,-0.2056427001953125,-0.2206268310546875,0.05572509765625
1772562208241736700,9.71173681640625,-0.1873931884765625,-0.191436767578125,0.05096435546875
1772562208251719700,9.7217197265625,-0.183074951171875,-0.160675048828125,0.0480194091796875
1772562208261701600,9.73170166015625,-0.1892852783203125,-0.13885498046875,0.0363311767578125
1772562208271684600,9.7416845703125,-0.1826019287109375,-0.1236572265625,0.02374267578125
1772562208281666800,9.751666748046874,-0.176239013671875,-0.113739013671875,0.0225982666015625
1772562208291649500,9.7616494140625,-0.176300048828125,-0.1062469482421875,0.01519775390625
1772562208301632800,9.7716328125,-0.1823272705078125,-0.0980224609375,0.0055084228515625
1772562208311614700,9.78161474609375,-0.2105255126953125,-0.1137542724609375,0.009979248046875
1772562208321597700,9.79159765625,-0.2617340087890625,-0.1466522216796875,0.0206146240234375
1772562208331579600,9.80157958984375,-0.323272705078125,-0.1956024169921875,0.0478057861328125
1772562208341562600,9.811562744140625,-0.375030517578125,-0.263214111328125,0.0915679931640625
1772562208351544600,9.821544677734375,-0.399810791015625,-0.3370513916015625,0.1192779541015625
1772562208361527800,9.83152783203125,-0.4220733642578125,-0.39923095703125,0.1349945068359375
1772562208371510800,9.8415107421875,-0.436370849609375,-0.46600341796875,0.1450653076171875
1772562208381492700,9.85149267578125,-0.44757080078125,-0.5251312255859375,0.135986328125
1772562208391475700,9.861475830078126,-0.537506103515625,-0.525726318359375,0.1167144775390625
1772562208401457700,9.871457763671875,-0.6898193359375,-0.517364501953125,0.110137939453125
1772562208411440600,9.881440673828125,-0.8014068603515625,-0.5729217529296875,0.1363525390625
1772562208421422600,9.891422607421875,-0.8309173583984375,-0.6628265380859375,0.179962158203125
1772562208431405800,9.90140576171875,-0.84063720703125,-0.7265472412109375,0.1963348388671875
1772562208441388500,9.911388427734375,-0.91326904296875,-0.747955322265625,0.21514892578125
1772562208451370800,9.921370849609374,-0.967926025390625,-0.753936767578125,0.215911865234375
1772562208461353700,9.931353759765624,-1.009552001953125,-0.7515411376953125,0.1799774169921875
1772562208471335700,9.941335693359376,-1.136932373046875,-0.7556610107421875,0.1617279052734375
1772562208481318700,9.951318603515626,-1.323516845703125,-0.811859130859375,0.155487060546875
1772562208491300600,9.961300537109375,-1.4339447021484375,-0.888397216796875,0.1359100341796875
1772562208501283600,9.97128369140625,-1.4801788330078125,-0.90301513671875,0.0900115966796875
1772562208511266800,9.981266845703125,-1.5424652099609375,-0.860595703125,0.0493011474609375
1772562208521248500,9.99124853515625,-1.55206298828125,-0.8091278076171875,0.0012054443359375
1772562208531231700,10.001231689453125,-1.52362060546875,-0.7780609130859375,-0.0551910400390625
1772562208541213700,10.011213623046874,-1.5668182373046875,-0.770233154296875,-0.0831146240234375
1772562208551196700,10.02119677734375,-1.6702423095703125,-0.7882537841796875,-0.0648345947265625
1772562208561178600,10.0311787109375,-1.79998779296875,-0.8220977783203125,-0.01300048828125
1772562208571161900,10.041161865234375,-1.8825225830078125,-0.8444061279296875,0.0262908935546875
1772562208581144600,10.05114453125,-1.9078521728515625,-0.861236572265625,0.03167724609375
1772562208591126800,10.061126708984375,-1.91217041015625,-0.8901824951171875,0.0018463134765625
1772562208601109800,10.07110986328125,-1.920440673828125,-0.915252685546875,-0.0274505615234375
1772562208611091700,10.081091796875,-1.9406585693359375,-0.9322357177734375,-0.042694091796875
1772562208621074700,10.09107470703125,-1.928466796875,-0.9383087158203125,-0.0650634765625
1772562208631057000,10.101056884765624,-1.913726806640625,-0.9246063232421875,-0.0986328125
1772562208641039600,10.11103955078125,-1.897216796875,-0.92236328125,-0.1156158447265625
1772562208651021800,10.121021728515625,-1.8436279296875,-0.9113922119140625,-0.091156005859375
1772562208661004800,10.1310048828125,-1.7710418701171875,-0.8899383544921875,-0.040008544921875
1772562208670987500,10.140987548828125,-1.6763458251953125,-0.874237060546875,0.01409912109375
1772562208680969700,10.1509697265625,-1.5796661376953125,-0.85479736328125,0.06353759765625
1772562208690952700,10.16095263671875,-1.489959716796875,-0.828887939453125,0.1020050048828125
1772562208700934700,10.1709345703125,-1.4140167236328125,-0.8000030517578125,0.1360931396484375
1772562208710917600,10.180917724609374,-1.3435821533203125,-0.77520751953125,0.1597900390625
1772562208720900900,10.19090087890625,-1.2570343017578125,-0.74041748046875,0.170318603515625
1772562208730882600,10.200882568359376,-1.1583099365234375,-0.6865386962890625,0.157073974609375
1772562208740865800,10.21086572265625,-1.0717010498046875,-0.6177215576171875,0.122589111328125
1772562208750847500,10.220847412109375,-1.0157928466796875,-0.559783935546875,0.0891876220703125
1772562208760830700,10.230830810546875,-0.9796905517578125,-0.5180816650390625,0.0489654541015625
1772562208770812700,10.240812744140625,-0.9339447021484375,-0.478790283203125,-0.0100250244140625
1772562208780795600,10.250795654296875,-0.8602142333984375,-0.4320526123046875,-0.0627899169921875
1772562208790778600,10.260778564453124,-0.7773590087890625,-0.3757476806640625,-0.0965118408203125
1772562208800760800,10.2707607421875,-0.697540283203125,-0.3277740478515625,-0.119384765625
1772562208810743600,10.28074365234375,-0.6106719970703125,-0.2882080078125,-0.122406005859375
1772562208820725800,10.290725830078125,-0.527740478515625,-0.2540740966796875,-0.0966339111328125
1772562208830708700,10.300708740234375,-0.4645538330078125,-0.23681640625,-0.0695037841796875
1772562208840694500,10.310694580078126,-0.4052886962890625,-0.2171478271484375,-0.04327392578125
1772562208850677500,10.320677490234376,-0.34124755859375,-0.194854736328125,-0.0120086669921875
1772562208860660200,10.33066015625,-0.2834014892578125,-0.173187255859375,0.0205535888671875
1772562208870642400,10.340642333984375,-0.2366180419921875,-0.1527252197265625,0.0438385009765625
1772562208880625400,10.35062548828125,-0.1991119384765625,-0.1384124755859375,0.0619964599609375
1772562208890607400,10.360607421875,-0.164764404296875,-0.137451171875,0.076751708984375
1772562208900590300,10.37059033203125,-0.132080078125,-0.15118408203125,0.094940185546875
1772562208910572500,10.380572509765624,-0.1057281494140625,-0.159881591796875,0.11334228515625
1772562208920555300,10.39055517578125,-0.0918121337890625,-0.1627044677734375,0.126373291015625
1772562208930538500,10.40053857421875,-0.083038330078125,-0.169891357421875,0.1175079345703125
1772562208940520400,10.4105205078125,-0.0806732177734375,-0.18096923828125,0.122589111328125
1772562208950503400,10.42050341796875,-0.0825653076171875,-0.200958251953125,0.1210784912109375
1772562208960485400,10.4304853515625,-0.0895538330078125,-0.22283935546875,0.111572265625
1772562208970468600,10.440468505859375,-0.1033477783203125,-0.2312774658203125,0.095184326171875
1772562208980450300,10.4504501953125,-0.115386962890625,-0.2264556884765625,0.0714569091796875
1772562208990433500,10.46043359375,-0.1262969970703125,-0.22528076171875,0.054718017578125
1772562209000416500,10.47041650390625,-0.1424713134765625,-0.2205810546875,0.047698974609375
1772562209010398500,10.4803984375,-0.1512908935546875,-0.2089385986328125,0.042755126953125
1772562209020381400,10.49038134765625,-0.1540374755859375,-0.1965484619140625,0.0360870361328125
1772562209030363400,10.50036328125,-0.1532135009765625,-0.18646240234375,0.0294189453125
1772562209040346400,10.510346435546875,-0.153472900390625,-0.1808319091796875,0.028167724609375
1772562209050328600,10.52032861328125,-0.1668548583984375,-0.1788177490234375,0.0215301513671875
1772562209060311300,10.530311279296875,-0.2078704833984375,-0.172821044921875,0.029693603515625
1772562209070293500,10.54029345703125,-0.2752227783203125,-0.177490234375,0.0572052001953125
1772562209080276500,10.5502763671875,-0.3174285888671875,-0.2169342041015625,0.080841064453125
1772562209090259200,10.56025927734375,-0.29681396484375,-0.2873382568359375,0.103485107421875
1772562209100241400,10.570241455078126,-0.2616729736328125,-0.339324951171875,0.136871337890625
1772562209110224400,10.580224365234375,-0.2928009033203125,-0.3624114990234375,0.1655731201171875
1772562209120206300,10.590206298828125,-0.38385009765625,-0.398651123046875,0.1775054931640625
1772562209130189300,10.600189208984375,-0.4763641357421875,-0.4795074462890625,0.1944732666015625
1772562209140172500,10.610172607421875,-0.6174163818359375,-0.6093292236328125,0.2572021484375
1772562209150154200,10.620154296875,-0.7947845458984375,-0.75726318359375,0.3384857177734375
1772562209160137500,10.630137451171874,-0.9532318115234375,-0.853851318359375,0.3862152099609375
1772562209170119400,10.640119384765624,-1.064361572265625,-0.877288818359375,0.3808746337890625
1772562209180102400,10.650102294921876,-1.1669769287109375,-0.8465118408203125,0.3161468505859375
1772562209190084400,10.66008447265625,-1.2828216552734375,-0.7955474853515625,0.213531494140625
1772562209200067600,10.670067626953125,-1.4011077880859375,-0.755767822265625,0.0868072509765625
1772562209210049300,10.68004931640625,-1.505401611328125,-0.71478271484375,-0.0430755615234375
1772562209220032500,10.690032470703125,-1.5802154541015625,-0.65838623046875,-0.13824462890625
1772562209230015500,10.700015380859375,-1.66595458984375,-0.6144561767578125,-0.159637451171875
1772562209239997400,10.70999755859375,-1.7568817138671875,-0.6073760986328125,-0.110504150390625
1772562209249980400,10.71998046875,-1.770965576171875,-0.6363677978515625,-0.0184173583984375
1772562209259962400,10.72996240234375,-1.7177734375,-0.6710968017578125,0.0550689697265625
1772562209269945300,10.7399453125,-1.6590576171875,-0.6665802001953125,0.110443115234375
1772562209279927600,10.749927490234375,-1.6260223388671875,-0.629119873046875,0.149566650390625
1772562209289910300,10.75991015625,-1.5952911376953125,-0.594818115234375,0.1694183349609375
1772562209299893500,10.7698935546875,-1.565887451171875,-0.5737762451171875,0.1756744384765625
1772562209309875500,10.77987548828125,-1.552520751953125,-0.564178466796875,0.1831512451171875
1772562209319858400,10.7898583984375,-1.523590087890625,-0.570068359375,0.1842193603515625
1772562209329840400,10.79984033203125,-1.4605865478515625,-0.563323974609375,0.1729736328125
1772562209339823400,10.8098232421875,-1.4044647216796875,-0.5390167236328125,0.1690216064453125
1772562209349806300,10.819806396484376,-1.35906982421875,-0.5278472900390625,0.1600341796875
1772562209359788500,10.82978857421875,-1.3153533935546875,-0.52618408203125,0.149505615234375
1772562209369771500,10.839771484375,-1.27655029296875,-0.517822265625,0.147186279296875
1772562209379753500,10.84975341796875,-1.2301177978515625,-0.509490966796875,0.15826416015625
1772562209389736400,10.859736328125,-1.1832275390625,-0.5121917724609375,0.16839599609375
1772562209399718400,10.869718505859375,-1.15185546875,-0.51324462890625,0.173675537109375
1772562209409701400,10.879701416015624,-1.1242828369140625,-0.503814697265625,0.1657562255859375
1772562209419684400,10.889684326171874,-1.084259033203125,-0.482757568359375,0.1505889892578125
1772562209429666600,10.89966650390625,-1.0329437255859375,-0.461395263671875,0.1261444091796875
1772562209439649300,10.909649169921876,-1.0062408447265625,-0.44097900390625,0.1074981689453125
1772562209449631500,10.919631591796875,-0.98553466796875,-0.4293365478515625,0.097625732421875
1772562209459614500,10.929614501953125,-0.8840789794921875,-0.40899658203125,0.12518310546875
1772562209469596400,10.939596435546875,-0.94232177734375,-0.39208984375,0.16448974609375
1772562209479579400,10.949579345703125,-0.9144134521484375,-0.3935394287109375,0.1505584716796875
1772562209489562600,10.959562744140625,-0.8691864013671875,-0.38037109375,0.13262939453125
1772562209499544300,10.96954443359375,-0.8759613037109375,-0.3711395263671875,0.12579345703125
1772562209509527600,10.979527587890624,-0.887420654296875,-0.385955810546875,0.124237060546875
1772562209519509200,10.98950927734375,-0.8923797607421875,-0.3974456787109375,0.1181793212890625
1772562209529492500,10.999492431640626,-0.8767547607421875,-0.375335693359375,0.129119873046875
1772562209539474400,11.009474365234375,-0.8295135498046875,-0.350738525390625,0.14068603515625
1772562209549457400,11.01945751953125,-0.735748291015625,-0.3333740234375,0.1401824951171875
1772562209559440400,11.0294404296875,-0.7406005859375,-0.2993927001953125,0.1523895263671875
