time,seconds_elapsed,z,y,x
1772562198617296400,0.08729638671875,0.10893851362466811,0.08241437157541513,-0.06006521365586668
1772562198627279600,0.097279541015625,-0.08432137424051761,0.010730652850866317,-0.06370378935392945
1772562198637261300,0.10726123046875,-0.21084113726317882,-0.03680968148112297,-0.07665485820062458
1772562198647244500,0.11724462890625,-0.22200316726863384,-0.06673574092835187,-0.06219513835664838
1772562198657226500,0.1272265625,-0.15958149014711379,-0.06052870298177004,-0.06319938349574804
1772562198667209700,0.137209716796875,-0.09384265130162238,-0.040570787580311296,-0.06293821180891246
1772562198677191400,0.14719140625,-0.07582184144258498,-0.024147768306732178,-0.021558665128983558
1772562198687174700,0.157174560546875,-0.03566226501166821,-0.006496084021031856,0.028530367305129766
1772562198697157600,0.16715771484375,-0.04382277511358261,0.01345715520530939,0.0886472746156156
1772562198707139600,0.1771396484375,-0.0496224013030529,0.02411006664484739,0.13808891252428293
1772562198717122600,0.18712255859375,-0.04941781864166259,0.037002281443774696,0.12499770455453545
1772562198727104500,0.1971044921875,0.0012999766826629637,0.04257803574949503,0.0786411001143977
1772562198737087500,0.20708740234375,0.037948914644122124,0.04203998335003853,0.04925170482713729
1772562198747069700,0.217069580078125,0.04065466647148132,0.05006576115638017,0.039404374149441715
1772562198757052400,0.227052490234375,0.016193594431877137,0.04478577492684126,0.025346513104625046
1772562198767034600,0.23703466796875,0.004015665382146835,0.0436944725587964,0.008350735444389284
1772562198777017600,0.247017578125,0.016220482438802718,0.053385260967910284,0.008060812587104737
1772562198787000300,0.257000244140625,0.00042903906702995297,0.07269815646409988,0.027223741685971616
1772562198796982500,0.266982421875,-0.03841302502453327,0.09412409859150647,-0.01773344428502023
1772562198806965500,0.276965576171875,-0.15768647018074988,0.08892828351408243,-0.004133008151501417
1772562198816947500,0.286947509765625,-0.255697931599617,0.10419541075080632,-0.0033582609193399545
1772562198826930400,0.296930419921875,-0.29507775582969187,0.12256956409215926,0.03924527459759265
1772562198836913000,0.306912841796875,-0.312297186177969,0.14181407052725553,0.09462061340417713
1772562198846895600,0.3168955078125,-0.2418424247264862,0.16582301488518714,0.08506875854171812
1772562198856877800,0.3268779296875,-0.136628484582901,0.20228052192777393,0.11134999521318822
1772562198866860800,0.33686083984375,-0.12192659001350402,0.23794804763644933,0.14959142653048038
1772562198876843800,0.34684375,-0.13924363551735877,0.22779899406582116,0.23020623787064104
1772562198886825700,0.35682568359375,-0.1556809755772352,0.18851736951321363,0.2516048535997048
1772562198896809000,0.36680908203125,-0.1340139181703329,0.18627455902248619,0.1409206653514877
1772562198906790700,0.376790771484375,-0.05520692343711853,0.20896540651917456,-0.015574512685462831
1772562198916774000,0.38677392578125,0.012315876215696334,0.23353666093498468,-0.15005170098599047
1772562198926755600,0.396755615234375,0.08016776169240475,0.3203527746006846,-0.1742500304361805
1772562198936738800,0.40673876953125,0.23313538665771483,0.32867811987549067,-0.19943050279151647
1772562198946721800,0.4167216796875,0.4460749575048685,0.18114800978899,-0.23110015450306234
1772562198956703700,0.426703857421875,0.3518903608977794,0.2648353239096701,-0.2854762166066095
1772562198966686700,0.436686767578125,0.39695699859261513,0.28463205740004777,-0.21753281692154705
1772562198976669000,0.4466689453125,0.3109118692994118,0.17723288217186928,-0.17389895197618752
1772562198986651600,0.456651611328125,0.32331250118911264,0.15580226386934518,-0.11202537372410297
1772562198996633900,0.4666337890625,0.257292507314682,0.2607946702167392,0.1313735231967643
1772562199006616800,0.476616943359375,0.35269758562743664,0.4632736373260617,0.3801761057920754
1772562199016598800,0.486598876953125,0.3703337800830602,0.4535363794267177,0.32320980799961835
1772562199026581800,0.496581787109375,0.19484043505489826,0.3442790091112256,0.34692850070670245
1772562199036564700,0.506564697265625,0.1959504421234131,0.27263153074383734,0.27866496568918225
1772562199046546700,0.516546630859375,0.2730173151910305,0.2714998963654041,0.0028695640869438647
1772562199056529700,0.52652978515625,0.25833120271265503,0.3298354732170701,-0.20948723843619227
1772562199066512000,0.536511962890625,0.13415069629251955,0.39487317805588246,-0.46316002088375385
1772562199076494600,0.54649462890625,-0.17662497940659522,0.41742110995054243,-0.5916451291626319
1772562199086476800,0.556476806640625,-0.43358840089738365,0.301200330363214,-0.578644923944585
1772562199096459800,0.566459716796875,-0.3081038261413574,0.04522738121449947,-0.5340645719293504
1772562199106441700,0.576441650390625,-0.14384908348619938,-0.06332037952691316,-0.5105735139656812
1772562199116424700,0.5864248046875,0.010762217032909393,0.015628361764550208,-0.48966048979647453
1772562199126408000,0.596407958984375,0.03534194701611996,0.04098024516403675,-0.49318091900758443
1772562199136389600,0.6063896484375,-0.02428863808214664,-0.032523966985940934,-0.5094091828940436
1772562199146372900,0.616372802734375,-0.07092179444134235,-0.09487374791502952,-0.5340016627609729
1772562199156354600,0.6263544921875,0.005061959564685821,-0.08115355785936117,-0.5815940926063805
1772562199166337800,0.636337890625,0.17149813791215418,-0.023356033407151696,-0.6150153006929904
1772562199176319700,0.64631982421875,0.4252262307435274,0.11137217051237822,-0.6424488857373595
1772562199186302700,0.656302734375,0.5059072026550769,0.3189031603142619,-0.6463414361964911
1772562199196285700,0.66628564453125,0.4418038560569286,0.47396746529787775,-0.6037384852014481
1772562199206268000,0.676267822265625,0.3149316263347864,0.4894543727651238,-0.547921722770296
1772562199216250600,0.686250732421875,0.2456365563124418,0.42296471555233,-0.5306765003936365
1772562199226232800,0.69623291015625,0.26980653645098207,0.32325843291431666,-0.5019353033494204
1772562199236215800,0.7062158203125,0.14941490091979504,0.23845541263669728,-0.41151853484325107
1772562199246197800,0.71619775390625,-0.26508418410420415,0.14488514853566883,-0.35261622748691585
1772562199256180700,0.7261806640625,-0.5555173289984464,-0.030632454150915145,-0.26656733533404764
1772562199266163000,0.736162841796875,-0.9592506898581981,-0.16305179660618305,-0.21575692982282488
1772562199276145700,0.746145751953125,-1.1660486892104147,-0.2042015531182289,-0.18983561250492928
1772562199286128600,0.756128662109375,-0.8295306694895028,-0.12713789492100477,-0.20581622177325187
1772562199296110800,0.76611083984375,-0.8123200069695711,-0.012775894942879677,-0.2290461445827037
1772562199306093600,0.776093505859375,-1.0038280827313661,0.062084992513060565,-0.052270066267624496
1772562199316075800,0.78607568359375,-0.38290859949588774,0.12869067732095718,-0.23707440660707652
1772562199326058800,0.796058837890625,-0.8452204060524702,0.044492783329635854,-0.4768552226286381
1772562199336040700,0.806040771484375,-0.7822387569606304,0.029776567973941563,-0.5123587899472564
1772562199346023700,0.816023681640625,-0.5578454796850681,-0.013260317458957433,-0.6581758855707943
1772562199356005600,0.826005615234375,-0.4719190083354711,-0.08769479619637131,-0.6039428486671299
1772562199365988600,0.835988525390625,-0.4295645522087812,-0.1501904153369367,-0.49159869131743905
1772562199375971800,0.845971923828125,-0.3483990116506815,-0.20246610762774944,-0.4100764462761581
1772562199385953800,0.855953857421875,-0.24146423906385897,-0.23832827912569043,-0.4216949878774583
1772562199395936800,0.865936767578125,-0.07666004583239555,-0.20629998670220373,-0.4235650195330381
1772562199405918700,0.875918701171875,0.012687632137537002,-0.2072353678561747,-0.34252412826791406
1772562199415901700,0.885901611328125,-0.08102817791402339,-0.2481410864792764,-0.26389862758144733
1772562199425883600,0.895883544921875,-0.2607978850871324,-0.25523995869904753,-0.32503333363234993
1772562199435867000,0.905866943359375,-0.3714946405559778,-0.20935645166337488,-0.5008133866474032
1772562199445849600,0.915849609375,-0.468198526507616,-0.0992076854661107,-0.6401078755691647
1772562199455831800,0.925831787109375,-0.5356266336143016,-0.04775836099684238,-0.7275744159676134
1772562199465814800,0.935814697265625,-0.5562637634515762,-0.06751520086824894,-0.6403831853792071
1772562199475796700,0.945796630859375,-0.5082990662276744,-0.09542699788361787,-0.5514544634737074
1772562199485779700,0.95577978515625,-0.33510698387920856,-0.08469210724905132,-0.49645066139325494
1772562199495762000,0.965761962890625,-0.3148141374349594,-0.020258651913702488,-0.3415089598760009
1772562199505744600,0.97574462890625,-0.27244214565157887,-0.0008903729684650898,-0.2879707003034651
1772562199515726800,0.985726806640625,-0.1845896746754646,0.0038351942487061023,-0.34091377046182747
1772562199525709800,0.995709716796875,-0.13578151236474514,0.024707740277051925,-0.3629502457030117
1772562199535692800,1.00569287109375,-0.037053427109122274,0.06156301446557045,-0.39890491778999565
1772562199545674800,1.0156748046875,0.03334405119717121,0.08438567164838313,-0.323061010646075
1772562199555658000,1.025657958984375,0.04200491203665733,0.10411883838325739,-0.252795049764961
1772562199565639700,1.0356396484375,0.08158055109977722,0.11864976029992103,-0.16861776017025112
1772562199575623000,1.045622802734375,0.04336158734261989,0.0561383590683341,0.005086071092635393
1772562199585604600,1.0556044921875,-0.2636690566092729,0.005454173752665519,0.14458426589295267
1772562199595587800,1.065587890625,-0.36460488104224203,0.04034428534805774,0.09541647648960351
1772562199605569800,1.07556982421875,-0.21259470293223856,0.17492548201233146,-0.003323153073340654
1772562199615552800,1.085552734375,-0.11584580879509448,0.28819851770997046,-0.004452157103270292
1772562199625535700,1.09553564453125,-0.053793549507856364,0.36361265513449903,-0.04547200362533331
1772562199635518000,1.10551806640625,-0.030177111598849296,0.4118606993444264,-0.12411065605431794
1772562199645500700,1.115500732421875,-0.054310266858339305,0.4031871251538396,-0.23561712047085165
1772562199655483000,1.12548291015625,-0.03208206843733787,0.37000937043428417,-0.3483884902566671
1772562199665465900,1.1354658203125,-0.05351590161025524,0.3792380942896008,-0.43925563287883995
1772562199675447800,1.14544775390625,-0.06407412050366401,0.391862013541162,-0.521279397701472
1772562199685430800,1.1554306640625,0.05650690011978149,0.42927082995921373,-0.6136641052797437
1772562199695413800,1.165413818359375,0.183798232036829,0.4838619595855474,-0.6583661474458873
1772562199705395700,1.175395751953125,0.22773265083134173,0.5521864310100675,-0.6945796165995299
1772562199715378700,1.185378662109375,0.3031371436446905,0.5727383667819201,-0.6789315272212028
1772562199725361000,1.19536083984375,0.3098176443219185,0.5066235342308879,-0.5740839361719787
1772562199735343600,1.205343505859375,0.3552291499316692,0.42730040666908026,-0.5005009596973657
1772562199745325800,1.215325927734375,0.3776782976269722,0.3669159344635904,-0.4440395061545074
1772562199755308800,1.225308837890625,0.38027591290473933,0.2937960454560816,-0.4081147908143699
1772562199765290800,1.235290771484375,0.43058863455951213,0.28287556912153955,-0.46037864653691646
1772562199775273700,1.245273681640625,0.3578922316610813,0.3479435229681432,-0.5070734699554741
1772562199785257000,1.255257080078125,0.2966957124203443,0.5564918731190264,-0.5629169377304614
1772562199795238700,1.26523876953125,0.24270810164511203,0.7254927873879671,-0.5877823527872562
1772562199805222000,1.275221923828125,0.14634031578004358,0.6825538093715906,-0.6850662305839359
1772562199815203600,1.28520361328125,0.12649638214707373,0.6484972259908914,-0.7708833963401616
1772562199825186800,1.295186767578125,0.03267418911159038,0.6148954006403684,-0.7900304337501526
1772562199835168500,1.30516845703125,-0.023670213922858237,0.6263067292317748,-0.862953046619892
1772562199845151500,1.3151513671875,-0.027072131320834157,0.6249928701542318,-0.7941812698192894
1772562199855134500,1.325134521484375,-0.13638707704246045,0.49566228749454017,-0.6911930429011582
1772562199865116700,1.33511669921875,-0.18874971696436404,0.4253343672931194,-0.6441263174302876
1772562199875099400,1.345099365234375,-0.23517887518405914,0.4449059137254953,-0.5912779398180544
1772562199885081600,1.35508154296875,-0.2617266903698444,0.42732407980561254,-0.5313920647844672
1772562199895064600,1.365064697265625,-0.19589608158767222,0.40865737325847146,-0.5113182679183781
1772562199905046500,1.375046630859375,-0.219093417301774,0.38417087451666593,-0.4374772250294685
1772562199915029500,1.385029541015625,-0.25799510262608527,0.34197526221349833,-0.349656902757287
1772562199925011500,1.395011474609375,-0.27934534916877746,0.3354686567984521,-0.20284970011785625
1772562199934994400,1.404994384765625,-0.33689328277409075,0.36262013696581125,-0.13124927576258777
1772562199944977400,1.414977294921875,-0.36238019073009486,0.4600925230719149,-0.22240517219826578
1772562199954959400,1.42495947265625,-0.4701853164106607,0.5883281501017511,-0.23313933218047023
1772562199964942300,1.4349423828125,-0.6225052911221981,0.5803877124913036,-0.24876316390037534
1772562199974924500,1.444924560546875,-0.5947960309416055,0.5297209167018533,-0.2926828235171735
1772562199984907300,1.4549072265625,-0.5651432354778051,0.4745218843102455,-0.288557414150238
1772562199994889500,1.464889404296875,-0.43292146142125126,0.3950159475274384,-0.27660233407095075
1772562200004872400,1.47487255859375,-0.20215514198243617,0.29140228218734265,-0.1640377389036119
1772562200014855700,1.484855712890625,-0.028439912542700767,0.16850070966184139,-0.0007892506815493106
1772562200024837400,1.49483740234375,0.1524649361401796,0.05032236626595259,0.13239201605692505
1772562200034820600,1.504820556640625,0.4117547547519207,-0.06365867157056927,0.22470424292087554
1772562200044802300,1.51480224609375,0.6079267306715249,-0.09878639131411909,0.3703773269638419
1772562200054785500,1.52478564453125,0.6790560303837061,-0.13859963852539658,0.584920972006768
1772562200064767500,1.534767578125,0.6540507684648037,-0.17420681234896182,0.7723916089460253
1772562200074750500,1.54475048828125,0.6205056417375803,-0.20332783902361987,0.9521065171919763
1772562200084732400,1.554732421875,0.5518430243998765,-0.25674451804310083,1.0337051884703337
1772562200094715600,1.564715576171875,0.47746027584969997,-0.2102240282781422,1.0466391965843735
1772562200104698400,1.574698486328125,0.39045477709174153,-0.11910276476442813,1.0137592557676136
1772562200114680600,1.5846806640625,0.3571820375651121,-0.013296265555173157,0.9129233845777809
1772562200124663600,1.59466357421875,0.2078185745716095,0.06506006280109286,0.8251135106343775
1772562200134645500,1.6046455078125,0.04060615115463734,0.10411226251199841,0.7551789005994797
1772562200144628500,1.61462841796875,-0.10226619625389576,0.10314590169787406,0.8234015190847217
1772562200154610400,1.6246103515625,-0.2332370934665203,0.06841229583844542,1.0076922108136117
1772562200164593400,1.634593505859375,-0.18879823228120804,0.030459435671567916,1.1098738705892115
1772562200174575600,1.64457568359375,-0.1214478665858507,-0.03283434810936451,1.2589290713511407
1772562200184558300,1.654558349609375,-0.1390238552868366,-0.14276260342374444,1.4424126844808458
1772562200194541600,1.66454150390625,-0.04534545463621616,-0.20997546034455297,1.611611605539918
1772562200204523500,1.6745234375,-0.08637129250764847,-0.23181860497072337,1.7435443335220218
1772562200214506500,1.684506591796875,-0.13729191692769527,-0.2499656715579331,1.7384646921701727
1772562200224488400,1.694488525390625,-0.10797346798479557,-0.18409838402718304,1.5788833481535314
1772562200234471700,1.7044716796875,-0.11028583658039569,-0.0991968718111515,1.354968940436095
1772562200244453400,1.714453369140625,-0.14613047242164612,-0.07420724585279823,1.2030426412172615
1772562200254436600,1.7244365234375,-0.25573884813189507,-0.10969634625464678,1.140294654750824
1772562200264419600,1.734419677734375,-0.30808161430954933,-0.15426643260419368,1.1394828999765216
1772562200274401500,1.744401611328125,-0.3537614154666662,-0.18311302625164388,1.0897822458054869
1772562200284384500,1.754384521484375,-0.4283066611021757,-0.21509455692395565,1.046737396261841
1772562200294366700,1.76436669921875,-0.4314309306025505,-0.2254433708503842,1.01473811073713
1772562200304349400,1.774349365234375,-0.347788186275959,-0.24318200276717541,0.9169340815238654
1772562200314331600,1.78433154296875,-0.2745049234002828,-0.339101021951437,0.8572790926367044
1772562200324314600,1.794314697265625,-0.16054770483076572,-0.31863793350681663,0.8101127061836421
1772562200334296600,1.804296630859375,-0.060303954315185544,-0.2412092413894832,0.8232958667531609
1772562200344279600,1.814279541015625,-0.03725391811728477,-0.21022768153995275,0.8293727755140513
1772562200354262500,1.824262451171875,-0.008749708166718483,-0.23635040318146347,0.8081758198369294
1772562200364244500,1.834244384765625,0.01021861167550087,-0.2374469662465155,0.7675771213363856
1772562200374227500,1.8442275390625,0.037920273071527476,-0.18655702922567724,0.673432199152559
1772562200384209400,1.85420947265625,0.07351297997832298,-0.17250424621477722,0.5950009789291769
1772562200394192400,1.8641923828125,0.05181085125803947,-0.1957217479340732,0.5523011068983004
1772562200404174600,1.874174560546875,-0.03830371943116188,-0.20365824002176522,0.5608282948881388
1772562200414157300,1.8841572265625,-0.12811784586906433,-0.2563205935426056,0.570384387534298
1772562200424140500,1.894140625,-0.11546060886979102,-0.31774975249543785,0.527509706925787
1772562200434122500,1.90412255859375,-0.13280045072734356,-0.3744090666979551,0.5009518087374046
1772562200444105700,1.914105712890625,-0.23634265826642512,-0.40997371655404563,0.4996019284984097
1772562200454087400,1.92408740234375,-0.3587508943170309,-0.40856560332179065,0.5615383063210174
1772562200464070700,1.934070556640625,-0.4250999740153551,-0.41312984249740836,0.6413173244241624
1772562200474052400,1.94405224609375,-0.3475608072608709,-0.43077465865090486,0.6486565812710672
1772562200484035600,1.95403564453125,-0.24798691883087157,-0.43360476751029486,0.5839144253127276
1772562200494017500,1.964017578125,-0.15694704999029635,-0.39545433894470333,0.49330461845248935
1772562200504000500,1.97400048828125,-0.0808230107307434,-0.32353651920333504,0.39181598244234916
1772562200513983500,1.9839833984375,-0.06218611479997634,-0.26766893990039825,0.3224204842528328
1772562200523965700,1.993965576171875,-0.1213829846560955,-0.2530092770375311,0.34402905293814834
1772562200533948400,2.003948486328125,-0.11251111141443251,-0.2816160705797374,0.3713584834882989
1772562200543930600,2.0139306640625,-0.017764789271354674,-0.26813188123703,0.4024599799230695
1772562200553913600,2.02391357421875,-0.06402502066493033,-0.24518910480588674,0.46816287067234513
1772562200563895600,2.0338955078125,-0.0641314036488533,-0.24152897486314176,0.4629572283206507
1772562200573878500,2.04387841796875,-0.01915185971558094,-0.21966887910217045,0.4151410361893475
1772562200583860500,2.053860595703125,0.028654432076215743,-0.19162702596634626,0.35616580972727385
1772562200593843500,2.063843505859375,0.0429559291511774,-0.15520502862855792,0.2721041093362495
1772562200603826400,2.073826416015625,0.021730185770988463,-0.11122297130003571,0.2302161747427657
1772562200613808400,2.083808349609375,0.09973054029643535,-0.10608970006480813,0.24057835960742086
1772562200623791400,2.093791259765625,0.05902618946433067,-0.08558452604413032,0.2551652860276401
1772562200633773600,2.103773681640625,-0.16761223638951778,-0.07371288646459578,0.26174610745636745
1772562200643756300,2.11375634765625,-0.29078210446238517,-0.06793254949748516,0.307192191189155
1772562200653738500,2.123738525390625,-0.17547464032769203,-0.09213643190562724,0.28036846340512855
1772562200663721500,2.133721435546875,-0.05332885460555553,-0.056248249183595174,0.17535044769244268
1772562200673704700,2.14370458984375,0.03244213392138481,0.00638546325340867,0.07951653124205768
1772562200683686400,2.153686279296875,0.2648556360453367,0.04474281256794929,0.006181122620613314
1772562200693669600,2.163669677734375,0.5983002396702766,0.0858531138524413,0.015059087676345369
1772562200703651300,2.1736513671875,0.8768716818571091,0.11707505832910536,0.0805522674979642
1772562200713634600,2.183634521484375,1.1120932271391153,0.11815803126022219,0.1170009062475059
1772562200723616500,2.193616455078125,1.3534861545324324,0.10211100569218397,0.13835944569450803
1772562200733599500,2.203599609375,1.4496733231335877,0.05943199378624558,0.2650183157937601
1772562200743581400,2.21358154296875,1.3090385255187749,-0.03259206378608942,0.37387682298477737
1772562200753564700,2.223564697265625,1.2642045275360345,-0.052561085103452206,0.3597049801714718
1772562200763547400,2.23354736328125,1.302746147376299,-0.007501607801765203,0.32019615926686673
1772562200773529600,2.243529541015625,1.2517302458882331,0.04054404570385813,0.3399714846430346
1772562200783512600,2.2535126953125,1.1111755277723074,0.10497677038684487,0.34505755573567
1772562200793494500,2.26349462890625,0.8869657903701067,0.11301204667389392,0.31874607005640865
1772562200803477500,2.2734775390625,0.7904080348908901,0.0697312694825232,0.2457331485547125
1772562200813459500,2.28345947265625,0.7619634461730718,0.06096139531061053,0.17880762067530304
1772562200823442400,2.2934423828125,0.5669377176791429,0.034089608867466446,0.21025011256746948
1772562200833425400,2.30342529296875,0.34776363635659213,-0.07702829462289809,0.2803423608494922
1772562200843407600,2.31340771484375,0.28518238475918767,-0.17562603149712086,0.32672103099096567
1772562200853390300,2.323390380859375,0.31085166354477406,-0.20501476919725536,0.29754484006296844
1772562200863372500,2.33337255859375,0.28809797994494435,-0.22513635072782634,0.27490795124322176
1772562200873355500,2.34335546875,0.2124146701902151,-0.2758838105380535,0.28355200707837935
1772562200883337500,2.35333740234375,0.086112933832407,-0.36936975735649463,0.3389157285124063
1772562200893320400,2.363320556640625,-0.000772153416275978,-0.44566856866106386,0.3851106395848095
1772562200903302400,2.373302490234375,0.08482815471887588,-0.44381256553083653,0.3715284697603434
1772562200913285400,2.383285400390625,0.15061492435932158,-0.32959435793757436,0.331363486501947
1772562200923268600,2.3932685546875,0.07903963444530963,-0.20908421059325336,0.29023309227749705
1772562200933250600,2.40325048828125,0.0041489363729953765,-0.18024010116383432,0.20703896850124
1772562200943233500,2.413233642578125,0.046211716076731676,-0.14472469727694987,0.11013700269423425
1772562200953215500,2.423215576171875,0.03906359788775444,-0.13359350080117582,0.011508066964149475
1772562200963198700,2.43319873046875,0.015840543210506437,-0.1257601768270135,-0.006465981143712997
1772562200973180400,2.443180419921875,-0.04609539622068405,-0.0857180892959237,-0.02096650792211294
1772562200983163600,2.45316357421875,-0.07738309940993786,-0.06685834439471364,-0.07850976535230875
1772562200993146600,2.463146728515625,0.0483890601158142,-0.049356005451828236,-0.1363517865333706
1772562201003128600,2.473128662109375,0.0859083511710167,-0.0069528878778219215,-0.21050379506759345
1772562201013111600,2.483111572265625,0.1283276892274618,0.015128887809813021,-0.3516396740723401
1772562201023093500,2.493093505859375,0.2524047352731228,0.016125132305547595,-0.32454365041926503
1772562201033076500,2.503076416015625,0.1006955859363079,-0.07439977275021374,-0.03974836528152227
1772562201043058700,2.51305859375,-0.1811708061426878,-0.2916059880658984,0.2737242944166064
1772562201053041400,2.52304150390625,-0.052336920958757395,-0.4688862165108323,0.40909876035042103
1772562201063023600,2.533023681640625,0.03388590298891067,-0.474997904324159,0.4618471847195178
1772562201073006600,2.543006591796875,0.022016016975045204,-0.40085926672816274,0.443742715165019
1772562201082989600,2.552989501953125,0.22538637996613978,-0.3423287518262863,0.33735103647895154
1772562201092971500,2.562971435546875,0.39290333928763865,-0.3205812495943159,0.1871865593008697
1772562201102954800,2.572954833984375,0.37041269053816794,-0.3276957577746361,0.025790128686279057
1772562201112936400,2.5829365234375,0.31462475234270093,-0.36694888688512145,-0.0786046040289104
1772562201122919700,2.592919677734375,0.29354455491304393,-0.41859402618743474,-0.1653798742275685
1772562201132901400,2.6029013671875,0.29025194310843944,-0.47458632784858346,-0.2659486189138144
1772562201142884600,2.612884521484375,0.32503333363234993,-0.5430168169308454,-0.19275778356194495
1772562201152866600,2.622866455078125,0.43855449887216086,-0.5696750336885452,0.13844693218171597
1772562201162849800,2.632849853515625,0.24631460170447825,-0.750170717048645,0.15623334876298903
1772562201172832500,2.64283251953125,0.4114198237091303,-0.9146553229369223,-0.008765928649157284
1772562201182814700,2.652814697265625,0.4849515083879232,-1.0018650390300898,-0.056232247896865005
1772562201192797700,2.662797607421875,0.5515361504077911,-1.0910684862237423,-0.15882789530083535
1772562201202779600,2.672779541015625,0.6328606809198856,-1.144228998525068,-0.20914616991356014
1772562201212762600,2.6827626953125,0.6307756913393735,-1.0241131111953408,-0.23217662462815641
1772562201222744600,2.69274462890625,0.5294073207080364,-1.017502680079639,-0.2711282135087997
1772562201232727600,2.7027275390625,0.47268531653285023,-1.2298935310028494,-0.3043585021331906
1772562201242710500,2.71271044921875,0.3546370292574167,-1.3683425090111792,-0.37404469036497173
1772562201252692500,2.7226923828125,0.19992986714839933,-1.3526672393649817,-0.46755876729935403
1772562201262675500,2.732675537109375,0.033334698846936225,-1.282448917017877,-0.48741577960960564
1772562201272657700,2.74265771484375,0.011185995402932166,-1.252579994585365,-0.5244726407848298
1772562201282640400,2.752640380859375,0.30603228056430815,-1.243962534496188,-0.5457082479719072
1772562201292622600,2.76262255859375,0.5576005650132895,-1.2146768918443471,-0.5935808829981833
1772562201302605600,2.77260546875,0.8413309973984956,-1.081637152468413,-0.5921035039220005
1772562201312587500,2.78258740234375,1.163179855775833,-0.9257627732109278,-0.6247449598077685
1772562201322570500,2.792570556640625,1.417110193181038,-0.7314341601356864,-0.780163046665117
1772562201332553700,2.8025537109375,1.659271766859293,-0.486938663617149,-0.774946773321554
1772562201342535400,2.812535400390625,1.897956604337692,-0.27408699024915695,-0.7870581399410963
1772562201352518700,2.8225185546875,2.1012942341029643,-0.11628931477889418,-0.7702468520022928
1772562201362500600,2.83250048828125,2.345783958467841,-0.003398702527582645,-0.7672608219288289
1772562201372483600,2.842483642578125,2.5032588317245246,0.08801759840995073,-0.7959818164352327
1772562201382465500,2.852465576171875,2.566104287216067,0.20827625521123408,-0.7591673857137561
1772562201392448800,2.86244873046875,2.5005413894593715,0.3064617580227554,-0.6569320229895412
1772562201402431500,2.872431396484375,2.0549019007623195,0.3347610930509865,-0.5181576854843646
1772562201412413700,2.88241357421875,1.3624661643236875,0.27397753852531315,-0.2998399652628228
1772562201422396700,2.892396728515625,0.6655138272434473,0.10532149217128753,-0.008125895446259529
1772562201432378600,2.902378662109375,-0.1526578283637762,-0.11472557259351014,0.21021666695559396
1772562201442361600,2.912361572265625,-1.0316033938854932,-0.31683044569343327,0.17748784331362694
1772562201452343600,2.922343505859375,-1.4858359388828277,-0.37547786497324703,0.07804287849292159
1772562201462326500,2.932326416015625,-2.0452602121919394,-0.27738077109754083,0.0329334474025527
1772562201472308700,2.942308837890625,-2.8463761035799977,-0.18058745329678058,-0.2116325251028873
1772562201482291500,2.95229150390625,-3.4799504857271906,-0.14874416205137966,-0.7080811954684555
1772562201492274400,2.9622744140625,-3.9325615670025345,-0.11301964545845984,-1.1468795130338518
1772562201502256600,2.972256591796875,-4.945248663493991,-0.2051493553623557,-1.3248922204717992
1772562201512239400,2.9822392578125,-5.681041311100125,-0.4699959313184023,-1.307107119064778
1772562201522221600,2.9922216796875,-5.813002972915768,-0.5628565858453511,-1.1553208859037607
1772562201532204500,3.00220458984375,-6.028798517715931,-0.42696985954046246,-0.9268919964365661
1772562201542186500,3.0121865234375,-6.189457281705737,-0.3351324105814099,-0.710609983293712
1772562201552169500,3.02216943359375,-6.352232599458098,-0.45741760477423665,-0.5325254527285694
1772562201562152700,3.032152587890625,-6.565237636756897,-0.6451847404420376,-0.28159729281403123
1772562201572134400,3.042134521484375,-7.15957189540565,-0.7273489366486668,-0.005714989246474579
1772562201582117600,3.05211767578125,-7.583009489166736,-0.6685843207299709,0.2792664204473607
1772562201592099600,3.062099609375,-7.933423932293057,-0.500597405809164,0.38456856859736144
1772562201602082600,3.07208251953125,-8.423954117596148,-0.3698813601404428,0.14356138911861926
1772562201612064500,3.082064453125,-8.154576035690306,-0.36298546314686536,-0.19547760044727475
1772562201622047700,3.0920478515625,-7.65678141234219,-0.181328919313848,-0.3208507872506976
1772562201632029400,3.102029541015625,-7.06430651782453,-0.04492430661469698,-0.3304243059556931
1772562201642012700,3.1120126953125,-6.454650771403312,-0.1531891587615013,-0.2592639535181224
1772562201651995600,3.12199560546875,-5.783111107999086,-0.3523962645933032,-0.12383423199942335
1772562201661977600,3.1319775390625,-5.1965848927527665,-0.5194137499600648,0.07588228465924039
1772562201671960600,3.141960693359375,-4.538834685248136,-0.6627753421902656,0.266142205257155
1772562201681942500,3.151942626953125,-3.8357343469321727,-0.784197782073915,0.5922779106408357
1772562201691925500,3.161925537109375,-3.248519564899802,-0.7676508441597223,0.9930511065207421
1772562201701907700,3.17190771484375,-2.703376330399513,-0.6352025678709149,1.2712475779153405
1772562201711890400,3.181890380859375,-1.9915426505297422,-0.4032090447247028,1.3486987741254268
1772562201721873400,3.191873291015625,-1.0857383041769266,0.019161504326760767,1.3374693779721856
1772562201731855600,3.201855712890625,-0.1323942080140114,0.5081307239234447,1.2437933154091239
1772562201741838300,3.21183837890625,0.6824217074245214,0.8264300731256604,1.273305679488927
1772562201751820500,3.221820556640625,1.2093711135864258,0.9468027116954326,1.2234256501629948
1772562201761803500,3.231803466796875,1.5957576183259485,0.9998547951862216,1.0148889904499054
1772562201771785500,3.241785400390625,2.170387644073367,1.0978744399115443,0.7977254452321678
1772562201781768400,3.2517685546875,2.9036025501459837,1.3249685005784033,0.636690103014931
1772562201791750400,3.26175048828125,3.619208149769902,1.6383637111261486,0.4816491789069026
1772562201801733400,3.2717333984375,4.298665746691823,1.931094319307804,0.3921221257820725
1772562201811716600,3.281716552734375,4.966778942778706,2.0994211337074637,0.41686771385148164
1772562201821698600,3.291698486328125,5.736002735343575,2.0866160126700994,0.5501292062193155
1772562201831681000,3.301680908203125,6.427022175243496,1.992480808162689,0.7373430188532918
1772562201841663200,3.311663330078125,6.906238939371705,1.9833096597135065,0.9124618314806371
1772562201851646000,3.32164599609375,7.345731595876813,1.9890403123199938,1.095609855980426
1772562201861628200,3.331628173828125,7.7130550882279865,1.942014064989984,1.2401013290233909
1772562201871611100,3.341611083984375,8.028947084027529,1.928966075107455,1.313494043622911
1772562201881593900,3.35159375,8.345986496296524,1.926125883245468,1.3170868074178694
1772562201891576000,3.361576171875,8.597504511862994,1.9795587827473877,1.227096301499754
1772562201901559000,3.37155908203125,8.774309524011612,2.0647464184284208,1.0652282347854227
1772562201911541000,3.381541015625,8.918299477273225,2.1564570261374114,0.8018354378342628
1772562201921524000,3.39152392578125,8.95051890835464,2.2072797431409357,0.5001937203790993
1772562201931506200,3.401506103515625,8.954474952504038,2.2551646531268954,0.18422252186350524
1772562201941489000,3.411489013671875,8.86883138974905,2.4796043998926875,-0.1609701680265367
1772562201951471000,3.42147119140625,8.774638609835504,2.8226614659935234,-0.3414235466148704
1772562201961454000,3.4314541015625,8.62117647935152,3.0366058299690484,-0.4803498598113656
1772562201971437000,3.44143701171875,8.370098608767986,3.1426942148596044,-0.6376780180737376
1772562201981419000,3.4514189453125,8.117184754928946,3.1205455114156004,-0.8541887254059314
1772562201991402200,3.46140234375,7.940287388321757,3.0336154159814117,-1.112104917576909
1772562202001384000,3.471384033203125,7.778281885898113,2.968365821957588,-1.3912434921272099
1772562202011367200,3.4813671875,7.487083017328381,2.9256209052085875,-1.5755254160277545
1772562202021348900,3.491348876953125,7.194934885209799,2.8211972386598587,-1.6449807911783456
1772562202031332000,3.50133203125,6.981245372778177,2.557014387309551,-1.7770165411435066
1772562202041315000,3.511315185546875,6.7889201354146,2.431639702668786,-1.867748366948217
1772562202051297000,3.521297119140625,6.187680335161089,2.368861759455502,-1.5891948988094924
1772562202061280000,3.531280029296875,5.05461446262002,1.7943568213924765,-0.8856450631603598
1772562202071262200,3.54126220703125,3.7344980782479045,0.969342460283637,-0.36146526784226296
1772562202081245000,3.551244873046875,2.8263018683224916,0.20626959156394004,-0.28791064067929983
1772562202091227100,3.56122705078125,1.5357091000765561,-0.5117246567621827,-0.05789908513054251
1772562202101210000,3.571210205078125,0.2916530420780182,-0.6912213922128081,0.11792875254899263
1772562202111192000,3.581192138671875,-1.5979811395943164,-0.8673623874947428,0.3963184084281325
1772562202121175000,3.591175048828125,-3.063302113714814,-1.7063865692555904,0.6332207464039326
1772562202131158000,3.601157958984375,-3.939291752040386,-3.0399411118715998,0.5644548148222267
1772562202141140000,3.611139892578125,-4.705985733866691,-3.748048756955564,0.5847068908646702
1772562202151123000,3.621123046875,-5.859003676590323,-3.7869901897683738,0.7933052176371216
1772562202161105200,3.631105224609375,-7.832881491091847,-3.3466391628682612,1.2842054052963852
1772562202171088000,3.641087890625,-10.296039783096314,-2.8931068750947713,2.5026222873866555
1772562202181070000,3.651070068359375,-12.103748545753955,-2.6923984247893094,3.2887548369154334
1772562202191053000,3.661052978515625,-13.019374028897285,-2.0157035705789923,2.835342668390274
1772562202201036000,3.6710361328125,-12.770121035653352,-0.918082813167572,1.84841209057644
1772562202211018000,3.68101806640625,-11.437774699783324,-0.2364776828229427,0.6016156478285789
1772562202221001200,3.691001220703125,-10.14889691876173,-0.10097352609485387,-1.1847367308065295
1772562202230983000,3.70098291015625,-10.48415061763525,-0.6667772713080048,-1.8828163183510302
1772562202240966100,3.710966064453125,-12.088753221195935,-1.1080749314084648,-0.6204862063847482
1772562202250947800,3.72094775390625,-12.55788581368327,-1.9183830140337348,0.24312004344686863
1772562202260931000,3.73093115234375,-12.229128491091727,-2.310005958122015,1.2090445119805633
1772562202270913000,3.7409130859375,-11.457232264447212,-2.500137777094543,2.1742909351222215
1772562202280896000,3.75089599609375,-10.633472579574585,-2.7441034775853157,2.4232997443467377
1772562202290879000,3.76087890625,-9.845995337438582,-2.5162968847349285,2.0341483049385247
1772562202300861200,3.770861083984375,-9.553416412687302,-1.8338823377035558,1.453349819689244
1772562202310844000,3.780843994140625,-9.582750643721223,-1.1810405066370964,1.0097276621639728
1772562202320826000,3.790826171875,-9.571289338508247,-0.7703840685158968,0.9447435872085392
1772562202330809000,3.80080908203125,-9.181321468150616,-0.7024414360158145,1.471057910337299
1772562202340791000,3.810791015625,-8.249259229469299,-0.8331276710681617,2.121651085694134
1772562202350774000,3.82077392578125,-7.215161096158623,-0.8280608891978859,2.5641098985284567
1772562202360757000,3.830757080078125,-6.068979721456766,-0.7042173596471548,2.87718157621026
1772562202370739000,3.840739013671875,-4.713554707816243,-0.5839795995034277,2.880899135428667
1772562202380722000,3.850721923828125,-3.2182962760716674,-0.2522062900915742,2.489482527567446
1772562202390704000,3.8607041015625,-1.8306354647368193,0.2042918617501855,2.0303470129594205
1772562202400687000,3.87068701171875,-0.395114585596323,0.5208411524146795,1.8774227887444197
1772562202410669000,3.8806689453125,0.5028711959600448,0.701072631880641,2.0737810810163615
1772562202420652000,3.890652099609375,1.195776303476095,0.8094511735349893,2.285472259237617
1772562202430634000,3.900634033203125,1.9411720612078904,0.9591671032279729,2.4941408747673033
1772562202440617000,3.910616943359375,2.721571327781677,0.9503235792979597,2.583203306055069
1772562202450600200,3.92060009765625,3.686122462135553,0.8689658771686255,2.4455104071110485
1772562202460582100,3.93058203125,4.844444356486201,0.7799778262913226,2.3195912403300403
1772562202470565000,3.940565185546875,5.981780745953321,0.6296392346553504,2.1436817157164216
1772562202480547000,3.950547119140625,7.08668669193685,0.3980446476988494,1.934215227807313
1772562202490530000,3.960530029296875,7.982638337317109,0.10584624669775367,1.7713702058196066
1772562202500512000,3.970511962890625,8.547712014690042,-0.10850815938338637,1.6586738009661435
1772562202510495000,3.980494873046875,8.958037028899788,-0.35618250513374805,1.5465150101207197
1772562202520478000,3.99047802734375,9.195768511176109,-0.6948949661590158,1.2517566955037414
1772562202530460200,4.000460205078125,9.413167984041571,-0.9887807357251643,0.9175538208574056
1772562202540443000,4.01044287109375,9.434368008458614,-1.0807044016629457,0.6051367346268147
1772562202550425000,4.020425048828125,9.211775643125176,-1.0133527207933366,0.3263688930850476
1772562202560408000,4.030407958984375,9.009493659892678,-0.9415523899517952,-0.07646240436844527
1772562202570390000,4.04039013671875,8.906283460786938,-0.8711661636918783,-0.5015744341477751
1772562202580373000,4.050373046875,8.79180718677938,-0.7131355562485754,-0.7779998042166233
1772562202590355200,4.060355224609375,8.579502406704425,-0.5339269900895655,-0.8324502101980149
1772562202600338000,4.070337890625,8.447140347394347,-0.3774859899252653,-0.7289103407464921
1772562202610321200,4.080321044921875,8.438298284769058,-0.10993643862083553,-0.6611914339996874
1772562202620303000,4.09030322265625,8.619109025427699,0.3704823947735131,-0.818548233834654
1772562202630286000,4.1002861328125,8.822097111102938,0.917688407022506,-1.099493565545976
1772562202640268000,4.11026806640625,8.772441392052173,1.2684658382423222,-1.301180067103356
1772562202650251300,4.120251220703125,8.60437381311059,1.4682310163483023,-1.4958369622848926
1772562202660233000,4.13023291015625,8.430451078400015,1.6814862290158867,-1.783123625846952
1772562202670216200,4.14021630859375,8.073205912470817,2.008863203164935,-1.9777048254437744
1772562202680199200,4.15019921875,7.758752425041794,2.370192861928791,-2.0668067119590936
1772562202690181000,4.16018115234375,7.34866414219737,2.546201609133184,-1.9999995132297277
1772562202700164000,4.1701640625,6.901261150959134,2.520059452138841,-2.008147602241486
1772562202710146000,4.18014599609375,6.3639604466527695,2.3787170907765627,-2.1516211304135617
1772562202720129000,4.19012890625,5.970718669191003,1.9127315641433,-2.1302333283394574
1772562202730111200,4.200111328125,5.4899552601426835,1.1657727948784828,-1.773533959724754
1772562202740094000,4.210093994140625,4.399954037824273,0.37822687142044303,-1.2715453918181359
1772562202750077000,4.220076904296875,3.1761469871282575,-0.6554375466480851,-0.4699064994692802
1772562202760059100,4.23005908203125,2.221123559576273,-1.8405524631172419,0.5680427563115954
1772562202770041900,4.240041748046875,1.5410773491114378,-2.184828841879964,1.378737500166893
1772562202780024000,4.250024169921875,0.17088965062499045,-2.260905534866452,1.1326276272542775
1772562202790007000,4.260007080078125,-1.7998866907298563,-2.0143638464078304,0.19776742841750383
1772562202799989000,4.269989013671875,-3.0754589999765156,-1.6377780201926826,-0.42514848933219906
1772562202809972000,4.279971923828125,-4.42565955696702,-2.151175870864093,-0.5794498471193015
1772562202819954200,4.2899541015625,-5.511753250452876,-2.5522026031136513,0.0042418753534555435
1772562202829937000,4.29993701171875,-6.418683970487117,-2.6911259206354616,0.714837391730398
1772562202839920600,4.309920654296875,-7.12505003260076,-2.963285742214322,1.22256727976799
1772562202849902300,4.31990234375,-8.015400204712153,-3.2112413891240954,1.7220727986872195
1772562202859885600,4.329885498046875,-8.919495993581414,-3.272503667077422,1.939947487848997
1772562202869867500,4.339867431640625,-9.770066528490185,-2.9073443670228123,1.8388468282431363
1772562202879850500,4.3498505859375,-10.673891099202633,-2.136229646144807,1.3315908413276076
1772562202889832400,4.35983251953125,-11.291777498352527,-1.5794266612499952,0.4629785999022424
1772562202899815700,4.369815673828125,-11.44945929235816,-1.215731880789995,-0.5318542754687369
1772562202909798700,4.379798583984375,-11.63877774912119,-0.9913900414407253,-1.3015489004157483
1772562202919780600,4.389780517578125,-12.278651523673533,-0.9365499054893851,-1.5240603094674645
1772562202929763600,4.399763671875,-12.991735495865344,-0.9703982529468834,-0.9338120049580931
1772562202939745500,4.40974560546875,-13.307772453093529,-1.1966682838797569,-0.2072185628518462
1772562202949728500,4.419728515625,-13.076149809086322,-1.4373120003409683,0.4603557040527463
1772562202959710700,4.429710693359375,-12.491949406439065,-1.540320247133821,1.1146861662417649
1772562202969693400,4.439693359375,-11.52064353712797,-1.5247326557710765,1.415546889387071
1772562202979675600,4.449675537109375,-10.287024117469787,-1.4573589092001318,1.1058376738756894
1772562202989658600,4.45965869140625,-9.269368584915995,-1.263680649792403,0.9651777418196201
1772562202999641300,4.469641357421875,-8.484664314624666,-1.18762660702914,1.135287055721879
1772562203009623600,4.47962353515625,-7.621126161593199,-1.3084234623603521,1.4764578696846962
1772562203019606500,4.4896064453125,-6.262941035589575,-1.2761179604306816,1.798039309297502
1772562203029588500,4.49958837890625,-4.508569895365834,-1.101257214217633,1.930431325354427
1772562203039571500,4.509571533203125,-2.643874924638867,-0.8042731863752007,1.7023581905223428
1772562203049553400,4.519553466796875,-1.0977677646666764,-0.40169425624758004,1.3674712791346013
1772562203059536400,4.529536376953125,0.10812953532934189,-0.04266396046727895,1.1676979177221656
1772562203069519600,4.53951953125,1.1693208427488804,0.16534809084981678,1.1074357567220925
1772562203079501300,4.549501220703125,2.0714017846643924,0.35796544302776456,1.0490163009792566
1772562203089484500,4.559484619140625,2.8473464099168777,0.6873292070798576,1.0742946076858788
1772562203099466500,4.569466552734375,3.3933079750627275,0.983497826886177,1.1972437456801532
1772562203109449700,4.57944970703125,3.7558430640935896,1.2489026212468743,1.4880138674438
1772562203119431400,4.589431396484375,3.888714826491475,1.4081256533451378,1.702593898974359
1772562203129414700,4.59941455078125,3.9213311479359865,1.4244853981241583,1.6986869546636938
1772562203139396400,4.609396240234375,4.40794211396873,1.4305778697803615,1.688353922828287
1772562203149379600,4.619379638671875,4.180384235182404,1.3408518600173294,1.2719608407512306
1772562203159363600,4.629363525390625,4.777154196545482,0.7563085622165352,0.5117288214806467
1772562203169346600,4.6393466796875,5.144561275526881,0.3777900874383747,0.4110894957762211
1772562203179328500,4.64932861328125,5.5555304328590625,-0.03299626067280769,0.5820047922991216
1772562203189311500,4.6593115234375,5.967439501389861,-0.41907947161681947,0.8386433657497168
1772562203199294500,4.66929443359375,6.263012347260117,-0.8500025257624685,0.9253213861189782
1772562203209276400,4.6792763671875,6.599536796721815,-1.2362699341669678,1.036301123247668
1772562203219259400,4.68925927734375,7.017472870457172,-1.4359152852855621,1.0749852933637798
1772562203229241600,4.69924169921875,7.4955094848901025,-1.5059201110124587,0.91714706668742
1772562203239224300,4.709224365234375,7.884910953536629,-1.436784761596471,0.6269560599859804
1772562203249206500,4.71920654296875,8.111406756049394,-1.2108984692841767,0.3968856869220733
1772562203259189500,4.729189453125,8.201463459071517,-0.9845664790309965,0.21729433199055492
1772562203269171500,4.73917138671875,8.088079071953892,-0.8793984238557517,0.027645108903199433
1772562203279154400,4.749154541015625,7.991281662499905,-0.8754078198496251,-0.16429960471019148
1772562203289137700,4.7591376953125,7.838242725864053,-0.6610998832587153,-0.23319690758660433
1772562203299119400,4.769119384765625,7.666305612012743,-0.34897933228928596,-0.2551246617563069
1772562203309102600,4.7791025390625,7.553782225638628,-0.12035824471823871,-0.37921076789125796
1772562203319084300,4.789084228515625,7.403487619274855,0.173939320519194,-0.6213156429462134
1772562203329067500,4.799067626953125,7.142739418548345,0.5592392721310258,-0.9085343558385968
1772562203339049500,4.809049560546875,6.742241386348009,0.8272578291866928,-1.1781406935423613
1772562203349032400,4.819032470703125,6.213555365651845,0.9376800785630941,-1.3682767502985893
1772562203359015400,4.829015380859375,5.616401957929134,0.9731145992334932,-1.5118462861910462
1772562203368997600,4.83899755859375,5.071191503411531,0.932741745378077,-1.6742825812473892
1772562203378980400,4.84898046875,4.65164273378253,0.8695495222754775,-1.7511713212691247
1772562203388962600,4.858962646484375,4.060167956218123,0.6613384412549436,-1.5486596209339796
1772562203398945500,4.868945556640625,3.4328514654219147,0.15131284349560736,-1.3749195493139326
1772562203408927500,4.878927490234375,2.934178305673599,-0.42842926456853747,-1.2269348273277283
1772562203418910500,4.888910400390625,2.3668261619746684,-0.9784522339344024,-0.9510703060120343
1772562203428892700,4.898892578125,1.757920941659808,-1.5051489805094898,-0.5735878232181072
1772562203438875400,4.90887548828125,1.0968804604381321,-2.0662042160212994,-0.2786339860290289
1772562203448858600,4.918858642578125,0.4742202710151672,-2.4347723016060887,-0.060888914596289395
1772562203458840600,4.928840576171875,-0.6006342355757951,-2.429895781610906,0.21117884478494522
1772562203468823600,4.938823486328125,-1.897725718191266,-2.454676002602279,0.6916768808953464
1772562203478805500,4.948805419921875,-3.0180408302307127,-2.7738708393394944,1.1336442569509149
1772562203488788500,4.95878857421875,-4.282915804374218,-3.1850130151510236,1.3789477819167077
1772562203498770400,4.9687705078125,-5.5801762138158075,-3.482524135607481,1.6556046226538716
1772562203508753700,4.978753662109375,-7.063263730773329,-3.387576445673406,1.7332696077451109
1772562203518736600,4.988736572265625,-8.517378251224756,-3.1754324091181156,1.6348989576250315
1772562203528718600,4.998718505859375,-9.931480494761466,-3.1301541744992134,1.6140534457340836
1772562203538701600,5.00870166015625,-11.168810459375381,-3.0033810212373733,1.4273378649458288
1772562203548683500,5.01868359375,-11.852138760250806,-2.723041108073294,1.116788106957078
1772562203558666500,5.02866650390625,-12.016018824374674,-2.3209870786026117,0.8088838950410485
1772562203568648700,5.038648681640625,-11.75850887491703,-2.177508289733529,0.642850744536519
1772562203578631400,5.04863134765625,-11.382775866138934,-2.2417171425327655,0.5877243389897048
1772562203588614400,5.058614501953125,-11.219117920333147,-2.597302558556199,0.7415510650023818
1772562203598596600,5.0685966796875,-11.564506059730052,-2.9229776972234247,1.1375940174899994
1772562203608579300,5.078579345703125,-11.885062540209292,-3.1524972314715383,1.7385022477015852
1772562203618561500,5.0885615234375,-11.456909608364105,-3.169355719552934,2.347133619511127
1772562203628544500,5.09854443359375,-10.776631342709063,-2.8695553191155194,2.8078420825242993
1772562203638526500,5.1085263671875,-10.035237806355953,-2.701207169666886,3.069264821511507
1772562203648509400,5.118509521484375,-9.373605788981914,-2.5586627390384673,3.149086838506162
1772562203658492700,5.12849267578125,-9.035047203344106,-2.2806533146485686,2.833746046848595
1772562203668474400,5.138474365234375,-8.897323909261821,-2.0165958432435986,2.219792457102984
1772562203678457600,5.14845751953125,-8.687728972667456,-1.9192735331326722,1.808165128123015
1772562203688439600,5.158439453125,-8.0055019110322,-1.8993550729587674,1.7447276980876922
1772562203698422500,5.168422607421875,-6.626743952599168,-1.8529811520576476,1.759414687348902
1772562203708404500,5.178404541015625,-5.1274710245162245,-1.6673779164254665,1.773396012558788
1772562203718387700,5.1883876953125,-3.467409568583965,-1.4392957215040922,1.8694947722241282
1772562203728369400,5.198369384765625,-2.059766291928291,-1.0887500532135366,1.906677378670871
1772562203738352600,5.2083525390625,-0.5887462293833494,-0.7436141350120306,1.7224731961816548
1772562203748335600,5.218335693359375,0.7631336589962243,-0.2206587669223547,1.3375630476050078
1772562203758317600,5.228317626953125,1.8954127650737762,0.5559723792895674,0.8219070427432655
1772562203768300500,5.238300537109375,2.8891537535548206,1.3856047555878757,0.28807971363589163
1772562203778282500,5.248282470703125,3.6504917613059282,2.119771555557847,-0.06384089626967906
1772562203788265500,5.258265380859375,3.709845867550373,2.7865619786083697,-0.22692717966735362
1772562203798247700,5.26824755859375,3.316551483118534,3.1956144886642694,-0.30156536428332326
1772562203808230400,5.27823046875,3.30223537299633,3.455908515882492,-0.4060271708853543
1772562203818213400,5.28821337890625,3.8950510437756773,3.862089562155306,-0.5023386965185404
1772562203828195600,5.298195556640625,4.404561823880672,4.100231086537241,-0.7213749037403613
1772562203838178600,5.308178466796875,4.591174528816342,4.072490846696496,-0.9858424903161823
1772562203848160800,5.318160888671875,5.070034150069952,4.014016445896029,-1.0676967437908054
1772562203858143500,5.3281435546875,5.55630024818778,3.9962402584478256,-1.2026803837761282
1772562203868125700,5.338125732421875,6.0141632586419576,3.886407426331937,-1.2951824341237543
1772562203878108700,5.348108642578125,6.442632416829467,3.6913200307786465,-1.3292229431524871
1772562203888090600,5.358090576171875,6.849671248975396,3.5364100395739078,-1.3006253558300436
1772562203898073600,5.368073486328125,7.068261977452039,3.4602108892515298,-1.222661168596521
1772562203908056800,5.378056884765625,7.173534369784593,3.3737440274149177,-1.1011056769177316
1772562203918038500,5.38803857421875,7.081498475643992,3.274717251473665,-0.8952942043848335
1772562203928021800,5.398021728515625,6.847811300322413,3.1359827345222233,-0.5068209564991295
1772562203938003700,5.408003662109375,6.952428443616628,2.8873344291731713,-0.19047230297327042
1772562203947986700,5.417986572265625,7.3379931105792515,2.743197468656301,-0.08121361748352646
1772562203957968600,5.42796875,7.691581507566571,2.873411410021782,-0.23509338885769246
1772562203967952000,5.437951904296875,7.5657374518483875,3.098082042934,-0.5309590801946819
1772562203977934600,5.4479345703125,7.506877851122617,3.087855540212989,-0.7586481841452419
1772562203987916800,5.457916748046875,7.601212085333466,3.064349576941132,-1.0515655470706522
1772562203997899800,5.467899658203125,7.390900524902343,3.197734257297218,-1.2849877878457308
1772562204007881700,5.4778818359375,7.240096799972653,3.2816935202270745,-1.3825627575434745
1772562204017864700,5.48786474609375,7.108208203393221,3.296795812290907,-1.445998726274073
1772562204027846700,5.4978466796875,6.903540786328912,3.2676457056522366,-1.407054516982287
1772562204037829600,5.50782958984375,6.737596775412559,3.2563705706611272,-1.3127148759439586
1772562204047812600,5.5178125,6.503368332821131,3.2576375218570233,-1.3076635839037596
1772562204057794600,5.527794677734375,6.099497609317303,3.2043200654283166,-1.4981941929355262
1772562204067777500,5.537777587890625,5.592241330140829,3.0414240439057347,-1.6888230016447603
1772562204077759700,5.547759765625,5.440232905596495,2.9987121526435017,-1.89781588069275
1772562204087742500,5.557742431640625,5.175774159914255,2.9352108635917302,-2.047443547580391
1772562204097724700,5.567724609375,4.067698936244845,2.3883833292663095,-2.097027516569197
1772562204107707600,5.577707763671875,3.2098908512979745,1.744974074064195,-1.9808324559450148
1772562204117689600,5.587689697265625,2.266433942899108,1.2505880901157855,-1.9356901226654648
1772562204127672600,5.597672607421875,2.026967015132308,0.7003305813416838,-1.6112372192695736
1772562204137655800,5.60765576171875,2.2720108662486074,-0.1992854317650199,-0.9584759060934186
1772562204147637500,5.617637451171875,2.342694175758958,-1.4324834111407398,-0.2868798363268375
1772562204157620700,5.627620849609375,0.8329203119277954,-1.9255778939738868,0.19134499415457248
1772562204167602700,5.637602783203125,-1.3968290371745824,-1.2677531599283218,0.6037582128152251
1772562204177585700,5.647585693359375,-1.8292191681981085,-0.8222752915337681,0.8310100943922996
1772562204187567600,5.657567626953125,-1.7539321642845869,-1.3287947808682918,1.1213814260967074
1772562204197550800,5.66755078125,-2.453227265098691,-2.2098595305010673,1.4778906789667903
1772562204207533600,5.677533447265625,-3.338554640612006,-2.541934014816582,1.4402819560624658
1772562204217515800,5.687515869140625,-4.00886797709167,-2.4181489374548195,1.4799458579309284
1772562204227498800,5.697498779296875,-4.8308992307364935,-2.3775550612598657,1.413902044789493
1772562204237480700,5.707480712890625,-5.688274184963107,-2.489294603779912,1.3926976364582777
1772562204247463700,5.717463623046875,-6.351365753495693,-3.0109353821396825,1.521093130224943
1772562204257445600,5.727445556640625,-6.943104150432347,-3.5810850476026532,1.9330857853859662
1772562204267428600,5.7374287109375,-7.402717219424248,-3.756673961959779,2.3620310366526245
1772562204277411600,5.74741162109375,-7.813375995633006,-4.0498344859912985,2.765382120196521
1772562204287393500,5.7573935546875,-8.498617436653376,-4.644969247367978,3.034575785446167
1772562204297376500,5.76737646484375,-9.25766762572825,-4.8376025277674195,2.929985822419822
1772562204307358700,5.777358642578125,-10.022960508584976,-4.161564968422055,1.9397567875824868
1772562204317341400,5.787341552734375,-10.249193860769271,-3.311187617997825,1.0744807048425078
1772562204327323600,5.79732373046875,-10.16907344534993,-2.789052334119379,0.8102144129924476
1772562204337306600,5.807306640625,-10.342806210446357,-2.605279236523807,1.3006529744893311
1772562204347289600,5.81728955078125,-10.279937374079227,-2.7939254931136963,1.9322753457859156
1772562204357271600,5.827271484375,-9.935137263703346,-2.961194615153968,2.190271763586253
1772562204367254800,5.8372548828125,-9.470783137664199,-3.052465077880025,2.2883063136197626
1772562204377236500,5.847236572265625,-9.147716720190644,-3.151399499362707,2.2781397243924437
1772562204387219700,5.8572197265625,-8.707726051035523,-3.115667676246166,2.2567142206564546
1772562204397201700,5.86720166015625,-8.131240752810239,-2.759015800035,2.0966582448653877
1772562204407184600,5.8771845703125,-7.256376319122314,-2.173830185742676,1.8402751074805854
1772562204417166600,5.88716650390625,-6.26295155698359,-1.6216019614174961,1.6311948424100875
1772562204427149800,5.89714990234375,-5.340583613842726,-1.1633885300904512,1.4670451675646006
1772562204437132500,5.907132568359375,-4.604522670689225,-0.5618818955942988,1.3853643709607422
1772562204447114800,5.91711474609375,-3.7860190066486594,-0.08804682450443506,1.2349822324439883
1772562204457097700,5.92709765625,-2.582561501020193,0.3646411213994026,1.0198702859938145
1772562204467079700,5.93707958984375,-1.326888654986024,1.0431664059072732,0.7430579624339938
1772562204477062700,5.947062744140625,-0.1604477515876293,1.6673130344957112,0.4625453230515122
1772562204487044600,5.957044677734375,0.9322498702079057,2.1457965159133074,0.15667342068068682
1772562204497027600,5.967027587890625,2.01351599740684,2.5209368194952604,-0.14142485201396046
1772562204507010800,5.9770107421875,3.0596342388570306,2.8042110325455663,-0.2602799986928701
1772562204516992500,5.986992431640625,3.7660078997552393,3.0780028392404315,-0.22991123697943985
1772562204526975700,5.996975830078125,4.1167280478298665,3.210855312415957,-0.034251813691854475
1772562204536957700,6.006957763671875,4.35795964718163,3.313859467555582,0.1886211952138692
1772562204546940700,6.016940673828125,4.625267937076091,3.413124728427827,0.09151895759440958
1772562204556922600,6.026922607421875,5.064608033367991,3.3160698370814323,-0.13773776099905372
1772562204566905900,6.03690576171875,5.588678084701299,3.143845722982287,-0.27218049904070796
1772562204576888600,6.046888671875,6.147453538712859,2.8991154678598043,-0.38410358143411577
1772562204586870800,6.056870849609375,6.627506169143318,2.4753411894902584,-0.49231896841600536
1772562204596853800,6.066853759765625,6.9429498366534705,2.008405814786255,-0.539778346466273
1772562204606835700,6.076835693359375,7.262466452690958,1.508828984196484,-0.565769112291187
1772562204616818700,6.086818603515625,7.652532522726059,1.0661477607831358,-0.567023350135982
1772562204626801000,6.09680078125,7.993605721533298,0.7329154847346245,-0.5484587887890636
1772562204636783600,6.10678369140625,8.205228364562988,0.48288653868213294,-0.6878077843770385
1772562204646765800,6.116765869140625,8.31839530953765,0.26731048185154793,-0.9386347489394247
1772562204656748800,6.126748779296875,8.513511054402588,0.08376125613972545,-1.1159285675182937
1772562204666731500,6.1367314453125,8.708575361341238,0.014290975680947303,-1.3537521119922398
1772562204676713700,6.146713623046875,8.658807998609543,-0.037101504034548996,-1.6481255189448594
1772562204686696700,6.15669677734375,8.575034905901552,-0.15974340271055698,-1.9436668006330728
1772562204696678700,6.1666787109375,8.454584233659505,-0.20912600390836594,-2.169844915498793
1772562204706661600,6.17666162109375,8.322735969090461,-0.10320055449455975,-2.3129732834950087
1772562204716643600,6.1866435546875,8.280837440037727,0.026051848362386224,-2.4418489619940518
1772562204726626600,6.19662646484375,8.208136945486068,0.24203999312520025,-2.6265412202611564
1772562204736609800,6.20660986328125,8.046106308621168,0.5041697113379836,-2.8693443067133426
1772562204746591500,6.216591552734375,7.789554390540719,0.8190976844109594,-3.148417560942471
1772562204756574700,6.22657470703125,7.485036021670699,1.1142698405258358,-3.3804791808888313
1772562204766556700,6.236556640625,7.143612694251537,1.3648900304697453,-3.619602117523551
1772562204776539600,6.24653955078125,6.520848459932208,1.5048786391355096,-3.7779298082172867
1772562204786521600,6.256521484375,5.764784008669853,1.394863874581456,-3.7428535264000296
1772562204796504800,6.2665048828125,5.207105117723345,1.2749354726478457,-3.5063036551237103
1772562204806487600,6.276487548828125,4.825519291263818,1.2312719797492027,-3.0904315281808374
1772562204816469800,6.2864697265625,4.4131291612178085,1.035633964575827,-2.532971248421073
1772562204826452700,6.29645263671875,4.0486978831768035,0.4315472504585981,-2.053582050335407
1772562204836434400,6.306434326171875,3.4207927788376806,-0.2898413164809346,-1.8638748865157364
1772562204846417400,6.31641748046875,2.3834745144367218,-0.9952066771194338,-1.5515379528492688
1772562204856399600,6.326399658203125,1.4288216737627981,-1.6551026644811033,-1.2458753823801874
1772562204866382300,6.33638232421875,0.18547756342589855,-2.204543303914368,-0.7727867457434534
1772562204876364500,6.346364501953125,-1.1014601894438265,-2.636142869082093,0.14506664258241653
1772562204886347500,6.356347412109375,-1.972650318533182,-3.265595787385106,1.4153908220425246
1772562204896330200,6.366330322265625,-2.9015082082152364,-3.848035610100627,2.5161414019122716
1772562204906312400,6.3763125,-4.221806378895044,-4.032822560913861,3.3679014388665554
1772562204916295400,6.38629541015625,-5.687254194265604,-3.7087405366569755,3.394057624386251
1772562204926277400,6.39627734375,-7.485804083433747,-2.6437700029596685,2.508257955186069
1772562204936260400,6.40626025390625,-9.233020675727724,-1.4291419917583466,1.6284265467405319
1772562204946242300,6.4162421875,-10.441281782245635,-0.5328355415910482,1.2355623704195022
1772562204956225300,6.426225341796875,-11.111997269785403,-0.12684154232293365,1.3832102616667747
1772562204966208500,6.43620849609375,-11.387639088261126,0.003282382671535015,1.7842916467130183
1772562204976190200,6.446190185546875,-11.191630193948745,-0.19723522123694417,2.1140186911195515
1772562204986173400,6.45617333984375,-10.497564225959778,-0.5896063533440232,2.27972772423625
1772562204996155400,6.4661552734375,-10.006268901503086,-0.8821779715716839,2.700750365810096
1772562205006138400,6.476138427734375,-10.017949986946583,-1.1177601668596266,3.1787744130223987
1772562205016120300,6.486120361328125,-10.004925670200585,-1.4910148028254508,3.409080129212141
1772562205026103600,6.496103515625,-9.691749947622418,-1.7783236782193184,3.5874276946276424
1772562205036086300,6.506086181640625,-9.394200833243131,-1.8408628442406654,3.781554720716178
1772562205046068500,6.516068359375,-9.013168549013137,-1.967545981131494,3.894563260258734
1772562205056051500,6.526051513671875,-8.646198107883334,-1.952092683672905,3.9310695748791096
1772562205066033400,6.536033447265625,-8.377174830764531,-1.7075687647774815,3.8897298487529155
1772562205076016400,6.546016357421875,-8.289675995531677,-1.3711428072541951,3.7461864702150223
1772562205085998600,6.55599853515625,-8.341655189093947,-0.9715586750283837,3.5024499023050066
1772562205095981300,6.565981201171875,-8.318781093984843,-0.6139917297989129,3.3712487034678458
1772562205105964500,6.575964599609375,-8.123400560703873,-0.5338426728069782,3.416754317101836
1772562205115946500,6.585946533203125,-7.720050061681866,-0.5670335792690515,3.5544936855360865
1772562205125929500,6.595929443359375,-7.150220714214444,-0.562644404399395,3.7143487319275734
1772562205135911400,6.605911376953125,-6.53028205870986,-0.6648512716814875,3.745317578426003
1772562205145894400,6.615894287109375,-5.781159973931312,-0.8303527995273471,3.6650773360192774
1772562205155876400,6.62587646484375,-4.761121345633268,-0.9751271811649203,3.4950896026700735
1772562205165859600,6.635859619140625,-3.5237224074363707,-1.1167147494599223,3.2212580484867095
1772562205175841300,6.64584130859375,-2.1816683320224284,-1.1960206336259842,2.884615817864239
1772562205185824500,6.655824462890625,-0.9432961648792028,-1.1158438118442893,2.5347920341074466
1772562205195807500,6.665807373046875,0.13364566937983036,-0.8596966751724481,2.3008092368401587
1772562205205789400,6.67578955078125,0.921919030329585,-0.5117679113820195,2.139575595571846
1772562205215772400,6.6857724609375,1.599438352665305,-0.09835252994149923,1.850991585675627
1772562205225754600,6.695754638671875,2.33651753295064,0.2584802557945251,1.4985028204932809
1772562205235737300,6.7057373046875,2.998080576741695,0.562351558932662,1.2647656685501336
1772562205245719600,6.715719482421875,3.5934067690372467,0.8547773389488458,1.0380115073621272
1772562205255702500,6.72570263671875,4.208973200806975,1.1009285667851567,0.7534555108729749
1772562205265685200,6.735685302734375,4.841448097279668,1.2810311591744423,0.5179969784973188
1772562205275667500,6.74566748046875,5.447707771521807,1.5413891915395854,0.32240733251031484
1772562205285650400,6.755650390625,5.898396944823861,1.8134002522975206,0.17506752083152533
1772562205295632400,6.76563232421875,6.171571496403217,1.9738187777906655,0.025922579976508858
1772562205305615400,6.775615478515625,6.4824705062210555,1.930027566859126,-0.10791350882533006
1772562205315597600,6.78559765625,6.77041884856224,1.80536307631433,-0.19732485401546582
1772562205325580300,6.795580322265625,7.0083403004527085,1.6219436144620178,-0.2605809544008225
1772562205335563500,6.8055634765625,7.30742904548943,1.4227192652344702,-0.28635475300680846
1772562205345545500,6.81554541015625,7.614124173876642,1.2067346276029944,-0.43550599802173673
1772562205355528400,6.825528564453125,7.793812047985195,0.9622088090114295,-0.6451171550985425
1772562205365510400,6.835510498046875,7.907109925863146,0.7870394352406263,-0.8634103619333356
1772562205375493600,6.84549365234375,7.933416333508491,0.6529762711010872,-1.1077591434575618
1772562205385475300,6.855475341796875,8.01163880635202,0.4173974368140101,-1.3842502722389995
1772562205395458600,6.86545849609375,8.172544238579272,0.27506460310965775,-1.7165166258648037
1772562205405441500,6.875441650390625,8.30343739438057,0.2853228161431849,-2.0250721412964166
1772562205415423500,6.885423583984375,8.411632980683445,0.35189416029006243,-2.2758253099702297
1772562205425406500,6.895406494140625,8.444629825878144,0.43885114373117684,-2.4573873073875903
1772562205435388400,6.905388427734375,8.396148411303757,0.5844049853086472,-2.581392164979875
1772562205445371400,6.915371337890625,8.26593037828505,0.751714731620252,-2.706744637788832
1772562205455353600,6.925353515625,8.092985548695921,0.8650066181488335,-2.823678534081578
1772562205465336300,6.93533642578125,7.888551940387487,0.9524950781181454,-2.9215482489421962
1772562205475318500,6.945318603515625,7.627047368335724,1.1066400762997568,-2.900886569185555
1772562205485301500,6.955301513671875,7.214076808053255,1.323097884400934,-2.7035595780119297
1772562205495284200,6.9652841796875,6.868913709583878,1.3902987586230038,-2.4806600464254616
1772562205505266400,6.975266357421875,6.534943036258221,1.4289727726712822,-2.4342872945681213
1772562205515249400,6.98524951171875,6.078049163097143,1.428512461683154,-2.3589991216108204
1772562205525231400,6.9952314453125,5.57664687064588,1.2779402074217796,-2.402092413406074
1772562205535214300,7.00521435546875,5.025989256638288,0.8451111004590988,-2.319593286156654
1772562205545196500,7.015196533203125,4.38863944760561,0.007757774519920348,-1.9069187862113117
1772562205555179300,7.02517919921875,4.169931230229139,-1.5358987774297594,-1.3968214383900164
1772562205565162500,7.03516259765625,3.5808360412776468,-3.503027702192962,-0.6473848808348178
1772562205575144400,7.04514453125,1.5423948614507912,-4.09811833216697,0.03496580718010664
1772562205585127400,7.05512744140625,-0.07566343601047992,-3.6296532636776564,0.7588993824273348
1772562205595109400,7.065109375,-1.4610013573557137,-3.572545475055277,1.4256211241558194
1772562205605092600,7.075092529296875,-2.707244696265459,-4.422093096657097,1.8551926906272769
1772562205615074300,7.08507421875,-4.504937676343322,-5.128531931746005,1.8449974598273633
1772562205625057500,7.0950576171875,-7.066111521419883,-4.393484257288277,1.7101269248276947
1772562205635040500,7.10504052734375,-9.242831291124224,-2.9665517582729457,1.4420932432681322
1772562205645022500,7.1150224609375,-10.577461354017258,-2.4113687757954,0.9178352681472897
1772562205655005400,7.12500537109375,-11.615186445653437,-2.03617615750432,0.37812984078675504
1772562205664987400,7.1349873046875,-11.96914250690937,-1.449878198055923,-0.17282909425497053
1772562205674970400,7.144970458984375,-11.523657331991195,-0.7398647193506359,-0.5994064473465085
1772562205684952600,7.15495263671875,-10.397678787362574,-0.2999059066385031,-0.9504372688055038
1772562205694935300,7.164935302734375,-9.121129157516359,-0.4856581953525543,-1.446806243264675
1772562205704918300,7.174918212890625,-8.622640122163295,-0.9293962343424558,-1.4817849099263547
1772562205714900500,7.184900390625,-8.353142797791957,-1.1779551078423858,-0.9369818671658635
1772562205724883200,7.19488330078125,-8.177689784774184,-1.1705544761970639,-0.13178864333629609
1772562205734865400,7.204865478515625,-8.56196324288249,-1.3343211430743336,1.017066042228043
1772562205744848400,7.214848388671875,-9.241348943611978,-1.679506745636463,1.9831898327261208
1772562205754830300,7.224830322265625,-9.531656416299938,-1.8505027792453765,2.4060306296378373
1772562205764813300,7.234813232421875,-9.526741756251454,-1.7203253704980015,2.3701517992660404
1772562205774796500,7.244796630859375,-9.66305985971093,-1.2678621732607482,2.2396847599223255
1772562205784778200,7.2547783203125,-9.950524217927455,-0.5209104182586074,1.9416133752346039
1772562205794761500,7.264761474609375,-10.22577206864953,0.18582213907986878,1.6617928097695112
1772562205804743400,7.274743408203125,-10.057996750652789,0.5182780239284038,1.7412142831392585
1772562205814726400,7.284726318359375,-8.962392886021732,0.30197832899838684,1.9666076773680745
1772562205824708400,7.294708251953125,-7.439661340939998,-0.07461100434809922,2.0493318455450233
1772562205834691600,7.304691650390625,-5.855356844520569,-0.22950492120087146,1.963672062307596
1772562205844673300,7.31467333984375,-4.029061454814673,-0.25474457639753817,1.8489098109655082
1772562205854656500,7.324656494140625,-2.0091811830729247,-0.17759411669969558,1.9527322967506944
1772562205864639500,7.334639404296875,0.08693067995607852,0.002630640764534473,2.2481688028901816
1772562205874621400,7.344621337890625,1.8668191232740878,0.36276948230862616,2.4028595983862875
1772562205884604400,7.3546044921875,3.01418590836823,1.0631006481721996,2.6609578691259026
1772562205894586600,7.364586669921875,3.072185092872381,1.9955960175737737,3.3684199097827077
1772562205904569600,7.374569580078125,2.7779274212539193,2.7805028246998784,3.760370186129212
1772562205914551600,7.384551513671875,2.7811206643372772,3.394237949389219,3.5240868568345904
1772562205924534500,7.394534423828125,2.9101141239970922,3.7597985237210985,3.068913523855805
1772562205934517500,7.404517578125,4.0046857229709625,3.8292090368166565,2.463853580792248
1772562205944499500,7.41449951171875,4.605232280263304,3.649936173249781,1.7154186014950275
1772562205954482400,7.424482421875,5.190424616557359,3.068188716712594,1.2727832630500198
1772562205964464400,7.43446435546875,5.75259263561666,2.5235122229412195,0.8698043007541447
1772562205974447600,7.444447509765625,6.19978286088705,2.006565447616577,0.5924484449021518
1772562205984429600,7.4544296875,6.835813404014706,1.4001856541261075,0.40796321698185056
1772562205994412500,7.46441259765625,7.258963413006067,0.8529460318684577,0.3111054556427523
1772562206004395500,7.4743955078125,7.60012370557487,0.4536125134028494,0.22725407353416083
1772562206014377500,7.48437744140625,7.869777681812644,0.2522770172402263,0.1582720149837434
1772562206024360400,7.4943603515625,8.066117415514588,0.12550620206594468,0.10262750384695828
1772562206034342400,7.50434228515625,8.003947082805633,0.04262260554358363,-0.10329334734454751
1772562206044325600,7.51432568359375,7.870576723235845,-0.02386953588724136,-0.41794250347614287
1772562206054307600,7.5243076171875,7.735396683895588,-0.035170682102441786,-0.7117198442317545
1772562206064290600,7.53429052734375,7.67317608230412,-0.04197714724689722,-0.8809007912427187
1772562206074273500,7.5442734375,7.619467288470267,-0.061603930997848506,-0.9912902343280613
1772562206084255500,7.55425537109375,7.579732659453153,-0.09113514590859413,-1.0970502640470863
1772562206094238500,7.564238525390625,7.4932643363118165,-0.11438932637646794,-1.1684880451865494
1772562206104220400,7.574220458984375,7.392066646072268,-0.03536284367367625,-1.2217024796321987
1772562206114203400,7.584203369140625,7.23620505323112,0.12840908390060066,-1.3202305122710765
1772562206124185600,7.594185546875,7.067426695671677,0.29948914253115655,-1.5048057200297713
1772562206134168600,7.60416845703125,6.947831763476133,0.5245416143678129,-1.6392361100465058
1772562206144150500,7.614150634765625,6.736105660071969,0.8696475758224725,-1.7341363075770437
1772562206154133500,7.624133544921875,6.60924570530951,1.1797794006600975,-1.9064526300042866
1772562206164116700,7.63411669921875,6.322106341263652,1.4080327143646776,-2.191055022918433
1772562206174098400,7.644098388671875,6.062043200191855,1.5450535592660306,-2.466166826170683
1772562206184081700,7.65408154296875,5.617784936720133,1.5726820092953742,-2.7417536995887755
1772562206194063400,7.6640634765625,5.146293213886023,1.3969912419989705,-2.918890720170736
1772562206204046600,7.674046630859375,4.78858861375153,0.9704852005779743,-2.732331206727028
1772562206214028500,7.684028564453125,4.4577907252430915,0.32805501954108474,-2.4755682762444016
1772562206224011500,7.694011474609375,3.975795728573203,-0.5874009522542357,-2.095051394190639
1772562206233994500,7.703994384765625,2.851598222142458,-1.5167387344077228,-1.4337635140791534
1772562206243976700,7.713976806640625,1.4434136782169342,-2.3145134986743328,-0.6472467875383794
1772562206253959400,7.72395947265625,0.057712768778204915,-3.0955960713371633,0.058814592540264124
1772562206263941600,7.733941650390625,-1.11982411365211,-3.6341473602265117,0.44431072431132196
1772562206273924600,7.743924560546875,-2.1708213593155143,-4.121396331901848,0.8687132175818085
1772562206283906600,7.753906494140625,-3.8198984798967834,-4.545528337667882,1.3390880652152002
1772562206293889500,7.7638896484375,-5.478306323403119,-4.669944406409561,1.897748222284019
1772562206303872500,7.77387255859375,-6.825622264868021,-4.332349112845957,2.2256218939088286
1772562206313854500,7.7838544921875,-7.797212211817502,-3.8823824085995553,2.047850667076558
1772562206323837400,7.79383740234375,-8.694741481778026,-3.5577249225422736,1.6173136165738105
1772562206333819400,7.8038193359375,-9.603335751110315,-3.275493204282224,1.4040037511095405
1772562206343802400,7.81380224609375,-10.184475597143173,-3.0615447486534713,1.5310719417952001
1772562206353784600,7.82378466796875,-10.423756646949052,-2.8541160501822826,1.566015683273971
1772562206363767600,7.833767578125,-10.407527981203794,-2.544418525108695,1.3943648390181362
1772562206373750500,7.84375048828125,-10.395343037891386,-2.210913423468172,1.236627953824401
1772562206383732500,7.853732421875,-10.407250917828083,-1.9751172931686043,1.21958811782673
1772562206393715700,7.8637158203125,-10.765789630699157,-1.7944649579420684,1.3070046816036105
1772562206403697400,7.873697509765625,-11.228739150637388,-1.7172981316313147,1.2660624303624033
1772562206413680600,7.8836806640625,-11.412502311360836,-1.6555536231189965,1.443228969299793
1772562206423662300,7.893662353515625,-11.250398024737834,-1.493063844309747,1.9122619008049369
1772562206433645600,7.9036455078125,-10.926498079049587,-1.5762673204362392,2.3780936981812117
1772562206443628500,7.913628662109375,-10.579038394075631,-1.636822326903045,2.772644804675877
1772562206453610500,7.923610595703125,-10.030830511307716,-1.4639201674118638,2.911296904040873
1772562206463593500,7.933593505859375,-9.232493436983226,-1.215273323367536,2.670612124916911
1772562206473575700,7.94357568359375,-8.182953404390812,-0.899283420151472,2.3587615134626625
1772562206483558400,7.953558349609375,-7.164096094831824,-0.5682558145403862,2.0430697164103386
1772562206493540600,7.96354052734375,-6.228965116229653,-0.46502369586378334,1.7689334801919758
1772562206503523600,7.973523681640625,-4.953756964120268,-0.3205772310063243,1.5136666334860025
1772562206513504500,7.98350439453125,-4.946374452653527,-0.22642858249545095,1.7447528325289487
1772562206523486700,7.99348681640625,-3.2265520632416007,-0.054068859317898746,1.4869691806964576
1772562206533469400,8.003469482421876,-1.5666080962091684,0.11423340516239404,1.270845719116181
1772562206543452400,8.013452392578126,-0.16447160027623176,0.37381782280653714,1.1885252363692969
1772562206553434600,8.0234345703125,0.9972972196578979,0.550756690467894,1.3063850884005426
1772562206563417300,8.033417236328125,1.9508453139603137,0.6709393594235181,1.550755424169451
1772562206573399600,8.043399658203125,2.808551107576489,0.7490729849398136,1.7034912862055003
1772562206583382500,8.053382568359375,3.711053489774465,0.8177452468886971,1.7760466731980442
1772562206593364500,8.063364501953124,4.51726816560626,0.9181997175455093,1.6790525721281766
1772562206603347500,8.073347412109374,5.18053859783709,1.0179694208085537,1.5676273562543093
1772562206613330700,8.08333056640625,5.723755248188972,1.1213488390013575,1.4106437736459077
1772562206623312400,8.0933125,6.009045769497752,1.2711816730722785,1.2153458040818572
1772562206633295600,8.103295654296875,5.957233164674044,1.3723039599880575,1.0926755560941994
1772562206643277300,8.11327734375,5.758443699732423,1.3370479376897215,1.0012762793567032
1772562206653260500,8.123260498046875,5.673820712196827,1.2513459227457642,0.9052743311293423
1772562206663242500,8.133242431640625,5.431368046617508,1.2480671933360397,0.7141136075004935
1772562206673225500,8.1432255859375,5.805160442721843,1.1730170669183135,0.5734333998413756
1772562206683208400,8.15320849609375,5.98657499449253,1.1823553886279463,0.1357070588890463
1772562206693190700,8.163190673828124,6.173715522694588,1.0940965288080275,-0.13261734924539922
1772562206703173400,8.17317333984375,6.415574314033985,0.8867119617395103,-0.4947044753130525
1772562206713155600,8.183155517578125,6.543718463388085,0.6482182629190385,-0.748897043851018
1772562206723138600,8.193138671875,6.617145518648624,0.46840120947286484,-0.8477149993471801
1772562206733120500,8.20312060546875,6.7472028081476685,0.4537731107920408,-0.7471672243837266
1772562206743103500,8.213103515625,6.983692765930295,0.4264182170070708,-0.7122609653711318
1772562206753086500,8.22308642578125,7.246485039705037,0.29309637275412675,-0.7611370783515274
1772562206763068400,8.233068359375,7.3001213528245685,0.19875819302052258,-0.8030868992000818
1772562206773051400,8.243051513671874,7.269989833933114,0.10964958450347184,-0.7908680536180734
1772562206783033600,8.25303369140625,7.335866035422682,-0.030749066267907618,-0.7701508442819118
1772562206793016300,8.263016357421876,7.397512636518478,-0.06540522297695278,-0.7933180771186947
1772562206802998500,8.27299853515625,7.305078682971001,0.08811302160844206,-0.9037187722504139
1772562206812981500,8.2829814453125,7.183553659495711,0.20648849501162767,-1.0435447377003728
1772562206822963500,8.29296337890625,6.930038332632184,0.29269904399961233,-1.16227150875926
1772562206832946400,8.302946533203125,6.61258507886529,0.4814274259150028,-1.3959572227761148
1772562206842929000,8.312928955078124,6.42681057831943,0.7952645350113511,-1.651447941365838
1772562206852910800,8.322910888671874,6.05476064196825,0.9615209728777409,-1.7203762239024043
1772562206862893800,8.332893798828126,5.579685799950361,1.0462184869542717,-1.5883257147595284
1772562206872875800,8.342875732421875,5.138956295126676,1.1102400004878639,-1.555476461341977
1772562206882858800,8.352858642578125,4.572535879319906,0.9898857743576168,-1.3229200436159967
1772562206892841000,8.362841064453125,4.002982426184416,0.7235277709253132,-1.1733806395336985
1772562206902823700,8.37282373046875,3.3551240826189517,0.36213965997248887,-1.007192590728402
1772562206912806700,8.382806640625,2.2842729664504526,-0.16671572594121098,-0.5006818692222237
1772562206922788900,8.392788818359374,0.9516869766056537,-0.6934029740355908,0.12964023313075304
1772562206932771600,8.402771484375,-0.2692716989219189,-1.0217891252271831,0.5655713977620005
1772562206942754800,8.4127548828125,-1.6074772822141647,-1.6704076395101843,1.0468579539015888
1772562206952737800,8.42273779296875,-2.5557880603849887,-1.669117891960591,1.006098073489964
1772562206962720000,8.432719970703126,-3.457566219961643,-1.8928347312793135,1.231144553977251
1772562206972702700,8.44270263671875,-4.620002563893795,-1.9039209195695816,1.7165055199488997
1772562206982685000,8.452684814453125,-5.105058117178082,-1.839124330010265,2.238580305811763
1772562206992668000,8.46266796875,-5.717491511619091,-1.9272364748358726,2.4957880574524403
1772562207002650600,8.472650634765625,-6.3833636507809155,-1.9542131829582154,2.4079288644745946
1772562207012632800,8.4826328125,-7.1108420590281485,-2.088518777551502,2.3597233442321417
1772562207022615800,8.49261572265625,-7.744234070345759,-2.2201399553664025,2.418964637751877
1772562207032597800,8.50259765625,-7.674334604689478,-2.152193961865455,2.117561478292942
1772562207042580700,8.512580810546876,-7.355033092707395,-1.9366341255173085,1.5370342112004756
1772562207052562700,8.522562744140625,-6.854396523931622,-1.6807732584409414,1.1487231681391596
1772562207062545700,8.532545654296875,-7.673936545282602,-1.7921419218219816,1.111803012020886
1772562207072529000,8.54252880859375,-8.664940217754245,-1.9621458756536245,1.516404680147767
1772562207082510600,8.552510498046875,-8.651487446463108,-1.973732706942409,1.8230100844249129
1772562207092493800,8.562493896484375,-8.041126182121038,-2.1863906843692065,1.7597116244688629
1772562207102475800,8.572475830078124,-7.655339396840334,-2.4473219865776596,1.6250620387434958
1772562207112458800,8.582458740234374,-9.38001214889288,-1.4944671352364123,1.4441053137429058
1772562207122440700,8.592440673828126,-9.372840649828314,-0.45176118644773955,0.9095813806734978
1772562207132424000,8.602423828125,-8.77043180579543,-0.02387041267007589,0.36993265193626285
1772562207142406700,8.61240673828125,-8.676738792097568,0.6700166916206479,-0.12278291458189487
1772562207152388900,8.622388916015625,-8.77321003833711,0.9798153389811515,-0.09888342194780707
1772562207162371800,8.632371826171875,-8.799846700850129,0.8846157201126217,0.13050532552748917
1772562207172353800,8.642353759765625,-8.410639293470979,0.7834266515709459,0.6087558749720454
1772562207182336800,8.652336669921874,-8.031136703026295,0.7125760226696729,1.1029767314866183
1772562207192319000,8.662319091796874,-7.790195611053705,0.6332938116401433,1.5474471764042972
1772562207202301700,8.6723017578125,-6.969578315860033,0.24178221897184848,2.0311273496821522
1772562207212285000,8.682284912109376,-5.869469541025161,-0.12003157004714012,2.4452466416083274
1772562207222267000,8.692266845703125,-4.985675950950384,-0.23351415684223173,2.5411256210431454
1772562207232249900,8.702249755859375,-3.914328575697541,-0.1566118266865611,2.1246821239531037
1772562207242231800,8.712231689453125,-2.533194535782933,0.05988543664216995,1.4909575196802616
1772562207252214800,8.72221484375,-0.829886643320322,0.23797902729660272,1.0875665425173937
1772562207262196700,8.73219677734375,1.086638467887044,0.459912344199419,1.2667992202043532
1772562207272180000,8.742179931640624,2.2298937260091303,0.4382575617522001,1.1692408363152296
1772562207282163000,8.752162841796874,2.5739345424503086,0.16482669732421634,0.8171149130959063
1772562207292145000,8.762144775390626,2.399130348730087,0.19436200388818978,0.6627666474271565
1772562207302127900,8.7721279296875,2.081372559058666,0.6113280635476112,0.21213479380290953
1772562207312109800,8.78210986328125,2.1131465844601394,0.7650807014107703,-0.43540820020306853
1772562207322092800,8.7920927734375,2.3840122745752335,0.5954112402305006,-0.9925159036654978
1772562207332075000,8.802074951171875,2.349140867680311,0.8560524734511971,-1.31748691265136
1772562207342057700,8.8120576171875,2.603365219596028,1.3902736241817473,-1.5927350556343793
1772562207352040000,8.8220400390625,3.591033610165119,1.6886206109404562,-1.7905255726665257
1772562207362023000,8.83202294921875,5.032104524648189,1.8691762077942489,-1.5691605571709573
1772562207372005600,8.842005615234376,6.4728153736472125,1.930253192308545,-0.9443073877483605
1772562207381987800,8.85198779296875,7.278933018845319,1.7703464157298205,-0.9240085499547421
1772562207391970800,8.861970703125,5.777251276054978,1.9347692084282635,-1.1409877515815199
1772562207401952800,8.871952880859375,3.013372253897786,2.1917681396238504,-0.7831127633161843
1772562207411935700,8.881935791015625,4.177214372974634,1.472153742749989,0.12241050107292831
1772562207421918000,8.89191796875,5.46062687432766,0.8390094225831329,0.5803351785864681
1772562207431900700,8.901900634765624,5.685362096908688,0.6967134137578308,0.30347580101452765
1772562207441884000,8.9118837890625,6.56278732099533,0.871991946991533,-0.3227991448394954
1772562207451865900,8.921865966796876,7.548586410561204,1.189153962726891,-0.6523865615796297
1772562207461848800,8.931848876953126,7.833975131547451,1.3270607966825365,-0.6071241821169853
1772562207471830800,8.941830810546875,7.655377390763163,1.29194535189867,-0.5765886855345219
1772562207481814000,8.95181396484375,7.4764002952724695,1.199109247291088,-0.5216685431495308
1772562207491795700,8.961795654296875,7.467375861817598,1.0852148648247122,-0.5112259865250438
1772562207501779000,8.971779052734375,7.598775798097252,1.021793655271828,-0.5436497080069035
1772562207511762000,8.981761962890625,7.683266683685779,1.0308239339455962,-0.6382100791238248
1772562207521744000,8.991743896484374,7.544010773208737,1.0905413205444812,-0.7461765328459441
1772562207531726800,9.001726806640624,7.139341008281708,1.224145196609199,-0.7847805503979325
1772562207541708800,9.011708740234376,6.879879340234399,1.3728285683840513,-0.8899424680933355
1772562207551691800,9.02169189453125,6.960273311898112,1.4346692307472229,-0.9404184174858033
1772562207561674000,9.031674072265625,7.074151620012521,1.5266966493204235,-1.0226206076152622
1772562207571656700,9.04165673828125,6.9486126847207546,1.7374372488185763,-1.266396046230942
1772562207581639700,9.0516396484375,6.621191579169035,2.0942279489785434,-1.3756111848399042
1772562207591622000,9.061621826171875,6.20836247318387,2.3163138260945675,-1.3611641418144107
1772562207601604600,9.0716044921875,5.645613439366221,2.2130378682762384,-1.395127932345122
1772562207611586800,9.0815869140625,4.824617958509922,1.7648399272680282,-1.1595301010966301
1772562207621569800,9.09156982421875,4.0091847879558795,1.143873097759485,-0.6611553397729992
1772562207631551700,9.1015517578125,3.3965310287624595,0.6393523810267449,-0.20492986739277838
1772562207641534700,9.11153466796875,2.900418074890971,0.28425387173742056,0.34007308185398577
1772562207651518000,9.12151806640625,2.5041315229058263,-0.10325579181313514,0.8423105099551379
1772562207661499600,9.131499755859375,2.134887876147032,-0.6939902724042535,1.5329261913597583
1772562207671483000,9.14148291015625,1.570840619212389,-1.1477557844117283,1.5526302781306207
1772562207681464800,9.15146484375,0.31441490898430347,-0.9480576801925897,1.092451172753796
1772562207691447800,9.16144775390625,-1.016141036337614,-0.830796743902564,1.11787772882469
1772562207701429800,9.1714296875,-1.6048650538891553,-1.5710568923115729,1.7092302682489156
1772562207711413000,9.1814130859375,-2.061426334095001,-2.4262153395324946,2.1967408134698867
1772562207721395700,9.191395751953126,-2.8519962815493343,-2.328096910607815,1.8399958521477877
1772562207731378000,9.2013779296875,-3.6057623927414415,-1.4984738866597413,1.0054101642910391
1772562207741361000,9.21136083984375,-4.368668672722578,-1.0637924298286436,0.35335612260140475
1772562207751342800,9.2213427734375,-5.002036718642711,-1.1857383090645075,-0.049216523915901776
1772562207761325800,9.231325927734375,-5.381450461760163,-1.3893483260303734,-0.374200392383337
1772562207771307800,9.241307861328124,-5.68491143053174,-1.620499845394492,-0.7051416348852216
1772562207781290800,9.251290771484374,-5.463539546903967,-1.7186206124067305,-0.7615403984554111
1772562207791273700,9.261273681640626,-4.7452422239780425,-1.6752251227945087,-0.7919345868710428
1772562207801255700,9.271255615234375,-4.0737434771060945,-1.6408505595058203,-1.082754173799604
1772562207811238700,9.28123876953125,-3.8854368277341127,-1.7164596349805592,-1.3408913152448831
1772562207821220900,9.291220947265625,-4.6242134595870965,-1.9438354351982474,-0.9160866709142923
1772562207831203600,9.30120361328125,-5.9835144378781315,-2.370800910824537,-0.06326872240491212
1772562207841186800,9.311186767578125,-6.745107881695032,-2.801713078249991,0.7799371289547532
1772562207851169500,9.32116943359375,-7.083651269763708,-3.1135370939582585,1.4104837607786058
1772562207861152800,9.33115283203125,-7.629209514805674,-3.594989069792628,1.6532891853183507
1772562207871134700,9.341134765625,-7.602421461123227,-3.830046948945522,1.5780889829054474
1772562207881117700,9.35111767578125,-7.529691740477085,-3.6735540724635123,1.2591985359422861
1772562207891099600,9.361099609375,-7.69236593594253,-3.4795945118963716,0.7978305861070751
1772562207901083000,9.371082763671875,-7.8376915217220775,-3.1621742836162445,0.3214630739301443
1772562207911064600,9.381064697265625,-8.353484158575535,-2.981144639509916,-0.24853081644922492
1772562207921047800,9.3910478515625,-8.922215773934125,-2.9686285645470023,-0.5917594397246837
1772562207931029500,9.401029541015625,-9.309918621969222,-2.8848130940020082,-0.6089032475534826
1772562207941012700,9.4110126953125,-9.42482627313137,-2.6340666473299263,-0.5061184342529624
1772562207950995700,9.42099560546875,-8.77412656866014,-2.247593341089785,-0.3570026624102145
1772562207960977700,9.430977783203126,-7.667658780187368,-1.735884174157679,-0.15621100906701757
1772562207970960600,9.440960693359376,-6.430403049853444,-1.1678326500177383,0.050192291879188264
1772562207980942800,9.45094287109375,-5.089644274947047,-0.6224640823289752,0.3212506002232432
1772562207990925800,9.46092578125,-3.7100031039386985,-0.13498451676815748,0.45843361341636624
1772562208000907800,9.47090771484375,-2.401305354681611,0.17384177842885254,0.36134500246345996
1772562208010890800,9.480890869140625,-1.1098492476046085,0.4177487344697118,0.238735690882802
1772562208020873700,9.490873779296875,0.11730126830041408,0.5723091815844178,0.1973480704942718
1772562208030855700,9.500855712890624,1.0611989062041043,0.5614931885376572,0.1784321749590337
1772562208040838700,9.510838623046874,1.755423864147067,0.47107262063920496,0.2008145044958219
1772562208050820600,9.520820556640626,2.428198037782311,0.4100628561422229,0.20418438278771936
1772562208060803600,9.530803466796876,3.0661154175698755,0.4349643654257059,0.11509082570932805
1772562208070785800,9.540785888671875,3.5814281619518993,0.5197606637015938,0.011909779632836579
1772562208080768500,9.5507685546875,3.9783828224569557,0.5991907587692141,-0.08514350427836179
1772562208090751700,9.560751708984375,4.319087187951803,0.6956444693520665,-0.13215857262723146
1772562208100733700,9.570733642578125,4.773011105391383,0.8568035840794443,-0.04396072227954864
1772562208110716700,9.580716552734375,5.309983892917633,1.0609335332661867,0.05200695835202932
1772562208120698600,9.59069873046875,5.763777461975812,1.1736360755994915,0.1986866256216541
1772562208130681900,9.600681884765624,6.128690970575809,1.1698384368821977,0.4184314560368657
1772562208140663600,9.61066357421875,6.405877680405974,1.125061137522757,0.5521645114392042
1772562208150646800,9.620646728515625,6.582533054950833,0.9967258495107293,0.6074410660464317
1772562208160629800,9.630629638671875,6.693672293490171,0.8226780271157622,0.6241751240305602
1772562208170611700,9.64061181640625,6.843912539318204,0.7238190089568496,0.6193184047143906
1772562208180594700,9.6505947265625,7.011997069394588,0.6596700696513056,0.5895530887868256
1772562208190577000,9.660576904296875,7.094809208115935,0.5988868073865771,0.5740242053413763
1772562208200559600,9.6705595703125,7.055766653016209,0.5899997365757823,0.6123458257554099
1772562208210541800,9.680541748046876,7.034945398783683,0.5686600114271044,0.5017044537356123
1772562208220524800,9.69052490234375,7.138495205107331,0.6269277837395668,0.2566133659441024
1772562208230507500,9.700507568359376,7.291980131945014,0.8839782989919185,0.06512892678622156
1772562208240489700,9.71048974609375,7.447256033852696,1.2366788072288035,-0.012849215907417237
1772562208250472700,9.72047265625,7.462617853635549,1.6116054680600762,-0.0782381088040769
1772562208260454700,9.73045458984375,7.371318457075953,1.9050567917317152,-0.23580329069271683
1772562208270437600,9.740437744140625,7.402583363911509,2.1398606961235402,-0.4108008150279522
1772562208280419600,9.750419677734374,7.426115046146512,2.329782087215781,-0.48375418836213646
1772562208290402600,9.760402587890624,7.381447636902332,2.503414022286236,-0.6270272255260497
1772562208300385800,9.7703857421875,7.273117026042938,2.691037365569174,-0.7985213448502123
1772562208310367500,9.780367431640625,6.942829425144195,2.6486618666544555,-0.8339219632510095
1772562208320350700,9.790350830078125,6.384142233937978,2.4391411643400787,-0.8071406315702945
1772562208330332700,9.800332763671875,5.723735374444723,2.069669554044306,-0.6104289227508009
1772562208340315600,9.810315673828125,5.159706237688661,1.5147788325116038,-0.2384901186238974
1772562208350297600,9.820297607421875,4.859550740203261,0.8996636516407132,-0.010810586219280957
1772562208360280800,9.83028076171875,4.581400738298893,0.40367783128023144,0.11107589097954332
1772562208370263600,9.840263671875,4.375723267409205,-0.12789046685397623,0.18624299484044313
1772562208380245800,9.850245849609376,4.193720102095604,-0.5745563759893179,0.07988426857590675
1772562208390228700,9.860228759765626,3.2374779464036223,-0.4441927970200777,-0.1109751340188086
1772562208400210700,9.870210693359375,1.6747393851041792,-0.2327954871788621,-0.1490494286082685
1772562208410193700,9.880193603515625,0.5185235231220722,-0.6575701747626066,0.16444193579033017
1772562208420176000,9.89017578125,0.1688227812230587,-1.4231050496816635,0.6619601533498615
1772562208430158600,9.90015869140625,0.008643325182795524,-1.930178373506665,0.8857357371184974
1772562208440141600,9.9101416015625,-0.7730097408443689,-2.022513542854786,1.1172040673468262
1772562208450123800,9.920123779296874,-1.378392632251978,-1.9712059649437665,1.1500778706837445
1772562208460106500,9.9301064453125,-1.8489298308402298,-1.8545131839305162,0.8038623405519872
1772562208470088700,9.940088623046876,-3.142194448643923,-1.830160248440504,0.6303646993856876
1772562208480071700,9.95007177734375,-4.986499542292952,-2.3553245247513055,0.5998566753320396
1772562208490053600,9.9600537109375,-6.051605392807722,-3.1208354342728852,0.47404177264310415
1772562208500036600,9.97003662109375,-6.460318295645713,-3.3151310949265955,0.11680771262980996
1772562208510019800,9.980019775390625,-7.009014838713407,-2.9771774894446135,-0.1802561755158007
1772562208520001500,9.99000146484375,-7.036020334538817,-2.5639848108440635,-0.5695888167098164
1772562208529984800,9.99998486328125,-6.695200818231702,-2.351288985624909,-1.0893799486149103
1772562208539966500,10.009966552734374,-7.067993097382783,-2.3569857359617945,-1.3836866470068692
1772562208549949700,10.01994970703125,-8.04527979466915,-2.599298116287589,-1.2571329817146062
1772562208559931600,10.029931640625,-9.29304698214531,-2.9776076975554227,-0.7979340464815496
1772562208569914600,10.03991455078125,-10.088031823432445,-3.2226521331936118,-0.4313559656701982
1772562208579897600,10.049897705078125,-10.330980163574218,-3.3942835420966144,-0.36032552322261036
1772562208589879800,10.0598798828125,-10.376081872582436,-3.667493749511242,-0.6052724898356944
1772562208599862500,10.069862548828125,-10.467025295311212,-3.8894665216416118,-0.8268605004321783
1772562208609844700,10.0798447265625,-10.680862107259035,-4.022970152202248,-0.9024183571763336
1772562208619827700,10.08982763671875,-10.580770916956663,-4.044765219902992,-1.051271240299195
1772562208629809700,10.0998095703125,-10.456046805179119,-3.87412106847167,-1.3212383741393685
1772562208639792600,10.109792724609376,-10.311849931168556,-3.8208851528465746,-1.440300368501991
1772562208649774800,10.11977490234375,-9.802201788419485,-3.686227091553807,-1.165065888718143
1772562208659757600,10.129757568359375,-9.106616648039221,-3.4491134489148854,-0.6388131595835089
1772562208669740800,10.13974072265625,-8.19757872659266,-3.263699598374963,-0.08880905931489541
1772562208679722800,10.14972265625,-7.274149291700124,-3.0340351026982066,0.4188206014849245
1772562208689705700,10.159705810546875,-6.423740669354796,-2.733960853755474,0.8315619561213999
1772562208699687700,10.169687744140624,-5.7102972162008285,-2.402024901127815,1.2223778216104955
1772562208709670700,10.179670654296874,-5.050148130860925,-2.1122458362281322,1.5388121806584298
1772562208719653600,10.189653564453126,-4.229824265655875,-1.729819467291236,1.7552498227544129
1772562208729635800,10.1996357421875,-3.288638224798441,-1.1661176627933978,1.7665725962795316
1772562208739618800,10.209618896484375,-2.4642127694934604,-0.4644441424101591,1.5940556367136538
1772562208749600800,10.219600830078125,-1.9349387197762726,0.1154354744285345,1.4471826753616333
1772562208759583700,10.229583740234375,-1.5870552564322948,0.5117243645012378,1.2342001421555877
1772562208769565700,10.239565673828125,-1.1238812800884246,0.8510738082557916,0.8218972520016133
1772562208779548700,10.249548583984375,-0.36007249830961224,1.2257242824941872,0.43849736185744403
1772562208789531600,10.25953173828125,0.5209212319135665,1.6570061600148678,0.19681385401971638
1772562208799513600,10.269513671875,1.3963555744439362,1.975319245481491,0.008736775619909166
1772562208809496600,10.27949658203125,2.35740542267859,2.1903888140946624,-0.04018339569792151
1772562208819478800,10.289478759765625,3.2868706306040285,2.342909864336252,0.14243322533890604
1772562208829461500,10.29946142578125,4.02149306538701,2.329608776475489,0.2986545914031565
1772562208839447600,10.309447509765626,4.709795647543668,2.347399576970935,0.4184829670283943
1772562208849430300,10.31943017578125,5.432751609930396,2.40455178925693,0.5694971198383718
1772562208859413500,10.32941357421875,6.080613460627198,2.4734914699703454,0.7203929069656878
1772562208869395500,10.3393955078125,6.605650895687937,2.549444536577165,0.7703549885518849
1772562208879378400,10.34937841796875,7.02624186784625,2.5830291185319423,0.7619777669593691
1772562208889360400,10.3593603515625,7.403163209626078,2.5027158108890055,0.7150421935874969
1772562208899343600,10.369343505859375,7.751070638367533,2.29645674071908,0.7010727780111133
1772562208909325300,10.3793251953125,8.024238175684212,2.159483388221264,0.6945445452861487
1772562208919308500,10.38930859375,8.163603391754627,2.100799728584289,0.646412090279907
1772562208929291500,10.39929150390625,8.24228179167211,2.0193869352668523,0.4002593280736357
1772562208939273500,10.4092734375,8.249635077044367,1.9181059506580231,0.3088496760725975
1772562208949256400,10.41925634765625,8.208632620048522,1.7448609690785406,0.17019253520630298
1772562208959238700,10.42923876953125,8.11309368622303,1.5643597327604888,-0.03128741092830896
1772562208969221400,10.439221435546875,7.947650026044249,1.523704481767118,-0.28754356093257666
1772562208979203600,10.44920361328125,7.796997107762098,1.6186211920410394,-0.6070404493562876
1772562208989186600,10.4591865234375,7.655409539467096,1.681403811429441,-0.8528875796794891
1772562208999169300,10.469169189453124,7.460234757891297,1.7817849245890973,-0.9999627856053411
1772562209009151500,10.4791513671875,7.334663673895597,1.9535586645722387,-1.1257821452736854
1772562209019134500,10.489134521484376,7.265519410520792,2.1359791785150763,-1.2704685563668607
1772562209029116400,10.499116455078125,7.228356677818298,2.298791613407433,-1.416552267037332
1772562209039099400,10.509099365234375,7.177875029337406,2.4208164030984043,-1.5087164637327193
1772562209049081300,10.519081298828125,6.996752738511562,2.5102102582976222,-1.6492099531807005
1772562209059064300,10.529064208984375,6.54477235635519,2.6409432551011442,-1.6320755707673726
1772562209069046500,10.539046630859374,5.837183474448323,2.6694436656594274,-1.4025224265106022
1772562209079029200,10.549029296875,5.3773640692293645,2.3630808379665016,-1.1874267005428671
1772562209089012500,10.559012451171874,5.528119278842211,1.7661989406615495,-0.9707507196463644
1772562209098994400,10.568994384765626,5.808216323161125,1.3681111844733356,-0.6553843551561236
1772562209108977400,10.578977294921875,5.423081279787421,1.2692694097101687,-0.4030257971122861
1772562209118959400,10.58895947265625,4.4374680681824685,1.051259111469984,-0.33126988993436096
1772562209128942600,10.598942626953125,3.4288463214337823,0.3995201270788908,-0.2200701533794403
1772562209138925300,10.60892529296875,1.9450030176728963,-0.7366466340869665,0.3478016302794218
1772562209148907500,10.618907470703125,0.11976853519678116,-2.064331992408633,1.1307768848210573
1772562209158890500,10.628890380859374,-1.491764159888029,-2.912255227679014,1.6367941237218677
1772562209168872400,10.63887255859375,-2.6045646585136653,-3.0747932295441625,1.6744047463223337
1772562209178855400,10.64885546875,-3.598253040024638,-2.743893634226918,1.1700177389718591
1772562209188837600,10.658837646484375,-4.686898756080866,-2.2590660444796082,0.3202911075413227
1772562209198820400,10.6688203125,-5.767599650612473,-1.9321365218371152,-0.7563418068990111
1772562209208802600,10.678802490234375,-6.686554570439458,-1.641212963077426,-1.87928741357252
1772562209218785500,10.68878564453125,-7.304169751432537,-1.2381938879668712,-2.70581583250612
1772562209228768300,10.698768310546875,-8.027796744948626,-0.9822896201401948,-2.8631115498036146
1772562209238750500,10.70875048828125,-8.808356170520186,-1.0976558287248015,-2.369904254245758
1772562209248733400,10.7187333984375,-8.847295849767328,-1.5618930503860116,-1.4807286788716911
1772562209258715400,10.72871533203125,-8.24304634630382,-2.064460879485309,-0.7886310883462428
1772562209268698400,10.738698486328126,-7.601292164832353,-2.158826970139146,-0.2806390422411263
1772562209278680300,10.748680419921875,-7.224704585051536,-1.9065224803701042,0.07431976631656288
1772562209288663300,10.758663330078125,-6.880078077676892,-1.6633853396579623,0.2582765499159694
1772562209298646500,10.768646484375,-6.555075139182805,-1.5310998527154325,0.33093481276109815
1772562209308628200,10.778628173828125,-6.392291053602099,-1.495132175016403,0.43551308534964916
1772562209318611500,10.788611572265625,-6.0819859180241815,-1.5966227107226847,0.490545090611279
1772562209328593400,10.798593505859374,-5.444378919360041,-1.5594681613266468,0.42655645643398166
1772562209338576400,10.808576416015624,-4.881199092909694,-1.338018536287546,0.42528395228013394
1772562209348559400,10.818559326171876,-4.428166571351886,-1.2382844888597726,0.3627984161421656
1772562209358541600,10.82854150390625,-3.9928409713983535,-1.232733576734364,0.2733643019977957
1772562209368524300,10.838524169921875,-3.6028649177342653,-1.1710384603217243,0.2545176357738674
1772562209378506500,10.848506591796875,-3.1322394563406704,-1.1252417547866702,0.3603777648665011
1772562209388489500,10.858489501953125,-2.6506483642965555,-1.2045686817407608,0.45251938440389927
1772562209398471400,10.868471435546875,-2.315630812266469,-1.282178283382952,0.4965568251814693
1772562209408454400,10.878454345703124,-2.01416890835762,-1.2661261432483792,0.41535548265762623
1772562209418437400,10.888437255859374,-1.5903075362265109,-1.1368149959415197,0.26863566604070366
1772562209428419300,10.89841943359375,-1.0592647232711314,-0.9977861722186208,0.029634090763330456
1772562209438402300,10.90840234375,-0.7752467061161995,-0.8580228967413306,-0.16164609452672302
1772562209448384500,10.918384521484375,-0.5565396577835082,-0.7933774060904979,-0.28131533406749365
1772562209458367200,10.9283671875,0.44465690740048885,-0.6273085997506975,-0.05592120918631553
1772562209468349400,10.938349365234375,-0.12636194211244584,-0.48039895965009927,0.28182956719994545
1772562209478332400,10.94833251953125,0.1423848561525345,-0.4977393860295415,0.10413213625624776
1772562209488315400,10.9583154296875,0.5764993267506361,-0.35576486424356696,-0.10228563160672784
1772562209498297300,10.96829736328125,0.4985100781410932,-0.24014000472277403,-0.1835458647109568
1772562209508280600,10.978280517578124,0.3747679631382227,-0.35500381674319503,-0.19831088764443994
1772562209518262300,10.98826220703125,0.3160743666291237,-0.43724546210020776,-0.24810236190408466
1772562209528245500,10.99824560546875,0.4602747477710247,-0.1912438718676567,-0.12683935036584734
1772562209538227200,11.008227294921875,0.9137532595306634,0.08144464976042509,0.0021799743875861167
1772562209548210400,11.01821044921875,1.8190753753244875,0.29351006812155245,0.011528817491233348
1772562209558193400,11.028193359375,1.7534230457186697,0.6818290022283792,0.15691797002628444
