time,seconds_elapsed,z,y,x
1772562198617296400,0.08729638671875,0.008570830337703228,0.08225472271442413,-0.11933287233114243
1772562198627279600,0.097279541015625,0.009232092648744583,0.08499059081077576,-0.14308828115463257
1772562198637261300,0.10726123046875,0.012832200154662132,0.0863957554101944,-0.14544609189033508
1772562198647244500,0.11724462890625,0.017560375854372978,0.08408785611391068,-0.12056710571050644
1772562198657226500,0.1272265625,0.024421971291303635,0.06469385325908661,-0.08165185153484344
1772562198667209700,0.137209716796875,0.026605229824781418,0.04575478658080101,-0.02855560928583145
1772562198677191400,0.14719140625,0.024234270676970482,0.022614043205976486,0.02347170189023018
1772562198687174700,0.157174560546875,0.015279658138751984,0.00298255099914968,0.06420981138944626
1772562198697157600,0.16715771484375,0.0024937628768384457,-0.014607109129428864,0.08492652326822281
1772562198707139600,0.1771396484375,-0.0021768889855593443,-0.01890837959945202,0.0846618041396141
1772562198717122600,0.18712255859375,-0.007464633323252201,-0.015409051440656185,0.0721527561545372
1772562198727104500,0.1971044921875,-0.007156506180763245,-0.0050283158197999,0.0479680597782135
1772562198737087500,0.20708740234375,-0.005752791650593281,-0.008542687632143497,0.029973434284329414
1772562198747069700,0.217069580078125,0.0009085726924240589,-0.013588045723736286,0.013612303882837296
1772562198757052400,0.227052490234375,0.0032726346980780363,-0.020209060981869698,0.007707512006163597
1772562198767034600,0.23703466796875,0.0013359839795157313,-0.0272616446018219,0.011068420484662056
1772562198777017600,0.247017578125,0.0021240904461592436,-0.03261873126029968,0.014606788754463196
1772562198787000300,0.257000244140625,0.0020678977016359568,-0.03933762013912201,0.00029735779389739037
1772562198796982500,0.266982421875,0.0013688689796254039,-0.03466564044356346,-0.027373891323804855
1772562198806965500,0.276965576171875,0.004402475897222757,-0.03876104950904846,-0.051974307745695114
1772562198816947500,0.286947509765625,0.005563258193433285,-0.043203264474868774,-0.07180497795343399
1772562198826930400,0.296930419921875,0.004725427832454443,-0.040689241141080856,-0.08607499301433563
1772562198836913000,0.306912841796875,-0.00892829429358244,-0.03899753466248512,-0.09707553684711456
1772562198846895600,0.3168955078125,-0.030153952538967133,-0.0357346273958683,-0.10336698591709137
1772562198856877800,0.3268779296875,-0.06105353683233261,-0.053024470806121826,-0.1185511127114296
1772562198866860800,0.33686083984375,-0.1026100367307663,-0.06542281806468964,-0.14887812733650208
1772562198876843800,0.34684375,-0.13552123308181763,-0.0535447783768177,-0.18641991913318634
1772562198886825700,0.35682568359375,-0.16107691824436188,-0.037607621401548386,-0.23296213150024414
1772562198896809000,0.36680908203125,-0.17628662288188934,-0.024246202781796455,-0.27077794075012207
1772562198906790700,0.376790771484375,-0.18477092683315277,-0.01052506547421217,-0.2780550420284271
1772562198916774000,0.38677392578125,-0.193919375538826,0.0008408196154050529,-0.27877306938171387
1772562198926755600,0.396755615234375,-0.17247746884822845,-0.01705535687506199,-0.23904216289520264
1772562198936738800,0.40673876953125,-0.15494512021541595,-0.02210264280438423,-0.17841708660125732
1772562198946721800,0.4167216796875,-0.1471673548221588,-0.026521891355514526,-0.10593196004629135
1772562198956703700,0.426703857421875,-0.13610832393169403,-0.03342527151107788,-0.02682104893028736
1772562198966686700,0.436686767578125,-0.10824579745531082,-0.04570004716515541,0.06069708243012428
1772562198976669000,0.4466689453125,-0.09057396650314331,-0.06067686155438423,0.13859575986862183
1772562198986651600,0.456651611328125,-0.11005712300539017,-0.05020983889698982,0.20662248134613037
1772562198996633900,0.4666337890625,-0.17753024399280548,-0.013837394304573536,0.27991968393325806
1772562199006616800,0.476616943359375,-0.28170883655548096,-0.0843629539012909,0.3761295676231384
1772562199016598800,0.486598876953125,-0.3832398056983948,-0.178765669465065,0.4702185094356537
1772562199026581800,0.496581787109375,-0.4069022834300995,-0.21964280307292938,0.573114275932312
1772562199036564700,0.506564697265625,-0.36669203639030457,-0.20312149822711945,0.6490782499313354
1772562199046546700,0.516546630859375,-0.29836171865463257,-0.111094631254673,0.6891982555389404
1772562199056529700,0.52652978515625,-0.23102259635925293,-0.00023902172688394785,0.6509050726890564
1772562199066512000,0.536511962890625,-0.18104597926139832,0.07784086465835571,0.516745924949646
1772562199076494600,0.54649462890625,-0.14114892482757568,0.14403975009918213,0.3388746678829193
1772562199086476800,0.556476806640625,-0.11262140423059464,0.2085297852754593,0.1521037369966507
1772562199096459800,0.566459716796875,-0.09302657842636108,0.26219335198402405,-0.0026453849859535694
1772562199106441700,0.576441650390625,-0.08662833273410797,0.31503260135650635,-0.13041186332702637
1772562199116424700,0.5864248046875,-0.0844818651676178,0.34596753120422363,-0.22967654466629028
1772562199126408000,0.596407958984375,-0.06555211544036865,0.3399311900138855,-0.29222220182418823
1772562199136389600,0.6063896484375,-0.027072397992014885,0.31956028938293457,-0.32382649183273315
1772562199146372900,0.616372802734375,0.018099341541528702,0.3000659644603729,-0.31864798069000244
1772562199156354600,0.6263544921875,0.05070757865905762,0.32383352518081665,-0.28821462392807007
1772562199166337800,0.636337890625,0.0620606355369091,0.3869973123073578,-0.2358904331922531
1772562199176319700,0.64631982421875,0.05490860342979431,0.4517582058906555,-0.16394390165805817
1772562199186302700,0.656302734375,0.032050423324108124,0.5174511671066284,-0.07705799490213394
1772562199196285700,0.66628564453125,0.00024250289425253868,0.5756300091743469,0.013358090072870255
1772562199206268000,0.676267822265625,-0.0398002527654171,0.6461489200592041,0.09849908947944641
1772562199216250600,0.686250732421875,-0.09356258809566498,0.7184300422668457,0.16320887207984924
1772562199226232800,0.69623291015625,-0.1681678593158722,0.7556716799736023,0.19113744795322418
1772562199236215800,0.7062158203125,-0.252826988697052,0.7341505885124207,0.15045437216758728
1772562199246197800,0.71619775390625,-0.34651803970336914,0.7788277864456177,0.041730284690856934
1772562199256180700,0.7261806640625,-0.43143850564956665,0.7141922116279602,-0.15595164895057678
1772562199266163000,0.736162841796875,-0.5009959936141968,0.6772025227546692,-0.3807506561279297
1772562199276145700,0.746145751953125,-0.5557339191436768,0.6715919375419617,-0.5814618468284607
1772562199286128600,0.756128662109375,-0.6012055277824402,0.701296865940094,-0.8187953233718872
1772562199296110800,0.76611083984375,-0.6747183203697205,0.7645773887634277,-0.9603161811828613
1772562199306093600,0.776093505859375,-0.684401273727417,0.7029222846031189,-0.9788213968276978
1772562199316075800,0.78607568359375,-0.6721111536026001,0.6439722180366516,-1.011783242225647
1772562199326058800,0.796058837890625,-0.6365651488304138,0.6061010360717773,-0.9793974161148071
1772562199336040700,0.806040771484375,-0.5943179130554199,0.5768293142318726,-0.9057616591453552
1772562199346023700,0.816023681640625,-0.5685155987739563,0.5480203032493591,-0.8087533712387085
1772562199356005600,0.826005615234375,-0.5647592544555664,0.5092836022377014,-0.6779690980911255
1772562199365988600,0.835988525390625,-0.5838607549667358,0.47446224093437195,-0.5186691880226135
1772562199375971800,0.845971923828125,-0.6185593605041504,0.4253396689891815,-0.339315265417099
1772562199385953800,0.855953857421875,-0.6685000061988831,0.3775484561920166,-0.1474158763885498
1772562199395936800,0.865936767578125,-0.7440797090530396,0.32438918948173523,0.027850482612848282
1772562199405918700,0.875918701171875,-0.8229852318763733,0.2698820233345032,0.1604042649269104
1772562199415901700,0.885901611328125,-0.8757521510124207,0.23907850682735443,0.2476280927658081
1772562199425883600,0.895883544921875,-0.8879384994506836,0.24935244023799896,0.2763979434967041
1772562199435867000,0.905866943359375,-0.8596299886703491,0.3043862581253052,0.25125813484191895
1772562199445849600,0.915849609375,-0.8047236204147339,0.38299745321273804,0.18094749748706818
1772562199455831800,0.925831787109375,-0.7611071467399597,0.48100924491882324,0.10394059866666794
1772562199465814800,0.935814697265625,-0.7355738282203674,0.529582142829895,0.06169699877500534
1772562199475796700,0.945796630859375,-0.7571187615394592,0.5598762631416321,0.03567333519458771
1772562199485779700,0.95577978515625,-0.8124997019767761,0.5492159128189087,0.012031123042106628
1772562199495762000,0.965761962890625,-0.8741374611854553,0.5428221821784973,-0.00657224003225565
1772562199505744600,0.97574462890625,-0.9326663017272949,0.5340725779533386,-0.014928440563380718
1772562199515726800,0.985726806640625,-0.9733317494392395,0.5089823007583618,-0.0004319441504776478
1772562199525709800,0.995709716796875,-0.9921320676803589,0.47110870480537415,0.03426877781748772
1772562199535692800,1.00569287109375,-1.0000561475753784,0.43205201625823975,0.07584838569164276
1772562199545674800,1.0156748046875,-1.0084974765777588,0.3569444715976715,0.11536809802055359
1772562199555658000,1.025657958984375,-1.0255194902420044,0.23674172163009644,0.15194182097911835
1772562199565639700,1.0356396484375,-1.052580714225769,0.06901796907186508,0.17939527332782745
1772562199575623000,1.045622802734375,-1.0696948766708374,-0.1251109093427658,0.2013489305973053
1772562199585604600,1.0556044921875,-1.0887422561645508,-0.27939820289611816,0.23482060432434082
1772562199595587800,1.065587890625,-1.1083917617797852,-0.3741098642349243,0.2942650616168976
1772562199605569800,1.07556982421875,-1.134459376335144,-0.40920501947402954,0.3652143180370331
1772562199615552800,1.085552734375,-1.1676298379898071,-0.3951983153820038,0.4349750578403473
1772562199625535700,1.09553564453125,-1.187538504600525,-0.34174656867980957,0.5016358494758606
1772562199635518000,1.10551806640625,-1.1985206604003906,-0.25504758954048157,0.5549287796020508
1772562199645500700,1.115500732421875,-1.1952929496765137,-0.16098631918430328,0.5925589799880981
1772562199655483000,1.12548291015625,-1.183321475982666,-0.08533187210559845,0.6083719730377197
1772562199665465900,1.1354658203125,-1.156178593635559,-0.019333144649863243,0.6136178970336914
1772562199675447800,1.14544775390625,-1.1225608587265015,0.029819615185260773,0.628349781036377
1772562199685430800,1.1554306640625,-1.076413631439209,0.039371307939291,0.6351330876350403
1772562199695413800,1.165413818359375,-1.0243895053863525,-0.006209423765540123,0.6179092526435852
1772562199705395700,1.175395751953125,-0.9632343053817749,-0.08358756452798843,0.5816329717636108
1772562199715378700,1.185378662109375,-0.8986545205116272,-0.1795455813407898,0.5351588129997253
1772562199725361000,1.19536083984375,-0.8312253952026367,-0.26668715476989746,0.4843326807022095
1772562199735343600,1.205343505859375,-0.7572020292282104,-0.3500465750694275,0.4315076172351837
1772562199745325800,1.215325927734375,-0.6791951060295105,-0.42519164085388184,0.3831337094306946
1772562199755308800,1.225308837890625,-0.6025627851486206,-0.5027344226837158,0.34627318382263184
1772562199765290800,1.235290771484375,-0.5466031432151794,-0.5891268849372864,0.30771222710609436
1772562199775273700,1.245273681640625,-0.5351569056510925,-0.6397294402122498,0.28741174936294556
1772562199785257000,1.255257080078125,-0.5472438931465149,-0.6238945722579956,0.26991450786590576
1772562199795238700,1.26523876953125,-0.5708504319190979,-0.5313673615455627,0.25704115629196167
1772562199805222000,1.275221923828125,-0.6086382865905762,-0.39529845118522644,0.23219174146652222
1772562199815203600,1.28520361328125,-0.6464018821716309,-0.28158918023109436,0.18391582369804382
1772562199825186800,1.295186767578125,-0.6828634738922119,-0.18759451806545258,0.10831587016582489
1772562199835168500,1.30516845703125,-0.7101151943206787,-0.1164468303322792,0.014112543314695358
1772562199845151500,1.3151513671875,-0.7226645350456238,-0.0742327943444252,-0.08275780826807022
1772562199855134500,1.325134521484375,-0.7220253348350525,-0.08177627623081207,-0.15931841731071472
1772562199865116700,1.33511669921875,-0.7228796482086182,-0.14726154506206512,-0.20668992400169373
1772562199875099400,1.345099365234375,-0.7168610692024231,-0.25346407294273376,-0.21798467636108398
1772562199885081600,1.35508154296875,-0.7088881134986877,-0.38980406522750854,-0.19693106412887573
1772562199895064600,1.365064697265625,-0.6981501579284668,-0.5513505339622498,-0.14727990329265594
1772562199905046500,1.375046630859375,-0.7010580897331238,-0.7099902629852295,-0.08485754579305649
1772562199915029500,1.385029541015625,-0.7149054408073425,-0.8296585083007812,-0.017875613644719124
1772562199925011500,1.395011474609375,-0.7350096702575684,-0.8945072889328003,0.029129711911082268
1772562199934994400,1.404994384765625,-0.7588979005813599,-0.9311188459396362,0.055948372930288315
1772562199944977400,1.414977294921875,-0.7891035079956055,-0.9359354376792908,0.052993327379226685
1772562199954959400,1.42495947265625,-0.8116450905799866,-0.866614818572998,0.03386158496141434
1772562199964942300,1.4349423828125,-0.8315000534057617,-0.7272017598152161,-0.0035984362475574017
1772562199974924500,1.444924560546875,-0.8453736901283264,-0.5631366968154907,-0.059371523559093475
1772562199984907300,1.4549072265625,-0.851302981376648,-0.3897574543952942,-0.13120843470096588
1772562199994889500,1.464889404296875,-0.8643308281898499,-0.24472090601921082,-0.201882004737854
1772562200004872400,1.47487255859375,-0.8561975359916687,-0.167804554104805,-0.2578352689743042
1772562200014855700,1.484855712890625,-0.8205453157424927,-0.14397181570529938,-0.29202020168304443
1772562200024837400,1.49483740234375,-0.7631773948669434,-0.16071617603302002,-0.2997726798057556
1772562200034820600,1.504820556640625,-0.7063156962394714,-0.2277430146932602,-0.28762543201446533
1772562200044802300,1.51480224609375,-0.6607910990715027,-0.35655584931373596,-0.2579479515552521
1772562200054785500,1.52478564453125,-0.6334939002990723,-0.4895714223384857,-0.2184191346168518
1772562200064767500,1.534767578125,-0.6157971620559692,-0.5986814498901367,-0.16672371327877045
1772562200074750500,1.54475048828125,-0.6111001372337341,-0.66978520154953,-0.11591049283742905
1772562200084732400,1.554732421875,-0.6177729368209839,-0.7001119256019592,-0.06627769023180008
1772562200094715600,1.564715576171875,-0.6367854475975037,-0.6828620433807373,-0.05795885622501373
1772562200104698400,1.574698486328125,-0.6600399613380432,-0.627065122127533,-0.0730414092540741
1772562200114680600,1.5846806640625,-0.670501708984375,-0.5595992803573608,-0.10900571197271347
1772562200124663600,1.59466357421875,-0.6495450139045715,-0.4926775395870209,-0.14851823449134827
1772562200134645500,1.6046455078125,-0.6002092361450195,-0.4677237272262573,-0.17569878697395325
1772562200144628500,1.61462841796875,-0.5241248607635498,-0.504220724105835,-0.18313007056713104
1772562200154610400,1.6246103515625,-0.4233906865119934,-0.5773236155509949,-0.17357394099235535
1772562200164593400,1.634593505859375,-0.3228718042373657,-0.6781263947486877,-0.14315424859523773
1772562200174575600,1.64457568359375,-0.24862949550151825,-0.7729613780975342,-0.09235046803951263
1772562200184558300,1.654558349609375,-0.21137560904026031,-0.8360671401023865,-0.037937819957733154
1772562200194541600,1.66454150390625,-0.21057727932929993,-0.8776001334190369,0.024764006957411766
1772562200204523500,1.6745234375,-0.22628086805343628,-0.881992518901825,0.07938650250434875
1772562200214506500,1.684506591796875,-0.23691943287849426,-0.8411411046981812,0.11943141371011734
1772562200224488400,1.694488525390625,-0.22582469880580902,-0.762254536151886,0.14698314666748047
1772562200234471700,1.7044716796875,-0.20228609442710876,-0.6783859729766846,0.14779402315616608
1772562200244453400,1.714453369140625,-0.17023414373397827,-0.5875176191329956,0.13134394586086273
1772562200254436600,1.7244365234375,-0.1345815807580948,-0.4828278422355652,0.08586837351322174
1772562200264419600,1.734419677734375,-0.10334403067827225,-0.3844573199748993,0.031992357224226
1772562200274401500,1.744401611328125,-0.07599422335624695,-0.30762138962745667,-0.020776061341166496
1772562200284384500,1.754384521484375,-0.03927988559007645,-0.2740682363510132,-0.055425114929676056
1772562200294366700,1.76436669921875,0.015446008183062077,-0.2606654167175293,-0.05814133584499359
1772562200304349400,1.774349365234375,0.07235004007816315,-0.26600906252861023,-0.04295199364423752
1772562200314331600,1.78433154296875,0.10865017026662827,-0.2843462824821472,-0.0015078550204634666
1772562200324314600,1.794314697265625,0.12355348467826843,-0.33207467198371887,0.0523521825671196
1772562200334296600,1.804296630859375,0.12269441038370132,-0.38887646794319153,0.1179627776145935
1772562200344279600,1.814279541015625,0.11556033790111542,-0.4215809106826782,0.1860659271478653
1772562200354262500,1.824262451171875,0.1120385155081749,-0.4326876401901245,0.25684767961502075
1772562200364244500,1.834244384765625,0.11164383590221405,-0.436200886964798,0.3252645432949066
1772562200374227500,1.8442275390625,0.10862252116203308,-0.4313671886920929,0.38520902395248413
1772562200384209400,1.85420947265625,0.0997677743434906,-0.4354756474494934,0.4157845079898834
1772562200394192400,1.8641923828125,0.0817258283495903,-0.4109887182712555,0.41746413707733154
1772562200404174600,1.874174560546875,0.06266265362501144,-0.36129438877105713,0.3956634998321533
1772562200414157300,1.8841572265625,0.04136505350470543,-0.3011262118816376,0.35371139645576477
1772562200424140500,1.894140625,0.01272542029619217,-0.23856402933597565,0.2959738075733185
1772562200434122500,1.90412255859375,-0.02784610725939274,-0.21123771369457245,0.23233367502689362
1772562200444105700,1.914105712890625,-0.07696066051721573,-0.2182420939207077,0.17486850917339325
1772562200454087400,1.92408740234375,-0.1264406442642212,-0.23576386272907257,0.13320282101631165
1772562200464070700,1.934070556640625,-0.16446499526500702,-0.2460993230342865,0.11897994577884674
1772562200474052400,1.94405224609375,-0.19066719710826874,-0.23477661609649658,0.12901853024959564
1772562200484035600,1.95403564453125,-0.20010463893413544,-0.1831379234790802,0.1416400521993637
1772562200494017500,1.964017578125,-0.2033812701702118,-0.12351540476083755,0.15463176369667053
1772562200504000500,1.97400048828125,-0.200917050242424,-0.08960137516260147,0.1717015653848648
1772562200513983500,1.9839833984375,-0.19101564586162567,-0.09663232415914536,0.1963498294353485
1772562200523965700,1.993965576171875,-0.17591392993927002,-0.1010824665427208,0.22914452850818634
1772562200533948400,2.003948486328125,-0.16740921139717102,-0.1081170067191124,0.2648431658744812
1772562200543930600,2.0139306640625,-0.16690240800380707,-0.11129654943943024,0.2934716045856476
1772562200553913600,2.02391357421875,-0.17396461963653564,-0.09582371264696121,0.3221205472946167
1772562200563895600,2.0338955078125,-0.1815628707408905,-0.04529556259512901,0.3397197723388672
1772562200573878500,2.04387841796875,-0.19280916452407837,0.04234740510582924,0.3441065847873688
1772562200583860500,2.053860595703125,-0.20248204469680786,0.14601440727710724,0.3360989987850189
1772562200593843500,2.063843505859375,-0.21829071640968323,0.2714492976665497,0.31263110041618347
1772562200603826400,2.073826416015625,-0.24030254781246185,0.4068222939968109,0.2742464244365692
1772562200613808400,2.083808349609375,-0.2747288644313812,0.4960838854312897,0.20090967416763306
1772562200623791400,2.093791259765625,-0.31555140018463135,0.5177564024925232,0.09260077774524689
1772562200633773600,2.103773681640625,-0.36184629797935486,0.5270549058914185,-0.02470123954117298
1772562200643756300,2.11375634765625,-0.3849065899848938,0.5491308569908142,-0.1521068662405014
1772562200653738500,2.123738525390625,-0.390000581741333,0.5487931370735168,-0.2666936218738556
1772562200663721500,2.133721435546875,-0.3758293688297272,0.5066693425178528,-0.35942965745925903
1772562200673704700,2.14370458984375,-0.3364478647708893,0.45825207233428955,-0.41619449853897095
1772562200683686400,2.153686279296875,-0.2849860191345215,0.4181922674179077,-0.43218010663986206
1772562200693669600,2.163669677734375,-0.2286929041147232,0.3819271922111511,-0.4106940031051636
1772562200703651300,2.1736513671875,-0.16480712592601776,0.3587278723716736,-0.3614444136619568
1772562200713634600,2.183634521484375,-0.10178349912166595,0.3686855733394623,-0.2978806793689728
1772562200723616500,2.193616455078125,-0.058524712920188904,0.37694883346557617,-0.22521419823169708
1772562200733599500,2.203599609375,-0.03604654222726822,0.3938067555427551,-0.1414468139410019
1772562200743581400,2.21358154296875,-0.01744968816637993,0.4356074631214142,-0.0556781180202961
1772562200753564700,2.223564697265625,-0.014948473311960697,0.49914026260375977,0.023576725274324417
1772562200763547400,2.23354736328125,-0.022285746410489082,0.5471972227096558,0.0864022970199585
1772562200773529600,2.243529541015625,-0.028631821274757385,0.5388598442077637,0.13195163011550903
1772562200783512600,2.2535126953125,-0.016786348074674606,0.4821523129940033,0.15727616846561432
1772562200793494500,2.26349462890625,0.02380274422466755,0.4286046326160431,0.16264745593070984
1772562200803477500,2.2734775390625,0.08543974906206131,0.3708345293998718,0.14358162879943848
1772562200813459500,2.28345947265625,0.1462816298007965,0.28962117433547974,0.10278425365686417
1772562200823442400,2.2934423828125,0.19514024257659912,0.21743778884410858,0.048428602516651154
1772562200833425400,2.30342529296875,0.22231519222259521,0.19202224910259247,-0.0317414216697216
1772562200843407600,2.31340771484375,0.2226984202861786,0.19383320212364197,-0.12175494432449341
1772562200853390300,2.323390380859375,0.19564592838287354,0.20020072162151337,-0.22942382097244263
1772562200863372500,2.33337255859375,0.1548849195241928,0.18043234944343567,-0.3383273780345917
1772562200873355500,2.34335546875,0.11096848547458649,0.11918686330318451,-0.4332309067249298
1772562200883337500,2.35333740234375,0.0770198404788971,0.04266759380698204,-0.4931190013885498
1772562200893320400,2.363320556640625,0.04301892966032028,-0.006616284139454365,-0.5189840793609619
1772562200903302400,2.373302490234375,0.0031892256811261177,-0.031207378953695297,-0.5270822048187256
1772562200913285400,2.383285400390625,-0.03793090581893921,-0.04906328767538071,-0.5275812745094299
1772562200923268600,2.3932685546875,-0.07310087978839874,-0.03522416949272156,-0.5225926041603088
1772562200933250600,2.40325048828125,-0.10051428526639938,0.02483438514173031,-0.5114690065383911
1772562200943233500,2.413233642578125,-0.12026774883270264,0.0914488360285759,-0.5060151219367981
1772562200953215500,2.423215576171875,-0.1340619921684265,0.1562991440296173,-0.5050606727600098
1772562200963198700,2.43319873046875,-0.12379631400108337,0.2075391709804535,-0.5038009881973267
1772562200973180400,2.443180419921875,-0.089812733232975,0.263516902923584,-0.49233999848365784
1772562200983163600,2.45316357421875,-0.04609854146838188,0.332964152097702,-0.48066043853759766
1772562200993146600,2.463146728515625,0.0066954512149095535,0.39136433601379395,-0.4680401384830475
1772562201003128600,2.473128662109375,0.06889411062002182,0.452480673789978,-0.4667423963546753
1772562201013111600,2.483111572265625,0.11118504405021667,0.47911393642425537,-0.4770596921443939
1772562201023093500,2.493093505859375,0.13453137874603271,0.39435911178588867,-0.4863421618938446
1772562201033076500,2.503076416015625,0.14616714417934418,0.2523578405380249,-0.47570517659187317
1772562201043058700,2.51305859375,0.14951713383197784,0.16216081380844116,-0.43575242161750793
1772562201053041400,2.52304150390625,0.12865395843982697,0.08745335787534714,-0.3721117675304413
1772562201063023600,2.533023681640625,0.09624116867780685,0.055117521435022354,-0.28588151931762695
1772562201073006600,2.543006591796875,0.06540665775537491,0.08532736450433731,-0.20543959736824036
1772562201082989600,2.552989501953125,0.04893607646226883,0.1396539807319641,-0.13284875452518463
1772562201092971500,2.562971435546875,0.035637564957141876,0.16416311264038086,-0.09165827929973602
1772562201102954800,2.572954833984375,0.038993947207927704,0.16278065741062164,-0.07723087072372437
1772562201112936400,2.5829365234375,0.05428548529744148,0.1432427316904068,-0.08870270103216171
1772562201122919700,2.592919677734375,0.07517318427562714,0.12430313229560852,-0.13165922462940216
1772562201132901400,2.6029013671875,0.08662989735603333,0.10678405314683914,-0.20282387733459473
1772562201142884600,2.612884521484375,0.08841314911842346,0.016369471326470375,-0.27355584502220154
1772562201152866600,2.622866455078125,0.08210960775613785,-0.0905119851231575,-0.33156701922416687
1772562201162849800,2.632849853515625,0.06768033653497696,-0.14810523390769958,-0.3774261176586151
1772562201172832500,2.64283251953125,0.03390158340334892,-0.2019990086555481,-0.410814106464386
1772562201182814700,2.652814697265625,-0.031367700546979904,-0.20238888263702393,-0.43175241351127625
1772562201192797700,2.662797607421875,-0.13723057508468628,-0.1365547627210617,-0.45185720920562744
1772562201202779600,2.672779541015625,-0.2775980830192566,-0.06779807806015015,-0.45416590571403503
1772562201212762600,2.6827626953125,-0.3781157433986664,-0.030004015192389488,-0.41744759678840637
1772562201222744600,2.69274462890625,-0.400930255651474,-0.041351739317178726,-0.3524147868156433
1772562201232727600,2.7027275390625,-0.3609807789325714,-0.10923593491315842,-0.26302647590637207
1772562201242710500,2.71271044921875,-0.295740008354187,-0.21567608416080475,-0.15963192284107208
1772562201252692500,2.7226923828125,-0.23886719346046448,-0.3591623306274414,-0.03238550201058388
1772562201262675500,2.732675537109375,-0.19405125081539154,-0.45921385288238525,0.1289176344871521
1772562201272657700,2.74265771484375,-0.1737060397863388,-0.4922175407409668,0.3307898938655853
1772562201282640400,2.752640380859375,-0.1678611934185028,-0.4920348525047302,0.555006742477417
1772562201292622600,2.76262255859375,-0.18597884476184845,-0.44736403226852417,0.7887192368507385
1772562201302605600,2.77260546875,-0.20248857140541077,-0.4112398624420166,1.0228841304779053
1772562201312587500,2.78258740234375,-0.21162216365337372,-0.3829708695411682,1.2198505401611328
1772562201322570500,2.792570556640625,-0.23130585253238678,-0.35757976770401,1.3700306415557861
1772562201332553700,2.8025537109375,-0.2545730173587799,-0.338913232088089,1.4631308317184448
1772562201342535400,2.812535400390625,-0.2825993299484253,-0.3107210099697113,1.5050442218780518
1772562201352518700,2.8225185546875,-0.28853723406791687,-0.2816840410232544,1.4990715980529785
1772562201362500600,2.83250048828125,-0.2902320921421051,-0.2809053361415863,1.4581152200698853
1772562201372483600,2.842483642578125,-0.2891341745853424,-0.26417917013168335,1.3890851736068726
1772562201382465500,2.852465576171875,-0.2947249710559845,-0.2703164219856262,1.2923530340194702
1772562201392448800,2.86244873046875,-0.29370933771133423,-0.3511802554130554,1.1690020561218262
1772562201402431500,2.872431396484375,-0.26956939697265625,-0.5263403654098511,1.0421603918075562
1772562201412413700,2.88241357421875,-0.22332331538200378,-0.7536724209785461,0.939990758895874
1772562201422396700,2.892396728515625,-0.15746493637561798,-0.9969385862350464,0.8806491494178772
1772562201432378600,2.902378662109375,-0.1072445660829544,-1.130521297454834,0.872450053691864
1772562201442361600,2.912361572265625,-0.11547905951738358,-1.0183039903640747,0.9150659441947937
1772562201452343600,2.922343505859375,-0.19391916692256927,-0.6927887797355652,0.9625576138496399
1772562201462326500,2.932326416015625,-0.32011038064956665,-0.26012682914733887,0.9772068858146667
1772562201472308700,2.942308837890625,-0.4533475339412689,0.2165241688489914,0.9339338541030884
1772562201482291500,2.95229150390625,-0.5613166689872742,0.5540779829025269,0.8271378874778748
1772562201492274400,2.9622744140625,-0.6077537536621094,0.5563845634460449,0.6748136878013611
1772562201502256600,2.972256591796875,-0.5797263979911804,0.3871478736400604,0.5626389384269714
1772562201512239400,2.9822392578125,-0.5417094230651855,0.13358718156814575,0.536513090133667
1772562201522221600,2.9922216796875,-0.5259328484535217,-0.1265179067850113,0.586427628993988
1772562201532204500,3.00220458984375,-0.5366150736808777,-0.33344149589538574,0.6811566352844238
1772562201542186500,3.0121865234375,-0.56020188331604,-0.4343302845954895,0.7935787439346313
1772562201552169500,3.02216943359375,-0.5928509831428528,-0.5504832863807678,0.9085602760314941
1772562201562152700,3.032152587890625,-0.6479378938674927,-0.6854110360145569,1.0050588846206665
1772562201572134400,3.042134521484375,-0.7146896123886108,-0.7762078046798706,1.0621392726898193
1772562201582117600,3.05211767578125,-0.7591918110847473,-0.8457474708557129,1.0412733554840088
1772562201592099600,3.062099609375,-0.7445880174636841,-0.8811551928520203,0.9313793182373047
1772562201602082600,3.07208251953125,-0.6957515478134155,-0.7734372615814209,0.7565484046936035
1772562201612064500,3.082064453125,-0.6696797609329224,-0.6004945635795593,0.5339440107345581
1772562201622047700,3.0920478515625,-0.6534688472747803,-0.3927147090435028,0.2692852020263672
1772562201632029400,3.102029541015625,-0.619725227355957,-0.19908367097377777,-0.005159761756658554
1772562201642012700,3.1120126953125,-0.566084623336792,-0.04453084245324135,-0.2717283368110657
1772562201651995600,3.12199560546875,-0.5095767974853516,0.016133848577737808,-0.528003454208374
1772562201661977600,3.1319775390625,-0.46426042914390564,-0.02074214443564415,-0.7394009232521057
1772562201671960600,3.141960693359375,-0.46248674392700195,-0.15844295918941498,-0.8951604962348938
1772562201681942500,3.151942626953125,-0.5152095556259155,-0.3860662579536438,-1.012511968612671
1772562201691925500,3.161925537109375,-0.5875421166419983,-0.6661829948425293,-1.055476427078247
1772562201701907700,3.17190771484375,-0.6575677990913391,-0.979270339012146,-0.9950272440910339
1772562201711890400,3.181890380859375,-0.722040593624115,-1.3040010929107666,-0.8350344300270081
1772562201721873400,3.191873291015625,-0.7822349071502686,-1.6008011102676392,-0.630012571811676
1772562201731855600,3.201855712890625,-0.819486141204834,-1.774226427078247,-0.45639821887016296
1772562201741838300,3.21183837890625,-0.8125965595245361,-1.8160781860351562,-0.3442589044570923
1772562201751820500,3.221820556640625,-0.7648648023605347,-1.72335946559906,-0.3051787316799164
1772562201761803500,3.231803466796875,-0.7042304873466492,-1.4548799991607666,-0.3183152973651886
1772562201771785500,3.241785400390625,-0.6521160006523132,-1.0538532733917236,-0.35685572028160095
1772562201781768400,3.2517685546875,-0.607370138168335,-0.5772659182548523,-0.3933625817298889
1772562201791750400,3.26175048828125,-0.5861043334007263,-0.09531186521053314,-0.40505167841911316
1772562201801733400,3.2717333984375,-0.5709013938903809,0.34308359026908875,-0.3656635284423828
1772562201811716600,3.281716552734375,-0.5446431636810303,0.7255778312683105,-0.28141146898269653
1772562201821698600,3.291698486328125,-0.5108156800270081,1.0073988437652588,-0.1727861911058426
1772562201831681000,3.301680908203125,-0.4621289074420929,1.2029324769973755,-0.05936082452535629
1772562201841663200,3.311663330078125,-0.3946760892868042,1.3346481323242188,0.049241017550230026
1772562201851646000,3.32164599609375,-0.30267009139060974,1.4209575653076172,0.14853766560554504
1772562201861628200,3.331628173828125,-0.187515527009964,1.4827677011489868,0.23959647119045258
1772562201871611100,3.341611083984375,-0.0603184700012207,1.538188099861145,0.3275406062602997
1772562201881593900,3.35159375,0.06084470450878143,1.5805648565292358,0.3993157148361206
1772562201891576000,3.361576171875,0.1665530949831009,1.6185510158538818,0.46064987778663635
1772562201901559000,3.37155908203125,0.2538920044898987,1.647361397743225,0.4981277287006378
1772562201911541000,3.381541015625,0.33104029297828674,1.6709498167037964,0.5252828001976013
1772562201921524000,3.39152392578125,0.3990837633609772,1.709457516670227,0.5391570329666138
1772562201931506200,3.401506103515625,0.42661052942276,1.725564956665039,0.5404577255249023
1772562201941489000,3.411489013671875,0.4105578064918518,1.7523906230926514,0.5202576518058777
1772562201951471000,3.42147119140625,0.38063377141952515,1.7461506128311157,0.46095702052116394
1772562201961454000,3.4314541015625,0.3502276837825775,1.718715786933899,0.3733437955379486
1772562201971437000,3.44143701171875,0.355853408575058,1.6811041831970215,0.2731221616268158
1772562201981419000,3.4514189453125,0.39483514428138733,1.6515012979507446,0.1868717223405838
1772562201991402200,3.46140234375,0.4663470387458801,1.6040973663330078,0.13400253653526306
1772562202001384000,3.471384033203125,0.5482898354530334,1.4875986576080322,0.12561598420143127
1772562202011367200,3.4813671875,0.6571624875068665,1.361223578453064,0.17155955731868744
1772562202021348900,3.491348876953125,0.7862871289253235,1.3018922805786133,0.2409205287694931
1772562202031332000,3.50133203125,0.898248016834259,1.2926713228225708,0.3154537081718445
1772562202041315000,3.511315185546875,0.9787769317626953,1.2233068943023682,0.36462870240211487
1772562202051297000,3.521297119140625,1.0531517267227173,1.0766187906265259,0.3407958149909973
1772562202061280000,3.531280029296875,1.170637607574463,0.900330662727356,0.2491455227136612
1772562202071262200,3.54126220703125,1.332515835762024,0.8138734698295593,0.07181695103645325
1772562202081245000,3.551244873046875,1.4328023195266724,0.8012096285820007,-0.17497393488883972
1772562202091227100,3.56122705078125,1.412827491760254,0.6696143746376038,-0.41784122586250305
1772562202101210000,3.571210205078125,1.2193278074264526,0.5968837141990662,-0.7294082045555115
1772562202111192000,3.581192138671875,0.9899677634239197,0.8831225037574768,-1.023475170135498
1772562202121175000,3.591175048828125,0.7763564586639404,1.4275354146957397,-1.2763251066207886
1772562202131158000,3.601157958984375,0.5126627683639526,1.872916579246521,-1.4838521480560303
1772562202141140000,3.611139892578125,0.13171246647834778,1.9135620594024658,-1.7053149938583374
1772562202151123000,3.621123046875,-0.37504053115844727,1.2513118982315063,-1.9244822263717651
1772562202161105200,3.631105224609375,-0.8708707690238953,0.03343767300248146,-1.9648396968841553
1772562202171088000,3.641087890625,-1.0763084888458252,-1.2359018325805664,-1.7667726278305054
1772562202181070000,3.651070068359375,-0.9691347479820251,-1.9576520919799805,-1.3693076372146606
1772562202191053000,3.661052978515625,-0.6308221817016602,-1.9085559844970703,-0.8154036998748779
1772562202201036000,3.6710361328125,-0.14029240608215332,-1.1568653583526611,-0.21478286385536194
1772562202211018000,3.68101806640625,0.465277761220932,-0.11640357226133347,0.26167142391204834
1772562202221001200,3.691001220703125,0.8838558793067932,0.663865864276886,0.4035542607307434
1772562202230983000,3.70098291015625,0.9795857667922974,0.7522146701812744,0.2210734635591507
1772562202240966100,3.710966064453125,0.7912440896034241,0.34187325835227966,-0.10505031794309616
1772562202250947800,3.72094775390625,0.37001827359199524,-0.2749650478363037,-0.40906453132629395
1772562202260931000,3.73093115234375,-0.12396321445703506,-0.9633898138999939,-0.5408886075019836
1772562202270913000,3.7409130859375,-0.5131116509437561,-1.6083649396896362,-0.43787655234336853
1772562202280896000,3.75089599609375,-0.7259107828140259,-2.060112714767456,-0.20616421103477478
1772562202290879000,3.76087890625,-0.7897496223449707,-2.1775057315826416,-0.033754561096429825
1772562202300861200,3.770861083984375,-0.7159699201583862,-2.0137486457824707,-0.01652177982032299
1772562202310844000,3.780843994140625,-0.5672624707221985,-1.8207453489303589,-0.11611920595169067
1772562202320826000,3.790826171875,-0.41501089930534363,-1.7669860124588013,-0.22362782061100006
1772562202330809000,3.80080908203125,-0.2671639025211334,-1.9689222574234009,-0.26053860783576965
1772562202340791000,3.810791015625,-0.1242845207452774,-2.3931543827056885,-0.2220974564552307
1772562202350774000,3.82077392578125,0.00806301087141037,-2.8339362144470215,-0.12176048010587692
1772562202360757000,3.830757080078125,0.13684149086475372,-3.1589934825897217,0.03117741085588932
1772562202370739000,3.840739013671875,0.2522261142730713,-3.340094804763794,0.19738617539405823
1772562202380722000,3.850721923828125,0.3235631287097931,-3.305635452270508,0.32663872838020325
1772562202390704000,3.8607041015625,0.3440566658973694,-2.977677583694458,0.3282124400138855
1772562202400687000,3.87068701171875,0.3275839388370514,-2.4483089447021484,0.14279839396476746
1772562202410669000,3.8806689453125,0.27187544107437134,-1.7942532300949097,-0.17115125060081482
1772562202420652000,3.890652099609375,0.1796690672636032,-1.0870271921157837,-0.5279693007469177
1772562202430634000,3.900634033203125,0.09156796336174011,-0.4212714731693268,-0.8488509058952332
1772562202440617000,3.910616943359375,0.024331938475370407,0.18582937121391296,-1.040902853012085
1772562202450600200,3.92060009765625,-0.02791961282491684,0.7184459567070007,-1.0845922231674194
1772562202460582100,3.93058203125,-0.05596589669585228,1.1834181547164917,-1.0004909038543701
1772562202470565000,3.940565185546875,-0.05481002479791641,1.5808929204940796,-0.8408700823783875
1772562202480547000,3.950547119140625,-0.014973665587604046,1.9162766933441162,-0.6584813594818115
1772562202490530000,3.960530029296875,0.043396566063165665,2.188377857208252,-0.5024319887161255
1772562202500512000,3.970511962890625,0.13598695397377014,2.4016671180725098,-0.38959622383117676
1772562202510495000,3.980494873046875,0.25455254316329956,2.5783653259277344,-0.3231518864631653
1772562202520478000,3.99047802734375,0.37102270126342773,2.7491328716278076,-0.3257255554199219
1772562202530460200,4.000460205078125,0.4419521391391754,2.880052089691162,-0.40925586223602295
1772562202540443000,4.01044287109375,0.46908336877822876,2.9192442893981934,-0.556142270565033
1772562202550425000,4.020425048828125,0.4690130650997162,2.8360159397125244,-0.687277615070343
1772562202560408000,4.030407958984375,0.4536561965942383,2.609280824661255,-0.7255563139915466
1772562202570390000,4.04039013671875,0.42592358589172363,2.2218194007873535,-0.6264176964759827
1772562202580373000,4.050373046875,0.40150186419487,1.686192274093628,-0.36970439553260803
1772562202590355200,4.060355224609375,0.3707827925682068,1.118298888206482,-0.007986484095454216
1772562202600338000,4.070337890625,0.34292396903038025,0.6773780584335327,0.40193045139312744
1772562202610321200,4.080321044921875,0.30567607283592224,0.412513792514801,0.8201660513877869
1772562202620303000,4.09030322265625,0.26606181263923645,0.3146229088306427,1.1925382614135742
1772562202630286000,4.1002861328125,0.2551218569278717,0.33302557468414307,1.4359941482543945
1772562202640268000,4.11026806640625,0.29659950733184814,0.462181955575943,1.5577301979064941
1772562202650251300,4.120251220703125,0.3954070210456848,0.6237789392471313,1.5655720233917236
1772562202660233000,4.13023291015625,0.5240994691848755,0.7743892073631287,1.4708449840545654
1772562202670216200,4.14021630859375,0.6588325500488281,0.8757293224334717,1.2962651252746582
1772562202680199200,4.15019921875,0.8062097430229187,0.9081663489341736,1.054429292678833
1772562202690181000,4.16018115234375,0.9591459631919861,0.83915114402771,0.7914861440658569
1772562202700164000,4.1701640625,1.1151905059814453,0.6804869174957275,0.5750483870506287
1772562202710146000,4.18014599609375,1.253596305847168,0.5325796008110046,0.4071289896965027
1772562202720129000,4.19012890625,1.338399887084961,0.39463746547698975,0.26174142956733704
1772562202730111200,4.200111328125,1.3286240100860596,0.08995203673839569,0.1449173241853714
1772562202740094000,4.210093994140625,1.2282928228378296,-0.14480188488960266,0.12437662482261658
1772562202750077000,4.220076904296875,0.9973189234733582,-0.18412289023399353,0.19815503060817719
1772562202760059100,4.23005908203125,0.7265667915344238,-0.18998584151268005,0.428579181432724
1772562202770041900,4.240041748046875,0.5553126335144043,-0.27074214816093445,0.5509248971939087
1772562202780024000,4.250024169921875,0.517896831035614,-0.08348330855369568,0.5031054615974426
1772562202790007000,4.260007080078125,0.604155957698822,0.29756227135658264,0.2686351239681244
1772562202799989000,4.269989013671875,0.6975389122962952,0.7608486413955688,-0.06322084367275238
1772562202809972000,4.279971923828125,0.6133050918579102,1.158896565437317,-0.39700740575790405
1772562202819954200,4.2899541015625,0.3287087678909302,1.3936331272125244,-0.6776551008224487
1772562202829937000,4.29993701171875,-0.06916318833827972,1.3282831907272339,-0.8748267889022827
1772562202839920600,4.309920654296875,-0.4778697192668915,0.9138567447662354,-0.969925045967102
1772562202849902300,4.31990234375,-0.8292797803878784,0.25455591082572937,-0.9352683424949646
1772562202859885600,4.329885498046875,-1.0592647790908813,-0.4518510103225708,-0.7755455374717712
1772562202869867500,4.339867431640625,-1.0984383821487427,-0.9517995119094849,-0.5699515342712402
1772562202879850500,4.3498505859375,-0.8981302976608276,-1.0654590129852295,-0.3423655033111572
1772562202889832400,4.35983251953125,-0.5571877956390381,-0.7973438501358032,-0.12180789560079575
1772562202899815700,4.369815673828125,-0.18244986236095428,-0.26570549607276917,0.00848778709769249
1772562202909798700,4.379798583984375,0.092502661049366,0.22708454728126526,-0.024373842403292656
1772562202919780600,4.389780517578125,0.16538405418395996,0.46792060136795044,-0.20021970570087433
1772562202929763600,4.399763671875,0.02660355158150196,0.3838261663913727,-0.41030359268188477
1772562202939745500,4.40974560546875,-0.24250808358192444,0.007700750604271889,-0.5348372459411621
1772562202949728500,4.419728515625,-0.5264862179756165,-0.47457197308540344,-0.4728149473667145
1772562202959710700,4.429710693359375,-0.6656885743141174,-0.7701905369758606,-0.23128916323184967
1772562202969693400,4.439693359375,-0.6085264086723328,-0.8088890314102173,0.06045129895210266
1772562202979675600,4.449675537109375,-0.4421405792236328,-0.6490700244903564,0.21197423338890076
1772562202989658600,4.45965869140625,-0.24746419489383698,-0.49722418189048767,0.1368100494146347
1772562202999641300,4.469641357421875,-0.08504118025302887,-0.4619807004928589,-0.11012011021375656
1772562203009623600,4.47962353515625,0.013271528296172619,-0.5628286004066467,-0.40136227011680603
1772562203019606500,4.4896064453125,0.05375263839960098,-0.7497913241386414,-0.6551148891448975
1772562203029588500,4.49958837890625,0.030155649408698082,-0.9884766340255737,-0.8543399572372437
1772562203039571500,4.509571533203125,-0.08255572617053986,-1.2663233280181885,-1.016593098640442
1772562203049553400,4.519553466796875,-0.2589028477668762,-1.5533610582351685,-1.1319259405136108
1772562203059536400,4.529536376953125,-0.47055089473724365,-1.8528910875320435,-1.1900768280029297
1772562203069519600,4.53951953125,-0.6624523401260376,-2.1761178970336914,-1.17862868309021
1772562203079501300,4.549501220703125,-0.8039383888244629,-2.540152072906494,-1.0793635845184326
1772562203089484500,4.559484619140625,-0.8908505439758301,-2.846816301345825,-0.9375566244125366
1772562203099466500,4.569466552734375,-0.9424428939819336,-2.9623336791992188,-0.801913857460022
1772562203109449700,4.57944970703125,-0.9443249106407166,-2.8105697631835938,-0.7400460839271545
1772562203119431400,4.589431396484375,-0.9296074509620667,-2.3518266677856445,-0.7073360681533813
1772562203129414700,4.59941455078125,-0.8927726745605469,-1.8027307987213135,-0.7118828296661377
1772562203139396400,4.609396240234375,-0.8117662668228149,-1.20218825340271,-0.7724518775939941
1772562203149379600,4.619379638671875,-0.6883048415184021,-0.6111401319503784,-0.8332560658454895
1772562203159363600,4.629363525390625,-0.562099277973175,0.0033270330168306828,-0.8899097442626953
1772562203169346600,4.6393466796875,-0.469589501619339,0.5966519713401794,-0.9330369830131531
1772562203179328500,4.64932861328125,-0.45219239592552185,1.1170525550842285,-0.942595899105072
1772562203189311500,4.6593115234375,-0.4814629852771759,1.4569766521453857,-0.8979693651199341
1772562203199294500,4.66929443359375,-0.5149346590042114,1.6346760988235474,-0.8194370269775391
1772562203209276400,4.6792763671875,-0.5402849912643433,1.7084949016571045,-0.6890851855278015
1772562203219259400,4.68925927734375,-0.5380088090896606,1.6969916820526123,-0.49833545088768005
1772562203229241600,4.69924169921875,-0.5060118436813354,1.643309473991394,-0.26423370838165283
1772562203239224300,4.709224365234375,-0.4509217143058777,1.5659557580947876,-0.020270580425858498
1772562203249206500,4.71920654296875,-0.4051910638809204,1.468488097190857,0.2008846253156662
1772562203259189500,4.729189453125,-0.3809211552143097,1.3401119709014893,0.3708294630050659
1772562203269171500,4.73917138671875,-0.3618491590023041,1.1519765853881836,0.491714745759964
1772562203279154400,4.749154541015625,-0.35634174942970276,0.9489629864692688,0.5904122591018677
1772562203289137700,4.7591376953125,-0.3871433734893799,0.7680548429489136,0.6628031134605408
1772562203299119400,4.769119384765625,-0.4270753264427185,0.6557543873786926,0.7154069542884827
1772562203309102600,4.7791025390625,-0.4455585181713104,0.6218206882476807,0.7745589017868042
1772562203319084300,4.789084228515625,-0.44028013944625854,0.633374035358429,0.8229139447212219
1772562203329067500,4.799067626953125,-0.4141363501548767,0.6640651822090149,0.8522837162017822
1772562203339049500,4.809049560546875,-0.3534085750579834,0.6621559262275696,0.8525359034538269
1772562203349032400,4.819032470703125,-0.26733049750328064,0.6469516158103943,0.8221748471260071
1772562203359015400,4.829015380859375,-0.15511874854564667,0.6522190570831299,0.7660500407218933
1772562203368997600,4.83899755859375,-0.027483584359288216,0.6462657451629639,0.7424387335777283
1772562203378980400,4.84898046875,0.09080630540847778,0.5559965372085571,0.7907963991165161
1772562203388962600,4.858962646484375,0.19960270822048187,0.3540565073490143,0.9112941026687622
1772562203398945500,4.868945556640625,0.3409920632839203,0.1710187792778015,1.0736500024795532
1772562203408927500,4.878927490234375,0.4742968678474426,0.021380813792347908,1.2518184185028076
1772562203418910500,4.888910400390625,0.5714098215103149,-0.006232704967260361,1.4108624458312988
1772562203428892700,4.898892578125,0.6309596300125122,0.09017244726419449,1.5125733613967896
1772562203438875400,4.90887548828125,0.6731462478637695,0.2874005436897278,1.5383758544921875
1772562203448858600,4.918858642578125,0.6698774099349976,0.3773970901966095,1.506483793258667
1772562203458840600,4.928840576171875,0.5871554017066956,0.15955929458141327,1.4257553815841675
1772562203468823600,4.938823486328125,0.46155813336372375,-0.2334851622581482,1.3639196157455444
1772562203478805500,4.948805419921875,0.31210580468177795,-0.5948836207389832,1.3043732643127441
1772562203488788500,4.95878857421875,0.13993015885353088,-0.7772630453109741,1.2341276407241821
1772562203498770400,4.9687705078125,-0.10518266260623932,-0.6963645219802856,1.1058101654052734
1772562203508753700,4.978753662109375,-0.4285918176174164,-0.425351083278656,0.8877627849578857
1772562203518736600,4.988736572265625,-0.7622211575508118,-0.12585625052452087,0.6223731637001038
1772562203528718600,4.998718505859375,-1.0129773616790771,0.06440364569425583,0.40373748540878296
1772562203538701600,5.00870166015625,-1.1132115125656128,0.06642179191112518,0.3245856761932373
1772562203548683500,5.01868359375,-1.095025897026062,-0.044145066291093826,0.4587858319282532
1772562203558666500,5.02866650390625,-0.9992064237594604,-0.09453713893890381,0.7603081464767456
1772562203568648700,5.038648681640625,-0.907523512840271,0.14869947731494904,1.080999493598938
1772562203578631400,5.04863134765625,-0.8635720014572144,0.6656020283699036,1.2846050262451172
1772562203588614400,5.058614501953125,-0.8693429231643677,1.1628834009170532,1.280448317527771
1772562203598596600,5.0685966796875,-0.9369925856590271,1.253017783164978,1.115177869796753
1772562203608579300,5.078579345703125,-1.0086089372634888,0.8931745290756226,0.9519619345664978
1772562203618561500,5.0885615234375,-1.0708051919937134,0.26100215315818787,0.923116147518158
1772562203628544500,5.09854443359375,-1.1052110195159912,-0.4248570203781128,1.0625592470169067
1772562203638526500,5.1085263671875,-1.122557520866394,-0.9717669486999512,1.291099190711975
1772562203648509400,5.118509521484375,-1.1147032976150513,-1.189024806022644,1.4656779766082764
1772562203658492700,5.12849267578125,-1.0578639507293701,-1.0749167203903198,1.4950368404388428
1772562203668474400,5.138474365234375,-0.930293619632721,-0.8431230187416077,1.3689303398132324
1772562203678457600,5.14845751953125,-0.7710448503494263,-0.6019015908241272,1.1181832551956177
1772562203688439600,5.158439453125,-0.6252561807632446,-0.38170886039733887,0.8556441068649292
1772562203698422500,5.168422607421875,-0.5171406269073486,-0.24844826757907867,0.6579946875572205
1772562203708404500,5.178404541015625,-0.4480530917644501,-0.255388468503952,0.5564143657684326
1772562203718387700,5.1883876953125,-0.41208416223526,-0.41356372833251953,0.5385312438011169
1772562203728369400,5.198369384765625,-0.3860378861427307,-0.6862446665763855,0.583797812461853
1772562203738352600,5.2083525390625,-0.3435532748699188,-1.010246753692627,0.708135724067688
1772562203748335600,5.218335693359375,-0.2944602072238922,-1.351120948791504,0.8749480843544006
1772562203758317600,5.228317626953125,-0.26346179842948914,-1.6635890007019043,1.0319709777832031
1772562203768300500,5.238300537109375,-0.2523002624511719,-1.8881689310073853,1.130894422531128
1772562203778282500,5.248282470703125,-0.2557964622974396,-2.0023140907287598,1.1099110841751099
1772562203788265500,5.258265380859375,-0.2632240653038025,-2.04901123046875,0.8877881169319153
1772562203798247700,5.26824755859375,-0.22798165678977966,-2.0063350200653076,0.4885222613811493
1772562203808230400,5.27823046875,-0.18060514330863953,-1.7780475616455078,0.057526759803295135
1772562203818213400,5.28821337890625,-0.1597358137369156,-1.4116261005401611,-0.23787079751491547
1772562203828195600,5.298195556640625,-0.1473880112171173,-1.0273243188858032,-0.4393893778324127
1772562203838178600,5.308178466796875,-0.1335635483264923,-0.635911762714386,-0.5743786692619324
1772562203848160800,5.318160888671875,-0.14082521200180054,-0.26056593656539917,-0.650722086429596
1772562203858143500,5.3281435546875,-0.1715245395898819,0.05359255149960518,-0.6820312738418579
1772562203868125700,5.338125732421875,-0.21068932116031647,0.30425944924354553,-0.6830045580863953
1772562203878108700,5.348108642578125,-0.24266456067562103,0.5128377079963684,-0.6588925719261169
1772562203888090600,5.358090576171875,-0.2700521945953369,0.6641973853111267,-0.6275532245635986
1772562203898073600,5.368073486328125,-0.2963775396347046,0.7463758587837219,-0.6109742522239685
1772562203908056800,5.378056884765625,-0.3226639926433563,0.7500520348548889,-0.614061176776886
1772562203918038500,5.38803857421875,-0.35736072063446045,0.6329677104949951,-0.600003182888031
1772562203928021800,5.398021728515625,-0.3878135681152344,0.4230782389640808,-0.5161463022232056
1772562203938003700,5.408003662109375,-0.4026223421096802,0.2503615915775299,-0.3321448266506195
1772562203947986700,5.417986572265625,-0.40949442982673645,0.22737433016300201,-0.10341624915599823
1772562203957968600,5.42796875,-0.41322070360183716,0.3218978941440582,0.10010411590337753
1772562203967952000,5.437951904296875,-0.39324432611465454,0.4604679346084595,0.2199510931968689
1772562203977934600,5.4479345703125,-0.33403241634368896,0.640789270401001,0.2846781313419342
1772562203987916800,5.457916748046875,-0.2644561529159546,0.7631535530090332,0.3007732629776001
1772562203997899800,5.467899658203125,-0.20163483917713165,0.8166777491569519,0.2569352388381958
1772562204007881700,5.4778818359375,-0.14946787059307098,0.8204811811447144,0.18822388350963593
1772562204017864700,5.48786474609375,-0.1053861603140831,0.7448071837425232,0.14508147537708282
1772562204027846700,5.4978466796875,-0.07723233848810196,0.6109455227851868,0.1492556482553482
1772562204037829600,5.50782958984375,-0.062168437987565994,0.4949771463871002,0.1978258490562439
1772562204047812600,5.5178125,-0.060256924480199814,0.42813897132873535,0.2435394823551178
1772562204057794600,5.527794677734375,-0.06621015816926956,0.4579642415046692,0.27500951290130615
1772562204067777500,5.537777587890625,-0.0680912658572197,0.6315425038337708,0.2945137023925781
1772562204077759700,5.547759765625,-0.0559065043926239,0.9000975489616394,0.32637256383895874
1772562204087742500,5.557742431640625,-0.007455402985215187,1.0907292366027832,0.3074720501899719
1772562204097724700,5.567724609375,0.08176848292350769,1.0760579109191895,0.24491065740585327
1772562204107707600,5.577707763671875,0.2033168375492096,0.8206515908241272,0.16189603507518768
1772562204117689600,5.587689697265625,0.30162501335144043,0.45760729908943176,0.12666800618171692
1772562204127672600,5.597672607421875,0.3730561435222626,0.22436600923538208,0.19839592278003693
1772562204137655800,5.60765576171875,0.455959290266037,0.24296125769615173,0.3349625766277313
1772562204147637500,5.617637451171875,0.5493273735046387,0.26488542556762695,0.3978143632411957
1772562204157620700,5.627620849609375,0.49708226323127747,-0.16131143271923065,0.2534944713115692
1772562204167602700,5.637602783203125,0.21256141364574432,-0.8094818592071533,0.061835821717977524
1772562204177585700,5.647585693359375,-0.16690973937511444,-1.146166205406189,0.0216913353651762
1772562204187567600,5.657567626953125,-0.48051556944847107,-0.9944391250610352,0.07542958110570908
1772562204197550800,5.66755078125,-0.6386266350746155,-0.4464549124240875,0.11129410564899445
1772562204207533600,5.677533447265625,-0.6622318029403687,0.2807304263114929,0.05321884900331497
1772562204217515800,5.687515869140625,-0.6129816770553589,0.9542049765586853,-0.14756564795970917
1772562204227498800,5.697498779296875,-0.5107367634773254,1.2692601680755615,-0.48355811834335327
1772562204237480700,5.707480712890625,-0.40891212224960327,1.115155816078186,-0.8394824266433716
1772562204247463700,5.717463623046875,-0.2830442488193512,0.5317357182502747,-1.046006679534912
1772562204257445600,5.727445556640625,-0.2254461944103241,-0.26368823647499084,-1.0098869800567627
1772562204267428600,5.7374287109375,-0.2873891294002533,-0.9954479932785034,-0.7593793869018555
1772562204277411600,5.74741162109375,-0.4305020868778229,-1.46189284324646,-0.4440033435821533
1772562204287393500,5.7573935546875,-0.6033064126968384,-1.5227159261703491,-0.21769706904888153
1772562204297376500,5.76737646484375,-0.7355477809906006,-1.203635334968567,-0.16166070103645325
1772562204307358700,5.777358642578125,-0.7338436245918274,-0.6844561100006104,-0.26286035776138306
1772562204317341400,5.787341552734375,-0.5875236988067627,-0.09869913011789322,-0.3774260878562927
1772562204327323600,5.79732373046875,-0.37304171919822693,0.22999921441078186,-0.40980255603790283
1772562204337306600,5.807306640625,-0.17514196038246155,0.16531263291835785,-0.33146968483924866
1772562204347289600,5.81728955078125,-0.012712814845144749,-0.19805927574634552,-0.14483779668807983
1772562204357271600,5.827271484375,0.06732875853776932,-0.6674134135246277,0.09098564833402634
1772562204367254800,5.8372548828125,0.05342378094792366,-1.090360403060913,0.3144785761833191
1772562204377236500,5.847236572265625,-0.022802013903856277,-1.3747599124908447,0.5061233639717102
1772562204387219700,5.8572197265625,-0.11738479137420654,-1.5475506782531738,0.6645931005477905
1772562204397201700,5.86720166015625,-0.1981547474861145,-1.6605688333511353,0.7886303663253784
1772562204407184600,5.8771845703125,-0.24715541303157806,-1.630116581916809,0.8192059397697449
1772562204417166600,5.88716650390625,-0.24183574318885803,-1.4487627744674683,0.7021021842956543
1772562204427149800,5.89714990234375,-0.21712185442447662,-1.1828510761260986,0.41081956028938293
1772562204437132500,5.907132568359375,-0.18406721949577332,-0.9234522581100464,-0.051041826605796814
1772562204447114800,5.91711474609375,-0.12486755102872849,-0.6939594745635986,-0.5390655994415283
1772562204457097700,5.92709765625,-0.07061975449323654,-0.5413039326667786,-0.9105629920959473
1772562204467079700,5.93707958984375,-0.036567721515893936,-0.5186334848403931,-1.1196908950805664
1772562204477062700,5.947062744140625,-0.01992243155837059,-0.6101575493812561,-1.1766316890716553
1772562204487044600,5.957044677734375,-0.008165989071130753,-0.7668296098709106,-1.1055784225463867
1772562204497027600,5.967027587890625,0.012134755030274391,-0.9086719751358032,-0.9551185965538025
1772562204507010800,5.9770107421875,0.025372985750436783,-1.0099509954452515,-0.7890118956565857
1772562204516992500,5.986992431640625,0.035368893295526505,-1.0744363069534302,-0.6784044504165649
1772562204526975700,5.996975830078125,0.04533641040325165,-0.9999678730964661,-0.7097463011741638
1772562204536957700,6.006957763671875,0.07168253511190414,-0.7715043425559998,-0.8911131620407104
1772562204546940700,6.016940673828125,0.11622393131256104,-0.4305381178855896,-1.1432981491088867
1772562204556922600,6.026922607421875,0.17989398539066315,0.019435420632362366,-1.411865472793579
1772562204566905900,6.03690576171875,0.2310788333415985,0.5502734184265137,-1.6389838457107544
1772562204576888600,6.046888671875,0.27006563544273376,1.0946216583251953,-1.7935768365859985
1772562204586870800,6.056870849609375,0.29183417558670044,1.5586007833480835,-1.8603297472000122
1772562204596853800,6.066853759765625,0.3071577250957489,1.8961961269378662,-1.857142448425293
1772562204606835700,6.076835693359375,0.32965919375419617,2.136270761489868,-1.77489173412323
1772562204616818700,6.086818603515625,0.3631497621536255,2.300153970718384,-1.6423773765563965
1772562204626801000,6.09680078125,0.4137771725654602,2.3872931003570557,-1.4671454429626465
1772562204636783600,6.10678369140625,0.49202537536621094,2.385258674621582,-1.2836356163024902
1772562204646765800,6.116765869140625,0.5992156267166138,2.342292308807373,-1.1062262058258057
1772562204656748800,6.126748779296875,0.7112516164779663,2.295745372772217,-0.9403322339057922
1772562204666731500,6.1367314453125,0.8175826072692871,2.221012830734253,-0.7852545380592346
1772562204676713700,6.146713623046875,0.93072909116745,2.1083405017852783,-0.6530035138130188
1772562204686696700,6.15669677734375,1.0439530611038208,2.002298593521118,-0.5369315147399902
1772562204696678700,6.1666787109375,1.1392995119094849,1.8796435594558716,-0.427447110414505
1772562204706661600,6.17666162109375,1.2037041187286377,1.7779299020767212,-0.3083682656288147
1772562204716643600,6.1866435546875,1.2448593378067017,1.7087838649749756,-0.1715547740459442
1772562204726626600,6.19662646484375,1.2623188495635986,1.6441724300384521,-0.027889568358659744
1772562204736609800,6.20660986328125,1.2570377588272095,1.5755184888839722,0.1122070848941803
1772562204746591500,6.216591552734375,1.2472134828567505,1.5181891918182373,0.23356600105762482
1772562204756574700,6.22657470703125,1.2404154539108276,1.475606918334961,0.3389406204223633
1772562204766556700,6.236556640625,1.2365821599960327,1.4162569046020508,0.43345534801483154
1772562204776539600,6.24653955078125,1.2801791429519653,1.3169255256652832,0.48611029982566833
1772562204786521600,6.256521484375,1.3813003301620483,1.149204969406128,0.49681520462036133
1772562204796504800,6.2665048828125,1.493252158164978,0.94588303565979,0.5012091398239136
1772562204806487600,6.276487548828125,1.5648417472839355,0.7603919506072998,0.5136756896972656
1772562204816469800,6.2864697265625,1.5970162153244019,0.6716676950454712,0.5202710032463074
1772562204826452700,6.29645263671875,1.627623438835144,0.6572690606117249,0.5315892100334167
1772562204836434400,6.306434326171875,1.6467273235321045,0.5936309099197388,0.5114985704421997
1772562204846417400,6.31641748046875,1.6289440393447876,0.41771817207336426,0.42658063769340515
1772562204856399600,6.326399658203125,1.5645102262496948,0.1032683476805687,0.29139086604118347
1772562204866382300,6.33638232421875,1.3588577508926392,-0.3883707523345947,0.10799895226955414
1772562204876364500,6.346364501953125,0.9944204092025757,-0.9127306938171387,-0.03602053225040436
1772562204886347500,6.356347412109375,0.5486398339271545,-1.3671590089797974,-0.04664051905274391
1772562204896330200,6.366330322265625,0.04969080165028572,-1.6842153072357178,0.021712971851229668
1772562204906312400,6.3763125,-0.395073801279068,-1.697675347328186,0.07875768095254898
1772562204916295400,6.38629541015625,-0.6916599869728088,-1.4359228610992432,0.031193889677524567
1772562204926277400,6.39627734375,-0.817866861820221,-1.0177936553955078,-0.15470217168331146
1772562204936260400,6.40626025390625,-0.7871302366256714,-0.5357892513275146,-0.4233035445213318
1772562204946242300,6.4162421875,-0.6317023634910583,-0.06057704985141754,-0.6382598280906677
1772562204956225300,6.426225341796875,-0.43770596385002136,0.2842823565006256,-0.6994296908378601
1772562204966208500,6.43620849609375,-0.25372710824012756,0.4679422378540039,-0.5954744219779968
1772562204976190200,6.446190185546875,-0.0590532161295414,0.5673575401306152,-0.3473210632801056
1772562204986173400,6.45617333984375,0.12267868965864182,0.6544083952903748,-0.0345538966357708
1772562204996155400,6.4661552734375,0.2238130271434784,0.7037655711174011,0.18817904591560364
1772562205006138400,6.476138427734375,0.23519572615623474,0.6637340188026428,0.20319227874279022
1772562205016120300,6.486120361328125,0.18264862895011902,0.5037289261817932,0.092653788626194
1772562205026103600,6.496103515625,0.07324014604091644,0.2018030434846878,-0.04363264888525009
1772562205036086300,6.506086181640625,-0.03767331689596176,-0.21002019941806793,-0.10694717615842819
1772562205046068500,6.516068359375,-0.09575249254703522,-0.6521102786064148,-0.0517490953207016
1772562205056051500,6.526051513671875,-0.0912509486079216,-1.0573506355285645,0.09846490621566772
1772562205066033400,6.536033447265625,-0.03149029612541199,-1.3865089416503906,0.2791532278060913
1772562205076016400,6.546016357421875,0.06630896776914597,-1.659492015838623,0.4104364216327667
1772562205085998600,6.55599853515625,0.18927247822284698,-1.846465826034546,0.47065624594688416
1772562205095981300,6.565981201171875,0.32470542192459106,-1.966462254524231,0.48723095655441284
1772562205105964500,6.575964599609375,0.47072508931159973,-2.0369608402252197,0.49176108837127686
1772562205115946500,6.585946533203125,0.5917719006538391,-2.00614857673645,0.47934195399284363
1772562205125929500,6.595929443359375,0.6682225465774536,-1.8667734861373901,0.4117787480354309
1772562205135911400,6.605911376953125,0.7247819304466248,-1.6924101114273071,0.2825259566307068
1772562205145894400,6.615894287109375,0.7596400380134583,-1.5327796936035156,0.11439770460128784
1772562205155876400,6.62587646484375,0.7856705784797668,-1.4304540157318115,-0.04797469824552536
1772562205165859600,6.635859619140625,0.7957859635353088,-1.3758387565612793,-0.14674584567546844
1772562205175841300,6.64584130859375,0.7875139117240906,-1.4269708395004272,-0.1879955530166626
1772562205185824500,6.655824462890625,0.7445529103279114,-1.5904024839401245,-0.1860654056072235
1772562205195807500,6.665807373046875,0.6466695070266724,-1.8255558013916016,-0.18507151305675507
1772562205205789400,6.67578955078125,0.5088998675346375,-2.056699514389038,-0.22822239995002747
1772562205215772400,6.6857724609375,0.37289220094680786,-2.2337849140167236,-0.28074392676353455
1772562205225754600,6.695754638671875,0.2609138488769531,-2.2866663932800293,-0.31249240040779114
1772562205235737300,6.7057373046875,0.1651063710451126,-2.1685855388641357,-0.3322985768318176
1772562205245719600,6.715719482421875,0.08272137492895126,-1.8591326475143433,-0.35418325662612915
1772562205255702500,6.72570263671875,0.008423974737524986,-1.4161165952682495,-0.3749804198741913
1772562205265685200,6.735685302734375,-0.06503527611494064,-0.885883629322052,-0.3909132480621338
1772562205275667500,6.74566748046875,-0.15255606174468994,-0.3176182806491852,-0.41288885474205017
1772562205285650400,6.755650390625,-0.2580866515636444,0.2128421813249588,-0.45927128195762634
1772562205295632400,6.76563232421875,-0.3602338135242462,0.67149817943573,-0.5352824330329895
1772562205305615400,6.775615478515625,-0.4397684931755066,1.0638129711151123,-0.6293359994888306
1772562205315597600,6.78559765625,-0.4879000782966614,1.385399341583252,-0.7308357357978821
1772562205325580300,6.795580322265625,-0.49795636534690857,1.6488659381866455,-0.8225964307785034
1772562205335563500,6.8055634765625,-0.4859215319156647,1.8659162521362305,-0.87613844871521
1772562205345545500,6.81554541015625,-0.43227124214172363,2.0352909564971924,-0.889237105846405
1772562205355528400,6.825528564453125,-0.3384566009044647,2.1545121669769287,-0.8645676970481873
1772562205365510400,6.835510498046875,-0.2273900806903839,2.2230868339538574,-0.8040878772735596
1772562205375493600,6.84549365234375,-0.09190868586301804,2.2405495643615723,-0.7297912836074829
1772562205385475300,6.855475341796875,0.067296601831913,2.242445945739746,-0.6310555338859558
1772562205395458600,6.86545849609375,0.2254079282283783,2.217101573944092,-0.5043822526931763
1772562205405441500,6.875441650390625,0.37293541431427,2.155193328857422,-0.349619597196579
1772562205415423500,6.885423583984375,0.49067243933677673,2.046475410461426,-0.16960883140563965
1772562205425406500,6.895406494140625,0.5846502780914307,1.8906251192092896,0.02105705440044403
1772562205435388400,6.905388427734375,0.6437854766845703,1.697760820388794,0.20738485455513
1772562205445371400,6.915371337890625,0.6783128976821899,1.4490019083023071,0.39331814646720886
1772562205455353600,6.925353515625,0.6926447153091431,1.1641994714736938,0.591939389705658
1772562205465336300,6.93533642578125,0.6909402012825012,0.8488703370094299,0.7935657501220703
1772562205475318500,6.945318603515625,0.6615586280822754,0.5419255495071411,0.9771518111228943
1772562205485301500,6.955301513671875,0.5985373854637146,0.2784018814563751,1.1329420804977417
1772562205495284200,6.9652841796875,0.5309519171714783,0.10639309883117676,1.2535768747329712
1772562205505266400,6.975266357421875,0.49087104201316833,0.03010566160082817,1.3245177268981934
1772562205515249400,6.98524951171875,0.46505647897720337,0.06563355773687363,1.311156988143921
1772562205525231400,6.9952314453125,0.46347370743751526,0.19826771318912506,1.211008071899414
1772562205535214300,7.00521435546875,0.5056337118148804,0.4154658019542694,1.0319530963897705
1772562205545196500,7.015196533203125,0.6435540318489075,0.666713297367096,0.8056159615516663
1772562205555179300,7.02517919921875,0.9296968579292297,1.0202572345733643,0.5776509642601013
1772562205565162500,7.03516259765625,1.2399438619613647,1.0731103420257568,0.28994348645210266
1772562205575144400,7.04514453125,1.3053045272827148,0.7264896035194397,-0.0382024347782135
1772562205585127400,7.05512744140625,1.0515655279159546,0.1956440806388855,-0.32235121726989746
1772562205595109400,7.065109375,0.6218248605728149,-0.20509560406208038,-0.5399282574653625
1772562205605092600,7.075092529296875,0.2381593883037567,-0.42255136370658875,-0.6672863960266113
1772562205615074300,7.08507421875,-0.08513745665550232,-0.73512202501297,-0.7291010022163391
1772562205625057500,7.0950576171875,-0.4992007911205292,-1.1651630401611328,-0.8004066944122314
1772562205635040500,7.10504052734375,-0.913176953792572,-1.3952056169509888,-0.8376011848449707
1772562205645022500,7.1150224609375,-1.178950309753418,-1.3404406309127808,-0.8003813624382019
1772562205655005400,7.12500537109375,-1.259629249572754,-1.005620002746582,-0.6826640367507935
1772562205664987400,7.1349873046875,-1.1727538108825684,-0.406876802444458,-0.4640221893787384
1772562205674970400,7.144970458984375,-0.9895160794258118,0.36898165941238403,-0.16445307433605194
1772562205684952600,7.15495263671875,-0.709437906742096,1.1784539222717285,0.15940165519714355
1772562205694935300,7.164935302734375,-0.3448796272277832,1.7350114583969116,0.40535444021224976
1772562205704918300,7.174918212890625,0.005733503960072994,1.9008922576904297,0.4698251783847809
1772562205714900500,7.184900390625,0.21195217967033386,1.6423605680465698,0.4057995676994324
1772562205724883200,7.19488330078125,0.19620822370052338,0.9628795385360718,0.2889822721481323
1772562205734865400,7.204865478515625,0.012217075563967228,-0.07882364094257355,0.2005498707294464
1772562205744848400,7.214848388671875,-0.18909208476543427,-1.1679035425186157,0.19605956971645355
1772562205754830300,7.224830322265625,-0.26933208107948303,-2.0201950073242188,0.37144845724105835
1772562205764813300,7.234813232421875,-0.21310342848300934,-2.501556873321533,0.6818318963050842
1772562205774796500,7.244796630859375,-0.08240427821874619,-2.601304054260254,1.0088554620742798
1772562205784778200,7.2547783203125,0.09274348616600037,-2.401719331741333,1.2212212085723877
1772562205794761500,7.264761474609375,0.2616446316242218,-2.125934362411499,1.2627334594726562
1772562205804743400,7.274743408203125,0.4107521176338196,-1.8794301748275757,1.1559536457061768
1772562205814726400,7.284726318359375,0.5515662431716919,-1.6994353532791138,0.9866339564323425
1772562205824708400,7.294708251953125,0.6569414734840393,-1.699075698852539,0.7919830083847046
1772562205834691600,7.304691650390625,0.6966947317123413,-1.8945035934448242,0.6288031339645386
1772562205844673300,7.31467333984375,0.6560253500938416,-2.258157253265381,0.5498427152633667
1772562205854656500,7.324656494140625,0.5625223517417908,-2.6929819583892822,0.5865346789360046
1772562205864639500,7.334639404296875,0.47346797585487366,-3.154104471206665,0.7166647911071777
1772562205874621400,7.344621337890625,0.4265446662902832,-3.5898237228393555,0.8772971034049988
1772562205884604400,7.3546044921875,0.3689032793045044,-3.8565714359283447,0.8985065221786499
1772562205894586600,7.364586669921875,0.27948737144470215,-3.6407182216644287,0.5362172722816467
1772562205904569600,7.374569580078125,0.19735462963581085,-2.901857376098633,-0.10468700528144836
1772562205914551600,7.384551513671875,0.14106233417987823,-1.8181507587432861,-0.8784037232398987
1772562205924534500,7.394534423828125,0.1144452691078186,-0.468971848487854,-1.6252511739730835
1772562205934517500,7.404517578125,0.09376103430986404,0.7430425882339478,-2.1317641735076904
1772562205944499500,7.41449951171875,0.07106073200702667,1.6408588886260986,-2.441974401473999
1772562205954482400,7.424482421875,0.032990582287311554,2.210880994796753,-2.528731346130371
1772562205964464400,7.43446435546875,-0.03931378573179245,2.4096803665161133,-2.46264910697937
1772562205974447600,7.444447509765625,-0.11997507512569427,2.4168179035186768,-2.260453224182129
1772562205984429600,7.4544296875,-0.17856714129447937,2.3005106449127197,-1.9560760259628296
1772562205994412500,7.46441259765625,-0.2100593000650406,2.1233134269714355,-1.6000151634216309
1772562206004395500,7.4743955078125,-0.23205223679542542,1.9198468923568726,-1.220811367034912
1772562206014377500,7.48437744140625,-0.2557263970375061,1.7476693391799927,-0.8505459427833557
1772562206024360400,7.4943603515625,-0.274931401014328,1.62839674949646,-0.538359522819519
1772562206034342400,7.50434228515625,-0.2808034121990204,1.536124587059021,-0.3311527967453003
1772562206044325600,7.51432568359375,-0.27342966198921204,1.451873540878296,-0.23220165073871613
1772562206054307600,7.5243076171875,-0.2680162489414215,1.3779716491699219,-0.21800513565540314
1772562206064290600,7.53429052734375,-0.2808900475502014,1.3145450353622437,-0.24481718242168427
1772562206074273500,7.5442734375,-0.3165191411972046,1.2415409088134766,-0.272733211517334
1772562206084255500,7.55425537109375,-0.36567264795303345,1.1367974281311035,-0.26418906450271606
1772562206094238500,7.564238525390625,-0.4128710627555847,0.9663114547729492,-0.20570045709609985
1772562206104220400,7.574220458984375,-0.45209062099456787,0.7298806309700012,-0.0783829540014267
1772562206114203400,7.584203369140625,-0.46343061327934265,0.43790555000305176,0.10867588222026825
1772562206124185600,7.594185546875,-0.4461767077445984,0.1458211988210678,0.33323562145233154
1772562206134168600,7.60416845703125,-0.4154760539531708,-0.06008376181125641,0.5431470274925232
1772562206144150500,7.614150634765625,-0.3808574378490448,-0.13610400259494781,0.7152567505836487
1772562206154133500,7.624133544921875,-0.3230500817298889,-0.10343340784311295,0.8483253121376038
1772562206164116700,7.63411669921875,-0.23360098898410797,0.04251578077673912,0.9335581660270691
1772562206174098400,7.644098388671875,-0.09083904325962067,0.27644917368888855,0.9693981409072876
1772562206184081700,7.65408154296875,0.09880825132131577,0.4881325662136078,0.9627981781959534
1772562206194063400,7.6640634765625,0.3095867931842804,0.6769304275512695,0.9386811256408691
1772562206204046600,7.674046630859375,0.4812285900115967,0.832994818687439,0.9131799340248108
1772562206214028500,7.684028564453125,0.6276566386222839,0.9375036358833313,0.9038495421409607
1772562206224011500,7.694011474609375,0.7422656416893005,0.8753577470779419,0.8736154437065125
1772562206233994500,7.703994384765625,0.7821901440620422,0.5705275535583496,0.785704493522644
1772562206243976700,7.713976806640625,0.7223583459854126,0.1113399937748909,0.6700250506401062
1772562206253959400,7.72395947265625,0.5434522032737732,-0.33061984181404114,0.5892018675804138
1772562206263941600,7.733941650390625,0.25566837191581726,-0.48598700761795044,0.5773874521255493
1772562206273924600,7.743924560546875,-0.050347477197647095,-0.3693956732749939,0.5980136394500732
1772562206283906600,7.753906494140625,-0.3314357101917267,-0.1575203388929367,0.5764749646186829
1772562206293889500,7.7638896484375,-0.5730164051055908,0.05916668474674225,0.48678186535835266
1772562206303872500,7.77387255859375,-0.7627224326133728,0.1838432252407074,0.32722365856170654
1772562206313854500,7.7838544921875,-0.8896758556365967,0.23737728595733643,0.10262969136238098
1772562206323837400,7.79383740234375,-0.9727966785430908,0.11971990019083023,-0.1388789266347885
1772562206333819400,7.8038193359375,-1.0402488708496094,-0.1303330808877945,-0.2545245587825775
1772562206343802400,7.81380224609375,-1.0835992097854614,-0.3833078145980835,-0.16373828053474426
1772562206353784600,7.82378466796875,-1.068781852722168,-0.5211490392684937,0.12035336345434189
1772562206363767600,7.833767578125,-0.9848496913909912,-0.5303661227226257,0.5012386441230774
1772562206373750500,7.84375048828125,-0.8580736517906189,-0.39080873131752014,0.8450111746788025
1772562206383732500,7.853732421875,-0.7432956695556641,-0.08871445804834366,0.9868563413619995
1772562206393715700,7.8637158203125,-0.6473057270050049,0.2535480856895447,0.8318371772766113
1772562206403697400,7.873697509765625,-0.5446014404296875,0.5416934490203857,0.4665653109550476
1772562206413680600,7.8836806640625,-0.4966253936290741,0.6892775893211365,0.07129201292991638
1772562206423662300,7.893662353515625,-0.49569615721702576,0.6460866332054138,-0.19161881506443024
1772562206433645600,7.9036455078125,-0.46860700845718384,0.3733198046684265,-0.24916893243789673
1772562206443628500,7.913628662109375,-0.38628140091896057,-0.09935718029737473,-0.11795224994421005
1772562206453610500,7.923610595703125,-0.22139471769332886,-0.6462860107421875,0.147689551115036
1772562206463593500,7.933593505859375,0.031716275960206985,-1.1798408031463623,0.48367786407470703
1772562206473575700,7.94357568359375,0.3114861249923706,-1.633603572845459,0.808464765548706
1772562206483558400,7.953558349609375,0.5791766047477722,-1.9988714456558228,1.009536623954773
1772562206493540600,7.96354052734375,0.8015129566192627,-2.2159485816955566,1.0403262376785278
1772562206503523600,7.973523681640625,0.9538957476615906,-2.244504690170288,0.9477614760398865
1772562206513504500,7.98350439453125,1.043533444404602,-2.102574348449707,0.7550761699676514
1772562206523486700,7.99348681640625,1.0557347536087036,-1.8594799041748047,0.42746150493621826
1772562206533469400,8.003469482421876,0.9846043586730957,-1.5508383512496948,-0.02204626053571701
1772562206543452400,8.013452392578126,0.8300213813781738,-1.2299989461898804,-0.5450597405433655
1772562206553434600,8.0234345703125,0.6115924119949341,-0.9488928914070129,-1.0596601963043213
1772562206563417300,8.033417236328125,0.37054505944252014,-0.7133945822715759,-1.4744973182678223
1772562206573399600,8.043399658203125,0.10557063668966293,-0.5080555081367493,-1.7540216445922852
1772562206583382500,8.053382568359375,-0.15923091769218445,-0.3425680994987488,-1.9001505374908447
1772562206593364500,8.063364501953124,-0.40280231833457947,-0.25977200269699097,-1.9151904582977295
1772562206603347500,8.073347412109374,-0.6045894026756287,-0.281787633895874,-1.821523666381836
1772562206613330700,8.08333056640625,-0.7609660029411316,-0.4354935884475708,-1.6616567373275757
1772562206623312400,8.0933125,-0.872058093547821,-0.6883642077445984,-1.4721711874008179
1772562206633295600,8.103295654296875,-0.9323640465736389,-0.9089988470077515,-1.2934526205062866
1772562206643277300,8.11327734375,-0.9484289288520813,-0.98018479347229,-1.134621500968933
1772562206653260500,8.123260498046875,-0.9268423914909363,-0.771882951259613,-1.0398081541061401
1772562206663242500,8.133242431640625,-0.87809818983078,-0.42172470688819885,-0.8903633952140808
1772562206673225500,8.1432255859375,-0.7813165187835693,0.04499347135424614,-0.7778691053390503
1772562206683208400,8.15320849609375,-0.6336855292320251,0.5079333186149597,-0.6467964053153992
1772562206693190700,8.163190673828124,-0.4303601384162903,0.9199512600898743,-0.5344123244285583
1772562206703173400,8.17317333984375,-0.19292615354061127,1.273486614227295,-0.46092352271080017
1772562206713155600,8.183155517578125,0.03252694010734558,1.5599864721298218,-0.4343070983886719
1772562206723138600,8.193138671875,0.19777458906173706,1.8010472059249878,-0.43589311838150024
1772562206733120500,8.20312060546875,0.3159220218658447,1.9665488004684448,-0.4217056632041931
1772562206743103500,8.213103515625,0.3963262140750885,2.0408997535705566,-0.39767056703567505
1772562206753086500,8.22308642578125,0.4474501311779022,1.9895873069763184,-0.3683702051639557
1772562206763068400,8.233068359375,0.4635430574417114,1.8540632724761963,-0.32089465856552124
1772562206773051400,8.243051513671874,0.4563930034637451,1.7043890953063965,-0.24072498083114624
1772562206783033600,8.25303369140625,0.4205482304096222,1.5352376699447632,-0.1434817612171173
1772562206793016300,8.263016357421876,0.3443205654621124,1.357182502746582,-0.040017686784267426
1772562206802998500,8.27299853515625,0.2509796619415283,1.2005600929260254,0.06908578425645828
1772562206812981500,8.2829814453125,0.15920421481132507,1.0673333406448364,0.15112072229385376
1772562206822963500,8.29296337890625,0.0890718549489975,0.974577009677887,0.21195685863494873
1772562206832946400,8.302946533203125,0.0320889949798584,0.8452352285385132,0.3043895959854126
1772562206842929000,8.312928955078124,-0.007473246194422245,0.7380660176277161,0.392010360956192
1772562206852910800,8.322910888671874,-0.020976539701223373,0.6382126808166504,0.5041278600692749
1772562206862893800,8.332893798828126,-0.011656846851110458,0.5948089361190796,0.6178438067436218
1772562206872875800,8.342875732421875,0.012033302336931229,0.6640226244926453,0.6857680082321167
1772562206882858800,8.352858642578125,0.04122554510831833,0.8561677932739258,0.6971509456634521
1772562206892841000,8.362841064453125,0.0504898838698864,1.1043033599853516,0.627597987651825
1772562206902823700,8.37282373046875,0.026768414303660393,1.2943047285079956,0.4690513014793396
1772562206912806700,8.382806640625,-0.049173753708601,1.3233741521835327,0.2976262867450714
1772562206922788900,8.392788818359374,-0.1575412154197693,1.2265452146530151,0.2234538197517395
1772562206932771600,8.402771484375,-0.2792830765247345,1.2142869234085083,0.2783724367618561
1772562206942754800,8.4127548828125,-0.40409404039382935,1.2386083602905273,0.3675493597984314
1772562206952737800,8.42273779296875,-0.4783000946044922,1.2953294515609741,0.42043840885162354
1772562206962720000,8.432719970703126,-0.5313878655433655,1.3189505338668823,0.3990340232849121
1772562206972702700,8.44270263671875,-0.647831916809082,1.261646032333374,0.3323761820793152
1772562206982685000,8.452684814453125,-0.8395423889160156,1.1978260278701782,0.2545168399810791
1772562206992668000,8.46266796875,-1.0512615442276,0.9930398464202881,0.12448080629110336
1772562207002650600,8.472650634765625,-1.2455863952636719,0.5811716914176941,-0.03455546125769615
1772562207012632800,8.4826328125,-1.4107177257537842,-0.08794008195400238,-0.1623496413230896
1772562207022615800,8.49261572265625,-1.518683671951294,-0.836313784122467,-0.16569872200489044
1772562207032597800,8.50259765625,-1.5279970169067383,-1.5060961246490479,0.006927367299795151
1772562207042580700,8.512580810546876,-1.4216121435165405,-1.9036937952041626,0.24477946758270264
1772562207052562700,8.522562744140625,-1.2129582166671753,-2.056013584136963,0.37990081310272217
1772562207062545700,8.532545654296875,-0.9364978075027466,-2.360738515853882,0.36640846729278564
1772562207072529000,8.54252880859375,-0.6979909539222717,-2.784085273742676,0.2096761167049408
1772562207082510600,8.552510498046875,-0.4940306842327118,-3.087212324142456,-0.03528405353426933
1772562207092493800,8.562493896484375,-0.26531150937080383,-3.081833600997925,-0.17417508363723755
1772562207102475800,8.572475830078124,-0.08880147337913513,-3.0644278526306152,-0.23139093816280365
1772562207112458800,8.582458740234374,-0.04673124849796295,-3.1472678184509277,-0.18746982514858246
1772562207122440700,8.592440673828126,-0.07944329082965851,-2.729764461517334,0.06829795241355896
1772562207132424000,8.602423828125,-0.15610025823116302,-2.016960859298706,0.4508219063282013
1772562207142406700,8.61240673828125,-0.2697604298591614,-1.284080147743225,0.8545043468475342
1772562207152388900,8.622388916015625,-0.34239575266838074,-0.764789342880249,1.1747654676437378
1772562207162371800,8.632371826171875,-0.309219092130661,-0.5839979648590088,1.3542543649673462
1772562207172353800,8.642353759765625,-0.20128704607486725,-0.7122965455055237,1.435986042022705
1772562207182336800,8.652336669921874,-0.04472603276371956,-1.2069329023361206,1.3505789041519165
1772562207192319000,8.662319091796874,0.14736591279506683,-1.89535391330719,1.1155385971069336
1772562207202301700,8.6723017578125,0.3753783106803894,-2.4139997959136963,0.8831049799919128
1772562207212285000,8.682284912109376,0.583433985710144,-2.628847122192383,0.6413658857345581
1772562207222267000,8.692266845703125,0.7808278799057007,-2.4673478603363037,0.41834110021591187
1772562207232249900,8.702249755859375,0.9826981425285339,-1.9262819290161133,0.21801570057868958
1772562207242231800,8.712231689453125,1.1466209888458252,-1.1826543807983398,0.08538927137851715
1772562207252214800,8.72221484375,1.1882989406585693,-0.46909043192863464,0.06719774752855301
1772562207262196700,8.73219677734375,1.0546231269836426,-0.09124753624200821,0.1291721761226654
1772562207272180000,8.742179931640624,0.8687840700149536,-0.25428280234336853,0.213950976729393
1772562207282163000,8.752162841796874,0.683141827583313,-0.8767412900924683,0.31145840883255005
1772562207292145000,8.762144775390626,0.46751824021339417,-1.6248013973236084,0.3372548520565033
1772562207302127900,8.7721279296875,0.28931158781051636,-2.131622076034546,0.27675265073776245
1772562207312109800,8.78210986328125,0.22692890465259552,-2.058396339416504,0.12224936485290527
1772562207322092800,8.7920927734375,0.28262859582901,-1.4528568983078003,-0.13340307772159576
1772562207332075000,8.802074951171875,0.3374071717262268,-0.644456148147583,-0.42913806438446045
1772562207342057700,8.8120576171875,0.35765334963798523,0.28906551003456116,-0.6525148749351501
1772562207352040000,8.8220400390625,0.3499735891819,1.3010542392730713,-0.7281686067581177
1772562207362023000,8.83202294921875,0.2528286278247833,2.3289520740509033,-0.6493647694587708
1772562207372005600,8.842005615234376,0.11160730570554733,3.2265214920043945,-0.46306145191192627
1772562207381987800,8.85198779296875,0.025749489665031433,3.7245118618011475,-0.2394547462463379
1772562207391970800,8.861970703125,-0.06794904172420502,3.1346960067749023,-0.18788503110408783
1772562207401952800,8.871952880859375,-0.23884394764900208,2.0038950443267822,-0.2419973611831665
1772562207411935700,8.881935791015625,-0.404011607170105,1.1281403303146362,-0.13780811429023743
1772562207421918000,8.89191796875,-0.47204846143722534,0.48343732953071594,0.04763370379805565
1772562207431900700,8.901900634765624,-0.40993157029151917,0.14497514069080353,0.25283026695251465
1772562207441884000,8.9118837890625,-0.2796246111392975,0.16204430162906647,0.48906970024108887
1772562207451865900,8.921865966796876,-0.15044453740119934,0.3991556465625763,0.7026136517524719
1772562207461848800,8.931848876953126,-0.04598415270447731,0.6535183787345886,0.8403737545013428
1772562207471830800,8.941830810546875,0.03187868744134903,0.8016420602798462,0.8979102969169617
1772562207481814000,8.95181396484375,0.08214288204908371,0.8439085483551025,0.8983625769615173
1772562207491795700,8.961795654296875,0.10875478386878967,0.8292997479438782,0.8547911047935486
1772562207501779000,8.971779052734375,0.11528373509645462,0.7761997580528259,0.8038131594657898
1772562207511762000,8.981761962890625,0.11473272740840912,0.6935927271842957,0.7641723155975342
1772562207521744000,8.991743896484374,0.09356515854597092,0.5050466656684875,0.7336562275886536
1772562207531726800,9.001726806640624,0.06803396344184875,0.1991991400718689,0.7491440773010254
1772562207541708800,9.011708740234376,0.0287907924503088,-0.06734040379524231,0.8237939476966858
1772562207551691800,9.02169189453125,-0.013822981156408787,-0.1896873414516449,0.9603541493415833
1772562207561674000,9.031674072265625,-0.03908954933285713,-0.11095291376113892,1.1346458196640015
1772562207571656700,9.04165673828125,-0.05177738144993782,0.06228730455040932,1.2746551036834717
1772562207581639700,9.0516396484375,-0.06287531554698944,0.26330995559692383,1.3561841249465942
1772562207591622000,9.061621826171875,-0.059599898755550385,0.432416707277298,1.4032264947891235
1772562207601604600,9.0716044921875,-0.02213459089398384,0.4799617826938629,1.4103593826293945
1772562207611586800,9.0815869140625,0.029401570558547974,0.3427807688713074,1.3994473218917847
1772562207621569800,9.09156982421875,0.10334192216396332,0.07465089857578278,1.405516505241394
1772562207631551700,9.1015517578125,0.15924274921417236,-0.21767470240592957,1.4081103801727295
1772562207641534700,9.11153466796875,0.17705737054347992,-0.47489798069000244,1.4437532424926758
1772562207651518000,9.12151806640625,0.13743512332439423,-0.6526338458061218,1.501709222793579
1772562207661499600,9.131499755859375,0.07087475806474686,-0.7100929617881775,1.5813008546829224
1772562207671483000,9.14148291015625,-0.016634056344628334,-0.7902876734733582,1.6351484060287476
1772562207681464800,9.15146484375,-0.1903439164161682,-0.9358237981796265,1.5677355527877808
1772562207691447800,9.16144775390625,-0.42236465215682983,-0.9906044602394104,1.4039026498794556
1772562207701429800,9.1714296875,-0.5886877775192261,-0.8148453831672668,1.1901366710662842
1772562207711413000,9.1814130859375,-0.6659567356109619,-0.6125245094299316,0.906807005405426
1772562207721395700,9.191395751953126,-0.6772392988204956,-0.6088678240776062,0.5258674621582031
1772562207731378000,9.2013779296875,-0.6573995351791382,-0.8304300904273987,0.03729565814137459
1772562207741361000,9.21136083984375,-0.5985261797904968,-1.1998289823532104,-0.47582298517227173
1772562207751342800,9.2213427734375,-0.4916398823261261,-1.5052520036697388,-0.9640353322029114
1772562207761325800,9.231325927734375,-0.3402024507522583,-1.6703437566757202,-1.3398836851119995
1772562207771307800,9.241307861328124,-0.18121786415576935,-1.6366257667541504,-1.5126818418502808
1772562207781290800,9.251290771484374,-0.09140441566705704,-1.294146180152893,-1.4521255493164062
1772562207791273700,9.261273681640626,-0.05749785155057907,-0.5928956270217896,-1.2063381671905518
1772562207801255700,9.271255615234375,-0.015649735927581787,0.3340833783149719,-0.8621835112571716
1772562207811238700,9.28123876953125,0.04533478617668152,1.1668202877044678,-0.5352011322975159
1772562207821220900,9.291220947265625,0.06957684457302094,1.525439739227295,-0.3535301387310028
1772562207831203600,9.30120361328125,0.051148563623428345,1.2617913484573364,-0.29339009523391724
1772562207841186800,9.311186767578125,-0.01182711310684681,0.5795249938964844,-0.2981809377670288
1772562207851169500,9.32116943359375,-0.07055540382862091,-0.32682597637176514,-0.33529847860336304
1772562207861152800,9.33115283203125,-0.08893357962369919,-1.1633518934249878,-0.34241223335266113
1772562207871134700,9.341134765625,-0.08181735128164291,-1.6198797225952148,-0.27894431352615356
1772562207881117700,9.35111767578125,-0.0629522055387497,-1.7396256923675537,-0.14979761838912964
1772562207891099600,9.361099609375,-0.050072360783815384,-1.5332636833190918,-0.015728509053587914
1772562207901083000,9.371082763671875,-0.03346220776438713,-1.1634243726730347,0.06200585141777992
1772562207911064600,9.381064697265625,-0.010604830458760262,-0.8284451365470886,0.02005653642117977
1772562207921047800,9.3910478515625,0.0007680475246161222,-0.6370286345481873,-0.13909508287906647
1772562207931029500,9.401029541015625,-0.017626138404011726,-0.6278042197227478,-0.3777438700199127
1772562207941012700,9.4110126953125,-0.046212200075387955,-0.709467887878418,-0.6091406345367432
1772562207950995700,9.42099560546875,-0.06489214301109314,-0.7291238903999329,-0.7519657015800476
1772562207960977700,9.430977783203126,-0.06895904242992401,-0.6953507661819458,-0.7794011831283569
1772562207970960600,9.440960693359376,-0.06976012140512466,-0.6224672794342041,-0.7121550440788269
1772562207980942800,9.45094287109375,-0.07878495752811432,-0.503192663192749,-0.6215420365333557
1772562207990925800,9.46092578125,-0.05920860171318054,-0.3699374198913574,-0.5618592500686646
1772562208000907800,9.47090771484375,-0.0002815381158143282,-0.28832370042800903,-0.5504022836685181
1772562208010890800,9.480890869140625,0.07688061892986298,-0.2556544542312622,-0.6057723760604858
1772562208020873700,9.490873779296875,0.16608263552188873,-0.29015442728996277,-0.7087143659591675
1772562208030855700,9.500855712890624,0.254289448261261,-0.38960886001586914,-0.8420231342315674
1772562208040838700,9.510838623046874,0.32134997844696045,-0.4905093014240265,-0.9740114212036133
1772562208050820600,9.520820556640626,0.3472231328487396,-0.522327184677124,-1.0921748876571655
1772562208060803600,9.530803466796876,0.33045753836631775,-0.4628763496875763,-1.1908214092254639
1772562208070785800,9.540785888671875,0.29188859462738037,-0.33355963230133057,-1.2683327198028564
1772562208080768500,9.5507685546875,0.2280968427658081,-0.14949586987495422,-1.3119394779205322
1772562208090751700,9.560751708984375,0.1313716322183609,0.08904480189085007,-1.2889630794525146
1772562208100733700,9.570733642578125,0.01109393686056137,0.388129323720932,-1.1787152290344238
1772562208110716700,9.580716552734375,-0.10195299237966537,0.6943936347961426,-0.9726387858390808
1772562208120698600,9.59069873046875,-0.19471082091331482,0.9749277830123901,-0.7159602046012878
1772562208130681900,9.600681884765624,-0.2374015599489212,1.1822625398635864,-0.4432378113269806
1772562208140663600,9.61066357421875,-0.2199452817440033,1.3188310861587524,-0.18922172486782074
1772562208150646800,9.620646728515625,-0.14799706637859344,1.3701038360595703,0.03061581961810589
1772562208160629800,9.630629638671875,-0.031495600938797,1.3380235433578491,0.20689736306667328
1772562208170611700,9.64061181640625,0.0881543681025505,1.254145860671997,0.3398261070251465
1772562208180594700,9.6505947265625,0.18160147964954376,1.1179535388946533,0.4288366138935089
1772562208190577000,9.660576904296875,0.21876056492328644,0.9436474442481995,0.48311394453048706
1772562208200559600,9.6705595703125,0.22234530746936798,0.7315598726272583,0.5175154209136963
1772562208210541800,9.680541748046876,0.20852643251419067,0.5254037380218506,0.5547251105308533
1772562208220524800,9.69052490234375,0.16750839352607727,0.39704278111457825,0.6009994745254517
1772562208230507500,9.700507568359376,0.09096434712409973,0.34662434458732605,0.6723588705062866
1772562208240489700,9.71048974609375,-0.01666899397969246,0.3547362685203552,0.7542370557785034
1772562208250472700,9.72047265625,-0.12334989756345749,0.3848875164985657,0.83488529920578
1772562208260454700,9.73045458984375,-0.19185400009155273,0.43656256794929504,0.908907413482666
1772562208270437600,9.740437744140625,-0.21658651530742645,0.5396671295166016,0.9859873056411743
1772562208280419600,9.750419677734374,-0.19698645174503326,0.6575722694396973,1.0695784091949463
1772562208290402600,9.760402587890624,-0.14373202621936798,0.7595548033714294,1.156707525253296
1772562208300385800,9.7703857421875,-0.0758480355143547,0.8389227986335754,1.2220419645309448
1772562208310367500,9.780367431640625,-0.0031333458609879017,0.8783738017082214,1.2596200704574585
1772562208320350700,9.790350830078125,0.03783121705055237,0.8553268909454346,1.2527451515197754
1772562208330332700,9.800332763671875,0.05380832031369209,0.7453750967979431,1.219822883605957
1772562208340315600,9.810315673828125,0.08333376049995422,0.6100205183029175,1.2130253314971924
1772562208350297600,9.820297607421875,0.15177060663700104,0.5063905715942383,1.2413389682769775
1772562208360280800,9.83028076171875,0.25803306698799133,0.43722009658813477,1.3174962997436523
1772562208370263600,9.840263671875,0.3885737657546997,0.44165825843811035,1.4345813989639282
1772562208380245800,9.850245849609376,0.4809969365596771,0.40330570936203003,1.5253275632858276
1772562208390228700,9.860228759765626,0.4459766149520874,0.12283541262149811,1.513666033744812
1772562208400210700,9.870210693359375,0.2830137610435486,-0.34466415643692017,1.4331011772155762
1772562208410193700,9.880193603515625,0.07754847407341003,-0.7632512450218201,1.3837215900421143
1772562208420176000,9.89017578125,-0.08293118327856064,-0.8826233744621277,1.412955403327942
1772562208430158600,9.90015869140625,-0.17175106704235077,-0.7919337153434753,1.4635589122772217
1772562208440141600,9.9101416015625,-0.22647356986999512,-0.5983017683029175,1.436598539352417
1772562208450123800,9.920123779296874,-0.23860080540180206,-0.3332732915878296,1.3078478574752808
1772562208460106500,9.9301064453125,-0.23374393582344055,-0.1693059802055359,1.03797447681427
1772562208470088700,9.940088623046876,-0.24673403799533844,-0.344430148601532,0.6147627234458923
1772562208480071700,9.95007177734375,-0.22354601323604584,-0.7693448066711426,0.08816656470298767
1772562208490053600,9.9600537109375,-0.17390602827072144,-1.1490461826324463,-0.40821337699890137
1772562208500036600,9.97003662109375,-0.16150009632110596,-1.3756685256958008,-0.8166348338127136
1772562208510019800,9.980019775390625,-0.21379099786281586,-1.364148497581482,-1.0656275749206543
1772562208520001500,9.99000146484375,-0.251674622297287,-0.9167503118515015,-1.1321035623550415
1772562208529984800,9.99998486328125,-0.2084110528230667,-0.18983787298202515,-1.0660393238067627
1772562208539966500,10.009966552734374,-0.11147422343492508,0.44935277104377747,-0.8971730470657349
1772562208549949700,10.01994970703125,-0.021302254870533943,0.6819450259208679,-0.6752943992614746
1772562208559931600,10.029931640625,0.024142948910593987,0.4556964039802551,-0.4386962354183197
1772562208569914600,10.03991455078125,0.021611347794532776,0.010884301736950874,-0.19553150236606598
1772562208579897600,10.049897705078125,0.02812567725777626,-0.40413859486579895,0.0317695178091526
1772562208589879800,10.0598798828125,0.06434253603219986,-0.6617770195007324,0.21008172631263733
1772562208599862500,10.069862548828125,0.09334003925323486,-0.8081418871879578,0.3428436517715454
1772562208609844700,10.0798447265625,0.08104369044303894,-0.8502499461174011,0.43457916378974915
1772562208619827700,10.08982763671875,0.05033275485038757,-0.7519832849502563,0.4550698399543762
1772562208629809700,10.0998095703125,0.04797052964568138,-0.6166510581970215,0.40978652238845825
1772562208639792600,10.109792724609376,0.08294415473937988,-0.4462164044380188,0.34375879168510437
1772562208649774800,10.11977490234375,0.12044306099414825,-0.2801603078842163,0.30771157145500183
1772562208659757600,10.129757568359375,0.16396933794021606,-0.14468152821063995,0.338296115398407
1772562208669740800,10.13974072265625,0.22718346118927002,-0.08798228949308395,0.41998806595802307
1772562208679722800,10.14972265625,0.3021250069141388,-0.13976986706256866,0.5155566334724426
1772562208689705700,10.159705810546875,0.36103546619415283,-0.3063247799873352,0.5831841826438904
1772562208699687700,10.169687744140624,0.4112458825111389,-0.5797595381736755,0.5911009311676025
1772562208709670700,10.179670654296874,0.4604001045227051,-0.9058300852775574,0.5423310399055481
1772562208719653600,10.189653564453126,0.511512815952301,-1.228729486465454,0.47921356558799744
1772562208729635800,10.1996357421875,0.5503534078598022,-1.5398807525634766,0.413572758436203
1772562208739618800,10.209618896484375,0.5589509606361389,-1.7977802753448486,0.28527945280075073
1772562208749600800,10.219600830078125,0.5286974310874939,-1.9251580238342285,0.056226037442684174
1772562208759583700,10.229583740234375,0.48974311351776123,-1.8704482316970825,-0.3032502830028534
1772562208769565700,10.239565673828125,0.4611000120639801,-1.592084288597107,-0.7526805400848389
1772562208779548700,10.249548583984375,0.42722997069358826,-1.1185601949691772,-1.219138741493225
1772562208789531600,10.25953173828125,0.36867183446884155,-0.5398393273353577,-1.64801824092865
1772562208799513600,10.269513671875,0.2773265540599823,0.0721685141324997,-1.9625357389450073
1772562208809496600,10.27949658203125,0.14975742995738983,0.6457838416099548,-2.1356654167175293
1772562208819478800,10.289478759765625,0.005939406342804432,1.0966219902038574,-2.1745147705078125
1772562208829461500,10.29946142578125,-0.12245026230812073,1.4029574394226074,-2.1181819438934326
1772562208839447600,10.309447509765626,-0.2288646399974823,1.5869954824447632,-1.9743555784225464
1772562208849430300,10.31943017578125,-0.3235812783241272,1.6958789825439453,-1.7732129096984863
1772562208859413500,10.32941357421875,-0.39309215545654297,1.780880093574524,-1.5404752492904663
1772562208869395500,10.3393955078125,-0.42832818627357483,1.8556946516036987,-1.3108798265457153
1772562208879378400,10.34937841796875,-0.41644176840782166,1.9328829050064087,-1.1009933948516846
1772562208889360400,10.3593603515625,-0.3561970889568329,1.9930073022842407,-0.8991872072219849
1772562208899343600,10.369343505859375,-0.2674921751022339,2.0018975734710693,-0.6786599159240723
1772562208909325300,10.3793251953125,-0.1777641624212265,1.9451191425323486,-0.44877371191978455
1772562208919308500,10.38930859375,-0.08464372903108597,1.8243646621704102,-0.22441278398036957
1772562208929291500,10.39929150390625,0.018449099734425545,1.6686855554580688,-0.016671041026711464
1772562208939273500,10.4092734375,0.09317538887262344,1.502968430519104,0.16664867103099823
1772562208949256400,10.41925634765625,0.13343678414821625,1.337743878364563,0.3099973201751709
1772562208959238700,10.42923876953125,0.15933728218078613,1.1918847560882568,0.4104125201702118
1772562208969221400,10.439221435546875,0.16658161580562592,1.0780011415481567,0.486203134059906
1772562208979203600,10.44920361328125,0.1430833488702774,1.0002976655960083,0.5360736846923828
1772562208989186600,10.4591865234375,0.0990210771560669,0.9397761821746826,0.5770977735519409
1772562208999169300,10.469169189453124,0.04288572818040848,0.8905965089797974,0.6245847940444946
1772562209009151500,10.4791513671875,-0.016520870849490166,0.8767669796943665,0.6800283193588257
1772562209019134500,10.489134521484376,-0.057920634746551514,0.8902543783187866,0.722802460193634
1772562209029116400,10.499116455078125,-0.09468957036733627,0.8817940354347229,0.7690655589103699
1772562209039099400,10.509099365234375,-0.1287195235490799,0.8418532013893127,0.8160980939865112
1772562209049081300,10.519081298828125,-0.16749754548072815,0.7441138625144958,0.8590686917304993
1772562209059064300,10.529064208984375,-0.22016359865665436,0.5085402131080627,0.8998450040817261
1772562209069046500,10.539046630859374,-0.2871178388595581,0.1713201254606247,0.9605360627174377
1772562209079029200,10.549029296875,-0.3631631135940552,-0.09818706661462784,1.0921472311019897
1772562209089012500,10.559012451171874,-0.4327850639820099,-0.17265890538692474,1.3191571235656738
1772562209098994400,10.568994384765626,-0.5384537577629089,-0.059937141835689545,1.5725574493408203
1772562209108977400,10.578977294921875,-0.6587338447570801,0.07350639998912811,1.7739017009735107
1772562209118959400,10.58895947265625,-0.6954341530799866,0.21701562404632568,1.8880809545516968
1772562209128942600,10.598942626953125,-0.6249003410339355,0.29435059428215027,1.9056223630905151
1772562209138925300,10.60892529296875,-0.48988404870033264,0.12714578211307526,1.7844518423080444
1772562209148907500,10.618907470703125,-0.36333703994750977,-0.37533038854599,1.5303125381469727
1772562209158890500,10.628890380859374,-0.30568233132362366,-1.0486177206039429,1.1625982522964478
1772562209168872400,10.63887255859375,-0.2998417615890503,-1.6542130708694458,0.7108403444290161
1772562209178855400,10.64885546875,-0.3116436302661896,-2.0879390239715576,0.1794285923242569
1772562209188837600,10.658837646484375,-0.30202215909957886,-2.3043065071105957,-0.4232364892959595
1772562209198820400,10.6688203125,-0.22895197570323944,-2.2222983837127686,-1.0603529214859009
1772562209208802600,10.678802490234375,-0.11406081914901733,-1.7307251691818237,-1.6287474632263184
1772562209218785500,10.68878564453125,-0.023275671526789665,-0.9774919152259827,-2.0180282592773438
1772562209228768300,10.698768310546875,-0.0047227609902620316,-0.349946528673172,-2.2011775970458984
1772562209238750500,10.70875048828125,-0.041068729013204575,0.022094428539276123,-2.1982767581939697
1772562209248733400,10.7187333984375,-0.07549913972616196,0.22195054590702057,-2.019514799118042
1772562209258715400,10.72871533203125,-0.12909284234046936,0.3274206817150116,-1.7335681915283203
1772562209268698400,10.738698486328126,-0.2239634245634079,0.28475525975227356,-1.4267009496688843
1772562209278680300,10.748680419921875,-0.32713064551353455,0.08385804295539856,-1.1396440267562866
1772562209288663300,10.758663330078125,-0.3903575539588928,-0.1896595060825348,-0.885260283946991
1772562209298646500,10.768646484375,-0.390419602394104,-0.4314962923526764,-0.6847390532493591
1772562209308628200,10.778628173828125,-0.3268672823905945,-0.6010880470275879,-0.5267059803009033
1772562209318611500,10.788611572265625,-0.21255919337272644,-0.6349554061889648,-0.3811318576335907
1772562209328593400,10.798593505859374,-0.10444842278957367,-0.5378565192222595,-0.23213200271129608
1772562209338576400,10.808576416015624,-0.029222609475255013,-0.37088191509246826,-0.1291002333164215
1772562209348559400,10.818559326171876,0.030291052535176277,-0.2105145901441574,-0.10101321339607239
1772562209358541600,10.82854150390625,0.06265190988779068,-0.06553898006677628,-0.16574223339557648
1772562209368524300,10.838524169921875,0.05193775147199631,0.019731707870960236,-0.31420013308525085
1772562209378506500,10.848506591796875,0.015692060813307762,0.06800930202007294,-0.501196026802063
1772562209388489500,10.858489501953125,-0.001528737135231495,0.09437299519777298,-0.6794763207435608
1772562209398471400,10.868471435546875,0.008900106884539127,0.07742910832166672,-0.8165503144264221
1772562209408454400,10.878454345703124,0.04894020035862923,0.02176770754158497,-0.8799849152565002
1772562209418437400,10.888437255859374,0.107855424284935,0.006785697303712368,-0.8443065881729126
1772562209428419300,10.89841943359375,0.16454853117465973,0.09489771723747253,-0.7472673654556274
1772562209438402300,10.90840234375,0.1997763216495514,0.237911194562912,-0.6309173107147217
1772562209448384500,10.918384521484375,0.19835099577903748,0.4352141320705414,-0.5056083798408508
1772562209458367200,10.9283671875,0.09780117869377136,0.6065914034843445,-0.28986188769340515
1772562209468349400,10.938349365234375,-0.007234962657094002,0.47836926579475403,-0.12849563360214233
1772562209478332400,10.94833251953125,-0.07359001040458679,0.38550424575805664,0.0686146542429924
1772562209488315400,10.9583154296875,-0.12442602217197418,0.20559972524642944,0.240074023604393
1772562209498297300,10.96829736328125,-0.16482244431972504,0.0020932075567543507,0.3470984697341919
1772562209508280600,10.978280517578124,-0.21073533594608307,-0.14896368980407715,0.3751058578491211
1772562209518262300,10.98826220703125,-0.24712540209293365,-0.23361919820308685,0.3695533573627472
1772562209528245500,10.99824560546875,-0.3213610351085663,-0.29532915353775024,0.37142476439476013
1772562209538227200,11.008227294921875,-0.4051707684993744,-0.31985628604888916,0.4521239399909973
1772562209548210400,11.01821044921875,-0.4831808805465698,-0.36684510111808777,0.6130878329277039
1772562209558193400,11.028193359375,-0.5099790096282959,-0.633659839630127,0.7570595145225525
