time,seconds_elapsed,z,y,x
1772650724918560300,0.138560302734375,0.06902574002742767,0.17271706461906433,-0.3301629424095154
1772650724938315000,0.15831494140625,0.1776038408279419,0.10552386194467545,-0.423164427280426
1772650724948192300,0.168192138671875,0.20035789906978607,0.058183200657367706,-0.4566083252429962
1772650724958069500,0.178069580078125,0.20035789906978607,0.050547610968351364,-0.4695888161659241
1772650724967947000,0.187947021484375,0.1841704547405243,0.08735115826129913,-0.4715740978717804
1772650724977824300,0.19782421875,0.1719534993171692,0.15301723778247833,-0.4572191834449768
1772650724987701500,0.207701416015625,0.1704263836145401,0.26968905329704285,-0.43018919229507446
1772650724997578800,0.217578857421875,0.17485502362251282,0.38880428671836853,-0.409420371055603
1772650725007456300,0.227456298828125,0.18875180184841156,0.536629319190979,-0.40163207054138184
1772650725017333500,0.23733349609375,0.20341213047504425,0.6319214701652527,-0.4169032573699951
1772650725027210800,0.247210693359375,0.23563432693481445,0.6100836992263794,-0.45416492223739624
1772650725037088300,0.257088134765625,0.26067906618118286,0.5183038711547852,-0.5033381581306458
1772650725046965500,0.266965576171875,0.2933593988418579,0.37078428268432617,-0.5584670901298523
1772650725056842800,0.2768427734375,0.36360684037208557,0.2655658423900604,-0.6100836992263794
1772650725066720000,0.286719970703125,0.48516544699668884,0.16370706260204315,-0.7004891037940979
1772650725076597500,0.296597412109375,0.5989357233047485,0.010689826682209969,-0.8493831157684326
1772650725086474800,0.306474853515625,0.6450546979904175,-0.08108997344970703,-1.0605835914611816
1772650725096352000,0.31635205078125,0.6449019908905029,-0.18707197904586792,-1.2678134441375732
1772650725106229200,0.326229248046875,0.5885513424873352,-0.40163207054138184,-1.3369919061660767
1772650725116106800,0.336106689453125,0.4727957844734192,-0.6855233311653137,-1.2244433164596558
1772650725125984000,0.34598388671875,0.3961344361305237,-0.7881456613540649,-0.9717052578926086
1772650725135861200,0.355861328125,0.38956785202026367,-0.4205683469772339,-0.8148702383041382
1772650725145738500,0.365738525390625,0.5218162536621094,0.7287407517433167,-1.161526083946228
1772650725155616000,0.375615966796875,0.689341127872467,2.091999053955078,-1.7045692205429077
1772650725165479400,0.3854794921875,0.754396378993988,2.817991018295288,-2.198439359664917
1772650725175370500,0.39537060546875,0.6774296164512634,2.9586386680603027,-2.467670202255249
1772650725185248000,0.405248046875,0.3310792148113251,2.6632940769195557,-2.5759429931640625
1772650725195111400,0.415111328125,0.05925218388438225,2.1514041423797607,-2.566016674041748
1772650725205002500,0.42500244140625,-0.4199574887752533,1.4431266784667969,-2.4021568298339844
1772650725214879700,0.434879638671875,-0.6117635369300842,1.3615785837173462,-2.3830678462982178
1772650725224743400,0.444743408203125,-0.4211791753768921,1.0323318243026733,-2.062067747116089
1772650725234634500,0.454634521484375,-0.2654131352901459,0.53143709897995,-1.362342119216919
1772650725244511700,0.46451171875,-0.13682979345321655,0.2811424434185028,-0.5089884996414185
1772650725254375400,0.47437548828125,0.008246437646448612,0.22815145552158356,0.2993151545524597
1772650725264266500,0.4842666015625,0.16645587980747223,0.41675055027008057,0.9596410393714905
1772650725274143700,0.494143798828125,0.3831539452075958,0.775317907333374,1.4351856708526611
1772650725284007400,0.50400732421875,0.6754443645477295,1.1199884414672852,1.6830369234085083
1772650725293898200,0.513898193359375,0.8341119289398193,1.2484190464019775,1.701056957244873
1772650725303775700,0.523775634765625,0.8295305967330933,1.1141854524612427,1.5877447128295898
1772650725313639200,0.53363916015625,0.749204158782959,0.8811471462249756,1.4138059616088867
1772650725323530200,0.5435302734375,0.7899782061576843,0.6749862432479858,1.1677871942520142
1772650725333407700,0.55340771484375,0.874427855014801,0.5835118293762207,0.8646543025970459
1772650725343271200,0.563271240234375,0.9433009028434753,0.5586197972297668,0.5563291311264038
1772650725353162200,0.573162353515625,1.0349279642105103,0.5821374654769897,0.2507528066635132
1772650725363039500,0.58303955078125,1.1352596282958984,0.5942016839981079,0.00030542362947016954
1772650725372903200,0.592903076171875,1.2215417623519897,0.5954233407974243,-0.2304421216249466
1772650725382794200,0.602794189453125,1.3340904712677002,0.5442649126052856,-0.47798797488212585
1772650725392671500,0.61267138671875,1.4467917680740356,0.5054761171340942,-0.6803311109542847
1772650725402535200,0.62253515625,1.5575077533721924,0.5193728804588318,-0.9165763258934021
1772650725412426200,0.63242626953125,1.7047220468521118,0.5824428796768188,-1.1673290729522705
1772650725422303500,0.642303466796875,1.8887397050857544,0.6633801460266113,-1.3960914611816406
1772650725432180700,0.6521806640625,2.07993483543396,0.823727548122406,-1.5959911346435547
1772650725442058000,0.66205810546875,2.238907814025879,1.0355387926101685,-1.7450379133224487
1772650725451935500,0.671935546875,2.36092472076416,1.2522368431091309,-1.837123155593872
1772650725461799000,0.681798828125,2.476832866668701,1.3893721103668213,-1.9055380821228027
1772650725471690000,0.69168994140625,2.478512763977051,1.4721418619155884,-1.9537949562072754
1772650725481567200,0.701567138671875,2.3392395973205566,1.483747959136963,-1.8911831378936768
1772650725491431000,0.711430908203125,2.048323631286621,1.3553173542022705,-1.6036267280578613
1772650725501322000,0.721322021484375,1.6295877695083618,1.0292776823043823,-1.080130696296692
1772650725511199200,0.73119921875,1.3006465435028076,0.6439857482910156,-0.483485609292984
1772650725521063000,0.74106298828125,1.1115893125534058,0.5172349214553833,0.07482878863811493
1772650725530954000,0.7509541015625,1.1067025661468506,0.7690566778182983,0.5671716928482056
1772650725540831200,0.760831298828125,1.2777397632598877,1.5958384275436401,1.052947998046875
1772650725550695000,0.77069482421875,1.7361806631088257,2.86624813079834,1.496728539466858
1772650725560586000,0.7805859375,2.2341737747192383,3.222219228744507,1.9079813957214355
1772650725570463200,0.790463134765625,2.1480443477630615,2.3790974617004395,2.238907814025879
1772650725580326700,0.80032666015625,1.5604093074798584,1.4237322807312012,2.1822519302368164
1772650725590217700,0.8102177734375,1.2328424453735352,0.31886225938796997,1.8294875621795654
1772650725600095200,0.82009521484375,1.01706063747406,-0.37735089659690857,1.260941505432129
1772650725609958700,0.829958740234375,0.9093988537788391,-0.3898732662200928,0.45294323563575745
1772650725619849700,0.839849609375,0.7843278646469116,-0.4268295168876648,-0.19058434665203094
1772650725629727000,0.84972705078125,0.5688515305519104,-0.6568135023117065,-0.601073682308197
1772650725639590700,0.859590576171875,0.09177979826927185,-0.9787300229072571,-0.8292251825332642
1772650725649481700,0.869481689453125,-0.34253260493278503,-1.298966646194458,-0.8054021000862122
1772650725659359000,0.87935888671875,-0.6267293095588684,-1.2694933414459229,-0.7524111270904541
1772650725669222700,0.88922265625,-0.9411629438400269,-1.303395390510559,-0.9510892033576965
1772650725679113700,0.89911376953125,-1.243685007095337,-1.428771734237671,-1.2019946575164795
1772650725688991000,0.908990966796875,-1.414722204208374,-1.4525947570800781,-1.3843326568603516
1772650725698854400,0.9188544921875,-1.4516785144805908,-1.3313416242599487,-1.4335057735443115
1772650725708745500,0.928745361328125,-1.3172920942306519,-0.9393303990364075,-1.5210096836090088
1772650725718623000,0.938623046875,-1.1141854524612427,-0.6288672685623169,-1.4445010423660278
1772650725728486400,0.948486328125,-0.883895993232727,-0.2348707765340805,-1.3113363981246948
1772650725738377500,0.95837744140625,-0.6569662094116211,0.1707318127155304,-1.1390774250030518
1772650725748255000,0.9682548828125,-0.4940227270126343,0.5120427012443542,-0.9463551044464111
1772650725758118400,0.978118408203125,-0.4039227366447449,0.7264500856399536,-0.7391251921653748
1772650725768009500,0.988009521484375,-0.3880407214164734,0.8176190853118896,-0.5465555787086487
1772650725777886700,0.99788671875,-0.43583953380584717,0.862669050693512,-0.3915531039237976
1772650725787750400,1.00775048828125,-0.47294849157333374,0.8854231238365173,-0.27320143580436707
1772650725797641500,1.017641357421875,-0.39262208342552185,0.8773293495178223,-0.2426590770483017
1772650725807518700,1.027518798828125,-0.23425991833209991,1.0083560943603516,-0.3318427801132202
1772650725817382400,1.03738232421875,-0.3321481943130493,0.8912261724472046,-0.22066856920719147
1772650725827273500,1.0472734375,-0.36253786087036133,0.8783983588218689,-0.15316994488239288
1772650725837150700,1.057150634765625,-0.37002071738243103,0.8903098702430725,-0.07650861889123917
1772650725847014400,1.067014404296875,-0.4112529158592224,0.8956547975540161,0.015423892997205257
1772650725856905500,1.076905517578125,-0.5318952798843384,0.8576295375823975,0.13240113854408264
1772650725866782700,1.08678271484375,-0.670404851436615,0.8148702383041382,0.22967857122421265
1772650725876646100,1.096646240234375,-0.7776085734367371,0.8466343283653259,0.28969430923461914
1772650725886537200,1.106537109375,-0.8411366939544678,0.9307785034179688,0.3158080279827118
1772650725896414700,1.116414794921875,-0.8791618943214417,1.0060654878616333,0.31596073508262634
1772650725906292000,1.1262919921875,-0.9003888368606567,1.0784507989883423,0.2733541429042816
1772650725916169200,1.136169189453125,-0.9132166504859924,1.1467130184173584,0.19562382996082306
1772650725926046500,1.14604638671875,-0.9101623892784119,1.155417561531067,0.14782503247261047
1772650725935910100,1.15591015625,-0.8738170266151428,1.0567657947540283,0.14156384766101837
1772650725945801200,1.16580126953125,-0.8133431077003479,0.9306257963180542,0.13301199674606323
1772650725955678500,1.175678466796875,-0.7444701194763184,0.8147175312042236,0.06490252166986465
1772650725965542100,1.185542236328125,-0.6675033569335938,0.7012526392936707,-0.06352811306715012
1772650725975433200,1.19543310546875,-0.5998520255088806,0.6273401379585266,-0.21898874640464783
1772650725985310500,1.205310546875,-0.5381564497947693,0.5775560736656189,-0.3449759781360626
1772650725995174100,1.215174072265625,-0.5095993280410767,0.46302223205566406,-0.34940463304519653
1772650726005065200,1.225065185546875,-0.478751540184021,0.23059484362602234,-0.164165198802948
1772650726014942500,1.2349423828125,-0.46897798776626587,-0.2560977041721344,0.24067382514476776
1772650726024806000,1.244805908203125,-0.5160132050514221,-0.7934905886650085,0.7207997441291809
1772650726034697000,1.254697021484375,-0.5424323678016663,-1.1039537191390991,1.1131163835525513
1772650726044574500,1.264574462890625,-0.6003101468086243,-1.1205992698669434,1.3180556297302246
1772650726054438000,1.27443798828125,-0.7009472250938416,-1.0582928657531738,1.3258439302444458
1772650726064329000,1.284328857421875,-0.721716046333313,-1.1204465627670288,1.248266339302063
1772650726074206200,1.294206298828125,-0.668419599533081,-1.3562335968017578,1.13968825340271
1772650726084070000,1.30406982421875,-0.548082709312439,-1.688076376914978,0.9776610136032104
1772650726093961000,1.3139609375,-0.36543938517570496,-2.031067132949829,1.004996418952942
1772650726103838200,1.323838134765625,-0.2086043357849121,-2.528602123260498,1.399909257888794
1772650726113702000,1.333701904296875,0,-2.895721435546875,2.28579044342041
1772650726123593000,1.343593017578125,0.3381039500236511,-2.235548257827759,3.3198020458221436
1772650726133470200,1.35347021484375,0.893058717250824,-0.9100096821784973,4.244014263153076
1772650726143334000,1.363333984375,0.8057075142860413,0.9315420985221863,3.98638916015625
1772650726153225000,1.373224853515625,0.19455485045909882,1.2885823249816895,3.4818294048309326
1772650726163102200,1.383102294921875,0.0522274412214756,0.39078953862190247,2.9865849018096924
1772650726172965600,1.392965576171875,0.04886778071522713,0.08735115826129913,2.1156694889068604
1772650726182856700,1.402856689453125,0.16996824741363525,0.3739912211894989,0.8110524415969849
1772650726192734000,1.41273388671875,0.15179555118083954,0.36971530318260193,-0.6256603002548218
1772650726202597600,1.42259765625,-0.3501681983470917,0.072843536734581,-1.8146744966506958
1772650726212488700,1.43248876953125,-0.6603258848190308,0.1498102843761444,-2.372683525085449
1772650726222366000,1.442365966796875,-0.6649072170257568,0.40041038393974304,-2.3122096061706543
1772650726232229600,1.452229736328125,-0.5711421966552734,0.5928272604942322,-1.8467439413070679
1772650726242120700,1.46212060546875,-0.3811686933040619,0.6545228362083435,-1.1986349821090698
1772650726251998000,1.471998046875,-0.022754060104489326,0.7692093849182129,-0.6410841941833496
1772650726261861600,1.481861572265625,0.43981003761291504,0.7055285573005676,-0.2348707765340805
1772650726271752700,1.491752685546875,0.8997780084609985,0.6656708121299744,-0.04092676565051079
1772650726281630000,1.5016298828125,1.2504043579101562,0.6456655263900757,0.042759306728839874
1772650726291493400,1.511493408203125,1.4739744663238525,0.49112120270729065,0.09239064902067184
1772650726301384700,1.521384765625,1.578123927116394,0.2473931461572647,0.13896775245666504
1772650726311262000,1.531261962890625,1.667765736579895,0.037108972668647766,0.17057909071445465
1772650726321125400,1.54112548828125,1.7655012607574463,-0.009009997360408306,0.19455485045909882
1772650726331016400,1.551016357421875,1.8476603031158447,0.02626643143594265,0.21272756159305573
1772650726340894000,1.56089404296875,1.813605546951294,0.032222192734479904,0.15378080308437347
1772650726350757400,1.57075732421875,1.6392086744308472,-0.04489727318286896,0.025808297097682953
1772650726360648400,1.5806484375,1.3818892240524292,-0.14965757727622986,-0.14813046157360077
1772650726370525700,1.590525634765625,1.122584581375122,-0.1895153671503067,-0.32726141810417175
1772650726380389400,1.600389404296875,0.9226847887039185,-0.20646637678146362,-0.44637662172317505
1772650726390280400,1.610280517578125,0.7600467205047607,-0.20906247198581696,-0.4818057715892792
1772650726400157700,1.62015771484375,0.6140542030334473,-0.18340688943862915,-0.46577104926109314
1772650726410035000,1.630034912109375,0.5070032477378845,-0.10750912129878998,-0.4089622497558594
1772650726419912400,1.639912353515625,0.4421007037162781,-0.007482878863811493,-0.3229855000972748
1772650726429789700,1.649789794921875,0.4022429287433624,0.050394900143146515,-0.19944162666797638
1772650726439653000,1.659653076171875,0.35108447074890137,0.05635065957903862,-0.050394900143146515
1772650726449544400,1.66954443359375,0.29412296414375305,0.06872031837701797,0.08582404255867004
1772650726459421700,1.679421630859375,0.2851129472255707,0.08643488585948944,0.18142163753509521
1772650726469285000,1.68928515625,0.265718549489975,0.10155335813760757,0.22555534541606903
1772650726479176200,1.69917626953125,0.19256959855556488,0.0656660795211792,0.19883078336715698
1772650726489053700,1.7090537109375,0.047951508313417435,-0.09651386737823486,0.08276980370283127
1772650726498917000,1.718917236328125,-0.16599774360656738,-0.288930743932724,-0.10292776674032211
1772650726508808200,1.72880810546875,-0.3092414140701294,-0.5247178077697754,-0.28602921962738037
1772650726518685400,1.738685546875,-0.41705596446990967,-0.7783721089363098,-0.49173203110694885
1772650726528549000,1.748549072265625,-0.5053234100341797,-0.9865183234214783,-0.8394568562507629
1772650726538440200,1.758440185546875,-0.49799323081970215,-0.9839222431182861,-1.2539167404174805
1772650726548317400,1.7683173828125,-0.3912476599216461,-0.7568397521972656,-1.5521628856658936
1772650726558181000,1.77818115234375,-0.26098448038101196,-0.390942245721817,-1.7173970937728882
1772650726568072200,1.788072265625,-0.0647498071193695,-0.0397050715982914,-1.8348324298858643
1772650726577949400,1.797949462890625,0.28908345103263855,0.3321481943130493,-1.847049355506897
1772650726587812900,1.807812744140625,0.5958815217018127,0.9924740791320801,-1.5225367546081543
1772650726597704200,1.8177041015625,0.9796462655067444,1.7913095951080322,-1.0957072973251343
1772650726607581400,1.82758154296875,1.2994248867034912,2.2873175144195557,-0.7375980615615845
1772650726617444900,1.83744482421875,1.0755493640899658,1.3194301128387451,-0.047798797488212585
1772650726627336000,1.8473359375,0.7177455425262451,0.004734066314995289,0.6368082761764526
1772650726637213400,1.85721337890625,0.7146912813186646,-0.36284327507019043,0.6952968835830688
1772650726647076900,1.867076904296875,0.6534538269042969,-0.111021488904953,0.3352024257183075
1772650726656968000,1.876968017578125,0.5066977739334106,0.04291202127933502,-0.060932014137506485
1772650726666845400,1.886845458984375,0.28969430923461914,0.09605573117733002,-0.31168481707572937
1772650726676708900,1.896708984375,0.03924693539738655,0.28816720843315125,-0.4043808877468109
1772650726686600000,1.906599853515625,-0.20051060616970062,0.564117431640625,-0.3436015844345093
1772650726696477200,1.916477294921875,-0.455539345741272,0.6077930331230164,-0.07375980913639069
1772650726706340900,1.9263408203125,-0.8157865405082703,0.2683146595954895,0.346808522939682
1772650726716232000,1.93623193359375,-1.2595670223236084,-0.31092125177383423,0.768140435218811
1772650726726109200,1.946109130859375,-1.6444008350372314,-0.8389987349510193,1.0279031991958618
1772650726735972900,1.955972900390625,-1.9211146831512451,-1.1619842052459717,1.1140327453613281
1772650726745864000,1.965864013671875,-2.112157106399536,-1.159998893737793,1.0492829084396362
1772650726755741200,1.9757412109375,-2.284874200820923,-0.7739434838294983,0.9242119193077087
1772650726765604900,1.98560498046875,-2.3308403491973877,-0.34971004724502563,0.848314106464386
1772650726775496000,1.995495849609375,-2.1796557903289795,0.029320668429136276,0.8553388714790344
1772650726785373200,2.005373291015625,-1.9403563737869263,0.40453359484672546,1.0092723369598389
1772650726795236600,2.015236572265625,-1.8117729425430298,0.6009209752082825,1.2882769107818604
1772650726805127700,2.025127685546875,-1.7422890663146973,0.5121954083442688,1.4474025964736938
1772650726815005200,2.035005126953125,-1.652036428451538,0.3646758198738098,1.2820156812667847
1772650726824868600,2.04486865234375,-1.5830106735229492,0.22250111401081085,0.9013051390647888
1772650726834759700,2.054759765625,-1.3864705562591553,0.2354816198348999,0.4459185004234314
1772650726844637200,2.06463720703125,-1.1099094152450562,0.3775036036968231,0.13453911244869232
1772650726854500600,2.07450048828125,-0.8732061386108398,0.4590517282485962,-0.06368082761764526
1772650726864391700,2.0843916015625,-0.6846070885658264,0.5079194903373718,-0.20967331528663635
1772650726874269000,2.09426904296875,-0.5457920432090759,0.50685054063797,-0.3127537965774536
1772650726884132600,2.104132568359375,-0.49952033162117004,0.44790375232696533,-0.34008920192718506
1772650726894023700,2.114023681640625,-0.47554460167884827,0.4017847776412964,-0.2976353168487549
1772650726903901000,2.12390087890625,-0.4246915578842163,0.38697174191474915,-0.217308908700943
1772650726913764600,2.1337646484375,-0.3379512429237366,0.36070531606674194,-0.16874656081199646
1772650726923655700,2.14365576171875,-0.24754585325717926,0.35765108466148376,-0.1701209545135498
1772650726933533000,2.153532958984375,-0.20600824058055878,0.3918585181236267,-0.20096874237060547
1772650726943396600,2.163396728515625,-0.15943112969398499,0.5125008225440979,-0.3133646547794342
1772650726953287700,2.17328759765625,-0.08719844371080399,0.6954495906829834,-0.5566345453262329
1772650726963165000,2.1831650390625,-0.04734066128730774,0.7649334669113159,-0.8084563612937927
1772650726973028400,2.1930283203125,-0.0778830274939537,0.716829240322113,-0.9914051294326782
1772650726982919400,2.20291943359375,-0.15515519678592682,0.7409577369689941,-1.0031639337539673
1772650726992797000,2.212796875,-0.06551336497068405,0.6972821354866028,-0.9320002198219299
1772650727002660400,2.222660400390625,0.012827792204916477,0.7021689414978027,-0.8370134830474854
1772650727012551400,2.232551513671875,0.0050394898280501366,0.6067240238189697,-0.6629219651222229
1772650727022429000,2.242428955078125,-0.10277505218982697,0.3495573401451111,-0.3683409094810486
1772650727032306200,2.25230615234375,-0.17393875122070312,0.07513421028852463,-0.03817795217037201
1772650727042183400,2.262183349609375,-0.15591876208782196,-0.006719320081174374,0.19348587095737457
1772650727052060700,2.272060791015625,-0.12186402827501297,0.007024743594229221,0.32283276319503784
1772650727061938200,2.281938232421875,-0.08276980370283127,-0.024128466844558716,0.43446511030197144
1772650727071815400,2.2918154296875,-0.09147437661886215,-0.08719844371080399,0.5445703268051147
1772650727081692700,2.301692626953125,-0.1960819661617279,-0.17149536311626434,0.633448600769043
1772650727091556400,2.311556396484375,-0.26816195249557495,-0.3665083646774292,0.6788040399551392
1772650727101447400,2.321447509765625,-0.20234315097332,-0.611152708530426,0.6555918455123901
1772650727111324700,2.33132470703125,-0.12690351903438568,-0.8101361989974976,0.6038225293159485
1772650727121188400,2.341188232421875,-0.028251685202121735,-1.0576820373535156,0.6381826996803284
1772650727131079200,2.3510791015625,0.256708562374115,-1.1490037441253662,0.5934380888938904
1772650727140956700,2.360956787109375,0.7136223316192627,-1.015380859375,0.5816792845726013
1772650727150820000,2.370820068359375,0.6861341595649719,-0.6033644080162048,0.9860602021217346
1772650727160711200,2.380711181640625,0.4416425824165344,-0.02107422985136509,1.476875901222229
1772650727170588700,2.390588623046875,0.06749862432479858,-0.05115845799446106,1.364021897315979
1772650727180452000,2.4004521484375,0.012216945178806782,-0.46042612195014954,0.24724042415618896
1772650727190343200,2.41034326171875,0.06994201242923737,-0.439351886510849,-0.5978667736053467
1772650727200220400,2.420220458984375,0.039857782423496246,-0.2733541429042816,-0.6349757313728333
1772650727210084000,2.430083984375,-0.17210622131824493,-0.4262186884880066,-0.5357130169868469
1772650727219975200,2.43997509765625,-0.4556920528411865,-0.5534276366233826,-0.5254813432693481
1772650727229852400,2.449852294921875,-0.5260922312736511,-0.2408265322446823,-0.5485408306121826
1772650727239715800,2.4597158203125,-0.34451785683631897,0.35597124695777893,-0.3686463236808777
1772650727249607000,2.46960693359375,-0.11590826511383057,0.9895725846290588,-0.2295258641242981
1772650727259484200,2.479484130859375,0.058183200657367706,1.3203463554382324,-0.24937839806079865
1772650727269347800,2.489347900390625,0.20722992718219757,1.4719891548156738,-0.4080459773540497
1772650727279239000,2.499239013671875,0.4214846193790436,1.5674340724945068,-0.49890950322151184
1772650727289116200,2.5091162109375,0.6491779088973999,1.4464863538742065,-0.5549547076225281
1772650727298979800,2.518979736328125,0.7740961909294128,1.0115630626678467,-0.6748335361480713
1772650727308871000,2.528870849609375,0.7360709309577942,0.45950984954833984,-0.8452599048614502
1772650727318748200,2.538748046875,0.5358657836914062,-0.06719319522380829,-0.9058864712715149
1772650727328611800,2.54861181640625,0.35948359966278076,-0.23288552463054657,-0.6839962005615234
1772650727338503000,2.5585029296875,0.23364907503128052,-0.30160582065582275,-0.35169529914855957
1772650727348380200,2.568380126953125,0.14034216105937958,-0.3118375241756439,-0.004581354558467865
1772650727358243800,2.578243896484375,0.13148486614227295,-0.26846736669540405,0.351542592048645
1772650727368134700,2.588134765625,0.270452618598938,-0.1241547018289566,0.6300889253616333
1772650727378012200,2.59801220703125,0.40575528144836426,-0.011147962883114815,0.7488987445831299
1772650727387875600,2.60787548828125,0.4587462842464447,-0.06994201242923737,0.7957812547683716
1772650727397766700,2.6177666015625,0.4172086715698242,-0.13621893525123596,0.7944068312644958
1772650727407644000,2.627643798828125,0.35383328795433044,-0.1785201132297516,0.740652322769165
1772650727417507600,2.637507568359375,0.24968381226062775,-0.19654010236263275,0.6281036734580994
1772650727427398700,2.647398681640625,0.13301199674606323,-0.17180079221725464,0.5012001991271973
1772650727437276000,2.65727587890625,0.05650337040424347,-0.0975828468799591,0.4217900335788727
1772650727447139600,2.6671396484375,0.012369656935334206,-0.027946261689066887,0.4068242609500885
1772650727457030700,2.67703076171875,-0.006719320081174374,0.013591351918876171,0.4453076422214508
1772650727466908000,2.686907958984375,0.018783552572131157,0.0853659063577652,0.5074613690376282
1772650727476771600,2.696771484375,0.10002623498439789,0.23166382312774658,0.5401417016983032
1772650727486662700,2.70666259765625,0.24036839604377747,0.44790375232696533,0.5088357925415039
1772650727496540000,2.716539794921875,0.39262208342552185,0.6517740488052368,0.43080002069473267
1772650727506403300,2.7264033203125,0.49493899941444397,0.8118160367012024,0.31443363428115845
1772650727516294700,2.736294677734375,0.5073086619377136,0.8803836107254028,0.21364383399486542
1772650727526172000,2.746171875,0.47768256068229675,0.8043331503868103,0.14843589067459106
1772650727536035300,2.756035400390625,0.4456130862236023,0.5673243999481201,0.11117420345544815
1772650727545926400,2.765926513671875,0.3310792148113251,0.28221142292022705,0.15149012207984924
1772650727555804000,2.775803955078125,0.2313583940267563,-0.037414394319057465,0.2411319613456726
1772650727565681200,2.78568115234375,0.1647760421037674,-0.29794076085090637,0.28969430923461914
1772650727575558400,2.795558349609375,0.13240113854408264,-0.48455458879470825,0.27121618390083313
1772650727585435600,2.805435546875,0.11560284346342087,-0.6447492837905884,0.1973036676645279
1772650727595299300,2.81529931640625,0.10262233763933182,-0.7684458494186401,0.09559759497642517
1772650727605190400,2.8251904296875,0.05131116881966591,-0.9248227477073669,-0.023823043331503868
1772650727615067600,2.835067626953125,-0.1253764033317566,-1.2775870561599731,-0.0975828468799591
1772650727624931300,2.844931396484375,-0.3061871826648712,-1.557965874671936,-0.16462333500385284
1772650727634822400,2.854822509765625,-0.20509196817874908,-1.4321314096450806,-0.254265159368515
1772650727644699600,2.86469970703125,0.11545012891292572,-0.9428427219390869,-0.37444937229156494
1772650727654563000,2.87456298828125,0.5957288146018982,-0.12400199472904205,-0.6218425035476685
1772650727664454400,2.884454345703125,1.151447057723999,0.8822161555290222,-0.7918107509613037
1772650727674331600,2.89433154296875,1.669445514678955,1.932415246963501,-0.8545753359794617
1772650727684195000,2.904195068359375,1.842468023300171,1.9563910961151123,-1.141215443611145
1772650727694086100,2.914086181640625,1.2835427522659302,1.1447277069091797,-1.2212363481521606
1772650727703963400,2.92396337890625,0.5117372870445251,-0.026571854948997498,-0.6184828281402588
1772650727713827000,2.9338271484375,-0.001985253533348441,-1.0866972208023071,0.12873606383800507
1772650727723718100,2.94371826171875,-0.31504446268081665,-1.7987924814224243,0.6977402567863464
1772650727733595400,2.953595458984375,-0.636350154876709,-1.8523943424224854,0.6139014959335327
1772650727743459000,2.963458984375,-0.7295043468475342,-1.5697247982025146,0.055739812552928925
1772650727753350100,2.97335009765625,-0.4228590130805969,-1.1080769300460815,-0.2826695740222931
1772650727763227400,2.983227294921875,-0.030389651656150818,-0.5267030596733093,-0.44637662172317505
1772650727773091000,2.993091064453125,0.2985515892505646,-0.16187451779842377,-0.31092125177383423
1772650727782982100,3.002982177734375,0.41445985436439514,-0.2113531529903412,0.11178504675626755
1772650727792859400,3.012859375,0.2295258641242981,-0.6844543814659119,0.6068767309188843
1772650727802722800,3.022722900390625,-0.07742489129304886,-1.2659809589385986,0.917645275592804
1772650727812614000,3.03261376953125,-0.3787252902984619,-1.6900616884231567,0.9399412274360657
1772650727822491400,3.042491455078125,-0.6036698222160339,-1.8633896112442017,0.7640172243118286
1772650727832354800,3.052354736328125,-0.6774296164512634,-1.719840407371521,0.5163186192512512
1772650727842246000,3.062245849609375,-0.6580352187156677,-1.2010784149169922,0.28847262263298035
1772650727852123400,3.072123291015625,-0.5486935377120972,-0.7780666947364807,0.1516428291797638
1772650727861986800,3.08198681640625,-0.5172349214553833,-0.5499152541160583,0.11239589750766754
1772650727871878000,3.0918779296875,-0.5612159371376038,-0.40758782625198364,0.19318044185638428
1772650727881755400,3.10175537109375,-0.6809419989585876,-0.32512345910072327,0.2916795611381531
1772650727891618800,3.111618896484375,-0.7944068312644958,-0.34482327103614807,0.4034646153450012
1772650727901510000,3.121510009765625,-0.8593093752861023,-0.35597124695777893,0.5680879354476929
1772650727911387100,3.13138720703125,-0.9171871542930603,-0.4043808877468109,0.7412631511688232
1772650727921250800,3.141250732421875,-0.982700526714325,-0.4494308829307556,0.872137188911438
1772650727931142000,3.151141845703125,-0.9991934299468994,-0.43889376521110535,0.8843541145324707
1772650727941019100,3.16101904296875,-0.9494093656539917,-0.3775036036968231,0.7791357040405273
1772650727950882800,3.1708828125,-0.8950439691543579,-0.2993151545524597,0.6032116413116455
1772650727960774000,3.18077392578125,-0.8107470273971558,-0.217308908700943,0.3623851239681244
1772650727970651100,3.190651123046875,-0.6998782753944397,-0.06520794332027435,0.10201149433851242
1772650727980514800,3.200514892578125,-0.5419742465019226,0.15210096538066864,-0.1557660549879074
1772650727990406000,3.210406005859375,-0.3552076816558838,0.3871244490146637,-0.3730749487876892
1772650728000283100,3.220283203125,-0.16279079020023346,0.6193991303443909,-0.5549547076225281
1772650728010146600,3.230146484375,0.04092676565051079,0.8379297256469727,-0.7525638341903687
1772650728020037600,3.24003759765625,0.21226942539215088,1.0292776823043823,-0.9691091775894165
1772650728029915100,3.2499150390625,0.3542914092540741,1.2238324880599976,-1.1800042390823364
1772650728039778600,3.259778564453125,0.48760882019996643,1.4646589756011963,-1.3611204624176025
1772650728049669600,3.269669677734375,0.5919110178947449,1.7076234817504883,-1.49443781375885
1772650728059547000,3.279546875,0.677582323551178,1.917602300643921,-1.5759859085083008
1772650728069410600,3.28941064453125,0.7531746625900269,2.0697033405303955,-1.6228684186935425
1772650728079301600,3.299301513671875,0.7892146706581116,2.100092887878418,-1.6514256000518799
1772650728089179000,3.309178955078125,0.7353073954582214,1.9273757934570312,-1.590951681137085
1772650728099042600,3.31904248046875,0.5781669020652771,1.5695720911026,-1.4151804447174072
1772650728108933600,3.32893359375,0.4065188467502594,1.1685508489608765,-1.1951227188110352
1772650728118811000,3.338810791015625,0.17775654792785645,0.7837170362472534,-1.0118684768676758
1772650728128688000,3.348688232421875,-0.06123743951320648,0.5132644176483154,-0.7960866689682007
1772650728138565600,3.358565673828125,-0.23380178213119507,0.3897205591201782,-0.5853443741798401
1772650728148443000,3.36844287109375,-0.3852919042110443,0.3249707520008087,-0.3953709006309509
1772650728158306300,3.378306396484375,-0.5202891230583191,0.1969982385635376,-0.20936790108680725
1772650728168197600,3.38819775390625,-0.6193991303443909,0.050394900143146515,-0.045355409383773804
1772650728178075000,3.398074951171875,-0.6705575585365295,-0.07574506103992462,0.08735115826129913
1772650728187938300,3.407938232421875,-0.7021689414978027,-0.23991025984287262,0.19256959855556488
1772650728197829400,3.417829345703125,-0.7091936469078064,-0.45737189054489136,0.2476985603570938
1772650728207707000,3.427706787109375,-0.5891621708869934,-0.5644228458404541,0.24998924136161804
1772650728217570300,3.4375703125,-0.270452618598938,-0.3943018913269043,0.241742804646492
1772650728227461400,3.44746142578125,0.10552386194467545,0.04337015375494957,0.2518217861652374
1772650728237338600,3.457338623046875,0.3701734244823456,0.5222744345664978,0.36101073026657104
1772650728247202300,3.467202392578125,0.6995728015899658,0.8428165316581726,0.645207405090332
1772650728257093400,3.47709326171875,0.9895725846290588,0.6003101468086243,0.9275715351104736
1772650728266970600,3.486970703125,0.7650861740112305,0.18554484844207764,0.9588775038719177
1772650728276834300,3.496834228515625,0.4503471553325653,0.07757759839296341,1.0469921827316284
1772650728286725400,3.506725341796875,0.24189551174640656,-0.16676130890846252,1.1515997648239136
1772650728296602600,3.5166025390625,0.26816195249557495,-0.36223241686820984,1.4083083868026733
1772650728306466000,3.526466064453125,0.30985227227211,-0.6250494718551636,1.5556752681732178
1772650728316357400,3.536357421875,0.060779303312301636,-1.1636639833450317,0.9917105436325073
1772650728326234600,3.546234619140625,-0.38040512800216675,-1.4652698040008545,-0.029473381116986275
1772650728336098000,3.55609814453125,-0.8347227573394775,-1.5109306573867798,-0.9513946175575256
1772650728345989000,3.565989013671875,-1.2230689525604248,-1.317597508430481,-1.2326897382736206
1772650728355866400,3.575866455078125,-1.4385453462600708,-0.971247136592865,-0.9700254201889038
1772650728365730000,3.58572998046875,-1.3921209573745728,-0.41415444016456604,-0.5267030596733093
1772650728375621000,3.59562109375,-1.1934428215026855,0.1766875684261322,-0.16538690030574799
1772650728385498400,3.605498291015625,-0.8399149775505066,0.6160394549369812,0.010231691412627697
1772650728395362000,3.615362060546875,-0.6928535103797913,0.6296308040618896,0.1050657257437706
1772650728405253000,3.625253173828125,-0.48363831639289856,0.4700469672679901,0.10430216789245605
1772650728415130400,3.63513037109375,-0.10613471269607544,0.49203747510910034,0.0393996499478817
1772650728424994000,3.644994140625,0.24281178414821625,0.46928340196609497,-0.0787992998957634
1772650728434884900,3.654884765625,0.4928010404109955,0.4587462842464447,-0.33535513281822205
1772650728444762400,3.664762451171875,0.5839699506759644,0.43614494800567627,-0.6137487888336182
1772650728454625800,3.674625732421875,0.6604785919189453,0.33031564950942993,-0.7169819474220276
1772650728464516900,3.684516845703125,0.7105680704116821,0.39445462822914124,-0.6259657144546509
1772650728474394400,3.694394287109375,0.4862344264984131,0.3802524209022522,-0.40422818064689636
1772650728484257800,3.7042578125,0.2641914486885071,0.4749337434768677,-0.010231691412627697
1772650728494148900,3.71414892578125,0.010842538438737392,0.3671191930770874,0.3452814221382141
1772650728504026000,3.724026123046875,-0.17974179983139038,0.05421269312500954,0.5954233407974243
1772650728513889800,3.733889892578125,-0.17378604412078857,-0.06368082761764526,0.7863131165504456
1772650728523780900,3.74378076171875,-0.03268032893538475,-0.055739812552928925,0.8828269839286804
1772650728533658000,3.753658203125,0.04718795046210289,-0.13927318155765533,0.9022213816642761
1772650728543521800,3.763521728515625,-0.002748812548816204,-0.3255815804004669,0.8431219458580017
1772650728553412900,3.773412841796875,-0.0331384651362896,-0.3889569938182831,0.7233958840370178
1772650728563290000,3.7832900390625,0.019241688773036003,-0.23991025984287262,0.671015739440918
1772650728573153500,3.793153564453125,0.15316994488239288,-0.038636088371276855,0.5833591222763062
1772650728583044900,3.803044921875,0.2495311051607132,0.06963659077882767,0.4931064546108246
1772650728592922000,3.812922119140625,0.3509317636489868,0.10430216789245605,0.39827242493629456
1772650728602799400,3.82279931640625,0.45355409383773804,0.1185043677687645,0.29320669174194336
1772650728612676600,3.832676513671875,0.5549547076225281,0.11972606182098389,0.16859383881092072
1772650728622554000,3.84255419921875,0.6445965766906738,0.1516428291797638,0.05421269312500954
1772650728632431400,3.852431396484375,0.7015580534934998,0.17897824943065643,-0.02641914412379265
1772650728642308600,3.86230859375,0.7062921524047852,0.17684027552604675,-0.11957334727048874
1772650728652185900,3.872185791015625,0.6551336646080017,0.18844637274742126,-0.16431790590286255
1772650728662049500,3.882049560546875,0.575570821762085,0.21975229680538177,-0.1453816443681717
1772650728671940600,3.891940673828125,0.45950984954833984,0.24815669655799866,-0.05329642444849014
1772650728681817900,3.90181787109375,0.31137940287590027,0.22494450211524963,0.08139539510011673
1772650728691695000,3.911695068359375,0.197609081864357,0.16767756640911102,0.18050536513328552
1772650728701572600,3.921572509765625,0.11865708231925964,0.06123743951320648,0.2510582208633423
1772650728711449900,3.931449951171875,0.05497625470161438,-0.16492876410484314,0.3118375241756439
1772650728721313300,3.941313232421875,0.025961007922887802,-0.45324867963790894,0.28098973631858826
1772650728731204600,3.95120458984375,-0.00015271181473508477,-0.6810947060585022,0.18111620843410492
1772650728741081900,3.961081787109375,0.0032069480512291193,-0.8112051486968994,0.060932014137506485
1772650728750945300,3.9709453125,0.13316470384597778,-0.7026270627975464,-0.10720369219779968
1772650728760836400,3.98083642578125,0.3264978528022766,-0.4769189953804016,-0.2793098986148834
1772650728770713900,3.9907138671875,0.5680879354476929,-0.23624517023563385,-0.4187358021736145
1772650728780577300,4.000577392578125,0.8768712282180786,0.011147962883114815,-0.5425850749015808
1772650728790468400,4.01046826171875,1.2595670223236084,0.22998400032520294,-0.5774033665657043
1772650728800345600,4.020345703125,1.6784555912017822,0.5022691488265991,-0.5102101564407349
1772650728810209300,4.030209228515625,2.1770596504211426,1.2094775438308716,-0.3939964771270752
1772650728820100400,4.040100341796875,2.803025245666504,2.684826374053955,-0.17348061501979828
1772650728829977600,4.0499775390625,3.135784387588501,3.6182010173797607,0.29687178134918213
1772650728839841300,4.05984130859375,2.815242290496826,3.1774747371673584,0.5364766120910645
1772650728849732400,4.069732421875,2.0432841777801514,1.7372496128082275,1.0334008932113647
1772650728859609600,4.079609619140625,1.0830321311950684,0.3171824514865875,1.4501514434814453
1772650728869473000,4.08947314453125,0.46073153614997864,-0.687050461769104,1.4240376949310303
1772650728879364400,4.0993642578125,0.12003148347139359,-1.4422104358673096,1.219403862953186
1772650728889241600,4.10924169921875,-0.1566823273897171,-1.6146219968795776,0.8006680607795715
1772650728899105000,4.11910498046875,-0.3312319219112396,-1.5318522453308105,0.35169529914855957
1772650728908996000,4.12899609375,-0.48424917459487915,-1.1199884414672852,-0.13301199674606323
1772650728918873600,4.13887353515625,-0.7360709309577942,-0.775317907333374,-0.6077930331230164
1772650728928737000,4.148737060546875,-1.0323318243026733,-0.36666107177734375,-0.9290986657142639
1772650728938628000,4.158628173828125,-1.2276502847671509,-0.05329642444849014,-0.9814788103103638
1772650728948505600,4.168505615234375,-1.3203463554382324,-0.003359660040587187,-0.7780666947364807
1772650728958369000,4.178369140625,-1.3524158000946045,-0.30099499225616455,-0.6084038615226746
1772650728968260000,4.188260009765625,-1.3710466623306274,-0.744928240776062,-0.5299099683761597
1772650728978137300,4.198137451171875,-1.3521103858947754,-1.0747857093811035,-0.5016583204269409
1772650728988001000,4.2080009765625,-1.2908729314804077,-1.1771026849746704,-0.45767730474472046
1772650728997892000,4.21789208984375,-1.2125318050384521,-1.1199884414672852,-0.3521534502506256
1772650729007769300,4.227769287109375,-1.1270132064819336,-0.9662076234817505,-0.24693500995635986
1772650729017633000,4.237633056640625,-1.0434798002243042,-0.763559103012085,-0.2235700935125351
1772650729027524000,4.247524169921875,-0.9694145917892456,-0.5943543910980225,-0.2848075330257416
1772650729037401300,4.2574013671875,-0.8770239353179932,-0.430341899394989,-0.4146125912666321
1772650729047265000,4.26726513671875,-0.7562289237976074,-0.20585553348064423,-0.5722111463546753
1772650729057156000,4.277156005859375,-0.6084038615226746,0.050394900143146515,-0.684759795665741
1772650729067033300,4.287033447265625,-0.4647020399570465,0.2748812735080719,-0.7444701194763184
1772650729076896800,4.296896728515625,-0.3817795515060425,0.4340069890022278,-0.7632536292076111
1772650729086788000,4.3067880859375,-0.35856732726097107,0.5021164417266846,-0.755770742893219
1772650729096665300,4.316665283203125,-0.3429907262325287,0.554649293422699,-0.7253811359405518
1772650729106528800,4.32652880859375,-0.34818294644355774,0.5903838872909546,-0.6562026739120483
1772650729116419800,4.336419921875,-0.3746020793914795,0.6126797795295715,-0.5766398310661316
1772650729126297300,4.34629736328125,-0.39796698093414307,0.6068767309188843,-0.5428904891014099
1772650729136160800,4.356160888671875,-0.40972578525543213,0.5781669020652771,-0.5848862528800964
1772650729146051800,4.3660517578125,-0.40422818064689636,0.53143709897995,-0.7104153633117676
1772650729155929000,4.37592919921875,-0.39827242493629456,0.5239542126655579,-0.8814526200294495
1772650729165806600,4.385806640625,-0.3823903799057007,0.6203153729438782,-1.0317209959030151
1772650729175683800,4.395683837890625,-0.3524588644504547,0.8347227573394775,-1.1395355463027954
1772650729185561000,4.40556103515625,-0.3348970115184784,1.0709679126739502,-1.1592353582382202
1772650729195424800,4.4154248046875,-0.3321481943130493,1.288735032081604,-1.0781453847885132
1772650729205315800,4.42531591796875,-0.3414636254310608,1.409071922302246,-0.8948912620544434
1772650729215193000,4.435193115234375,-0.3943018913269043,1.3811256885528564,-0.6077930331230164
1772650729225056800,4.445056884765625,-0.4491254389286041,1.2395617961883545,-0.28007346391677856
1772650729234947800,4.45494775390625,-0.44729289412498474,1.0899041891098022,0.021226942539215088
1772650729244825000,4.4648251953125,-0.39292749762535095,0.9723161458969116,0.24189551174640656
1772650729254688500,4.4746884765625,-0.3605526089668274,0.7655443549156189,0.3643703758716583
1772650729264579600,4.48457958984375,-0.4243861436843872,0.3820849657058716,0.434617817401886
1772650729274457000,4.49445703125,-0.553274929523468,-0.07299624383449554,0.5120427012443542
1772650729284320500,4.504320556640625,-0.5674771070480347,-0.34482327103614807,0.5369347333908081
1772650729294211600,4.514211669921875,-0.4549284875392914,-0.4169032573699951,0.4813476502895355
1772650729304089000,4.524089111328125,-0.33764582872390747,-0.4199574887752533,0.4100312292575836
1772650729313952500,4.533952392578125,-0.1638597846031189,-0.45324867963790894,0.4228590130805969
1772650729323843600,4.543843505859375,0.021226942539215088,-0.46897798776626587,0.41232189536094666
1772650729333720800,4.553720947265625,0.270452618598938,-0.2276933193206787,0.37200596928596497
1772650729343584500,4.56358447265625,0.7577560544013977,0.8658760190010071,0.293664813041687
1772650729353475600,4.5734755859375,1.182905673980713,1.7847429513931274,0.2770192325115204
1772650729363352800,4.583352783203125,0.7447755336761475,1.4487769603729248,0.6522321701049805
1772650729373216500,4.593216552734375,-0.22540263831615448,0.3171824514865875,1.0479084253311157
1772650729383107600,4.603107666015625,-0.8098307251930237,-0.6467345356941223,1.4892456531524658
1772650729392984800,4.61298486328125,-0.7970029711723328,-1.0091196298599243,1.562394618988037
1772650729402848500,4.6228486328125,-0.9158127307891846,-0.9772028923034668,1.0031639337539673
1772650729412739600,4.632739501953125,-1.3956332206726074,-1.3968549966812134,0.3665083646774292
1772650729422616800,4.642616943359375,-1.3815838098526,-1.233758807182312,-0.20585553348064423
1772650729432480300,4.652480224609375,-1.067455530166626,-0.47951510548591614,-0.6090146899223328
1772650729442371300,4.662371337890625,-0.8464815616607666,-0.09407047927379608,-0.6432221531867981
1772650729452248800,4.672248779296875,-0.6577298045158386,-0.06200099736452103,-0.3187095522880554
1772650729462112300,4.6821123046875,-0.49524441361427307,0.04337015375494957,0.17913095653057098
1772650729472003300,4.69200341796875,-0.4300364851951599,0.13530266284942627,0.543195903301239
1772650729481880600,4.701880615234375,-0.46134239435195923,0.1369825005531311,0.5935907959938049
1772650729491744300,4.711744140625,-0.5352548956871033,0.12262758612632751,0.35765108466148376
1772650729501635300,4.72163525390625,-0.592216432094574,0.23273280262947083,-0.014507622458040714
1772650729511512600,4.7315126953125,-0.5380037426948547,0.462564080953598,-0.39109495282173157
1772650729521390000,4.74139013671875,-0.4703523814678192,0.650094211101532,-0.6551336646080017
1772650729531267300,4.751267333984375,-0.38880428671836853,0.6670452356338501,-0.7394306063652039
1772650729541144600,4.76114453125,-0.2921377122402191,0.5723638534545898,-0.6868977546691895
1772650729551008300,4.77100830078125,-0.168899267911911,0.3796415627002716,-0.5676298141479492
1772650729560899300,4.7808994140625,-0.13316470384597778,0.1244601309299469,-0.34375429153442383
1772650729570776600,4.790776611328125,-0.16905197501182556,-0.1572931706905365,-0.10735640674829483
1772650729580640000,4.800639892578125,-0.23258009552955627,-0.45889899134635925,0.04413371533155441
1772650729590531300,4.81053125,-0.2673983871936798,-0.5775560736656189,0.23181653022766113
1772650729600408600,4.82040869140625,-0.26342788338661194,-0.684148907661438,0.49051034450531006
1772650729610272000,4.83027197265625,-0.3071034550666809,-0.8477032780647278,0.8218950033187866
1772650729620163000,4.8401630859375,-0.36452311277389526,-0.9762866497039795,1.1598461866378784
1772650729630040600,4.85004052734375,-0.3943018913269043,-0.9988879561424255,1.4906200170516968
1772650729639904000,4.859904052734375,-0.3897205591201782,-0.8970292210578918,1.7732895612716675
1772650729649795000,4.869795166015625,-0.4074351191520691,-0.7744016051292419,1.997775912284851
1772650729659672600,4.879672607421875,-0.5045598149299622,-0.7391251921653748,2.152778387069702
1772650729669536000,4.889535888671875,-0.6560499668121338,-0.8078454732894897,2.265632390975952
1772650729679427000,4.899427001953125,-0.7291989326477051,-0.8076927661895752,2.348402261734009
1772650729689304300,4.90930419921875,-0.6762079000473022,-0.6650599241256714,2.4310193061828613
1772650729699168000,4.91916796875,-0.5928272604942322,-0.4811949133872986,2.481414318084717
1772650729709059000,4.92905908203125,-0.4946335554122925,-0.377198189496994,2.461103677749634
1772650729718936300,4.938936279296875,-0.3374931216239929,-0.2773246467113495,2.3328256607055664
1772650729728800000,4.948800048828125,-0.12843063473701477,-0.1751604527235031,2.06512188911438
1772650729738691000,4.958691162109375,0.14522893726825714,-0.02886253222823143,1.7022786140441895
1772650729748568300,4.968568359375,0.3877353072166443,0.1438545286655426,1.2221527099609375
1772650729758432000,4.978431884765625,0.6557445526123047,0.3498627543449402,0.7140804529190063
1772650729768322800,4.98832275390625,0.9141329526901245,0.5657972693443298,0.22570806741714478
1772650729778200300,4.998200439453125,1.1056334972381592,0.7655443549156189,-0.1698155403137207
1772650729788063700,5.008063720703125,1.1974133253097534,0.8890882134437561,-0.416597843170166
1772650729797954800,5.017954833984375,1.174659252166748,0.883590579032898,-0.5268557667732239
1772650729807832300,5.027832275390625,1.0663865804672241,0.7809682488441467,-0.5248705148696899
1772650729817695700,5.03769580078125,0.9214630722999573,0.6024481058120728,-0.4286620616912842
1772650729827586800,5.0475869140625,0.7589777112007141,0.36971530318260193,-0.2942756712436676
1772650729837464000,5.057464111328125,0.6372663974761963,0.12064233422279358,-0.1969982385635376
1772650729847327700,5.06732763671875,0.5897729992866516,-0.07620319724082947,-0.19531841576099396
1772650729857218800,5.07721875,0.6210789680480957,-0.1579040139913559,-0.3292466700077057
1772650729867096000,5.087095947265625,0.7502731680870056,-0.05268557742238045,-0.5836645364761353
1772650729876959700,5.096959716796875,0.9440644383430481,0.22815145552158356,-0.906802773475647
1772650729886850800,5.106850830078125,1.1109784841537476,0.5230379700660706,-1.2329951524734497
1772650729896728000,5.11672802734375,1.2274975776672363,0.7232431769371033,-1.4194563627243042
1772650729906591700,5.126591796875,1.4194563627243042,0.9677347540855408,-1.3947169780731201
1772650729916482800,5.13648291015625,1.7202986478805542,1.3328686952590942,-1.1641221046447754
1772650729926360000,5.146360107421875,2.1941633224487305,2.1364383697509766,-0.7711946368217468
1772650729936223500,5.156223388671875,2.8082175254821777,3.766484260559082,-0.07330167293548584
1772650729946114600,5.166114501953125,2.875105381011963,3.8553624153137207,1.0421054363250732
1772650729955992000,5.175991943359375,2.241809368133545,1.9544057846069336,1.995790719985962
1772650729965855500,5.18585546875,1.3739482164382935,0.17943638563156128,2.369629144668579
1772650729975746600,5.19574658203125,0.49982577562332153,-1.4138059616088867,2.3126676082611084
1772650729985623800,5.205623779296875,-0.16599774360656738,-1.8751484155654907,1.5894246101379395
1772650729995487500,5.215487548828125,-0.6258130073547363,-1.4800828695297241,0.6981984376907349
1772650730005378600,5.225378662109375,-0.8729007244110107,-1.0016367435455322,0.09636115282773972
1772650730015255800,5.235255859375,-1.0489774942398071,-0.8370134830474854,-0.1122431829571724
1772650730025119500,5.245119384765625,-1.1728267669677734,-0.9808679819107056,-0.13209572434425354
1772650730035010600,5.255010498046875,-1.3070604801177979,-1.2314680814743042,-0.06688777357339859
1772650730044887800,5.2648876953125,-1.3085875511169434,-1.2852226495742798,-0.1585148572921753
1772650730054751500,5.27475146484375,-1.1696197986602783,-1.1241116523742676,-0.34039464592933655
1772650730064642600,5.284642578125,-1.0592091083526611,-1.1302201747894287,-0.3545968234539032
1772650730074519800,5.294519775390625,-0.9753703474998474,-1.2297883033752441,-0.23227466642856598
1772650730084383200,5.30438330078125,-0.8906152844429016,-1.243990421295166,-0.05390727147459984
1772650730094274600,5.314274658203125,-0.7925743460655212,-1.1551121473312378,0.09834641218185425
1772650730104151800,5.32415185546875,-0.5946598052978516,-0.946049690246582,0.1453816443681717
1772650730114015200,5.33401513671875,-0.47355934977531433,-0.8089144825935364,0.11865708231925964
1772650730123906300,5.34390625,-0.4411844313144684,-0.7568397521972656,0.11896250396966934
1772650730133783800,5.35378369140625,-0.3637595474720001,-0.7262973785400391,0.145687073469162
1772650730143647200,5.363647216796875,-0.3199312388896942,-0.7802046537399292,0.1391204595565796
1772650730153538300,5.373538330078125,-0.2596100866794586,-0.8513683676719666,0.11987877637147903
1772650730163415800,5.383415771484375,-0.1963873952627182,-0.9407047629356384,0.1244601309299469
1772650730173279200,5.393279296875,-0.182643324136734,-0.8748859763145447,0.09407047927379608
1772650730183170300,5.40317041015625,-0.17088451981544495,-0.7571451663970947,0.050547610968351364
1772650730193047600,5.413047607421875,-0.20020519196987152,-0.6717792749404907,0.06856760382652283
1772650730202911200,5.4229111328125,-0.21303297579288483,-0.5758762359619141,0.10109522193670273
1772650730212802300,5.43280224609375,-0.1913478970527649,-0.4888305068016052,0.10552386194467545
1772650730222679600,5.442679443359375,-0.13682979345321655,-0.4246915578842163,0.1247655525803566
1772650730232543200,5.452543212890625,-0.08383878320455551,-0.28602921962738037,0.14049486815929413
1772650730242434300,5.462434326171875,-0.014965757727622986,-0.12827792763710022,0.10934165865182877
1772650730252311600,5.4723115234375,0.08124268800020218,0.09544488787651062,0.04550812020897865
1772650730262188800,5.482188720703125,0.1301104724407196,0.3064926266670227,-0.05207473039627075
1772650730272066000,5.492066162109375,0.13026317954063416,0.43263256549835205,-0.16126367449760437
1772650730281943600,5.501943603515625,0.11712995916604996,0.487761527299881,-0.26938363909721375
1772650730291820800,5.51182080078125,0.10949437320232391,0.5267030596733093,-0.39292749762535095
1772650730301698000,5.521697998046875,0.0922379344701767,0.5967977643013,-0.47294849157333374
1772650730311575600,5.531575439453125,0.021837789565324783,0.6652126908302307,-0.48608171939849854
1772650730321439000,5.54143896484375,-0.10323318839073181,0.6962131857872009,-0.4327852725982666
1772650730331330000,5.551330078125,-0.2376195788383484,0.6688777208328247,-0.34222719073295593
1772650730341207300,5.561207275390625,-0.3570402264595032,0.6120689511299133,-0.24678228795528412
1772650730351071000,5.571071044921875,-0.4422534108161926,0.5709894895553589,-0.1378987729549408
1772650730360962000,5.580962158203125,-0.4683671295642853,0.6103891134262085,-0.0656660795211792
1772650730370839300,5.59083935546875,-0.44332239031791687,0.684759795665741,-0.04963133856654167
1772650730380703000,5.600702880859375,-0.4115583300590515,0.6673506498336792,-0.06856760382652283
1772650730390594000,5.610593994140625,-0.3855973184108734,0.5723638534545898,-0.13362284004688263
1772650730400471300,5.62047119140625,-0.4143071472644806,0.3498627543449402,-0.19745637476444244
1772650730410348500,5.6303486328125,-0.49051034450531006,0.04688252881169319,-0.26434415578842163
1772650730420225800,5.640225830078125,-0.5328115224838257,-0.251974493265152,-0.34482327103614807
1772650730430103300,5.650103271484375,-0.4903576374053955,-0.4262186884880066,-0.4366030693054199
1772650730439966700,5.659966796875,-0.35505497455596924,-0.4227063059806824,-0.5238015055656433
1772650730449857800,5.66985791015625,-0.15087927877902985,-0.2582356929779053,-0.5685460567474365
1772650730459735300,5.6797353515625,0.1432436853647232,0.05604523420333862,-0.5725166201591492
1772650730469598700,5.6895986328125,0.3483356535434723,0.41476529836654663,-0.5760289430618286
1772650730479489800,5.69948974609375,0.49356457591056824,0.7653915882110596,-0.5804576277732849
1772650730489367000,5.709366943359375,0.8599202036857605,1.615538239479065,-0.6887302994728088
1772650730499230700,5.719230712890625,1.4570233821868896,3.167243003845215,-0.6855233311653137
1772650730509121800,5.729121826171875,1.8114675283432007,4.043808937072754,-0.1647760421037674
1772650730518999000,5.7389990234375,1.389830231666565,3.1886227130889893,0.3752129375934601
1772650730528862700,5.74886279296875,0.4324798583984375,1.2934690713882446,0.7178982496261597
1772650730538753800,5.75875390625,-0.018630841746926308,-0.3477247953414917,0.8942803740501404
1772650730548631000,5.768631103515625,-0.2880144715309143,-0.950325608253479,0.5839699506759644
1772650730558494500,5.778494384765625,-0.8706100583076477,-1.4182345867156982,-0.06826218217611313
1772650730568385500,5.788385498046875,-1.1784770488739014,-1.7971125841140747,-0.5335750579833984
1772650730578263000,5.798262939453125,-1.3773078918457031,-1.6801353693008423,-0.6633801460266113
1772650730588126500,5.80812646484375,-1.375780701637268,-1.4141113758087158,-0.6016845703125
1772650730598017500,5.818017578125,-1.311947226524353,-1.1338852643966675,-0.37322768568992615
1772650730607894800,5.827894775390625,-1.2717839479446411,-1.0221002101898193,-0.04169032722711563
1772650730617758500,5.837758544921875,-1.1760337352752686,-0.9481876492500305,0.30191126465797424
1772650730627649500,5.8476494140625,-1.041494607925415,-0.8348754644393921,0.5996993184089661
1772650730637526800,5.85752685546875,-0.8956547975540161,-0.6977402567863464,0.8377770185470581
1772650730647390500,5.867390380859375,-0.7313368916511536,-0.6503996253013611,1.0459232330322266
1772650730657281500,5.877281494140625,-0.6116108298301697,-0.5853443741798401,1.200467586517334
1772650730667158800,5.88715869140625,-0.5050179958343506,-0.5554128885269165,1.2896512746810913
1772650730677022500,5.8970224609375,-0.4500417113304138,-0.5167768001556396,1.3342431783676147
1772650730686913500,5.90691357421875,-0.37047886848449707,-0.4793623983860016,1.32767653465271
1772650730696790800,5.916790771484375,-0.3148917555809021,-0.4756973087787628,1.2705622911453247
1772650730706654200,5.926654296875,-0.31916770339012146,-0.5700731873512268,1.1607625484466553
1772650730716545300,5.936545166015625,-0.32573428750038147,-0.7702783942222595,1.0072871446609497
1772650730726422800,5.9464228515625,-0.35322242975234985,-0.9564340710639954,0.8643488883972168
1772650730736286200,5.9562861328125,-0.3901786804199219,-1.0695935487747192,0.7734853625297546
1772650730746177300,5.96617724609375,-0.3758237659931183,-1.1320526599884033,0.7223268747329712
1772650730756054500,5.976054443359375,-0.2942756712436676,-1.0188932418823242,0.6904101371765137
1772650730765918200,5.985918212890625,-0.24036839604377747,-0.9029849767684937,0.6424586176872253
1772650730775809300,5.995809326171875,-0.22647161781787872,-0.8276980519294739,0.5783196687698364
1772650730785686500,6.0056865234375,-0.25976279377937317,-0.804791271686554,0.4953971207141876
1772650730795550200,6.01555029296875,-0.27289602160453796,-0.8228112459182739,0.429883748292923
1772650730805441300,6.025441162109375,-0.2408265322446823,-0.7863131165504456,0.39048412442207336
1772650730815318500,6.035318603515625,-0.16553960740566254,-0.6983511447906494,0.3701734244823456
1772650730825182000,6.045181884765625,-0.09361234307289124,-0.5899257659912109,0.3549022674560547
1772650730835073000,6.055072998046875,0.02107422985136509,-0.42163732647895813,0.3243598937988281
1772650730844950500,6.064950439453125,0.17118994891643524,-0.17271706461906433,0.2620534598827362
1772650730854814000,6.07481396484375,0.3446705639362335,0.10857810080051422,0.18065807223320007
1772650730864705000,6.084705078125,0.5073086619377136,0.37200596928596497,0.1047603040933609
1772650730874582500,6.09458251953125,0.6427640318870544,0.5676298141479492,0.05131116881966591
1772650730884446000,6.104446044921875,0.7464553713798523,0.6740699410438538,0.019394399598240852
1772650730894337000,6.1143369140625,0.7574505805969238,0.6922426819801331,0.05787777900695801
1772650730904214300,6.12421435546875,0.7224795818328857,0.6012263894081116,0.1369825005531311
1772650730914078000,6.134077880859375,0.6499415040016174,0.43415969610214233,0.22127941250801086
1772650730923969000,6.143968994140625,0.564117431640625,0.19241689145565033,0.31290650367736816
1772650730933846300,6.15384619140625,0.4760027229785919,-0.0725381150841713,0.4014793634414673
1772650730943723500,6.1637236328125,0.37261682748794556,-0.3364241421222687,0.4847072958946228
1772650730953601000,6.17360107421875,0.265718549489975,-0.5154023766517639,0.5428904891014099
1772650730963478300,6.183478271484375,0.22738789021968842,-0.5754181146621704,0.5541911721229553
1772650730973341700,6.193341796875,0.30572906136512756,-0.5057815313339233,0.5193728804588318
1772650730983232800,6.203232666015625,0.44607120752334595,-0.29778802394866943,0.4211791753768921
1772650730993110000,6.213110107421875,0.6044333577156067,-0.08124268800020218,0.277630090713501
1772650731002973700,6.2229736328125,0.7053758502006531,0.018019994720816612,0.1432436853647232
1772650731012864800,6.23286474609375,0.8493831157684326,0.19180603325366974,-0.00519220158457756
1772650731022742000,6.242741943359375,0.9538379907608032,0.3680354654788971,0.016492875292897224
1772650731032605700,6.252605712890625,0.8840487003326416,0.30847787857055664,0.3958290219306946
1772650731042496800,6.262496826171875,0.9127585291862488,0.5326588153839111,0.5969504714012146
1772650731052374000,6.2723740234375,1.295607089996338,2.184847831726074,0.5867187976837158
1772650731062237400,6.282237548828125,1.7265597581863403,3.5361948013305664,0.6273401379585266
1772650731072128500,6.29212841796875,1.7349588871002197,2.3100717067718506,0.44515493512153625
1772650731082006000,6.302006103515625,1.0911259651184082,0.5929799675941467,-0.0916270911693573
1772650731091869400,6.311869384765625,0.2408265322446823,-1.2788087129592896,-0.5328115224838257
1772650731101760500,6.321760498046875,-0.5332696437835693,-2.594573736190796,-0.6723901033401489
1772650731111637800,6.3316376953125,-0.881605327129364,-2.811424493789673,-0.5027272701263428
1772650731121501400,6.34150146484375,-0.8484668135643005,-2.1704931259155273,-0.2867927849292755
1772650731131392500,6.351392578125,-0.6164975762367249,-1.2256649732589722,-0.09483403712511063
1772650731141269800,6.361269775390625,-0.4760027229785919,-0.5984776020050049,0.08750387281179428
1772650731151133400,6.371133544921875,-0.5497625470161438,-0.5263976454734802,0.1882936656475067
1772650731161024500,6.3810244140625,-0.7313368916511536,-0.7524111270904541,0.1635543555021286
1772650731170901800,6.39090185546875,-0.8646543025970459,-1.0138537883758545,0.04184303805232048
1772650731180765200,6.40076513671875,-0.9338327646255493,-1.2070342302322388,-0.13377554714679718
1772650731190656300,6.41065625,-0.974148690700531,-1.3009519577026367,-0.24342262744903564
1772650731200533800,6.42053369140625,-0.8988617658615112,-1.2270394563674927,-0.27152159810066223
1772650731210397200,6.430397216796875,-0.7382088899612427,-0.9660549163818359,-0.24311721324920654
1772650731220288300,6.440288330078125,-0.5213581323623657,-0.6403206586837769,-0.18997350335121155
1772650731230165500,6.45016552734375,-0.3042019307613373,-0.34848836064338684,-0.1459924876689911
1772650731240029200,6.460029296875,-0.12613995373249054,-0.13545538485050201,-0.12461283802986145
1772650731249920300,6.469920166015625,0.01847812905907631,0.041232191026210785,-0.13988402485847473
1772650731259797500,6.479797607421875,0.12293300777673721,0.21349111199378967,-0.20234315097332
1772650731269661200,6.4896611328125,0.19409671425819397,0.36039987206459045,-0.27747735381126404
1772650731279552300,6.49955224609375,0.22066856920719147,0.44607120752334595,-0.33688226342201233
1772650731289429500,6.509429443359375,0.21425467729568481,0.45859357714653015,-0.36131614446640015
1772650731299293000,6.51929296875,0.19287502765655518,0.4480564594268799,-0.3668137788772583
1772650731309184300,6.529184326171875,0.1644706279039383,0.434617817401886,-0.36543938517570496
1772650731319061500,6.5390615234375,0.1301104724407196,0.39292749762535095,-0.35658207535743713
1772650731328925000,6.548925048828125,0.0784938707947731,0.31657159328460693,-0.33886751532554626
1772650731338816000,6.55881591796875,0.010689826682209969,0.2229592502117157,-0.3229855000972748
1772650731348693200,6.568693359375,-0.06200099736452103,0.11835165321826935,-0.29412296414375305
1772650731358570800,6.57857080078125,-0.1620272397994995,-0.014813045971095562,-0.2441861927509308
1772650731368448000,6.588447998046875,-0.2582356929779053,-0.16813570261001587,-0.18569757044315338
1772650731378325200,6.5983251953125,-0.3161134421825409,-0.27442312240600586,-0.14996300637722015
1772650731388189000,6.60818896484375,-0.34253260493278503,-0.3483356535434723,-0.13179029524326324
1772650731398080000,6.618080078125,-0.35413870215415955,-0.43293800950050354,-0.08292251825332642
1772650731407957200,6.627957275390625,-0.36192700266838074,-0.4928010404109955,-0.004734066314995289
1772650731417820700,6.637820556640625,-0.36253786087036133,-0.543195903301239,0.08093725889921188
1772650731427711700,6.647711669921875,-0.3387148082256317,-0.5734328627586365,0.12018419802188873
1772650731437589200,6.65758935546875,-0.2870981991291046,-0.5767925381660461,0.08582404255867004
1772650731447452700,6.66745263671875,-0.17592400312423706,-0.5587725043296814,-0.020616095513105392
1772650731457343700,6.67734375,-0.06154286116361618,-0.540905237197876,-0.1820324808359146
1772650731467221000,6.687220947265625,-0.036039989441633224,-0.6198572516441345,-0.2852656841278076
1772650731477084700,6.697084716796875,0.01695101149380207,-0.712247908115387,-0.34375429153442383
1772650731486975700,6.706975830078125,0.08704573661088943,-0.7655443549156189,-0.34604495763778687
1772650731496853000,6.71685302734375,0.1453816443681717,-0.8081509470939636,-0.2832804024219513
1772650731506730200,6.726730224609375,0.1710372269153595,-0.8350282311439514,-0.17653486132621765
1772650731516607700,6.736607666015625,0.1832541823387146,-0.8379297256469727,-0.04840964451432228
1772650731526485000,6.746485107421875,0.18218518793582916,-0.8058602213859558,0.07482878863811493
1772650731536362200,6.7563623046875,0.19027891755104065,-0.7490514516830444,0.16279079020023346
1772650731546239500,6.766239501953125,0.2044811248779297,-0.6917845010757446,0.24220094084739685
1772650731556117000,6.776116943359375,0.2345653474330902,-0.6108472347259521,0.29687178134918213
1772650731565994200,6.785994140625,0.2698417901992798,-0.5415160655975342,0.35658207535743713
1772650731575871500,6.79587158203125,0.30847787857055664,-0.4946335554122925,0.4321744441986084
1772650731585748700,6.805748779296875,0.3474193811416626,-0.47081053256988525,0.5234960913658142
1772650731595612400,6.8156123046875,0.39598172903060913,-0.43018919229507446,0.7487460374832153
1772650731605503500,6.82550341796875,0.41476529836654663,-0.38575005531311035,0.7797465324401855
1772650731615380700,6.835380615234375,0.3836120665073395,-0.40453359484672546,0.6861341595649719
1772650731625258000,6.845258056640625,0.31092125177383423,-0.4756973087787628,0.5308262705802917
1772650731635135500,6.855135498046875,0.23532891273498535,-0.5604523420333862,0.36101073026657104
1772650731645012700,6.8650126953125,0.1910424828529358,-0.5796940326690674,0.2360924631357193
1772650731654890000,6.874889892578125,0.19715094566345215,-0.46851983666419983,0.16370706260204315
1772650731664767200,6.884767333984375,0.15500248968601227,-0.40041038393974304,0.168899267911911
1772650731674644700,6.894644775390625,0.07605048269033432,-0.43538138270378113,0.18019993603229523
