time,seconds_elapsed,z,y,x
1772556491025275400,0.086275390625,-0.9432008878111838,-2.232380282127857,-0.46401926806159316
1772556491035259400,0.09625927734375,-1.4791443322896956,-2.1004843790248033,-0.4218967940598726
1772556491045243400,0.106243408203125,-2.1713392457097767,-1.6261679541587828,-0.30038579910993574
1772556491055226400,0.116226318359375,-2.91867853872478,-0.892343684016168,-0.0761884827978909
1772556491065210400,0.12621044921875,-3.414671665608883,-0.06718377695679664,0.10093918543383479
1772556491075194400,0.1361943359375,-3.587659749817848,0.6853536692231893,0.26798019780665633
1772556491085178400,0.146178466796875,-3.1986259454399346,1.300493107752502,0.36368630489259957
1772556491095162400,0.156162353515625,-2.2483985199928282,1.863724664390087,0.41080066889747974
1772556491105146400,0.166146484375,-1.0142226354956627,2.2648402439668773,0.46585349775142965
1772556491115130400,0.17613037109375,0.19945815798342226,2.455746846704185,0.5620171393465251
1772556491125113600,0.186113525390625,1.0568401264727114,2.447891164767742,0.7889747141521424
1772556491135097300,0.196097412109375,1.1821335625708103,2.2594819318041206,1.1172172921545802
1772556491145081300,0.206081298828125,0.9863841959774493,1.9306638189360499,1.3074442420646548
1772556491155065300,0.2160654296875,0.7858247987538576,1.6060773522883653,1.415419317484647
1772556491165049300,0.22604931640625,0.6814929021418095,1.349865333686769,1.4793988915726541
1772556491175033300,0.236033447265625,0.6911211467087268,1.1377385405272245,1.5026380206018686
1772556491185016300,0.246016357421875,0.8513163848400116,0.7726505521431565,1.4219810140877962
1772556491195000300,0.256000244140625,0.8784580742657184,0.4122036675632,1.3824904229596255
1772556491204984300,0.265984375,0.7932710231065749,0.23895284076482057,1.3588744234420358
1772556491214968300,0.27596826171875,0.6125584821254014,0.26512480837553737,1.2183625215545295
1772556491224952600,0.28595263671875,0.372137614634633,0.4665168570309877,0.9945464596450329
1772556491234936800,0.295936767578125,0.18992986665964126,0.7659171522349119,0.9028471039824187
1772556491244919600,0.30591943359375,0.11697042891085146,0.9739160518094897,0.6927591962393372
1772556491254903600,0.315903564453125,0.10186229162812233,1.1145847516939043,0.4335900813978165
1772556491264887600,0.325887451171875,0.1309247199833393,1.1773723395183682,0.1588348364982754
1772556491274871600,0.33587158203125,0.20490648651719093,1.195134790702164,-0.1237964024733752
1772556491284855600,0.34585546875,0.3821376151233911,1.1110638840913771,-0.3159437990520149
1772556491294839600,0.355839599609375,0.5679752440333367,0.8974690642058849,-0.3981573142930865
1772556491304823600,0.365823486328125,0.6325041225671768,0.6169736682191491,-0.4251007046677172
1772556491314806800,0.375806884765625,0.6465531061857939,0.3383054876595735,-0.37139381053000686
1772556491324790800,0.385790771484375,0.697631551516056,0.024985388174653053,-0.2481301632264629
1772556491334774800,0.39577490234375,0.7402829447627067,-0.326967224304378,-0.1655440518133342
1772556491344758800,0.4057587890625,0.7960100926816464,-0.6234533856272697,-0.01969188487641513
1772556491354742500,0.415742431640625,0.8285486727148293,-0.8018786924540996,0.14028262317627668
1772556491364726500,0.4257265625,0.8283446745753288,-0.9306146702215075,0.34899372614081947
1772556491374710500,0.43571044921875,0.769596717530489,-1.0073033576264976,0.5466898794203996
1772556491384693500,0.445693603515625,0.6361433558523655,-0.9477087206244468,0.7433510270964354
1772556491394677800,0.455677734375,0.4528624256879091,-0.8916030947819351,0.8889883091736585
1772556491404661800,0.465661865234375,0.3192243550926447,-0.897355082437396,0.8537266608521342
1772556491414645800,0.475645751953125,0.31824177379608154,-0.8876452970668673,0.8460641634002327
1772556491424629800,0.485629638671875,0.34746669923663137,-0.875985838933289,0.7222872693449258
1772556491434613800,0.49561376953125,0.4461439310878515,-0.7733332737103105,0.5672154021093622
1772556491444596500,0.505596435546875,0.5446972442984581,-0.6124722651466726,0.38605654213279483
1772556491454580500,0.51558056640625,0.6852917099028826,-0.4719675236523151,0.24424210627935825
1772556491464564500,0.525564453125,0.8734154039233922,-0.40493747595250607,0.11654518923610448
1772556491474548500,0.535548583984375,1.0236275927007197,-0.35244682573676106,0.07506057474650442
1772556491484532500,0.545532470703125,1.014076505023241,-0.344261473454535,0.09880926073305309
1772556491494516700,0.555516845703125,0.9458131161361932,-0.4019248501330614,0.11693499227128923
1772556491504500700,0.565500732421875,0.8045365134865045,-0.45967035213708873,0.15104871266670525
1772556491514483700,0.575483642578125,0.6121762048095465,-0.5255868856370449,0.13937391083352266
1772556491524467700,0.5854677734375,0.41294951749444003,-0.5345993363931775,0.08595401694364846
1772556491534451700,0.59545166015625,0.18022095807194707,-0.5302578000575304,0.08642309576012194
1772556491544435700,0.605435791015625,-0.05307400306165218,-0.5129585824713111,0.0550588932685554
1772556491554419500,0.61541943359375,-0.2899994296520948,-0.4788938157841563,-0.040925957693532106
1772556491564403500,0.625403564453125,-0.3791238202601671,-0.42380876516103744,-0.09977394104674459
1772556491574386700,0.63538671875,-0.40413025122284885,-0.3749769297137856,-0.07333981536850333
1772556491584370700,0.64537060546875,-0.44258185469210143,-0.34154783058166505,-0.03216280552335083
1772556491594354700,0.655354736328125,-0.42060909233689303,-0.36566900314241646,-0.0065315937258303165
1772556491604338700,0.665338623046875,-0.20896599104106425,-0.7387976746410131,0.0687524145130068
1772556491614322700,0.67532275390625,-0.038515316355228424,-1.2391107105508445,0.3045541708357632
1772556491624306700,0.685306640625,-0.3176163353741169,-1.2394722373396156,0.75653966755867
1772556491634290700,0.695290771484375,-0.7216746904045342,-1.1720540671050548,0.9316328342881053
1772556491644273400,0.7052734375,-0.840813695526123,-1.422059632281959,0.8508552701342851
1772556491654257400,0.71525732421875,-0.9350064754396676,-1.5802309633702039,0.8192037020687013
1772556491664241700,0.72524169921875,-1.3409943372279405,-1.3484656960219144,0.770915471978858
1772556491674225700,0.7352255859375,-2.0511475166648627,-0.7837433163046836,0.6702883481688797
1772556491684209700,0.745209716796875,-2.6431471948862075,-0.2057332927301526,0.540385153253004
1772556491694193700,0.755193603515625,-3.0609137572735547,0.17070464944690464,0.27917401118986307
1772556491704177700,0.765177734375,-3.103981330105662,0.3233393891960382,-0.0976455507159233
1772556491714160600,0.77516064453125,-2.819411524286866,0.4585279041036963,-0.328949264967069
1772556491724144600,0.78514453125,-2.354262448477745,0.6592392770186066,-0.3961605875179171
1772556491734128600,0.795128662109375,-1.7224948234915731,0.9069920948326587,-0.39249570833481845
1772556491744112600,0.805112548828125,-0.9738736739724874,1.1094465120226145,-0.4003055053029209
1772556491754096600,0.8150966796875,-0.17240297779738903,1.223740122939646,-0.3884900528900325
1772556491764080600,0.82508056640625,0.5851666173309087,1.2649895404338836,-0.4011532812386751
1772556491774064600,0.835064697265625,0.9554431142687797,1.2589262948721647,-0.41539216140620405
1772556491784047600,0.845047607421875,0.9846323838740587,1.280160513819754,-0.34413090587742623
1772556491794031600,0.855031494140625,0.854607243078947,1.2446198293611406,-0.24167824714072048
1772556491804015600,0.865015625,0.7638578816175461,1.0759402560010551,-0.19762436668500302
1772556491813999600,0.87499951171875,0.7438865222126245,0.9063827307626604,-0.18143347566686568
1772556491823983600,0.884983642578125,0.7089660154789685,0.8068111804202198,-0.21685345635525882
1772556491833967600,0.894967529296875,0.7149205399692058,0.7386269942492246,-0.3268235049847513
1772556491843951600,0.90495166015625,0.6576677899181842,0.6888558321252465,-0.449384191650711
1772556491853934600,0.9149345703125,0.44591655207276343,0.6821893599733709,-0.49530171055383976
1772556491863918600,0.924918701171875,0.1330862819314003,0.6719377228111029,-0.4954732677284628
1772556491873902600,0.934902587890625,-0.13644728279709814,0.6530307777673006,-0.46620179973244663
1772556491883886600,0.944886474609375,-0.28341946673989293,0.6175073367044329,-0.45617198862731456
1772556491893870600,0.95487060546875,-0.3113116822719574,0.5515300129279493,-0.4213111761916429
1772556491903854600,0.9648544921875,-0.13758183978497981,0.44016368763446806,-0.3309087284717709
1772556491913838600,0.974838623046875,0.14357552724182604,0.36195612009912725,-0.19496727630496025
1772556491923821600,0.984821533203125,0.423072852101922,0.24927345151007174,-0.0696901337545365
1772556491933805800,0.994805908203125,0.6269055719077586,0.14138298563361168,-0.010809197979792951
1772556491943789800,1.004789794921875,0.7922498633652925,0.052425476025044916,0.028540706036053597
1772556491953773800,1.01477392578125,0.9162515060871839,-0.028797639939188956,0.09924830973744392
1772556491963757600,1.024757568359375,1.0287865828990936,-0.15238777925074098,0.1717811195719987
1772556491973741600,1.034741455078125,1.0882377197772264,-0.26843407905399796,0.24595387863330542
1772556491983725600,1.0447255859375,1.1606138046801089,-0.389471026751399,0.2850024616150185
1772556491993708500,1.05470849609375,1.229471652328968,-0.4525397696048021,0.2742201881747693
1772556492003692500,1.064692626953125,1.2877005539357662,-0.4812801263988018,0.1700130869861692
1772556492013676500,1.074676513671875,1.3352104931294917,-0.5306915152996778,0.05981280979737639
1772556492023660500,1.08466064453125,1.3617682451874016,-0.6064531509876251,0.034452158569544554
1772556492033644800,1.094644775390625,1.414353587949276,-0.7251555182576179,0.048777767172455785
1772556492043628800,1.10462890625,1.3653981261223553,-0.8316177048966288,0.07004756889007985
1772556492053612800,1.11461279296875,1.3121008356988428,-0.8902645396545529,0.007635024923086166
1772556492063595500,1.124595458984375,1.3022387823760508,-0.9246598534703254,-0.07269143446236849
1772556492073579500,1.13457958984375,1.1797387763887643,-0.8666656374022365,-0.07013678154349327
1772556492083563500,1.1445634765625,0.8421972588390112,-0.7537395154461264,0.05058755654077977
1772556492093547500,1.154547607421875,0.6329746626883744,-0.7874044691607356,0.1687127084447071
1772556492103531500,1.164531494140625,0.5244570048242807,-0.8806921169281006,0.2581547136345878
1772556492113515500,1.174515625,0.50418578568995,-0.9043515171959996,0.34928456231355665
1772556492123499500,1.18449951171875,0.4937912329256534,-0.868620863123238,0.43254733087923375
1772556492133483800,1.19448388671875,0.47402854783535003,-0.8652320974677801,0.5261023974111303
1772556492143466800,1.204466796875,0.43539340449273584,-0.833693049865961,0.6251455764979124
1772556492153450800,1.21445068359375,0.39266426983475683,-0.8140519453287124,0.5734227688495069
1772556492163434800,1.224434814453125,0.34308570767343044,-0.7620026091396808,0.40750845895167437
1772556492173418500,1.23441845703125,0.16100772355794907,-0.6737181764870882,0.26047336584050207
1772556492183402500,1.244402587890625,-0.06975918040275574,-0.5948857550516724,0.1036214467877522
1772556492193386500,1.254386474609375,-0.3217857300132513,-0.4547530617401004,-0.08801544298548251
1772556492203370500,1.26437060546875,-0.5876724626719951,-0.24486235706955192,-0.3038506622089073
1772556492213353700,1.274353759765625,-0.8363450256794691,-0.014458733463287353,-0.45757769070677456
1772556492223337700,1.284337646484375,-1.018988826984167,0.16095774693638085,-0.5030894052879884
1772556492233321700,1.29432177734375,-0.9228291309118271,0.19321575646251438,-0.5367773380193859
1772556492243305700,1.3043056640625,-0.6780781252622604,0.08033230460435152,-0.5343539102647453
1772556492253289700,1.314289794921875,-0.3651473173558712,-0.3597834522351622,-0.5906711695639416
1772556492263273700,1.324273681640625,-0.10677636715471744,-1.1177367859840392,-0.7058689262464642
1772556492273257700,1.3342578125,-0.15073708943426609,-1.6045324609339235,-0.6937552215393632
1772556492283240700,1.34424072265625,-0.49671384237408633,-1.8178870423227547,-0.611688055966422
1772556492293224700,1.354224609375,-0.9260697202682494,-2.1582342649430037,-0.5637863409761339
1772556492303208700,1.364208740234375,-1.5932880133420229,-2.189058734534681,-0.35001156141385437
1772556492313193000,1.37419287109375,-2.252902845674753,-1.8623212273329495,-0.21626038583293555
1772556492323177000,1.384177001953125,-2.8401386704951523,-1.2855103504151104,-0.13513411783929913
1772556492333160700,1.39416064453125,-3.2428356740444895,-0.5704927798122167,0.07124949202574789
1772556492343144700,1.404144775390625,-3.2939164574623105,0.17371756752729414,0.29014607158116995
1772556492353128700,1.414128662109375,-2.8152251785129305,0.8132032195448875,0.31486301807798445
1772556492363111700,1.424111572265625,-1.9322084180295467,1.3809329643845558,0.33128201876357194
1772556492373095700,1.434095703125,-0.9908873526155948,1.7422195146590471,0.39468291618078943
1772556492383079700,1.44407958984375,-0.23571371271312236,1.8797303350344299,0.5637939397606998
1772556492393063700,1.454063720703125,0.5380804565072059,1.8995114325642584,0.7980245012439787
1772556492403047700,1.464047607421875,0.9364788860797881,1.8785753197804091,0.9803360018543898
1772556492413032000,1.474031982421875,0.8493991530418395,1.7912623625084756,0.9852728006694466
1772556492423016000,1.484015869140625,0.6960907518148421,1.644606989429891,0.9609471915777772
1772556492433000000,1.494,0.6381330683648586,1.5258432473614811,0.9537773730136454
1772556492442982700,1.503982666015625,0.5750269161105156,1.399635034506023,1.0008893258657305
1772556492452966700,1.513966552734375,0.5783604444473982,1.1880112224325536,1.0569973628610372
1772556492462950700,1.52395068359375,0.6330570802748203,0.9411202821448444,1.1004838186923414
1772556492472934700,1.5339345703125,0.5866109709203243,0.7448486452430486,1.1526739515915512
1772556492482918700,1.543918701171875,0.5078507379382848,0.6029486499980091,1.1939667698360978
1772556492492902700,1.553902587890625,0.45830373995900153,0.6090329383477568,1.1431849693648517
1772556492502886700,1.56388671875,0.3355746013909578,0.7562772172302007,1.106713945253566
1772556492512870000,1.573869873046875,0.12013795303106307,0.958294119785726,0.9929108943324535
1772556492522854000,1.58385400390625,-0.08761398604512215,1.1588558550968766,0.8329886279236525
1772556492532838000,1.593837890625,-0.10643033019602298,1.36849463083297,0.633418095606938
1772556492542821600,1.603821533203125,-0.2085679316341877,1.4417644497051834,0.40020160653702913
1772556492552805600,1.6138056640625,-0.024563363370299338,1.4039754017978905,0.2041145324219018
1772556492562789600,1.62378955078125,0.17097265273332596,1.2617603492543101,0.06455090770255774
1772556492572773600,1.633773681640625,0.3599088321805,0.9940008084610104,-0.07667228425946086
1772556492582757600,1.643757568359375,0.62309858084023,0.6965586615875363,-0.15951883670706302
1772556492592740900,1.653740966796875,0.7663111199885606,0.3894458923101425,-0.17061273337975144
1772556492602724900,1.663724853515625,0.8343073823720216,-0.0179836927190423,-0.1556378305552527
1772556492612708900,1.673708984375,0.8248802133351564,-0.4415016582399606,-0.11302465042714029
1772556492622692900,1.68369287109375,0.7505939108967781,-0.7803063275933265,0.06066840371340513
1772556492632676900,1.6936767578125,0.7945084559470414,-0.9566130348309874,0.24496033755131064
1772556492642660900,1.703660888671875,0.8844295498907565,-1.0162275455772876,0.3430531571106985
1772556492652644900,1.713644775390625,0.8633844237744808,-1.0627776998281477,0.43194921885561194
1772556492662628600,1.723628662109375,0.7658055085539818,-1.1442097823679447,0.5504479898449033
1772556492672611800,1.73361181640625,0.5988157879769802,-1.2155442492634057,0.6883648337379098
1772556492682595800,1.743595947265625,0.48823944401741026,-1.172410040935874,0.750068498783186
1772556492692579800,1.753579833984375,0.6101110889732837,-0.968532897466421,0.6887462342709303
1772556492702563800,1.763563720703125,0.6960334686696529,-0.7554156319648027,0.5314809851769358
1772556492712547800,1.7735478515625,0.6168553025364876,-0.7202899580478668,0.38156405301913615
1772556492722531800,1.78353173828125,0.5215162751972675,-0.7121180497691035,0.2615395702999085
1772556492732515800,1.793515869140625,0.4770873508840799,-0.6119649001464247,0.1516297274250537
1772556492742499800,1.803499755859375,0.5913976206749677,-0.4815995676115155,0.07303878659531474
1772556492752482600,1.813482666015625,0.8529150522083043,-0.4120218812555074,-0.033751974410936234
1772556492762466600,1.823466552734375,1.0320096365988254,-0.349339799632132,-0.0828536397755146
1772556492772450600,1.833450439453125,1.0061702619433401,-0.30398411586284635,-0.08051686739102006
1772556492782434800,1.843434814453125,0.8830021474361419,-0.3099678664475679,-0.02202376189008355
1772556492792418800,1.853418701171875,0.6500625756114721,-0.3765133455008268,0.07043890629522502
1772556492802402800,1.86340283203125,0.34878771870732306,-0.41755847259461876,0.1781201864004135
1772556492812386800,1.87338671875,0.04457213217616081,-0.40450756010264155,0.24578254065439104
1772556492822370800,1.883370849609375,-0.17528934688866138,-0.40153088237941265,0.24012078856565056
1772556492832353800,1.893353759765625,-0.280955706974864,-0.4306438718780875,0.20388181964457033
1772556492842337800,1.903337890625,-0.3676777126163244,-0.4127946191936731,0.13564853363484144
1772556492852321800,1.91332177734375,-0.43807285283505915,-0.3299742971658706,0.06251096284016966
1772556492862305500,1.923305419921875,-0.486608043423295,-0.2791691158190369,0.009218567787483334
1772556492872289500,1.93328955078125,-0.4248042059391737,-0.47091743007749315,0.02131166809797287
1772556492882273800,1.943273681640625,-0.291511587780714,-1.0023781761839985,0.18738412769958376
1772556492892257800,1.9532578125,-0.3938619551867246,-1.2751342100903391,0.480830702130869
1772556492902241800,1.96324169921875,-0.7959376119673252,-1.1190452382341027,0.7343851919610053
1772556492912224800,1.973224853515625,-1.0542238064944744,-1.1127917307972908,0.7418843886099755
1772556492922208800,1.983208740234375,-1.317809276473522,-1.143466562785208,0.617533347928524
1772556492932192800,1.99319287109375,-1.5644067867726086,-1.0260863840296863,0.4148927970493212
1772556492942176800,2.0031767578125,-1.8976199197292327,-0.7627554733335972,0.29019528101775793
1772556492952160800,2.013160888671875,-2.4036148006677625,-0.2717144158989191,0.24970504786036907
1772556492962144800,2.023144775390625,-2.747235930392146,0.1076315226793289,0.12409268200621008
1772556492972128800,2.033128662109375,-2.7659353701651095,0.2675999663174152,-0.10283778559677302
1772556492982112800,2.04311279296875,-2.6003970174401996,0.3789937641397118,-0.2839303023388609
1772556492992095700,2.053095703125,-2.3003403041541577,0.5935723343655467,-0.33809958982393146
1772556493002079700,2.063079833984375,-1.8319219974160192,0.8355243569463491,-0.3970074866708368
1772556493012063700,2.073063720703125,-1.2371838341414927,1.044312068811059,-0.43248796537481243
1772556493022047700,2.0830478515625,-0.557138792720437,1.1205623647987841,-0.5042644038841128
1772556493032031700,2.09303173828125,0.02302081010341644,1.1606763485223055,-0.5357119738101959
1772556493042015700,2.103015625,0.3107885351806879,1.2554913519874213,-0.520995904584974
1772556493051999700,2.112999755859375,0.32521219733059403,1.2868433525845409,-0.5031495014447719
1772556493061983700,2.122983642578125,0.21273615722954273,1.1926511571928857,-0.5151031932845711
1772556493071966700,2.132966796875,0.20572014098763464,1.0682692829817533,-0.5712846608422696
1772556493081950700,2.14295068359375,0.2906681226938963,1.0327361973077058,-0.6536917989592999
1772556493091934700,2.152934814453125,0.3509674008339643,0.9804673731490969,-0.8267478338379413
1772556493101918700,2.162918701171875,0.4703776241123676,0.8755436481237411,-0.9718853496994823
1772556493111902700,2.17290283203125,0.44620705945193767,0.7711816486343741,-1.028722650817409
1772556493121886700,2.18288671875,0.20496260061860083,0.6588762889251113,-1.060876834642887
1772556493131870700,2.19287060546875,-0.10210369916856288,0.5740650853410363,-1.000900212585926
1772556493141854700,2.202854736328125,-0.38163901795148847,0.46926060278117654,-0.9103803490314633
1772556493151838700,2.212838623046875,-0.5329442626625299,0.35262422813028094,-0.8293523172479123
1772556493161822000,2.222822021484375,-0.4521136531472206,0.2152750280573964,-0.7791456863161176
1772556493171806000,2.232805908203125,-0.11904548161923885,0.16412088714241982,-0.7017251044400036
1772556493181790000,2.2427900390625,0.3273930485010147,0.15389964511841533,-0.5771532240821048
1772556493191773700,2.252773681640625,0.7754553804308175,0.09802461316138505,-0.44934762249998744
1772556493201757700,2.2627578125,1.128679035758972,0.10294424164593219,-0.3129153180763125
1772556493211741700,2.27274169921875,1.3653846821188926,0.1242459728717804,-0.20198815138507634
1772556493221725700,2.2827255859375,1.4703624754190443,0.08788608098477124,-0.1179029239879921
1772556493231705300,2.292705322265625,1.505830094641447,0.037919980810582635,-0.017994469841383396
1772556493241689300,2.302689453125,1.5176625712543725,0.020538345637917517,0.0939507878512144
1772556493251672300,2.31267236328125,1.5136282011717557,0.014685820217430591,0.1812830343455076
1772556493261656300,2.32265625,1.5073206254601477,-0.014494973820447921,0.22556433034893125
1772556493271640300,2.332640380859375,1.4416227031469344,-0.1128404894992709,0.23658877851460128
1772556493281624300,2.342624267578125,1.3896581226319074,-0.22821751173883675,0.23206888993736355
1772556493291608300,2.3526083984375,1.4530734869658946,-0.29952713645398615,0.20292992574721574
1772556493301592300,2.36259228515625,1.5303782604426144,-0.399473073066771,0.07206205051764845
1772556493311576300,2.372576416015625,1.5505354978084562,-0.4611214277282357,-0.054957624851167196
1772556493321560300,2.382560302734375,1.5026707538276909,-0.545046203866601,-0.1547498687395826
1772556493331544300,2.39254443359375,1.427993990767002,-0.6219634393304586,-0.23843268934823572
1772556493341527300,2.40252734375,1.3412158710241318,-0.6642170654311775,-0.26528452898189425
1772556493351511300,2.41251123046875,1.2593009734034537,-0.7446703660666942,-0.2869400420814752
1772556493361495300,2.422495361328125,1.1819184585154057,-0.8075447553917765,-0.2151961541349068
1772556493371479300,2.432479248046875,1.0752414600819349,-0.826380388765037,-0.1096573294185102
1772556493381463300,2.44246337890625,0.9261620747268199,-0.8670806479439139,-0.02494472737070173
1772556493391447300,2.452447265625,0.8649053497314453,-0.9483964106276631,0.024287724766694007
1772556493401431300,2.462431396484375,0.716453156363964,-1.00348496838212,0.0762161014571786
1772556493411415300,2.472415283203125,0.5415145226091146,-1.0105775569915771,0.04778031710032373
1772556493421398500,2.4823984375,0.3511690608859062,-1.0283274409547447,-0.03915964214075356
1772556493431382500,2.492382568359375,0.06169920806586742,-0.9360963165029883,-0.14411244713012128
1772556493441366500,2.502366455078125,-0.34407004253566265,-0.7361287476927042,-0.22917656602934003
1772556493451350500,2.5123505859375,-0.8557371238917112,-0.4982911746934056,-0.29251689236573875
1772556493461334300,2.522334228515625,-1.3582476698458195,-0.24667583623230455,-0.32940588616076855
1772556493471318300,2.532318359375,-1.6569126365125177,0.0022498247534036633,-0.3119314216054976
1772556493481302300,2.54230224609375,-1.676966413503885,0.1781017739608884,-0.2689338818022981
1772556493491286300,2.552286376953125,-1.537294323441386,0.24057079735547302,-0.19216785484477877
1772556493501270300,2.562270263671875,-1.1932055762052536,0.15758914728611706,-0.15476773318983614
1772556493511253200,2.572253173828125,-0.6850865427196026,-0.26459377023875713,-0.24413835364393888
1772556493521237200,2.5822373046875,-0.29279052167534825,-1.0310974901899694,-0.3674530735475942
1772556493531221500,2.592221435546875,-0.4492342983186245,-1.4416948916003107,-0.38284908786099403
1772556493541205500,2.60220556640625,-0.7894856593489646,-1.6677604860022663,-0.48906361988186836
1772556493551189500,2.612189453125,-1.0946399880349635,-2.003847713090479,-0.590264415393956
1772556493561173500,2.622173583984375,-1.6441659676641225,-2.0266972582802176,-0.5237188267428428
1772556493571157500,2.632157470703125,-2.178371044042706,-1.7733958664283156,-0.48212972896546125
1772556493581141200,2.642141357421875,-2.4825386997789143,-1.3805395811527967,-0.44110776355154807
1772556493591125200,2.652125244140625,-2.614121006888151,-0.8120964273467659,-0.2314016216676682
1772556493601109200,2.662109130859375,-2.5767934390127656,-0.1412719264745712,0.03418020976036787
1772556493611092200,2.67209228515625,-2.281335159432888,0.5067614813968538,0.14664295198842883
1772556493621076200,2.682076171875,-1.7499077310740947,1.0527420435041188,0.19292181501723824
1772556493631060500,2.692060546875,-1.193706511464715,1.4574080090388655,0.2691414966709912
1772556493641044500,2.70204443359375,-0.5410334610939026,1.7002444132387637,0.36278752942197023
1772556493651028500,2.712028564453125,0.2421381928026676,1.8879200712308286,0.5362925501771271
1772556493661012500,2.722012451171875,0.7888917851090431,2.0488903853878377,0.6970203608151525
1772556493670996500,2.73199658203125,1.031732573223114,2.036442699486017,0.7578590795941651
1772556493680980500,2.74198046875,0.9551724806338548,1.8408850560724734,0.786584969471395
1772556493690964200,2.751964111328125,0.8104074513465166,1.601021822464466,0.8371336187738925
1772556493700947200,2.761947265625,0.6778238582402467,1.372787944112718,0.878922330776602
1772556493710931200,2.77193115234375,0.7098457209229468,1.1557082047209144,0.9468738041702658
1772556493720915200,2.781915283203125,0.8153612743616103,0.9591621347919106,0.9959672131631523
1772556493730899500,2.7918994140625,0.8940116172283887,0.801708304323256,0.9777078453078866
1772556493740883500,2.801883544921875,0.8784387850433587,0.7413204711169004,0.9901988588947802
1772556493750867500,2.811867431640625,0.6953969243317842,0.7136737547785044,1.0057353045921773
1772556493760851500,2.8218515625,0.48872284362018104,0.7649076829314232,0.9425947386115788
1772556493770835500,2.83183544921875,0.3392243560701608,0.8852937655046582,0.7981208012253046
1772556493780819500,2.8418193359375,0.245436649826169,1.0602087261229753,0.6656072776805609
1772556493790803500,2.851803466796875,0.177684717592597,1.2563102671548723,0.5001237238828092
1772556493800786200,2.8617861328125,0.22513094390034674,1.3377344586491584,0.21841040347367524
1772556493810770200,2.871770263671875,0.3768640586346388,1.3827280311077832,-0.06796301770098508
1772556493820754200,2.881754150390625,0.5731348187536001,1.3286328683048485,-0.30120208392888304
1772556493830738400,2.891738525390625,0.7752899607360363,1.1431751786231994,-0.47305699938945467
1772556493840722400,2.901722412109375,0.8644190275192261,0.8420102118343115,-0.555934093105793
1772556493850706400,2.91170654296875,0.8733481839060783,0.5206307245343923,-0.5431918081715703
1772556493860690400,2.9216904296875,0.8529033617705106,0.12925795581489802,-0.5137707756370306
1772556493870674400,2.93167431640625,0.7862345485985278,-0.276548704187572,-0.4584149452485144
1772556493880658400,2.941658447265625,0.6983709717065095,-0.6339186655402184,-0.3398161844834685
1772556493890641400,2.951641357421875,0.6636778439879417,-0.9198428085774183,-0.141201491586864
1772556493900625200,2.961625244140625,0.6200117207407951,-1.1029553964376448,0.0775366094712168
1772556493910609200,2.971609130859375,0.5784983916133641,-1.1888842058748006,0.3201415430027991
1772556493920593200,2.98159326171875,0.5938970362752676,-1.209219722416997,0.529973795484379
1772556493930577200,2.9915771484375,0.5540490100115537,-1.1526181297510862,0.6439544679947197
1772556493940561400,3.0015615234375,0.47100832323133945,-1.0704475038036703,0.7383656398992985
1772556493950545400,3.01154541015625,0.4896230073302984,-0.9979185664266347,0.738000167587772
1772556493960529400,3.021529296875,0.5471989979863167,-0.892382846982777,0.6910380715351552
1772556493970513400,3.031513427734375,0.5565536863088607,-0.8023577081426978,0.5510971014034003
1772556493980497400,3.041497314453125,0.5226911641955375,-0.7323352006286382,0.3948276584137231
1772556493990480400,3.05148046875,0.5371539893120527,-0.6116355220615863,0.2827490201324224
1772556494000464400,3.06146435546875,0.6612064854383468,-0.5262295674547552,0.17800920030660927
1772556494010448400,3.071448486328125,0.8252303419470787,-0.48543256990313527,0.07023907287418842
1772556494020432100,3.08143212890625,0.8761994816839694,-0.4668813064292073,0.012925167220458387
1772556494030416100,3.091416015625,0.8333429212540387,-0.4999696292996406,-0.03428410852625966
1772556494040400400,3.101400390625,0.6769517515808343,-0.5303279426842927,-0.10818711073547602
1772556494050384400,3.11138427734375,0.47149055379033084,-0.6020861879497766,-0.13869265057109295
1772556494060368400,3.121368408203125,0.2441682373255491,-0.6753381789043545,-0.15777692494317888
1772556494070352400,3.131352294921875,0.06032791971266269,-0.6968266648739576,-0.1516391528405249
1772556494080336400,3.14133642578125,-0.06645838529169559,-0.7221475686132908,-0.21697752112634477
1772556494090319400,3.1513193359375,-0.16740356207489968,-0.752966192986071,-0.2785995723027736
1772556494100303400,3.161303466796875,-0.23510405638217924,-0.7955497816935181,-0.2738732744332403
1772556494110287400,3.171287353515625,-0.3730880472272634,-0.8253422778889536,-0.19997589824721215
1772556494120271400,3.181271240234375,-0.4733803130596876,-0.8629954244568944,-0.09983458519279956
1772556494130255000,3.191255126953125,-0.5983996083915233,-0.9248036458551883,0.029715704632177948
1772556494140239400,3.2012392578125,-0.6089233404934405,-0.9896005276754498,0.16975925835557282
1772556494150223400,3.211223388671875,-0.5022907657235861,-1.1669137816071509,0.2223722197767347
1772556494160207400,3.221207275390625,-0.3884948751956224,-1.6226660835176705,0.30398937655985353
1772556494170191400,3.23119140625,-0.5914303539007901,-1.836793695105612,0.5765815251413733
1772556494180175400,3.24117529296875,-1.052139401435852,-1.5215999107033014,0.8803381889238953
1772556494190158300,3.251158447265625,-1.2744623021781445,-1.5491712237179278,0.7751868656877428
1772556494200142300,3.261142333984375,-1.4661621011197565,-1.7990996320053934,0.6119012968583032
1772556494210126300,3.271126220703125,-1.9926099875003098,-1.5261162190839648,0.6047970908762886
1772556494220110300,3.2811103515625,-2.751745516771078,-0.689269089101255,0.46153475776948033
1772556494230094800,3.2910947265625,-3.283784939548373,0.15113573336303232,0.17626012814957648
1772556494240078800,3.301078857421875,-3.378769162100553,0.6498229216367006,-0.17328140459973365
1772556494250062800,3.311062744140625,-3.015308190396428,0.7998466021046042,-0.5691494754444807
1772556494260046800,3.321046875,-2.2865257138133046,0.787314160528779,-0.9023449266139417
1772556494270030800,3.33103076171875,-1.4502011463999747,0.8405965456441045,-1.0649169768791644
1772556494280015000,3.34101513671875,-0.6320423502743244,0.9493561955705284,-1.174344954521209
1772556494289999000,3.3509990234375,0.13803776685893535,1.0578829135239123,-1.1773122798942028
1772556494299982000,3.360982177734375,0.7039934877634048,1.082587438930571,-1.1770006566617637
1772556494309965800,3.3709658203125,1.0083271477162838,0.9904238267570733,-1.1069632438395172
1772556494319949800,3.38094970703125,1.0157330400586129,0.9236118057221173,-0.9811262023840099
1772556494329933800,3.390933837890625,0.8924304855167865,0.9190317844554782,-0.8102292452353984
1772556494339917800,3.400917724609375,0.8992752368450164,0.9686620768040418,-0.6745794694915414
1772556494349901800,3.41090185546875,0.9033557841569184,1.0038377273425458,-0.5939607126286253
1772556494359885800,3.4208857421875,0.8811421987831592,0.9985992421671748,-0.529173256223835
1772556494369869800,3.430869873046875,0.8517179513782263,1.0024065254956482,-0.47955691933538763
1772556494379854000,3.44085400390625,0.8040724031060934,0.9805085819423198,-0.4788208236131817
1772556494389838000,3.450838134765625,0.7108756484925747,0.9181383427470922,-0.4743897092979401
1772556494399821000,3.460821044921875,0.45944063503444194,0.926930428750813,-0.4662410357642919
1772556494409805000,3.47080517578125,0.16299568250477314,0.8999106121391057,-0.5095391294166446
1772556494419789000,3.4807890625,-0.023562661895155906,0.8167556513294577,-0.5669307764817029
1772556494429772800,3.490772705078125,-0.1076800379961729,0.703842096593976,-0.5411414515130222
1772556494439756800,3.5007568359375,-0.030615503016114234,0.5718363033756614,-0.47044773020651187
1772556494449740800,3.51074072265625,0.12821604554653168,0.42497547085285187,-0.3962199164897203
1772556494459724800,3.520724853515625,0.37726094899773593,0.3133338357493281,-0.27777243729624895
1772556494469708800,3.530708740234375,0.638788901925087,0.2318140749260783,-0.16591964366007594
1772556494479693000,3.540693115234375,0.8631634745001793,0.15282617066800594,-0.03893255538661033
1772556494489677000,3.550677001953125,1.0067191279977559,0.03537906415611505,0.04253551178202033
1772556494499661000,3.5606611328125,1.1438514704495668,-0.07842880907058715,0.09826949130054563
1772556494509644000,3.57064404296875,1.2380366515785455,-0.17821487894654273,0.11826585728256031
1772556494519628000,3.5806279296875,1.2883090412229299,-0.2589163091242313,0.13015446626320482
1772556494529612000,3.590612060546875,1.3312608787208795,-0.3106020726978779,0.1496678527675569
1772556494539596000,3.600595947265625,1.3173054186046123,-0.3826213069871068,0.12132336342334747
1772556494549579800,3.610579833984375,1.3196961131334304,-0.46486119877845045,0.03775697226859629
1772556494559563800,3.620563720703125,1.3535866922974586,-0.5450812751799822,-0.05787150300387293
1772556494569547800,3.6305478515625,1.402331726244092,-0.6286933321073651,-0.1295137937394902
1772556494579532000,3.640531982421875,1.4653361716896294,-0.7226943888410925,-0.1692684426313266
1772556494589516000,3.65051611328125,1.4426462009757757,-0.8537257840692997,-0.22514332845788448
1772556494599500000,3.6605,1.4163608361184596,-0.9726613755732774,-0.23118048973027616
1772556494609484000,3.670484130859375,1.3069079432308672,-1.0043944844424724,-0.23741759402155874
1772556494619467000,3.680467041015625,1.0596452470213173,-1.0141665213942528,-0.22486827437616883
1772556494629451000,3.690450927734375,0.8796358858734369,-1.0296382312923669,-0.17842815637104212
1772556494639435000,3.70043505859375,0.8097101167321205,-1.0773387246221304,-0.1311663101868704
1772556494649419000,3.7104189453125,0.7122153726637364,-1.0816372985988856,-0.09541903377287089
1772556494659402800,3.72040283203125,0.6048024611711502,-1.065902846111357,-0.01394234490636736
1772556494669386800,3.73038671875,0.5865934352636337,-1.0668272674798964,0.07327199256299063
1772556494679371000,3.74037109375,0.5022030874401331,-1.0066884405985475,0.15388061162438244
1772556494689355000,3.75035498046875,0.30263036316633224,-0.9352148574933409,0.1692889556963928
1772556494699339000,3.760339111328125,-0.0077425769507884976,-0.8572504510641098,0.11408886385885998
1772556494709323000,3.770322998046875,-0.38716391885280604,-0.7653975122749805,0.07878836309798061
1772556494719307000,3.78030712890625,-0.7433300573736429,-0.7434794027164578,-0.07038498415090143
1772556494729290000,3.7902900390625,-1.126416936045885,-0.652298956361413,-0.23758823788072914
1772556494739274000,3.80027392578125,-1.5133862091094255,-0.4513336086854338,-0.39917295760903504
1772556494749258000,3.810258056640625,-1.8323907839715479,-0.25091800384670493,-0.5004848853453994
1772556494759242000,3.820241943359375,-2.008243609961867,-0.0654559302508831,-0.5058624136652797
1772556494769226000,3.83022607421875,-1.9712667552202938,-0.013598024980723857,-0.5261866781610995
1772556494779209700,3.840209716796875,-1.6280477765560148,-0.4062245931535959,-0.7251596099108457
1772556494789194000,3.850194091796875,-1.1598317143917083,-1.1703478477090596,-1.0395506996281445
1772556494799178000,3.860177978515625,-1.18338385489285,-1.6173568711936472,-1.1799335683085024
1772556494809162000,3.870161865234375,-1.599153105983138,-1.7853636598587035,-1.1350582884673028
1772556494819146000,3.88014599609375,-2.197271559345722,-1.7548410958230494,-0.995088238371536
1772556494829130000,3.8901298828125,-2.9054075537413357,-1.339762457345426,-0.78241192157045
1772556494839114000,3.900114013671875,-3.3954268669128416,-0.803390558321774,-0.5082074424214661
1772556494849097000,3.910096923828125,-3.6091286543041465,-0.1880067896425724,-0.1556559142012149
1772556494859081000,3.9200810546875,-3.536165124902129,0.6104401747971773,0.30728666453957554
1772556494869065000,3.93006494140625,-3.031236996412277,1.2828268104195595,0.6532771537438035
1772556494879049000,3.940049072265625,-1.9911638803452252,1.6947408473864196,0.7367926914941519
1772556494889033000,3.950032958984375,-0.8622691560089588,1.9532582203209399,0.7221307636089622
1772556494899017000,3.960016845703125,-0.05350771830379963,2.099019859430194,0.8309935816489159
1772556494909001000,3.9700009765625,0.3704875093400478,2.0989494245424867,1.1214374671328813
1772556494918985000,3.97998486328125,0.43693069706261156,1.8709972857415675,1.4824467348359525
1772556494928969000,3.989968994140625,0.451118796890974,1.518406083098054,1.642092230129987
1772556494938953000,3.999952880859375,0.4223497985243797,1.211905308239162,1.6557644893907009
1772556494948937000,4.00993701171875,0.42856034360229966,0.9642083122655749,1.6621216033324597
1772556494958921000,4.0199208984375,0.534728807991743,0.8180988826319575,1.7380097880095242
1772556494968904000,4.029904052734375,0.7707470566093921,0.6988716147050261,1.840125177615881
1772556494978888000,4.039887939453125,0.8455892393648624,0.6587848112493753,1.7908925062827765
1772556494988872000,4.049871826171875,0.7806102789759636,0.6150298406749963,1.692990058196336
1772556494998856200,4.059856201171875,0.7014250985801219,0.6653495765924453,1.6229557141140103
1772556495008840200,4.069840087890625,0.6163987909406423,0.8686553499147296,1.4865584079384804
1772556495018824000,4.079823974609375,0.5832528926640749,1.1315800178974866,1.3331164434596896
1772556495028808000,4.089807861328125,0.6240297242105007,1.3174763912573455,1.1233052337661384
1772556495038792000,4.0997919921875,0.677412939351797,1.4070909034699202,0.8345265780806541
1772556495048776000,4.10977587890625,0.6805319481551647,1.431524502980709,0.4894796533368528
1772556495058760000,4.119760009765625,0.7089145775526762,1.3902543349593877,0.19275027610892428
1772556495068744000,4.129743896484375,0.8073585851699113,1.3057578964129088,-0.02934754717322066
1772556495078728000,4.13972802734375,0.9770242469578981,1.1606599819093941,-0.2016193180726841
1772556495088711000,4.1497109375,1.1598317143917083,0.9653329323813319,-0.32181386012919244
1772556495098695000,4.15969482421875,1.3203338265150784,0.6824658388271927,-0.4270389792539179
1772556495108679200,4.16967919921875,1.4445447280734776,0.3583630640432238,-0.5030781897742301
1772556495118663200,4.1796630859375,1.5170096603035925,0.11005991887003183,-0.5165157269636169
1772556495128647000,4.18964697265625,1.5930682331115007,-0.09131634769439696,-0.4505484861897304
1772556495138631000,4.199630859375,1.6071908664882182,-0.22932108906656504,-0.3486717641774565
1772556495148615000,4.209614990234375,1.5164280610233545,-0.3256836142346263,-0.23940608269134536
1772556495158599000,4.219598876953125,1.4107178617954252,-0.41710722169578074,-0.08778651133412495
1772556495168583000,4.2295830078125,1.2891975144952534,-0.5472995357513427,0.0632264724320732
1772556495178567000,4.23956689453125,1.1374585545420646,-0.6810302530661225,0.12224857024317606
1772556495188551000,4.249551025390625,0.970379402115941,-0.7782973258584738,0.11138515785811469
1772556495198535000,4.259534912109375,0.8356465220212936,-0.8152306337192654,0.07901895698346197
1772556495208518100,4.26951806640625,0.6912859818816185,-0.8353349718540907,0.08146614920618012
1772556495218502100,4.279502197265625,0.6014286008238792,-0.8144277929037809,0.08207512968368828
1772556495228486400,4.289486328125,0.49029520750343797,-0.7903069126039743,0.11147891882248222
1772556495238470400,4.299470458984375,0.3724351362764835,-0.7518295901715755,0.11453103640209883
1772556495248454400,4.309454345703125,0.5597334853887558,-0.7779571341186762,0.17131689959373325
1772556495258438100,4.319438232421875,0.6356792454719543,-0.7147738249748945,0.17977661183793098
1772556495268422100,4.329422119140625,0.6315683030217886,-0.7154103693127631,0.21362419211044906
1772556495278406100,4.33940625,0.48729719473123545,-0.7566676778525113,0.32968495883047577
1772556495288390100,4.34939013671875,0.24485505054593085,-0.8009422883868217,0.4987009976033121
1772556495298374100,4.3593740234375,-0.025996611043810843,-0.8514858961880206,0.6147876294169574
1772556495308358100,4.369358154296875,-0.3357920435339212,-0.932303353960812,0.6589835486918687
1772556495318342100,4.379342041015625,-0.6008440789341927,-0.9585770283803343,0.66481400841102
1772556495328326100,4.389326171875,-0.8064338715404271,-0.9482859359905124,0.7201501111857592
1772556495338309400,4.399309326171875,-0.9530559268712997,-0.9562006546378136,0.8070031958609819
1772556495348293400,4.40929345703125,-1.0835960314512252,-0.9669505967110394,0.8429406245522201
1772556495358277400,4.41927734375,-1.188803541854024,-0.9382625546261668,0.8925397180449217
1772556495368261000,4.42926123046875,-1.2173550980776549,-0.9244514714166522,0.8977087181806563
1772556495378245000,4.4392451171875,-1.1031652397960423,-1.0560340707868336,0.8432398997597396
1772556495388229000,4.44922900390625,-0.9181354201376437,-1.3546224650859833,0.8122899040922522
1772556495398213000,4.459213134765625,-0.9053852441579103,-1.4814157843530178,0.9275218918379395
1772556495408197000,4.469197021484375,-1.1205027435660362,-1.2566568886354565,1.1191250985372811
1772556495418181000,4.47918115234375,-1.3128963699907064,-1.1350263589590788,1.1837475736387073
1772556495428165000,4.4891650390625,-1.4712106166809797,-1.2106877491429446,1.033934394116327
1772556495438149000,4.499149169921875,-1.6699854685753583,-1.1921072595745323,0.872644857942313
1772556495448133000,4.509133056640625,-1.9265221890866755,-0.8734230027079581,0.7671570692934095
1772556495458117000,4.5191171875,-2.2911808461427685,-0.30836539968699217,0.6440736373949796
1772556495468101400,4.529101318359375,-2.6605980959028006,0.22969372177124023,0.47211489623375236
1772556495478084400,4.53908447265625,-2.885778139641881,0.5510054045319557,0.18645422643832862
1772556495488068000,4.549068115234375,-2.778165321663022,0.7619274980768561,-0.14936664133127778
1772556495498052000,4.559052001953125,-2.31512520083189,0.9708408821478486,-0.4531804055958986
1772556495508036000,4.5690361328125,-1.6408523130714892,1.1827300671592353,-0.6291670870989561
1772556495518020000,4.57902001953125,-0.8259738537907599,1.356390643802285,-0.664922144960612
1772556495528004000,4.589004150390625,-0.01969780316054821,1.4588824655055999,-0.6887259952004998
1772556495537988000,4.598988037109375,0.6202864460289478,1.520214886085689,-0.7549778250694275
1772556495547972000,4.60897216796875,1.0648328787922858,1.5903326706677674,-0.7981742849782109
1772556495557956000,4.6189560546875,1.2904980756998061,1.6380138747751711,-0.7960206140756606
1772556495567940400,4.6289404296875,1.3822083911478518,1.6004446070984004,-0.6834076497219502
1772556495577924400,4.63892431640625,1.378787769049406,1.533322204940021,-0.599092960950546
1772556495587908400,4.648908447265625,1.464919407582283,1.4334133854672313,-0.5768332714127377
1772556495597892400,4.658892333984375,1.4809195252686738,1.3213044251129031,-0.5639310101438313
1772556495607875000,4.668875,1.4753542923569678,1.1631228648915886,-0.560638106078282
1772556495617859000,4.678859130859375,1.3942016112804412,0.9638581836536526,-0.5418578561540692
1772556495627843000,4.688843017578125,1.1813093867063522,0.7489373758614063,-0.546415519458428
1772556495637827000,4.6988271484375,0.8365911093950271,0.5852718312710523,-0.536647062703222
1772556495647811000,4.70881103515625,0.4427887754410505,0.5256713490501046,-0.4393285154519602
1772556495657795000,4.718795166015625,0.11966507482230662,0.5200611079528927,-0.3254095830662176
1772556495667779300,4.728779296875,-0.04773030394613743,0.4841317164376378,-0.25468318333281204
1772556495677763300,4.738763427734375,-0.011560673934221267,0.47417672413438555,-0.22425726633835583
1772556495687747300,4.748747314453125,0.13588906439244747,0.5533522599190474,-0.2247884506056085
1772556495697731300,4.7587314453125,0.3874281227469444,0.5721642201557755,-0.12203719251481815
1772556495707715300,4.76871533203125,0.6681079353898763,0.5548351919531822,0.06856278282557614
1772556495717699300,4.77869921875,0.823713507643342,0.5210325833335518,0.29373843351732937
1772556495727683300,4.788683349609375,0.8813426897913217,0.40347529444545505,0.4373446846909821
1772556495737667300,4.798667236328125,0.9748141696929931,0.25059037932753564,0.44816009321585293
1772556495747650000,4.808650146484375,1.147846093043685,0.1433712368413806,0.42841421312987804
1772556495757634000,4.818634033203125,1.2633259911358357,0.04183160129636526,0.3871728693442419
1772556495767618300,4.828618408203125,1.3378016786664724,-0.11606208189427852,0.3395842388911173
1772556495777602300,4.838602294921875,1.3517851958334446,-0.28699820200949905,0.28760557505181056
1772556495787586300,4.84858642578125,1.3331114750236273,-0.4577765012145042,0.2296411696000956
1772556495797570300,4.8585703125,1.2890519685447215,-0.5820622215747833,0.1561781662433408
1772556495807554300,4.86855419921875,1.2822802824527024,-0.6465113128706812,0.08307984974682331
1772556495817538300,4.878538330078125,1.2146738961696624,-0.7062997188791632,-0.016763485008012502
1772556495827522300,4.888522216796875,1.066384199887514,-0.7823685208201407,-0.12041222166148945
1772556495837506300,4.89850634765625,0.9050432988524436,-0.8414853111773729,-0.1887565668302588
1772556495847490300,4.908490234375,0.8008826671540736,-0.8736021586671471,-0.27925432815076784
1772556495857474300,4.918474365234375,0.6634183162689209,-0.8613441501185297,-0.3518745057415217
1772556495867458000,4.9284580078125,0.4835632688999176,-0.8822510368078946,-0.37064912964254615
1772556495877442000,4.938442138671875,0.3780401166766882,-0.9541527821972966,-0.39271106811854983
1772556495887426000,4.948426025390625,0.3089145580023527,-1.000510336485505,-0.407460491624102
1772556495897409300,4.9584091796875,0.27784663504362106,-0.9859501884743571,-0.3883657689232379
1772556495907393300,4.968393310546875,0.2599976746201515,-0.9786372351124882,-0.3867090512247756
1772556495917377300,4.978377197265625,0.22828034784197807,-0.9822869897916913,-0.3969247768234461
1772556495927361300,4.988361328125,0.14382336452305317,-0.984215912027657,-0.4339007547821849
1772556495937345300,4.99834521484375,-0.051253801897168154,-1.0059911059841513,-0.460935768963024
1772556495947329300,5.008329345703125,-0.3481558505445719,-1.059487426111102,-0.43898697200529274
1772556495957313300,5.018313232421875,-0.603183920058608,-1.0037252068787812,-0.4521789734683931
1772556495967297300,5.02829736328125,-0.9350584978878498,-0.7949564919754862,-0.5446776993477717
1772556495977281300,5.03828125,-1.3660966297805308,-0.4764347321942448,-0.6352852777183056
1772556495987265000,5.04826513671875,-1.7444190705299376,-0.21343466088771818,-0.7202398352958261
1772556495997249000,5.0582490234375,-2.009933462744951,0.005358604423701763,-0.7253091013841331
1772556496007233000,5.06823291015625,-2.0174843165159224,0.17348405103236436,-0.6808685596983879
1772556496017217300,5.07821728515625,-1.7442144878685473,0.2280564759582281,-0.6717922499258071
1772556496027201300,5.088201171875,-1.2976222284913062,-0.008758768256008624,-0.7415965846445411
1772556496037185300,5.098185302734375,-0.7415104407310485,-0.6500806957900523,-0.888646436933428
1772556496047168300,5.108168212890625,-0.47779871402382845,-1.2508119619995355,-1.004522933127731
1772556496057152300,5.11815234375,-0.7557873878866433,-1.6337304983675478,-0.9371202527232467
1772556496067136300,5.12813623046875,-1.1975380524516106,-1.9482558819890021,-0.8774556192249059
1772556496077120300,5.138120361328125,-1.8647680359631775,-2.053314047048986,-0.7168002162359655
1772556496087104300,5.148104248046875,-2.6128508408218623,-1.8000065177172422,-0.4383245625738054
1772556496097088000,5.158087890625,-3.083341862180829,-1.3382035374656318,-0.1582805636163801
1772556496107072000,5.168072021484375,-3.2766450046658515,-0.7630643931522965,0.14028068694751708
1772556496117056300,5.17805615234375,-3.2455104462116955,-0.01921148094832897,0.6298914558507501
1772556496127040300,5.188040283203125,-2.7546377310812473,0.7285039519026875,1.0440168852567673
1772556496137024300,5.198024169921875,-1.7719862918913363,1.320304892681539,1.1751319401804357
1772556496147008300,5.20800830078125,-0.6310866569846868,1.7580033592462538,1.1400309623133391
1772556496156992300,5.2179921875,0.3945820861548185,2.031316150252521,1.2006567689940333
1772556496166976300,5.227976318359375,0.9793301858127117,2.157349006541073,1.4940700987428426
1772556496176960300,5.237960205078125,1.0555179379582404,2.0342095336064694,1.8740163413017987
1772556496186944300,5.2479443359375,0.9390870227515697,1.7807459369301795,2.1146143189251423
1772556496196928300,5.25792822265625,0.7972931182295083,1.549484235189855,2.207479357366264
1772556496206911200,5.2679111328125,0.7072510282546282,1.3336694011673331,2.2034243828870355
1772556496216895000,5.27789501953125,0.7093933009803295,1.1857657815933227,2.305426521377265
1772556496226878000,5.2878779296875,0.7102367660671473,1.1966659457921982,2.2392798323832452
1772556496236862000,5.297862060546875,0.7239233461141585,1.1343138267755508,2.25862926049754
1772556496246846000,5.307845947265625,0.7225900516837835,1.0217156215995549,2.216968924114853
1772556496256830000,5.317829833984375,0.6199193662822247,1.0091814264580607,2.0836272061176597
1772556496266814000,5.32781396484375,0.5378963321119546,1.156378651328385,1.8697770962968467
1772556496276798000,5.3377978515625,0.5009580558151007,1.3761384235844014,1.6284804688848553
1772556496286782000,5.347781982421875,0.4989829563498497,1.5318509633436799,1.2885919498175382
1772556496296766000,5.357765869140625,0.4795020108103752,1.585762586273253,0.9079642278004437
1772556496306750000,5.36775,0.4911433487653732,1.5656322369143365,0.5418923429455608
1772556496316734000,5.37773388671875,0.5907768584281206,1.5133675044089554,0.19436425064420326
1772556496326718000,5.387718017578125,0.8446662793010473,1.389416715091467,-0.09852409624927677
1772556496336702000,5.397701904296875,1.155057924118638,1.1420809536457062,-0.3891323328489438
1772556496346686000,5.40768603515625,1.3844324969381092,0.8427201136693357,-0.5776475469376892
1772556496356670000,5.417669921875,1.5095780489981174,0.5266632826969028,-0.6838546628370881
1772556496366653000,5.42765283203125,1.4487006787091492,0.23664923999756574,-0.6713304776329547
1772556496376637000,5.437636962890625,1.3568781350582837,-0.03507043659836054,-0.555573296969384
1772556496386621000,5.447620849609375,1.2487696425169705,-0.22507892145216463,-0.3748493943439796
1772556496396605000,5.45760498046875,1.0789163492023943,-0.40080344488769765,-0.24170557353906333
1772556496406589000,5.4675888671875,0.8659685950487852,-0.5435398909568786,-0.11513391593238338
1772556496416573000,5.477572998046875,0.667539780113101,-0.6584919657826424,0.07213517968594096
1772556496426557200,5.48755712890625,0.39904666434824465,-0.7638166728243231,0.25747694223718715
1772556496436541200,5.497541259765625,0.21036533644497393,-0.8410659167215228,0.39006062667500224
1772556496446525000,5.50752490234375,0.11043138253092766,-0.8343950606554746,0.41606688232999295
1772556496456509000,5.517509033203125,-0.011581132200360297,-0.7932683927580714,0.42040440007764845
1772556496466493000,5.527492919921875,-0.06295709917247296,-0.7860311349809169,0.43330797652080655
1772556496476477000,5.537476806640625,-0.09080489104092121,-0.7968085495829582,0.437772664312087
1772556496486461000,5.5474609375,-0.18293255511820317,-0.8209490113660692,0.4091315666414797
1772556496496445000,5.55744482421875,-0.07965455147325992,-0.7790949059769511,0.3815947038857266
1772556496506429000,5.567428955078125,0.11810381685495376,-0.711869043444097,0.3444249934531748
1772556496516413000,5.577412841796875,0.2596007842570543,-0.6786769679382443,0.35953780691102144
1772556496526397000,5.58739697265625,0.3420417515784502,-0.6599047551900148,0.45037064540479327
1772556496536380200,5.597380126953125,0.28400808028280733,-0.6542369386866689,0.5625096355712041
1772556496546364200,5.6073642578125,0.10295651660561561,-0.6296902341902255,0.6271608618430793
1772556496556348000,5.617347900390625,-0.049689621320366854,-0.6202881995946169,0.671946125313267
1772556496566332000,5.627331787109375,-0.17236147674322128,-0.6266556887999176,0.7263341335829347
1772556496576316000,5.63731591796875,-0.2641191384643316,-0.6584709229946136,0.7731036296728998
1772556496586300000,5.6472998046875,-0.2831114237040281,-0.7542144394814968,0.7676709370996803
1772556496596284000,5.657283935546875,-0.24460779778659342,-0.8804755515679716,0.7170359246879816
1772556496606268000,5.667267822265625,-0.25619711329340933,-0.9532420970931649,0.7031987571891397
1772556496616252000,5.677251953125,-0.28919571205377576,-1.0045309703037142,0.6732875299848615
1772556496626236000,5.68723583984375,-0.3284340819865465,-0.9905381007865071,0.6403990405354648
1772556496636220000,5.697219970703125,-0.4200824381142854,-1.0120914686858653,0.6035185953730717
1772556496646204000,5.707203857421875,-0.401755923306942,-1.2033537529930471,0.5901021740369499
1772556496656188000,5.71718798828125,-0.3865992707073688,-1.424187584221363,0.7096251369748264
1772556496666172000,5.727171875,-0.6190829154580831,-1.2804527747645973,0.9696431967958807
1772556496676156200,5.73715625,-1.0414116711944341,-1.0341378807991743,1.0973206784863023
1772556496686140200,5.74714013671875,-1.4644365925014018,-0.9708663088500499,0.9756447752982378
1772556496696124200,5.757124267578125,-1.8643945264756678,-0.902724500516057,0.8249651882048695
1772556496706108000,5.76710791015625,-2.4039281044006344,-0.600938479219377,0.7581656613253056
1772556496716088000,5.777088134765625,-3.021467882069945,-0.06673135701417923,0.6970110815301537
1772556496726072000,5.787072021484375,-3.4492098950266836,0.44776247220039367,0.5215745081905275
1772556496736055800,5.797055908203125,-3.4535236665725706,0.7124965276926756,0.1648178381643258
1772556496746039800,5.807039794921875,-3.073445906588435,0.7782657616764307,-0.3243153215561062
1772556496756023800,5.81702392578125,-2.4043407768547533,0.8690607158452271,-0.7440602713443338
1772556496766007800,5.8270078125,-1.528648075649142,0.985853450101614,-1.0056013029489665
1772556496775991800,5.83699169921875,-0.7399526898950338,1.2007099604859948,-1.1456056937057524
1772556496785975800,5.846975830078125,-0.14131576561629772,1.3364657538875937,-1.221535160241276
1772556496795960000,5.8569599609375,0.2936263879776001,1.3559963837876916,-1.3665608862914145
1772556496805944000,5.866944091796875,0.5884633207887411,1.319564595708251,-1.3528731372006237
1772556496815928000,5.876927978515625,0.6860118408709764,1.2862702288717032,-1.2781865833982824
1772556496825912000,5.886912109375,0.7949094379633664,1.2507172694534063,-1.1563697373695672
1772556496835896000,5.89689599609375,0.8641752818912267,1.249013095884025,-1.0313399937089531
1772556496845880000,5.906880126953125,0.8919301347792148,1.2005234980031847,-0.9862509249866008
1772556496855864000,5.916864013671875,0.9575205050647259,1.0829857905983924,-0.9896639483004808
1772556496865848000,5.92684814453125,0.9696820675015448,0.9129732150688767,-1.0085280040506273
1772556496875832000,5.93683203125,0.9122843560218811,0.733333564016223,-0.9801009509894997
1772556496885815800,5.94681591796875,0.7837637745708227,0.5655591228023171,-0.9098947574716061
1772556496895799000,5.956799072265625,0.5693669906526804,0.44518969910293815,-0.7993313460588455
1772556496905783000,5.966782958984375,0.3709200555384159,0.3982593133628368,-0.6876505479887127
1772556496915767000,5.97676708984375,0.23779636420607567,0.3344935281559825,-0.564590752694197
1772556496925751000,5.9867509765625,0.20430676705837247,0.28983342543542384,-0.41405269296336916
1772556496935735000,5.996735107421875,0.27003859164118765,0.3185769970998168,-0.20909232083447277
1772556496945719000,6.006718994140625,0.4237298547059297,0.3907832783937454,-0.04421772924792021
1772556496955703000,6.016703125,0.602879968675971,0.3913064254850149,0.10836040320945903
1772556496965687000,6.02668701171875,0.7656494412094355,0.3495475971639156,0.2733440994599834
1772556496975671000,6.036671142578125,0.9154887050211429,0.25542349857240915,0.3598486994910985
1772556496985655000,6.046655029296875,1.0097118800729512,0.18128829504251479,0.37227760762721296
1772556496995638800,6.056638671875,1.095008236825466,0.10427373668402433,0.3720927891122177
1772556497005622800,6.066622802734375,1.1783867772579193,0.02152034241259098,0.3443575177075341
1772556497015606800,6.076606689453125,1.248487318444252,-0.06340835007131099,0.2726388920663856
1772556497025590800,6.0865908203125,1.2627578358590603,-0.18121669111102817,0.203733369350899
1772556497035575000,6.096574951171875,1.2520125699609517,-0.33003450292050834,0.11506536247450858
1772556497045559000,6.10655908203125,1.2530085952609777,-0.47299102148115635,-0.014101554056070744
1772556497055543000,6.11654296875,1.3119155422598123,-0.5800292544424533,-0.13081219951957462
1772556497065527000,6.126527099609375,1.3431985692739485,-0.7015729826182127,-0.2513896399464458
1772556497075511000,6.136510986328125,1.3672960686981677,-0.8166799557447433,-0.3559796029727906
1772556497085494000,6.146493896484375,1.4044652311414478,-0.9284469707936048,-0.41817857725434004
1772556497095478000,6.15647802734375,1.3972206668406724,-1.0596756421595812,-0.4602688294868916
1772556497105462000,6.1664619140625,1.3447797009855509,-1.1268848458185792,-0.4714586973473429
1772556497115445800,6.17644580078125,1.2182172678649426,-1.1448828593239186,-0.4865649349339306
1772556497125429800,6.1864296875,1.110398698180914,-1.1484884826004504,-0.4899375897048041
1772556497135413800,6.196413818359375,1.0105892474293707,-1.105950194339454,-0.4680329606823623
1772556497145401000,6.206401123046875,0.9042769906550645,-1.0519617067813873,-0.4008102764872834
1772556497155385000,6.216385009765625,0.8519564363092184,-1.0108096121817827,-0.3435845971062779
1772556497165369000,6.226369140625,0.779147220686078,-0.9798822667375207,-0.3057536645523272
1772556497175353000,6.23635302734375,0.683966598778963,-0.9592281857654452,-0.28887977797240016
1772556497185337000,6.246337158203125,0.5730412952512502,-0.982455332095921,-0.37434940893258895
1772556497195321000,6.256321044921875,0.3697995270758867,-0.9558911502972245,-0.4636699431672692
1772556497205304800,6.266304931640625,0.16113456480801105,-0.927230580741167,-0.5606063227005302
1772556497215288800,6.276288818359375,-0.0910842925041914,-0.8108738998144864,-0.6776721017446369
1772556497225272800,6.28627294921875,-0.48026130474507805,-0.5818751745700835,-0.7406522164665162
1772556497235257300,6.29625732421875,-0.9301976138532161,-0.31385435249209404,-0.7880009737491607
1772556497245241300,6.306241455078125,-1.3001187214821577,-0.04898585696518421,-0.8466365564607083
1772556497255225300,6.316225341796875,-1.5288146643877027,0.11996639585644006,-0.9026574996944516
1772556497265209300,6.326209228515625,-1.501102481597662,0.19983722042888402,-0.9660491178266704
1772556497275192600,6.336192626953125,-1.290011753487587,0.14704875631034373,-0.9549120761319995
1772556497285176600,6.346176513671875,-0.8899410067886113,-0.3121294283956289,-1.09191195131056
1772556497295160600,6.35616064453125,-0.4625789330601692,-1.0433169202938675,-1.3126936870254575
1772556497305144600,6.36614453125,-0.3774351365208626,-1.5699629595950244,-1.3604200454488395
1772556497315128600,6.376128662109375,-0.7435901696145534,-1.975294987823069,-1.2666425683379172
1772556497325112600,6.386112548828125,-1.4306038810044526,-2.221086442436278,-1.080999804412946
1772556497335096300,6.396096435546875,-2.2751678689748047,-2.1496052605465055,-0.8468725571736693
1772556497345080300,6.406080322265625,-3.018682050743699,-1.8145564365953206,-0.714955611282587
1772556497355064300,6.416064208984375,-3.4702170272201296,-1.177872397994995,-0.6347029477857052
1772556497365048300,6.42604833984375,-3.726134739050269,-0.40260552587360143,-0.33765012902338054
1772556497375032300,6.4360322265625,-3.630444998577237,0.36951369587183,0.10210961745269596
1772556497385016300,6.446016357421875,-3.035004239991307,1.0579390276253222,0.33359208580423144
1772556497395000600,6.45600048828125,-2.0468015964150426,1.5344062007844448,0.2625389566008001
1772556497404984600,6.465984619140625,-0.8315273962646722,1.8497534221827983,0.1567448054164648
1772556497414968600,6.475968505859375,0.28858430215716363,2.0814114297643305,0.15756065184399484
1772556497424952600,6.48595263671875,1.1194389137268066,2.19544726652801,0.40572869939543305
1772556497434936600,6.4959365234375,1.3535761709034442,2.028326028525829,0.7400134801715612
1772556497444920600,6.505920654296875,1.1918594222933054,1.619021005013585,0.9574813420981169
1772556497454904600,6.515904541015625,0.9679016138255595,1.2421022935822605,1.0950544140547513
1772556497464887300,6.52588720703125,0.8484393680989741,0.956205330812931,1.2158045807000248
1772556497474871300,6.535871337890625,0.8529144676864147,0.7842538961753248,1.3518983008190988
1772556497484855300,6.545855224609375,0.9151268859714269,0.742609926405549,1.6016652349345386
1772556497494839600,6.555839599609375,0.9434253442168236,0.7754238162487744,1.6414308436118066
1772556497504823600,6.565823486328125,0.9280787220031023,0.6655065207198262,1.614953317183256
1772556497514807600,6.5758076171875,0.7529612245500087,0.6030129474058747,1.5880131416790186
1772556497524791600,6.58579150390625,0.5427817660659552,0.6994435693740845,1.4861277614362538
1772556497534775600,6.595775634765625,0.3755775259554386,0.9352736019432544,1.3802603258199988
1772556497544759600,6.605759521484375,0.32558278420865533,1.15959527528733,1.1599072638459502
1772556497554743600,6.61574365234375,0.3220020031124353,1.3500383521661161,0.8584546392221003
1772556497564727600,6.6257275390625,0.20209785883724687,1.4276990994736551,0.5680762932550162
1772556497574711600,6.635711669921875,0.21673311791121957,1.3503715296432375,0.28861714498084035
1772556497584695600,6.645695556640625,0.43322424376010893,1.3059046114072204,0.07873181060515344
1772556497594679300,6.65567919921875,0.6918681656837463,1.1585706084147096,-0.0762175992945209
1772556497604663300,6.665663330078125,0.9327040437161922,0.8958239273473619,-0.2801503088761121
1772556497614647300,6.675647216796875,1.0700614270955324,0.5975105505973101,-0.4424532964089885
1772556497624631300,6.68563134765625,1.1666945858985185,0.3048141369462013,-0.5465140479294582
1772556497634615300,6.695615234375,1.280089494410157,0.04972936880886555,-0.5626719134608283
1772556497644599600,6.705599609375,1.3330781572759152,-0.13768822276890277,-0.4183127250280231
1772556497654583600,6.71558349609375,1.3788561581104992,-0.35308892303258177,-0.28195659111309795
1772556497664567600,6.725567626953125,1.3505068464607,-0.5644038152873516,-0.17078482027733696
1772556497674550500,6.735550537109375,1.2348054145723582,-0.726669722212851,-0.04123546203412115
1772556497684534500,6.745534423828125,1.1307710396021604,-0.8415706513732671,0.0690534798188135
1772556497694518500,6.7555185546875,1.0944593707710504,-0.8991364128962158,0.14783579676849767
1772556497704502500,6.76550244140625,1.0954156485825777,-0.9016045565754175,0.16680778813883662
1772556497714486300,6.775486328125,1.0437135183960198,-0.8866147849753498,0.15493059560135006
1772556497724470300,6.78547021484375,0.9305039033234119,-0.8888178479775786,0.21681038439851252
1772556497734454300,6.795454345703125,0.8292775715112686,-0.8577402804076671,0.2768043411827646
1772556497744438500,6.8054384765625,0.7886106300801038,-0.7775798252388835,0.24146865951064972
1772556497754422500,6.815422607421875,0.7688549592524766,-0.706462508225441,0.19431210033185778
1772556497764406500,6.825406494140625,0.7505676074117422,-0.6561883650153875,0.15611249886229633
1772556497774390500,6.835390625,0.756004245507717,-0.6552107521548867,0.12527878651823848
1772556497784374500,6.84537451171875,0.8305670267999171,-0.6008198212757706,0.13030819552019238
1772556497794358500,6.855358642578125,0.816546100232005,-0.5350111320644617,0.13416750129684804
1772556497804342500,6.865342529296875,0.6203682790935039,-0.5403367110013961,0.17052739318385718
1772556497814326500,6.875326416015625,0.388823961019516,-0.5775263317108154,0.21612552567319943
1772556497824310500,6.885310546875,0.15515549039840698,-0.6235483704343437,0.25277285619946194
1772556497834294500,6.89529443359375,-0.08185819899737834,-0.679951225657761,0.21895453855404629
1772556497844278500,6.905278564453125,-0.21115677908360958,-0.7234595279946923,0.24023597591053694
1772556497854262300,6.91526220703125,-0.27031331692934035,-0.76472706566751,0.24749190185554323
1772556497864246300,6.925246337890625,-0.39723289292454717,-0.7726596122324466,0.21672427701763808
1772556497874229500,6.9352294921875,-0.6126069974422454,-0.8551347740843892,0.25395030248099937
1772556497884213500,6.945213623046875,-0.8153659505367279,-0.9884168708488345,0.3098132604077458
1772556497894197500,6.955197509765625,-1.040831825479865,-1.1004153565660117,0.35522060129903255
1772556497904181500,6.965181396484375,-1.1592080295354128,-1.3468044848114251,0.39361576187331226
1772556497914165500,6.97516552734375,-1.185632510602474,-1.7329308773100376,0.45863560226187106
1772556497924149500,6.9851494140625,-1.3156804477512836,-1.8545374415889382,0.5775184771979227
1772556497934133500,6.995133544921875,-1.666630897450447,-1.732217468343675,0.6440788250267505
1772556497944117500,7.005117431640625,-2.13537595192492,-1.5821593010842798,0.6263981338422745
1772556497954101500,7.0151015625,-2.6399077745735644,-1.4171853042438625,0.5118045901305973
1772556497964085500,7.02508544921875,-3.0702988407343623,-1.168478254444897,0.4249861749099567
1772556497974069200,7.0350693359375,-3.3653245741158724,-0.6831582050055265,0.4229271965535357
1772556497984053200,7.04505322265625,-3.521774780499935,-0.044537645384669304,0.2922838690611534
1772556497994037500,7.05503759765625,-3.458953874927759,0.4874561846852302,0.00583769317753613
1772556498004021500,7.065021484375,-3.112722854965925,0.8362886193171143,-0.46178076841980215
1772556498014005500,7.075005615234375,-2.5924001734673974,1.0783397183582186,-0.8931403142865747
1772556498023989500,7.084989501953125,-1.873687839999795,1.3032538046374915,-1.2091621470108627
1772556498033973500,7.094973388671875,-1.0370371093720196,1.507704364080727,-1.3286242466069758
1772556498043957500,7.10495751953125,-0.248694774839282,1.6520274948194622,-1.3022373210713267
1772556498053941500,7.11494140625,0.3220224613785744,1.748842147669196,-1.39244132360965
1772556498063925500,7.124925537109375,0.774870858541131,1.7814932481661439,-1.4369732699058948
1772556498073909500,7.134909423828125,1.0573135892033576,1.742366814175248,-1.3941113026484846
1772556498083892500,7.144892578125,1.19766956987679,1.6437161780700087,-1.305752781846374
1772556498093876500,7.15487646484375,1.26570499522686,1.5535492926716803,-1.1594590816870332
1772556498103860500,7.164860595703125,1.3017360935509203,1.4455319855451583,-0.9718198832478374
1772556498113844500,7.174844482421875,1.3273434130162,1.2596145693972707,-0.7935776048377156
1772556498123828500,7.184828369140625,1.3483610666036605,1.019872916342318,-0.701771354734525
1772556498133812500,7.1948125,1.2135755795389414,0.8002984375253319,-0.6575928980510681
1772556498143796500,7.20479638671875,0.9986042106032371,0.6726233669877052,-0.5758502882573753
1772556498153780500,7.214780517578125,0.759973149138689,0.5539230455443263,-0.46425760686211287
1772556498163764500,7.224764404296875,0.562675968581438,0.49451691685169935,-0.4641732895795256
1772556498173748500,7.23474853515625,0.48027416422665115,0.46410628875792026,-0.3722851698791608
1772556498183732500,7.244732421875,0.48819677391946315,0.48504444736838337,-0.11183492918591946
1772556498193716500,7.254716552734375,0.6106564478963613,0.5927879059895873,0.10536866491441614
1772556498203700500,7.264700439453125,0.7903519207894801,0.6724570705100894,0.2512032139962539
1772556498213684500,7.2746845703125,0.9277052125155926,0.6970911610290408,0.37299481598585843
1772556498223668500,7.28466845703125,1.027010220876336,0.6644733782798051,0.5119215310411528
1772556498233652500,7.294652587890625,1.1098194369882344,0.6093380587741732,0.6242902748428285
1772556498243636700,7.30463671875,1.2380091790497303,0.5041501298546791,0.6441667225059121
1772556498253620700,7.314620849609375,1.3490788594841956,0.35338498336970803,0.5796241807729006
1772556498263604700,7.324604736328125,1.4011200123667715,0.20153174938708543,0.46772955728899684
1772556498273588700,7.334588623046875,1.4070599238097667,0.05451923343390226,0.32970505177043374
1772556498283572700,7.34457275390625,1.3417793501257895,-0.08358692248612642,0.19209899085965007
1772556498293556700,7.354556640625,1.2777046451002358,-0.23821751222759485,0.05963271312327124
1772556498303539500,7.36453955078125,1.2299147199213505,-0.4231964784815907,-0.0724258971276693
1772556498313523500,7.3745234375,1.1986223405569791,-0.6411614762753248,-0.20916131268376484
1772556498323507500,7.384507568359375,1.1863994033217429,-0.8600798292711377,-0.3327385011821985
1772556498333491500,7.394491455078125,1.16674777739048,-1.036467785051465,-0.3994890743535012
1772556498343475500,7.404475341796875,1.109963813894987,-1.1654577375799418,-0.4290979576103389
1772556498353459700,7.414459716796875,1.0039332966715098,-1.233648938013613,-0.39364188269525763
1772556498363443700,7.424443603515625,0.9217103560149669,-1.227429332846403,-0.2983073306017555
1772556498373427700,7.434427734375,0.8891255987524985,-1.2354554029136895,-0.18448632389884442
1772556498383411700,7.44441162109375,0.8937029896706342,-1.211865853011608,-0.14633302752273156
1772556498393395700,7.454395751953125,0.8682786255568266,-1.1326757041797042,-0.10475671616168693
1772556498403379700,7.464379638671875,0.8130413069814443,-1.0495388635486365,-0.04858439089166931
1772556498413363700,7.47436376953125,0.6473065549015998,-0.9547577623531222,-0.017173116121673954
1772556498423347700,7.48434765625,0.45744332373738283,-0.8840013876065611,-0.034344423878751695
1772556498433331700,7.494331787109375,0.20715514222681522,-0.824390383991599,-0.12200118048652074
1772556498443315700,7.504315673828125,-0.17135259196162222,-0.7806228461965918,-0.215108877710253
1772556498453299500,7.514299560546875,-0.5302490322291851,-0.7449798704072833,-0.34616653989087787
1772556498463283500,7.524283447265625,-0.9331710767060518,-0.6271686067581176,-0.47915520666670053
1772556498473267500,7.534267333984375,-1.339840491017699,-0.4521732743799686,-0.6069481679629534
1772556498483251500,7.54425146484375,-1.6301391958773135,-0.2501277302518487,-0.7574887849770486
1772556498493235700,7.554235595703125,-1.8201707693457603,-0.07134089663624762,-0.8547381759822368
1772556498503219700,7.5642197265625,-1.7639567146927118,0.0652642070710659,-0.8840544329680502
1772556498513203700,7.57420361328125,-1.4861018963426351,-0.07157412087023257,-1.0609319988962262
1772556498523186700,7.584186767578125,-1.0525433060616254,-0.6390750253900885,-1.3478537016034124
1772556498533170700,7.594170654296875,-0.8785404918521642,-1.292833240649104,-1.5139976190060376
1772556498543154700,7.60415478515625,-1.24287766186893,-1.7845900451377033,-1.4689064313918352
1772556498553138700,7.614138671875,-1.8800293179810046,-2.1924051223531364,-1.3902116648614407
1772556498563122700,7.624122802734375,-2.7598709555596113,-2.225167282009125,-1.0996489022381604
1772556498573106400,7.6341064453125,-3.6906969304442403,-1.8214485341966151,-0.6372163919113576
1772556498583090400,7.64409033203125,-4.380647279807925,-1.1897618654921651,-0.24403774281367657
1772556498593074700,7.65407470703125,-4.701002684757113,-0.28730478374063967,0.18451025276370345
1772556498603058700,7.66405859375,-4.484066153228283,0.6620391368702053,0.5748066974885762
1772556498613042700,7.674042724609375,-3.4378146407872436,1.4307564412176608,0.7067880138527601
1772556498623026700,7.684026611328125,-1.990084268414974,1.8948726668477058,0.673040569486469
1772556498633010700,7.6940107421875,-0.5018891991853713,2.1709330029964446,0.8122248760320245
1772556498642994700,7.70399462890625,0.8056435979455709,2.2663822127118705,1.244663960763812
1772556498652978700,7.713978759765625,1.581633231383562,2.213385366539657,1.6560753089055418
1772556498662962700,7.723962646484375,1.5024574033379554,1.981119456192851,1.8259170579127966
1772556498672946700,7.73394677734375,1.1005483352959156,1.6957085233747957,1.8573966304123402
1772556498682930700,7.7439306640625,0.7954512897551059,1.4175322179853915,1.8060294312685727
1772556498692914700,7.753914794921875,0.7404232300162314,1.1675281141132117,1.7167675318859517
1772556498702898700,7.763898681640625,0.7431850959450006,1.052434292729199,1.7353896686390042
1772556498712882400,7.77388232421875,0.8645131355434655,0.9397983858913183,1.783846241033077
1772556498722866400,7.783866455078125,0.9196411485254764,0.7962956316247582,1.7437794574521481
1772556498732849700,7.793849609375,0.8222732457071542,0.7580974183946847,1.7321762595504522
1772556498742833700,7.803833740234375,0.6398860495120287,0.9216682704389095,1.467316385721415
1772556498752817700,7.813817626953125,0.5241501308321953,1.1128016676694155,1.2232258898071944
1772556498762801700,7.8238017578125,0.48862698203027244,1.275115797650814,0.9571201075702905
1772556498772785700,7.83378564453125,0.386153280505538,1.3849316786319017,0.6270028948023915
1772556498782769700,7.843769775390625,0.24436639024615286,1.3693354655712842,0.17596954770516604
1772556498792753700,7.853753662109375,0.15908698462843893,1.2713441701576114,-0.16276172761842608
1772556498802737700,7.863737548828125,0.22668518760502337,1.0792857670366764,-0.32771219745278357
1772556498812721700,7.8737216796875,0.3431353920340538,0.8088719123423099,-0.4686264330634847
1772556498822705700,7.88370556640625,0.49843759742677207,0.5350032410189509,-0.5556155286759138
1772556498832689400,7.893689453125,0.7098661791890859,0.33244507119357586,-0.5653091666292399
1772556498842673700,7.903673583984375,0.891553118160367,0.18451076422035692,-0.4911008978631347
1772556498852657700,7.91365771484375,0.9736153152972459,0.056149172723293304,-0.3349344768565148
1772556498862641700,7.9236416015625,1.0035697240561245,-0.05620674812942743,-0.12031053311899303
1772556498872625700,7.933625732421875,0.9938245751112699,-0.14494886142164468,0.10474471519663929
1772556498882609700,7.943609619140625,0.9965624756425618,-0.20622575242221355,0.3158410693299025
1772556498892593700,7.95359375,0.9786147310197353,-0.27255641968101263,0.43951969064250584
1772556498902577700,7.96357763671875,0.9129442812353372,-0.3484665239289403,0.5089703896179795
1772556498912561700,7.973561767578125,0.8614853121548891,-0.36880145594924685,0.5616178378306329
1772556498922545700,7.983545654296875,0.8737567647069692,-0.3826540402129292,0.522874338742718
1772556498932529700,7.99352978515625,0.9009177433550357,-0.37946985721886156,0.4093514930024743
1772556498942513700,8.003513671875,0.8981190525472164,-0.3898419058904052,0.2804580596510321
1772556498952497700,8.01349755859375,0.9577437924265861,-0.425029246866703,0.16344897923022508
1772556498962481700,8.023481689453124,1.0451403363287448,-0.4747723519399762,0.07549173270538449
1772556498972464600,8.033464599609376,1.004853918647766,-0.5535474902302027,0.019018442594259975
1772556498982448600,8.04344873046875,0.9032657677859067,-0.6819938374012708,0.07221534138321876
1772556498992432600,8.0534326171875,0.8095341756433247,-0.7886556382656097,0.18196999369636177
1772556499002416600,8.063416748046874,0.7605652698129415,-0.7966007520511746,0.20653752178512513
1772556499012400600,8.073400634765624,0.7298018827587366,-0.7638052746474743,0.0869102947551757
1772556499022384600,8.083384521484374,0.6436696597039699,-0.6877817731529474,0.006557312688976526
1772556499032368600,8.09336865234375,0.4778542436033487,-0.6552993072211742,0.03042173400968313
1772556499042352600,8.1033525390625,0.22568390160799026,-0.672789663465321,0.07933386815153062
1772556499052336600,8.113336669921875,0.04480068023502826,-0.6871531198605895,0.13346695181205867
1772556499062320600,8.123320556640625,-0.08294131805896758,-0.7694105473086238,0.05691694222539663
1772556499072304600,8.1333046875,-0.24443945548236368,-0.9005886575311421,-0.028278474903292952
1772556499082288600,8.14328857421875,-0.3196580703347921,-1.0251035104721784,-0.025445151173509657
1772556499092272600,8.153272705078125,-0.44088849477767944,-1.1340455312281845,-0.00631484570261091
1772556499102256600,8.163256591796875,-0.6558855826765299,-1.2252628024622798,0.02192128789629787
1772556499112240600,8.17324072265625,-0.9041571636676787,-1.2954150738358496,0.08333338611647487
1772556499122224600,8.183224609375,-1.0349369222223759,-1.4401424014613031,0.11606562555823474
1772556499132208600,8.193208740234375,-1.0191390491098165,-1.8312997738644479,0.18500969018582253
1772556499142192600,8.203192626953125,-1.1738929729700087,-1.9144407061487436,0.44619602660126984
1772556499152176600,8.2131767578125,-1.4375170213937758,-1.4683978973478078,0.6376232191465795
1772556499162160600,8.22316064453125,-1.5399264255106448,-1.2777464384153485,0.505764798509702
1772556499172144600,8.23314453125,-1.7537603148490188,-1.3805609162017702,0.4151862270379439
1772556499182128600,8.243128662109376,-2.2837568336218594,-1.1313041235655545,0.44565691475588826
1772556499192112600,8.253112548828126,-2.9350615182489155,-0.3999421518832445,0.4346558839984238
1772556499202096600,8.2630966796875,-3.3183301832288503,0.4117413107484579,0.2720419673528522
1772556499212079600,8.27307958984375,-3.2302403963655233,0.9276341931059956,-0.018728483204357323
1772556499222063600,8.283063720703124,-2.7361569024950265,1.0669105618491768,-0.32161654745880514
1772556499232047400,8.29304736328125,-1.990845315915346,1.1445365301042794,-0.43403369697947053
1772556499242031400,8.30303125,-1.2896265535622835,1.2075345458090305,-0.5517786539267748
1772556499252015400,8.313015380859374,-0.5349678774446248,1.2634487407326698,-0.6138027830980718
1772556499261999400,8.322999267578124,0.2018704798221588,1.3079197506219147,-0.7137189821597189
1772556499271983400,8.3329833984375,0.7261445292949676,1.356387136670947,-0.8145701239839196
1772556499281967400,8.34296728515625,1.0503221228808164,1.3921937785893679,-0.8110273368105292
1772556499291951400,8.352951416015625,1.1406009442210197,1.3906202456623316,-0.7307857061643153
1772556499301935400,8.362935302734375,1.1719850935220717,1.299901863861084,-0.6126162767272442
1772556499311919400,8.37291943359375,1.1105863297075032,1.227289632114768,-0.47655112511552866
1772556499321903000,8.382903076171875,1.0250029727071523,1.143823121137917,-0.3818137899965048
1772556499331887400,8.392887451171875,1.0536270096451044,1.0409981219574809,-0.37019744035229085
1772556499341871400,8.402871337890625,1.0502934813082219,0.9657675244063139,-0.45409598607085644
1772556499351855400,8.41285546875,0.9395178153842687,0.9022481151759624,-0.5481476039480417
1772556499361839400,8.42283935546875,0.6673860508561134,0.8816229680374265,-0.5375639583524316
1772556499371823400,8.4328232421875,0.35601124022006986,0.8600178699508308,-0.47933286478854714
1772556499381807400,8.442807373046875,-0.13123217849731444,0.7331149528294801,-0.41198472758289423
1772556499391791400,8.452791259765625,-0.4387602505773306,0.5712865605384111,-0.3773576873704791
1772556499401775400,8.462775390625,-0.48792497124075884,0.4621805813923478,-0.35539621359426526
1772556499411759400,8.47275927734375,-0.41805531620085234,0.40657413724362845,-0.3851690552411601
1772556499421743400,8.482743408203126,-0.118189157050848,0.41378479927480216,-0.43325610020309685
1772556499431727400,8.492727294921876,0.2937397852241993,0.4418652308553457,-0.45037060887217517
1772556499441710300,8.50271044921875,0.6480407143950462,0.421028779053688,-0.4433733703959733
1772556499451694300,8.5126943359375,0.9077548958986997,0.3225184282019734,-0.47135132798273116
1772556499461678300,8.52267822265625,1.028064113843441,0.18332973774224517,-0.4397462294073775
1772556499471662300,8.532662353515626,1.0590765072226525,0.036793314868211746,-0.3720933371014893
1772556499481646300,8.542646240234374,1.113492572543025,-0.07667232079207897,-0.2743540436875075
1772556499491630300,8.55263037109375,1.136958203804493,-0.184713885577023,-0.23944268837468696
1772556499501614300,8.5626142578125,1.1015636498183012,-0.27312369817495347,-0.23719131098501384
1772556499511598300,8.572598388671874,1.073378004297614,-0.3723027420684695,-0.2753324237329885
1772556499521582300,8.582582275390624,1.0466700301140546,-0.47327071520537134,-0.3855187454616651
1772556499531566300,8.59256640625,1.051615085300803,-0.6153101189211011,-0.48900699432380496
1772556499541550300,8.60255029296875,1.0903554425835609,-0.7078177222266793,-0.5395043883631006
1772556499551534300,8.612534423828125,1.127793485096097,-0.7794748452052473,-0.5271685653379187
1772556499561518300,8.622518310546875,1.1078723945736884,-0.8633964064732194,-0.5206835507001728
1772556499571502300,8.63250244140625,1.0881149701803923,-0.8888070343226194,-0.5091253609839826
1772556499581486300,8.642486328125,1.1021043325662612,-0.8780670291215181,-0.48053928143624214
1772556499591470300,8.65247021484375,1.1098720439583063,-0.8375956102624535,-0.4071628603843972
1772556499601454300,8.662454345703125,1.1906892094701529,-0.894302124607563,-0.32686573669128116
1772556499611438300,8.672438232421875,1.1937024198114872,-0.8847937070280313,-0.23434531043674794
1772556499621422300,8.68242236328125,1.0965922911465167,-0.8358283083289861,-0.15879892493467776
1772556499631406300,8.69240625,1.014652843606472,-0.8624246388316154,-0.09412851903829723
1772556499641390300,8.702390380859375,0.947794060820341,-0.9250026755586266,-0.043117293725349004
1772556499651374300,8.712374267578125,0.7927981448978185,-0.9092728992462158,-0.0220267940973863
1772556499661358300,8.7223583984375,0.5351327126175165,-0.8351289278879761,-0.06779409087486565
1772556499671342300,8.73234228515625,0.2796563148140907,-0.8139677741765976,-0.18526417640354484
1772556499681325300,8.7423251953125,0.01974924108684063,-0.7653054500773548,-0.335578473848477
1772556499691309600,8.7523095703125,-0.3612158231258392,-0.6311527079582214,-0.49226964938156303
1772556499701293300,8.762293212890626,-0.8541016316443681,-0.361626449753344,-0.6186883631825447
1772556499711277300,8.77227734375,-1.3230512687802314,-0.007637947532534599,-0.7248195643015205
1772556499721261300,8.78226123046875,-1.6264134533524512,0.27782559225559234,-0.8950019434399902
1772556499731245300,8.792245361328124,-1.6449305222958326,0.43186523036658764,-0.9764609870519488
1772556499741229300,8.802229248046874,-1.339421388822794,0.3723153092890978,-1.0326004420988262
1772556499751213300,8.81221337890625,-0.743022014337778,-0.2920347348719835,-1.217360358774662
1772556499761197300,8.822197265625,-0.5287672692388296,-1.123252042274177,-1.2311685193747282
1772556499771181300,8.832181396484375,-1.069388642400503,-1.4338579143643377,-1.0067138673007487
1772556499781165300,8.842165283203125,-1.6245523356556892,-1.7977207448676227,-0.9723827778276055
1772556499791149300,8.8521494140625,-2.1869863121747968,-1.9762074264928697,-0.7867587916683405
1772556499801133300,8.86213330078125,-2.7830671222299337,-1.7843869237810372,-0.47291349926553666
1772556499811117300,8.872117431640625,-3.283973740118742,-1.2774474554687738,-0.19778584085702894
1772556499821101300,8.882101318359375,-3.649153206178546,-0.5717983094528317,0.061847968886792656
1772556499831085600,8.89208544921875,-3.7401574191838503,0.21075024410933255,0.35754312596246596
1772556499841069600,8.902069580078125,-3.4855922910064456,0.8905316661581396,0.5236469305504113
1772556499851053300,8.91205322265625,-2.777166958275437,1.3297341075450182,0.5588827137783169
1772556499861037300,8.922037353515625,-1.8178636614471673,1.6328104609131813,0.611898776107654
1772556499871021300,8.932021240234375,-0.7135282088279724,1.8414263233423231,0.819578234469518
1772556499881005300,8.94200537109375,0.32508184894919395,1.9285031337708234,1.1556522367499769
1772556499890989300,8.9519892578125,1.1784890685886145,1.837355420641601,1.3963570357486605
1772556499900973300,8.961973388671876,1.394772689166665,1.6554045700371265,1.4767980614244938
1772556499910957300,8.971957275390626,0.7298965753048658,1.3373089267134666,1.375746209396422
1772556499920941300,8.98194140625,0.019667992544174194,0.859527163824439,1.3068379467345774
1772556499930924300,8.99192431640625,0.11491992612183094,0.5037181681782007,1.393665750838071
1772556499940908500,9.001908447265626,0.16252514238357543,0.4440346838489175,1.5076476654574273
1772556499950892500,9.011892578125,0.2659843478143215,0.5509180185094475,1.5706233231998978
1772556499960876300,9.021876220703126,0.362549702078104,0.7399699332907795,1.5801663737013936
1772556499970860300,9.0318603515625,0.36293607104718684,0.8922089517205953,1.5561778876096009
1772556499980844300,9.04184423828125,0.32272914834320543,1.0393252203091978,1.3862769557610153
1772556499990828300,9.051828369140624,0.27480186052024363,1.198348492051661,1.209065920094773
1772556500000812300,9.061812255859374,0.35094811161160466,1.3645698586046695,1.0115948442753404
1772556500010796300,9.07179638671875,0.4243704906970262,1.4585618552491069,0.7042002623818814
1772556500020780300,9.0817802734375,0.4798030395835638,1.404733818949759,0.33870734645873307
1772556500030764300,9.091764404296875,0.5955395427852869,1.1973588964924216,-0.004230769437551498
1772556500040748300,9.101748291015625,0.6925900502175092,0.9627797407671809,-0.22257497580721974
1772556500050732300,9.111732177734375,0.8822644808113574,0.7030804645717144,-0.38840368978083134
1772556500060716300,9.12171630859375,1.0300082336485386,0.4236676031246781,-0.4579460856277495
1772556500070700300,9.1317001953125,1.1216314553350208,0.12709464030116796,-0.505317712329328
1772556500080684500,9.1416845703125,1.2422954780668019,-0.15955898605436086,-0.5014578950960189
1772556500090668500,9.15166845703125,1.3464099325358867,-0.3816892868340015,-0.418043041241169
1772556500100652500,9.161652587890625,1.4179910676687955,-0.5438900195688009,-0.27770218507163225
1772556500110636300,9.17163623046875,1.4007020792156457,-0.6584858283028007,-0.11974413140788674
1772556500120620300,9.181620361328125,1.3897031308174133,-0.7166036707505583,0.0208811677262187
1772556500130604300,9.191604248046875,1.3169026830226183,-0.7523498146533966,0.10514295726660638
1772556500140588300,9.20158837890625,1.2543214314252138,-0.7818675855606794,0.1544785775175318
1772556500150572300,9.211572265625,1.160263091546297,-0.795572285786271,0.14255564614217728
1772556500160556300,9.221556396484376,1.0589870753735304,-0.8264166291221976,0.09154317872021346
1772556500170539300,9.231539306640625,0.9906114582836627,-0.8428907940611243,-0.016355141669139265
1772556500180523500,9.2415234375,0.9152356070429086,-0.8322662319332361,-0.1028828668475151
1772556500190507500,9.251507568359376,0.813717014285922,-0.8530696582481264,-0.17935645019710064
1772556500200491500,9.261491455078126,0.7745902880340814,-0.8167609120264648,-0.21902342080548404
1772556500210475500,9.2714755859375,0.8442150284022092,-0.7378738377943634,-0.26107765187658366
1772556500220459300,9.281459228515626,0.9583288988381624,-0.7301140174478292,-0.34937925485968585
1772556500230444000,9.291444091796874,1.0174041881412268,-0.8082873904526233,-0.4245640405077487
1772556500240427800,9.301427734375,1.0558049382060766,-0.8887743010967969,-0.351532195109874
1772556500250411800,9.311411865234374,0.9908622181743383,-0.9250190421715379,-0.21827552504763006
1772556500260395800,9.321395751953125,0.8543798640638589,-0.9066156627357006,-0.1333785428762436
1772556500270379800,9.3313798828125,0.6664607527047395,-0.8667682209938764,-0.08361001110076904
1772556500280363800,9.34136376953125,0.4052887736082077,-0.8234501805320381,-0.06587510551102459
1772556500290347800,9.35134765625,0.11670271788537502,-0.8365107376351952,-0.04285962916985154
1772556500300331800,9.361331787109375,-0.12131284202933311,-0.8317936459854245,-0.004918569038622081
1772556500310315800,9.371315673828125,-0.35416005939543244,-0.7646390951231121,0.03826514098644256
1772556500320299800,9.3812998046875,-0.5925830310672521,-0.7229723289996385,0.003195763834007084
1772556500330283800,9.39128369140625,-0.8429963002622127,-0.6991223745957017,-0.0033379853162914513
1772556500340267800,9.401267822265625,-1.077400683942437,-0.660531070394814,0.021720358496718106
1772556500350252000,9.411251953125,-1.2779478062063454,-0.6539449700027704,0.13744447714090346
1772556500360236000,9.421236083984375,-1.340745330902934,-0.6712479869812726,0.26476466982625424
1772556500370220000,9.431219970703125,-1.302661976224184,-0.743376526863873,0.3650079088851809
1772556500380203800,9.441203857421876,-1.1222288367062807,-1.0848904551759362,0.45360955426078287
1772556500390187800,9.451187744140626,-1.0801146190762518,-1.3105612050414084,0.6109221861604601
1772556500400171800,9.461171875,-1.3780220453739165,-1.0503595322817563,0.871597540846467
1772556500410155800,9.47115576171875,-1.6471037746816872,-0.8746861545115708,0.9589278145793825
1772556500420139800,9.481139892578126,-1.8573551293581723,-0.954748702263832,0.8797950950231402
1772556500430123800,9.491123779296874,-2.264171258664131,-0.8551058402508497,0.6795243054825812
1772556500440106800,9.501106689453126,-2.752456295388937,-0.32037469417154785,0.41579968276116996
1772556500450091000,9.511091064453124,-3.0988316922575234,0.4263713091254234,0.19994290929306296
1772556500460075000,9.521074951171874,-3.174676914575696,0.945492798140645,-0.05634546248037368
1772556500470059000,9.53105908203125,-2.7915736692905426,1.0294140671476721,-0.4830748643284663
1772556500480043000,9.54104296875,-2.024324391669035,0.9538894550859928,-0.9116188778504729
1772556500490027000,9.551027099609374,-1.1401035160928963,0.9648118311166762,-1.1823358071446417
1772556500500010800,9.5610107421875,-0.35725510280132294,0.996081121866405,-1.2962792894497512
1772556500509994800,9.570994873046875,0.25280279467999933,1.0588929673492908,-1.2662991617277264
1772556500519978800,9.580978759765625,0.6185954242020845,1.1078224179521203,-1.195427928429842
1772556500529962800,9.590962646484375,0.7846329586207866,1.158073764808476,-1.0855860362246632
1772556500539946800,9.60094677734375,0.721199474108219,1.2672428723186253,-0.9355150094836949
1772556500549930800,9.6109306640625,0.7557903104960918,1.3508517143756151,-0.788715697889775
1772556500559914800,9.620914794921875,0.8453168521642684,1.4620923674628137,-0.6053436553757637
1772556500569898800,9.630898681640625,1.020367129600048,1.5216963568150996,-0.45740562207549806
1772556500579882800,9.6408828125,1.1829682598292828,1.5094076608672737,-0.3740084865404293
1772556500589866800,9.65086669921875,1.2336480612307785,1.4407684244051575,-0.3071647917255759
1772556500599851000,9.66085107421875,1.1715572234988212,1.2977236430391668,-0.2419868381658569
1772556500609835000,9.6708349609375,0.9884218392848968,1.1387401187852024,-0.14996884500812738
1772556500619819000,9.680819091796875,0.6802507931262254,0.9829989374533296,-0.03925256285490468
1772556500629803000,9.690802978515626,0.351954658305645,0.8450251757413149,-0.044756256571412086
1772556500639787000,9.700787109375,0.10314590169787406,0.6751216135442256,-0.06528136370184365
1772556500649770800,9.710770751953126,-0.012632687079906463,0.514047839012742,0.0335448527325876
1772556500659754800,9.720754638671876,0.030137948632240293,0.4169260199099779,0.12708319645854643
1772556500669738800,9.73073876953125,0.2042313637346029,0.4584630221739411,0.24142887548953293
1772556500679722800,9.74072265625,0.4772966097205877,0.4765773555353284,0.32220110588110984
1772556500689706800,9.750706787109374,0.6849450884222984,0.3825573018401861,0.3648382148740813
1772556500699690000,9.76068994140625,0.8008990337669849,0.23630583338737488,0.3846701292756945
1772556500709674000,9.770674072265624,0.9023948301702738,0.11721417453885077,0.47553361863605675
1772556500719655000,9.780655029296875,1.0191747049450874,0.0037321722656488416,0.5080515942726284
1772556500729639000,9.790638916015626,1.0894716454863547,-0.10455781432241201,0.4400538340518251
1772556500739623000,9.800622802734376,1.104911791202426,-0.2070633722901344,0.3363448551110923
1772556500749607000,9.81060693359375,1.054625373032689,-0.31968378929793834,0.20814287462253123
1772556500759591000,9.8205908203125,1.0024807597756384,-0.4276321228414774,0.06175525823519565
1772556500769575000,9.830574951171876,0.9933481897711753,-0.5614926040157675,-0.0937070787558332
1772556500779559000,9.840558837890624,1.0567618005394934,-0.7189061024740337,-0.23312060921369118
1772556500789543000,9.85054296875,1.1005331377267837,-0.8842059702679514,-0.3469470592767
1772556500799527000,9.86052685546875,1.1615449480503797,-1.0522548445090651,-0.41011148105692113
1772556500809511000,9.870510986328124,1.2439771475434303,-1.1363923866152763,-0.44581013255622237
1772556500819494700,9.88049462890625,1.2955594507426023,-1.1873851994886995,-0.4763085485313087
1772556500829478700,9.890478759765625,1.315508013793826,-1.1610077724337577,-0.457840542894043
1772556500839462700,9.900462646484375,1.2775818955034017,-1.1015969675660133,-0.44610016501136124
1772556500849446700,9.91044677734375,1.223348785534501,-1.047789974054694,-0.39294520566798746
1772556500859431000,9.920430908203125,1.2017658992797136,-0.9740312026217579,-0.31955625392813236
1772556500869415000,9.930414794921875,1.1526730748087166,-0.8474225922718643,-0.19360718519920483
1772556500879399000,9.94039892578125,1.0757938332676886,-0.67839610517025,-0.05779705866132862
1772556500889383000,9.9503828125,0.9987643696010112,-0.5657151901468634,0.016975355926714838
1772556500899367000,9.960366943359375,0.8216963226020335,-0.5497144879385829,-0.03563771509230137
1772556500909351000,9.970350830078125,0.5342670356988907,-0.5426315439403057,-0.1514909856746439
1772556500919335000,9.9803349609375,0.15391045877337456,-0.5769695746108889,-0.1927257079232484
1772556500929319000,9.99031884765625,-0.2933767971307039,-0.5826069959759712,-0.27224530790522694
1772556500939303000,10.000302978515625,-0.8405284488439559,-0.45222909622043367,-0.3994122462576255
1772556500949287000,10.010286865234375,-1.3828151248693465,-0.23328999269753692,-0.4951286190092563
1772556500959271000,10.02027099609375,-1.8198200562119482,-0.004330722680687904,-0.6343166518818587
1772556500969254700,10.030254638671876,-2.0723136388123033,0.19467852249145506,-0.7812235885687172
1772556500979238000,10.04023779296875,-2.059117472630739,0.33242285936176774,-0.87072243851237
1772556500989222000,10.050221923828126,-1.8233090673714876,0.19771014527231454,-0.9521967527586966
1772556500999206000,10.060205810546876,-1.354352415972948,-0.41630262731462714,-1.181228868816048
1772556501009190000,10.07018994140625,-1.1088035379439591,-1.1036498084425925,-1.4321322596155106
1772556501019174000,10.080173828125,-1.425394037401676,-1.4577397252112627,-1.4539710203275085
1772556501029158000,10.090157958984374,-1.916931353920698,-1.8721353498607873,-1.369920425852388
1772556501039142000,10.100141845703124,-2.560200031608343,-2.1287936509251595,-1.1306205982808024
1772556501049126000,10.1101259765625,-3.2915953210383653,-1.9588500489786267,-0.7384045106049627
1772556501059110000,10.12010986328125,-3.749032799556851,-1.5877195655599237,-0.5664387551810592
1772556501069094000,10.130093994140625,-4.011427013924718,-1.0266580464378,-0.24096085611898452
1772556501079078000,10.140077880859375,-3.9390076744019984,-0.2109504428565502,0.2919323522097431
1772556501089061600,10.1500615234375,-3.4645401506274935,0.6029173780769109,0.758006671371311
1772556501099045600,10.160045654296875,-2.5978543472200633,1.190584287790954,0.9683877899073063
1772556501109030000,10.17002978515625,-1.4719284095615148,1.5386609356194734,1.1325309619467705
1772556501119014000,10.180013916015625,-0.4571422949641943,1.7861276299685238,1.5089571406207978
1772556501128998000,10.189997802734375,0.21858079160451888,1.932992846405506,1.954104900278151
1772556501138982000,10.19998193359375,0.5655576614975929,1.912908674275875,2.1668214760243893
1772556501148966000,10.2099658203125,0.7464864755779504,1.7768179498314856,2.1479288517668844
1772556501158950000,10.219949951171875,0.8246639402359723,1.5854925371602178,2.1051476946607233
1772556501168934000,10.229933837890625,0.9665548753917217,1.4163032607123256,2.1144847011961043
1772556501178918000,10.23991796875,1.0664666174739599,1.285611764962971,2.0350936229646206
1772556501188902000,10.24990185546875,1.1096341435492039,1.2746668848395346,1.87997714940235
1772556501198886000,10.259885986328126,1.2442431050032376,1.230730420218408,1.8169136672459543
1772556501208870000,10.269869873046876,1.2437941921919584,1.1817457322970033,1.664593692534417
1772556501218854000,10.27985400390625,1.1515806033968925,1.246398529471457,1.5363848073810338
1772556501228837600,10.289837646484376,1.0272405225008725,1.3226008946642278,1.3297082424513995
1772556501238822000,10.29982177734375,1.002041783836484,1.4443500822842121,1.0364859782952816
1772556501248806000,10.309805908203124,0.9155401429474354,1.6097840978518128,0.6431620755080133
1772556501258790100,10.3197900390625,0.7846990095943212,1.5596996319949625,0.15661829295996577
1772556501268773000,10.329773193359374,0.6945365081101655,1.4606705179661512,-0.2957025366645306
1772556501278756900,10.3397568359375,0.696887455150485,1.3770350801631808,-0.59506513020657
1772556501288740900,10.349740966796874,0.7644687069922685,1.1870531910553574,-0.8456768445830791
1772556501298724900,10.359724853515624,0.8869757272422313,0.9448542079761624,-0.9782141873948276
1772556501308708900,10.369708984375,1.047370871859789,0.706085783867538,-1.0330799692440777
1772556501318692900,10.37969287109375,1.2180319744259118,0.42942455921620126,-1.0465556830193847
1772556501328676900,10.3896767578125,1.377351598766446,0.18005320028960703,-0.9742506905913353
1772556501338660900,10.399660888671875,1.4102169265359639,-0.05745704045146703,-0.8978579173929989
1772556501348644900,10.409644775390625,1.381751295030117,-0.2275023492068052,-0.754354870865494
1772556501358628900,10.41962890625,1.402090903225541,-0.33027328011244533,-0.5810284946128725
1772556501368613000,10.429613037109375,1.4021838422060011,-0.359755979706347,-0.4363614823399111
1772556501378597000,10.43959716796875,1.3548024978280067,-0.40360505830496546,-0.30827213191296904
1772556501388581000,10.4495810546875,1.2042951254963874,-0.4789440846666693,-0.19183201048653573
1772556501398565000,10.459565185546875,1.044050787526369,-0.5751482044026255,-0.0633111367745325
1772556501408549000,10.469549072265625,0.9235241274386644,-0.6339625046819448,0.01589402696341276
1772556501418532900,10.479532958984375,0.8108382439792156,-0.6819149269461632,0.05480783198378048
1772556501428516900,10.489516845703125,0.6812871504366398,-0.744530957596004,0.06635044967150315
1772556501438500900,10.4995009765625,0.5453852265626192,-0.7730553335517645,0.07741731220679357
1772556501448484900,10.50948486328125,0.4710094922751188,-0.7629343370318412,0.06307407661564647
1772556501458468900,10.51946875,0.36868075217902657,-0.7027619001418351,0.1043119863351807
1772556501468452900,10.529452880859376,0.3764613230526447,-0.6608680472642183,0.13446905979299917
1772556501478436900,10.539436767578126,0.43872459474205966,-0.6312117446690797,0.17834016756033524
1772556501488420900,10.5494208984375,0.4096639199525118,-0.598752659612894,0.24794359114579856
1772556501498404900,10.55940478515625,0.31887305743694305,-0.5711415991097688,0.3291300283614546
1772556501508389000,10.56938916015625,0.09458967027664184,-0.5969046936586498,0.41357521164473143
1772556501518373000,10.579373046875,-0.17879355561733246,-0.6123010002329945,0.4771227144584059
1772556501528357000,10.589357177734374,-0.3810749543279409,-0.6612763358041643,0.4832128845596686
1772556501538341000,10.599341064453125,-0.5640741449415684,-0.7281494393765926,0.45799664677120744
1772556501548323800,10.60932373046875,-0.739782594025135,-0.8196341293752193,0.4239108372960239
1772556501558307800,10.619307861328124,-0.9091735305249691,-0.8950997047260403,0.4041242598734796
1772556501568291800,10.629291748046874,-1.0571271267205475,-0.9515069438636302,0.40129926558062434
1772556501578275800,10.63927587890625,-1.104001690620184,-1.0379249981224536,0.36007965870276093
1772556501588259800,10.649259765625,-1.1363707593053578,-1.076589952081442,0.3051631147806533
1772556501598243800,10.659243896484375,-1.1568623431921004,-1.135689499042928,0.2999856938764453
1772556501608228000,10.66922802734375,-1.1528531075507402,-1.3151833118841052,0.29032234146352853
1772556501618212000,10.679212158203125,-1.0526181248635054,-1.595223365318775,0.34150917907170947
1772556501628196000,10.689196044921875,-1.1444891838312148,-1.6363348356470464,0.5279130270296707
1772556501638180000,10.69918017578125,-1.5312673182368277,-1.4894094134554265,0.7398118931848555
1772556501648164000,10.7091640625,-1.9165408932983874,-1.4475874567702411,0.8313118538178503
1772556501658148000,10.719148193359375,-2.1665058342039583,-1.4077800547778605,0.691941888507083
1772556501668132000,10.729132080078125,-2.4960820719629524,-1.1546958128079772,0.5275781325194985
1772556501678116000,10.7391162109375,-2.866235819303989,-0.6616311405912041,0.45380365206077694
1772556501688099800,10.749099853515625,-3.1838007167518136,-0.08977116407901048,0.3755626571798697
1772556501698083800,10.759083740234376,-3.2722195894390342,0.40576515894830223,0.2170259085790254
1772556501708067800,10.76906787109375,-2.973550531119108,0.7168658288180828,-0.04498193681975826
1772556501718051800,10.7790517578125,-2.226404714849591,0.8608332779869436,-0.26978264411874114
1772556501728035800,10.789035888671876,-1.260290568962693,1.0622627360433339,-0.4360305333524942
1772556501738019800,10.799019775390626,-0.2786667192548513,1.360581373490393,-0.5079458688758314
1772556501748003800,10.80900390625,0.579528319182992,1.6440145764946936,-0.4993086446402594
1772556501757988000,10.818988037109374,1.2065583942532538,1.7821163485005498,-0.5120242972958833
1772556501767972000,10.82897216796875,1.613651586934924,1.7691814636036753,-0.5004209532637148
1772556501777956000,10.8389560546875,1.7321148847520351,1.7042831672355532,-0.4452769389949739
1772556501787940000,10.848940185546875,1.688475649511814,1.678130781108141,-0.4222731896242127
1772556501797924000,10.858924072265625,1.5514157877743244,1.749899840028584,-0.36948951127864416
1772556501807906800,10.86890673828125,1.3881506406784057,1.771291295364499,-0.32211130870580673
1772556501817890800,10.878890869140625,1.2279910583823919,1.6935460846439003,-0.31391068578921255
1772556501827874800,10.888874755859375,1.063750928774476,1.5338970822185276,-0.29544799564788116
1772556501837858800,10.89885888671875,0.9281237301886082,1.2861392959684133,-0.3478923042375594
1772556501847842800,10.9088427734375,0.7522381709724665,1.0704720537230372,-0.41450719526521856
1772556501857827000,10.9188271484375,0.4802040215998888,0.9748980485841632,-0.47480603501386937
1772556501867811000,10.92881103515625,0.14137480232715605,0.9294690073177218,-0.43927605461236086
1772556501877795000,10.938795166015625,-0.23691256710886954,0.8782342023819685,-0.4487652560347691
1772556501887779000,10.948779052734375,-0.5796101522475481,0.7313052730590105,-0.4146118977487087
1772556501897763000,10.95876318359375,-0.7013344976872206,0.6462661059379577,-0.3114530269714072
1772556501907747000,10.9687470703125,-0.6173550687521696,0.6200815711066127,-0.19044570722728968
1772556501917731000,10.97873095703125,-0.29103695600628854,0.5459872841089963,0.054356078761443494
1772556501927715000,10.988715087890625,0.1527618732601404,0.48052638542205095,0.2889709451208822
1772556501937699000,10.998698974609376,0.4064601554751396,0.39579175420552487,0.5082593552717939
1772556501947682800,11.008682861328126,0.5376508329182863,0.31115123101323844,0.763807978061214
1772556501957666800,11.018666748046876,0.5473147333204746,0.19461627091020345,0.9631940937217325
1772556501967650800,11.02865087890625,0.5172866748034953,0.033657939451932906,1.051436148537323
1772556501977634800,11.038634765625,0.4633487483888864,-0.07529255687147378,1.0152071895536035
1772556501987618800,11.048618896484374,0.49460079574286936,-0.15052227763980627,0.8948998713050037
1772556501997602800,11.058602783203124,0.5542869104206561,-0.21572072599828243,0.7271398239426314
1772556502007587000,11.068587158203124,0.6382143169075251,-0.3167982969895005,0.5256764636166393
1772556502017571000,11.078571044921874,0.7343640761077403,-0.4454904356151819,0.3171686281392351
1772556502027555000,11.08855517578125,0.8754787661939859,-0.5670256882235407,0.19296295074522493
1772556502037539000,11.0985390625,1.025650622960925,-0.6806655114069581,0.11166185590764507
1772556502047523000,11.108523193359375,1.0675099890470505,-0.7834194911777973,0.024412547589605673
1772556502057507000,11.118507080078125,1.076371340894699,-0.849597890484333,-0.07064002749104983
1772556502067489800,11.12848974609375,1.1268337001532316,-0.8609095580935477,-0.09492054619882255
1772556502077473800,11.138473876953125,1.1250754583090543,-0.8139864788770675,-0.0674894362393301
1772556502087457800,11.148457763671875,1.0762111818969249,-0.7714443912237882,-0.061121353378985076
1772556502097441800,11.15844189453125,1.0295119745641945,-0.7173126958027481,-0.03804668506332673
1772556502107426000,11.168426025390625,0.9744546887308358,-0.6435846117690205,0.012337740987632424
1772556502117410000,11.17841015625,0.8962292932778596,-0.5611719937592744,0.06207269015391357
1772556502127394000,11.18839404296875,0.8233195398896932,-0.46779579092562196,0.08408216779031791
1772556502137378000,11.1983779296875,0.7737450693815946,-0.37339141408801074,0.10416540833818726
1772556502147362000,11.208362060546875,0.6865916865855455,-0.33956396328806876,0.05871155229089781
1772556502157346000,11.218345947265625,0.49472705247104165,-0.30537936961352824,-0.0431623110440094
1772556502167330000,11.228330078125,0.27458734098672866,-0.2727311917260289,-0.18017876289803533
1772556502177314000,11.23831396484375,0.03899813143610954,-0.19660569116175172,-0.37192141460068523
1772556502187298000,11.248298095703126,-0.20885785449147223,-0.054880175700783726,-0.5921485851727426
1772556502197282000,11.258281982421876,-0.5675298383533954,0.1353743928685784,-0.7833796706240623
1772556502207265800,11.268265869140626,-0.9484446336835622,0.2498039051249623,-0.8814684350628406
1772556502217249800,11.278249755859376,-1.2344015099465846,0.30207156023979187,-0.941864889967069
1772556502227233800,11.28823388671875,-1.3869962099462747,0.2855956417351961,-0.940081440616399
1772556502237217800,11.2982177734375,-1.3323504275232552,0.16289456021785736,-0.842558347236365
1772556502247201800,11.308201904296874,-1.137480181851983,-0.12497399488538503,-0.7962416364151984
1772556502257185800,11.318185791015624,-0.816290664166212,-0.7044049911737441,-0.8748857687368988
1772556502267169500,11.32816943359375,-0.5471417148411274,-1.4460264910638332,-1.094527905962616
1772556502277153500,11.338153564453124,-0.6458657084435224,-1.9511787836983798,-1.1390255846630781
1772556502287137500,11.348137451171874,-1.1704705973058938,-2.3019816416203973,-0.9233845728375017
1772556502297120500,11.35812060546875,-1.8934832583159207,-2.526685884541273,-0.7025139167301356
1772556502307104500,11.3681044921875,-2.5802719287782905,-2.4688839761748906,-0.4973940066579729
1772556502317088500,11.378088623046875,-3.0404584137439725,-2.0296286355569957,-0.2919433667941019
1772556502327072500,11.388072509765625,-3.4561925935208797,-1.3283122580483555,-0.05571406924165785
1772556502337056500,11.398056396484375,-3.7234979608058927,-0.5174734295472503,0.2238568688439205
1772556502347040800,11.408040771484375,-3.5760862164020537,0.3794473531261086,0.4176011061599478
1772556502357024800,11.418024658203125,-2.958233134999871,1.1646733092039823,0.519441880076006
1772556502367008800,11.4280087890625,-1.9266911159127948,1.7200424619033932,0.40681722528450187
1772556502376992800,11.43799267578125,-0.7009194871455431,2.0436445936888457,0.4910603466570377
1772556502386976500,11.4479765625,0.2635819628477096,2.2390265882745384,0.7354152656611055
1772556502396960500,11.45796044921875,0.8387275369018315,2.301915882907808,1.1029781927913427
1772556502406944500,11.467944580078125,1.031433882537484,2.0574813958615064,1.2154541598271578
1772556502416928500,11.477928466796875,0.938409561881423,1.8106871939465403,1.322099813274294
1772556502426912500,11.48791259765625,0.8034124778926373,1.6314973324880002,1.5059972679018974
1772556502436896500,11.497896484375,0.7164964109838008,1.4800132240787147,1.6214172525003552
1772556502446880500,11.507880615234376,0.7507458865880966,1.3512567880451678,1.7116493120893834
1772556502456864500,11.517864501953126,0.8253396475404501,1.2599372254803776,1.8017960314825177
1772556502466848500,11.5278486328125,0.8755477397769689,1.167868305853009,1.7160767731428146
1772556502476832500,11.53783251953125,0.8962889145106077,0.9962421576470136,1.5864919234611092
1772556502486816800,11.547816650390626,0.8420341772317886,0.8512544255197048,1.5064964495956896
1772556502496800800,11.55780078125,0.732445675265789,0.8228545527264476,1.3254983696714042
1772556502506784800,11.56778466796875,0.5887731173902749,0.9283499401599168,1.1318261016130446
1772556502516768800,11.577768798828124,0.432716878759861,1.0933312435239553,0.9404850529812275
1772556502526751500,11.58775146484375,0.24514263531565664,1.2794193400636316,0.6622144934371114
1772556502536735500,11.597735595703124,-0.05395020137429237,1.465266321323812,0.3234714911431074
1772556502546719500,11.607719482421874,-0.4028033865332603,1.5136068661227822,-0.02357500078692101
1772556502556703500,11.617703369140624,-0.689610157623887,1.3855515640959142,-0.3418208388367668
1772556502566687500,11.6276875,-0.8042559429794549,1.1383104951962828,-0.585527157738991
1772556502576671500,11.63767138671875,-0.6474912638187408,0.8081205094531178,-0.7357983466945588
1772556502586655700,11.64765576171875,-0.2811170350164175,0.4741749705687165,-0.786492103556171
1772556502596639700,11.6576396484375,0.12202245160341262,0.19683511600345371,-0.7011430667683481
1772556502606623700,11.667623779296875,0.506475942453742,0.004163257159292698,-0.5314794508069753
1772556502616607700,11.677607666015625,0.827352156406641,-0.11759732863754033,-0.33492242109254
1772556502626591700,11.687591796875,1.0653811603248118,-0.17813070779442786,-0.14723625997276976
1772556502636575700,11.69757568359375,1.2370254287093878,-0.1978825792297721,0.03269775265026838
1772556502646559500,11.7075595703125,1.3190899639338254,-0.20242869822680948,0.2909763666591607
1772556502656543500,11.71754345703125,1.2833897049993275,-0.18880612332671878,0.4836173737073317
1772556502666527500,11.727527587890625,1.208278057652712,-0.15197043062150478,0.573718792654015
1772556502676511500,11.737511474609375,1.171667698135972,-0.16240239278674123,0.5358958059445024
1772556502686495500,11.74749560546875,1.1452514003753662,-0.15125205321907997,0.513380680340901
1772556502696479500,11.7574794921875,1.0556471172958612,-0.1290440208032727,0.48059751442950216
1772556502706463500,11.76746337890625,0.9639888242959975,-0.12691606886386872,0.4109089881101623
1772556502716447500,11.777447509765626,0.9165554574698209,-0.11119301455318926,0.3196948221486062
1772556502726430700,11.7874306640625,0.8537573482513428,-0.0784966136097908,0.1888607761234045
1772556502736414700,11.797414794921876,0.7913263187795877,-0.02563859138637781,0.06641872913474217
1772556502746398700,11.807398681640626,0.8040607126682996,0.004504033420979977,-0.04984945152457803
1772556502756382700,11.8173828125,0.7832447191327809,0.02650076117366552,-0.10498736484609544
1772556502766366500,11.827366455078124,0.6781149501413106,0.002791676545143127,-0.08475107089467346
1772556502776350500,11.8373505859375,0.46255905931591984,-0.06587064853161573,-0.05860533370375633
1772556502786334500,11.84733447265625,0.2014005242228508,-0.15135317550599575,-0.048016002719453534
1772556502796318500,11.857318359375,-0.05302607226669788,-0.23149726406186819,-0.04098146900674328
1772556502806302500,11.867302490234374,-0.2557978848427534,-0.311534385111928,0.01583804300945485
1772556502816286500,11.877286376953125,-0.45972646623849867,-0.3989835359841585,0.08812579889162443
1772556502826270500,11.8872705078125,-0.6400619906008244,-0.5303174212902784,0.179888218986243
1772556502836254700,11.897254638671875,-0.7604787605732679,-0.6708876292362809,0.27670259784134105
1772556502846238700,11.90723876953125,-0.8095166399866343,-0.8057303994461894,0.3077177129006013
1772556502856222700,11.91722265625,-0.8355255259901284,-0.8813269077003002,0.33725722071565684
1772556502866206700,11.927206787109375,-0.7829583034068346,-0.897862447437644,0.3520216591272503
1772556502876190700,11.937190673828125,-0.7017845795422792,-0.9217427969798445,0.306634922632575
1772556502886174700,11.9471748046875,-0.5996645137608051,-0.9522063243046403,0.2828561337687075
1772556502896158700,11.95715869140625,-0.41362990097403524,-1.0655679150685666,0.31898930422775446
1772556502906142500,11.967142578125,-0.21424305466115473,-1.2688552759513259,0.3925910219354555
1772556502916125400,11.97712548828125,-0.23382103083431718,-1.2502417608961462,0.5624793865634128
1772556502926109400,11.987109375,-0.5168535440832376,-1.1762696389734744,0.6073533512303605
1772556502936093700,11.99709375,-0.7757832972109318,-1.2363862540230155,0.5242451521718874
1772556502946077700,12.00707763671875,-0.9794202021837234,-1.2584826427578926,0.4149957824997604
1772556502956061700,12.017061767578125,-1.3216694590330123,-0.9794517663657665,0.2397084449050948
1772556502966045700,12.027045654296876,-1.9552000020384788,-0.3346551484584808,0.023496674853703006
1772556502976029700,12.03702978515625,-2.5823107411295174,0.3049199354082346,-0.16571359969396143
1772556502986013700,12.047013671875,-2.886924971589446,0.6878790960475802,-0.4068490086622536
1772556502995997700,12.056997802734376,-2.818796022737026,0.8992734832793474,-0.8108554873749614
1772556503005981700,12.066981689453126,-2.433842181149125,1.1221601553842424,-1.199551145839691
1772556503015965700,12.076965576171874,-1.9073890340715645,1.2684402654096483,-1.665740232221037
1772556503025949400,12.086949462890624,-1.2146201201558113,1.3400342600241302,-1.9870120213627813
1772556503035933400,12.096933349609374,-0.3566799332618713,1.4571584181919692,-2.053206348890811
1772556503045917400,12.10691748046875,0.463442856413126,1.5563295710399745,-1.959154877144098
1772556503055901400,12.1169013671875,0.9952531466096639,1.6259169020071624,-1.5804475287303328
1772556503065885400,12.126885498046875,1.220939386305213,1.515347280049324,-1.2051830873120575
1772556503075869400,12.136869384765625,1.2597569004774092,1.3356515148952604,-0.9440488098774105
1772556503085853700,12.146853759765625,1.1837106026291846,1.3024442418202757,-0.6338938233599066
1772556503095837700,12.156837646484375,1.0746721357613802,1.2522297198429704,-0.329622999510169
1772556503105821700,12.16682177734375,0.856824919128418,1.1916253212764858,0.0357793703190051
1772556503115804700,12.1768046875,0.5893938796371221,1.1041124575182795,0.3056376917561516
1772556503125788700,12.18678857421875,0.2895703905850649,1.002317678168416,0.47211854949556287
1772556503135772700,12.196772705078125,0.02844634228348732,0.8863368448168039,0.5567266682555899
1772556503145756400,12.20675634765625,-0.21875497912764547,0.8367235036030412,0.5684286138240248
1772556503155740400,12.216740478515625,-0.49042906301617617,0.9269082169190048,0.5263730310460553
1772556503165724400,12.226724365234375,-0.7215268063664436,1.016544064180553,0.46412959656827146
1772556503175708400,12.23670849609375,-0.9029086249113082,1.007530444380641,0.3268004163701087
1772556503185692700,12.246692626953125,-0.8990501959174871,0.9949389660939574,0.19435360138602553
1772556503195676700,12.2566767578125,-0.6766138979285955,1.0539327145934105,0.2280252771023661
1772556503205660700,12.26666064453125,-0.3468044359356165,1.0394967774838209,0.29956498424634337
1772556503215644700,12.276644775390626,-0.03556114272475242,0.9879410700306296,0.47655474184472113
1772556503225628700,12.286628662109376,0.15578852760493755,0.8995955548405646,0.6545948122136295
1772556503235616500,12.296616455078125,0.19369360310733316,0.7724445081770419,0.7796483751412481
1772556503245600500,12.3066005859375,0.16562544648647307,0.6887406813129783,0.8598875215694308
1772556503255584500,12.31658447265625,0.11194237161576748,0.6673384123221039,0.9111025988914072
1772556503265568500,12.326568603515625,0.05731821650266647,0.6635474956065416,0.9353630337923765
1772556503275552500,12.336552490234375,-0.0037350948750972746,0.6200152278721333,0.8967230681441724
1772556503285535500,12.346535400390625,-0.037601124119758605,0.5463768679484725,0.7811830373626202
1772556503295519200,12.356519287109375,0.044237201133370395,0.4851920391455292,0.5971353240767493
1772556503305503500,12.36650341796875,0.20057868644595145,0.44419805771708487,0.36821043125353753
1772556503315487500,12.376487548828125,0.38911213031113145,0.38086920262277124,0.12290367315104231
1772556503325471500,12.386471435546875,0.5286684850394725,0.3151043525531888,-0.04418976352876052
1772556503335455500,12.39645556640625,0.5903267765730619,0.23817630343437193,-0.19609235307844355
1772556503345439500,12.406439453125,0.5894710365265607,0.1825447248443961,-0.3750970489621162
1772556503355423500,12.416423583984376,0.5590507638216018,0.13950287097543476,-0.5855252215102315
1772556503365407500,12.426407470703126,0.5212906497478484,0.07944733846336603,-0.751336911283806
1772556503375391500,12.4363916015625,0.42234336878359313,0.020829437538981435,-0.8653555046517402
1772556503385375500,12.44637548828125,0.2532534610569477,-0.06838087778687477,-0.9231585820619016
1772556503395359500,12.456359375,0.10667933652102947,-0.16115911472737787,-0.9921648252055049
1772556503405343500,12.466343505859374,-0.10171031593680381,-0.20091537105441093,-1.0533206471096723
1772556503415327500,12.476327392578124,-0.4474573517739773,-0.1865095368221402,-1.1312590423148126
1772556503425311500,12.4863115234375,-0.8343424536854028,-0.0895484612390399,-1.1969416939936577
1772556503435295500,12.49629541015625,-1.2093980015933512,0.06430062273591756,-1.1752029595900326
1772556503445279200,12.506279296875,-1.5561936697006225,0.23400720105618236,-1.1397763299651442
1772556503455263500,12.516263427734375,-1.8539789309233425,0.3547746841624379,-1.083688824301213
1772556503465246500,12.52624658203125,-1.9677648845791815,0.4550964683502912,-1.052075688549876
1772556503475230500,12.53623046875,-1.929184686294198,0.5272480968475342,-1.100897879385948
1772556503485214500,12.54621435546875,-1.7404875762999057,0.5194423915326595,-1.1594348970938473
1772556503495198500,12.556198486328125,-1.4073814108490943,0.40905017196834087,-1.1505149469267577
