time,seconds_elapsed,z,y,x
1772556491005307400,0.066307373046875,-0.969757080078125,-0.5537567138671875,-0.08966064453125
1772556491015291400,0.07629150390625,-1.00238037109375,-0.581756591796875,-0.110137939453125
1772556491025275400,0.086275390625,-1.0516815185546875,-0.58905029296875,-0.1142578125
1772556491035259400,0.09625927734375,-1.1128997802734375,-0.5559539794921875,-0.110107421875
1772556491045243400,0.106243408203125,-1.191558837890625,-0.4909210205078125,-0.0955352783203125
1772556491055226400,0.116226318359375,-1.25714111328125,-0.403961181640625,-0.080474853515625
1772556491065210400,0.12621044921875,-1.295562744140625,-0.315826416015625,-0.07086181640625
1772556491075194400,0.1361943359375,-1.28741455078125,-0.240997314453125,-0.0650634765625
1772556491085178400,0.146178466796875,-1.219329833984375,-0.1759796142578125,-0.0663909912109375
1772556491095162400,0.156162353515625,-1.1018524169921875,-0.1235198974609375,-0.0678253173828125
1772556491105146400,0.166146484375,-0.974273681640625,-0.094635009765625,-0.06414794921875
1772556491115130400,0.17613037109375,-0.85955810546875,-0.091278076171875,-0.04931640625
1772556491125113600,0.186113525390625,-0.806915283203125,-0.1092987060546875,-0.016998291015625
1772556491135097300,0.196097412109375,-0.8143768310546875,-0.147186279296875,0.014617919921875
1772556491145081300,0.206081298828125,-0.8326263427734375,-0.1912078857421875,0.03143310546875
1772556491155065300,0.2160654296875,-0.84600830078125,-0.2301788330078125,0.0447540283203125
1772556491165049300,0.22604931640625,-0.8491058349609375,-0.2588348388671875,0.0539093017578125
1772556491175033300,0.236033447265625,-0.8363494873046875,-0.2936859130859375,0.0546722412109375
1772556491185016300,0.246016357421875,-0.8232574462890625,-0.336517333984375,0.0505523681640625
1772556491195000300,0.256000244140625,-0.827392578125,-0.367340087890625,0.0514984130859375
1772556491204984300,0.265984375,-0.8404693603515625,-0.373077392578125,0.0485992431640625
1772556491214968300,0.27596826171875,-0.8654327392578125,-0.3598480224609375,0.0273895263671875
1772556491224952600,0.28595263671875,-0.8893585205078125,-0.32757568359375,0.014862060546875
1772556491234936800,0.295936767578125,-0.9040679931640625,-0.296600341796875,0.0030364990234375
1772556491244919600,0.30591943359375,-0.9103851318359375,-0.2747344970703125,-0.0216522216796875
1772556491254903600,0.315903564453125,-0.910980224609375,-0.260162353515625,-0.0461883544921875
1772556491264887600,0.325887451171875,-0.9081878662109375,-0.2523040771484375,-0.073516845703125
1772556491274871600,0.33587158203125,-0.897125244140625,-0.25201416015625,-0.0965423583984375
1772556491284855600,0.34585546875,-0.8767242431640625,-0.265960693359375,-0.1071014404296875
1772556491294839600,0.355839599609375,-0.8648681640625,-0.2909698486328125,-0.108917236328125
1772556491304823600,0.365823486328125,-0.862518310546875,-0.3195648193359375,-0.1056671142578125
1772556491314806800,0.375806884765625,-0.859375,-0.3491058349609375,-0.09100341796875
1772556491324790800,0.385790771484375,-0.8547210693359375,-0.3845062255859375,-0.078887939453125
1772556491334774800,0.39577490234375,-0.8490753173828125,-0.418487548828125,-0.06488037109375
1772556491344758800,0.4057587890625,-0.844451904296875,-0.4442596435546875,-0.0469207763671875
1772556491354742500,0.415742431640625,-0.842315673828125,-0.4586181640625,-0.0270233154296875
1772556491364726500,0.4257265625,-0.844940185546875,-0.471405029296875,-0.0042266845703125
1772556491374710500,0.43571044921875,-0.8550872802734375,-0.471832275390625,0.015411376953125
1772556491384693500,0.445693603515625,-0.87109375,-0.4640960693359375,0.0352935791015625
1772556491394677800,0.455677734375,-0.8897705078125,-0.4622650146484375,0.03662109375
1772556491404661800,0.465661865234375,-0.8953704833984375,-0.462249755859375,0.0330963134765625
1772556491414645800,0.475645751953125,-0.8934478759765625,-0.4616241455078125,0.023834228515625
1772556491424629800,0.485629638671875,-0.88665771484375,-0.456024169921875,0.00531005859375
1772556491434613800,0.49561376953125,-0.8760528564453125,-0.4422760009765625,-0.0142974853515625
1772556491444596500,0.505596435546875,-0.8639678955078125,-0.4264373779296875,-0.034759521484375
1772556491454580500,0.51558056640625,-0.84637451171875,-0.4173126220703125,-0.0506439208984375
1772556491464564500,0.525564453125,-0.82537841796875,-0.414215087890625,-0.0625762939453125
1772556491474548500,0.535548583984375,-0.8176116943359375,-0.412841796875,-0.0633697509765625
1772556491484532500,0.545532470703125,-0.8203125,-0.4208221435546875,-0.063385009765625
1772556491494516700,0.555516845703125,-0.8287811279296875,-0.430694580078125,-0.061126708984375
1772556491504500700,0.565500732421875,-0.8444366455078125,-0.4425811767578125,-0.0604400634765625
1772556491514483700,0.575483642578125,-0.862518310546875,-0.4504547119140625,-0.0658111572265625
1772556491524467700,0.5854677734375,-0.88287353515625,-0.4536895751953125,-0.0687408447265625
1772556491534451700,0.59545166015625,-0.9055328369140625,-0.455718994140625,-0.0695037841796875
1772556491544435700,0.605435791015625,-0.9295654296875,-0.4542083740234375,-0.076263427734375
1772556491554419500,0.61541943359375,-0.9480438232421875,-0.4506988525390625,-0.086151123046875
1772556491564403500,0.625403564453125,-0.95086669921875,-0.4441375732421875,-0.0868682861328125
1772556491574386700,0.63538671875,-0.95501708984375,-0.4405975341796875,-0.0818939208984375
1772556491584370700,0.64537060546875,-0.9572296142578125,-0.437713623046875,-0.07806396484375
1772556491594354700,0.655354736328125,-0.94586181640625,-0.455841064453125,-0.072357177734375
1772556491604338700,0.665338623046875,-0.918914794921875,-0.5115203857421875,-0.057220458984375
1772556491614322700,0.67532275390625,-0.921661376953125,-0.5423431396484375,-0.0176544189453125
1772556491624306700,0.685306640625,-0.96429443359375,-0.531158447265625,0.0214996337890625
1772556491634290700,0.695290771484375,-0.989410400390625,-0.545257568359375,0.0222015380859375
1772556491644273400,0.7052734375,-0.9956512451171875,-0.5739593505859375,0.016693115234375
1772556491654257400,0.71525732421875,-1.0154266357421875,-0.5730743408203125,0.014556884765625
1772556491664241700,0.72524169921875,-1.0790863037109375,-0.5282440185546875,0.007659912109375
1772556491674225700,0.7352255859375,-1.14813232421875,-0.464080810546875,-0.004638671875
1772556491684209700,0.745209716796875,-1.2038726806640625,-0.4092864990234375,-0.0234375
1772556491694193700,0.755193603515625,-1.2309112548828125,-0.3786773681640625,-0.0600128173828125
1772556491704177700,0.765177734375,-1.219207763671875,-0.360015869140625,-0.094573974609375
1772556491714160600,0.77516064453125,-1.18218994140625,-0.3375701904296875,-0.11102294921875
1772556491724144600,0.78514453125,-1.1274261474609375,-0.3103790283203125,-0.11468505859375
1772556491734128600,0.795128662109375,-1.056915283203125,-0.2841644287109375,-0.11712646484375
1772556491744112600,0.805112548828125,-0.9760284423828125,-0.270294189453125,-0.1193389892578125
1772556491754096600,0.8150966796875,-0.8919219970703125,-0.266265869140625,-0.119171142578125
1772556491764080600,0.82508056640625,-0.8278961181640625,-0.272125244140625,-0.12261962890625
1772556491774064600,0.835064697265625,-0.808074951171875,-0.278289794921875,-0.119232177734375
1772556491784047600,0.845047607421875,-0.811309814453125,-0.2855072021484375,-0.1075897216796875
1772556491794031600,0.855031494140625,-0.8222808837890625,-0.30279541015625,-0.098388671875
1772556491804015600,0.865015625,-0.82342529296875,-0.3280792236328125,-0.092926025390625
1772556491813999600,0.87499951171875,-0.8256988525390625,-0.3454742431640625,-0.08978271484375
1772556491823983600,0.884983642578125,-0.82537841796875,-0.3562774658203125,-0.093475341796875
1772556491833967600,0.894967529296875,-0.8263397216796875,-0.362884521484375,-0.1023712158203125
1772556491843951600,0.90495166015625,-0.840545654296875,-0.365234375,-0.1059722900390625
1772556491853934600,0.9149345703125,-0.87005615234375,-0.3629913330078125,-0.1031036376953125
1772556491863918600,0.924918701171875,-0.9045562744140625,-0.3612518310546875,-0.0960540771484375
1772556491873902600,0.934902587890625,-0.9270477294921875,-0.35858154296875,-0.089630126953125
1772556491883886600,0.944886474609375,-0.9399566650390625,-0.35833740234375,-0.084930419921875
1772556491893870600,0.95487060546875,-0.9351043701171875,-0.362548828125,-0.07586669921875
1772556491903854600,0.9648544921875,-0.9116973876953125,-0.368804931640625,-0.0633544921875
1772556491913838600,0.974838623046875,-0.8832244873046875,-0.375335693359375,-0.04986572265625
1772556491923821600,0.984821533203125,-0.85845947265625,-0.386383056640625,-0.0424652099609375
1772556491933805800,0.994805908203125,-0.84027099609375,-0.396270751953125,-0.041656494140625
1772556491943789800,1.004789794921875,-0.8249053955078125,-0.4047698974609375,-0.0401153564453125
1772556491953773800,1.01477392578125,-0.8126220703125,-0.41607666015625,-0.0368804931640625
1772556491963757600,1.024757568359375,-0.8028564453125,-0.429168701171875,-0.0338897705078125
1772556491973741600,1.034741455078125,-0.797637939453125,-0.44110107421875,-0.0309295654296875
1772556491983725600,1.0447255859375,-0.7890625,-0.4500579833984375,-0.0331268310546875
1772556491993708500,1.05470849609375,-0.7840423583984375,-0.452606201171875,-0.0402679443359375
1772556492003692500,1.064692626953125,-0.7782440185546875,-0.4546051025390625,-0.0549468994140625
1772556492013676500,1.074676513671875,-0.7763519287109375,-0.459075927734375,-0.0618743896484375
1772556492023660500,1.08466064453125,-0.7721405029296875,-0.467529296875,-0.0625
1772556492033644800,1.094644775390625,-0.77142333984375,-0.4792327880859375,-0.0589752197265625
1772556492043628800,1.10462890625,-0.779022216796875,-0.4872283935546875,-0.0603179931640625
1772556492053612800,1.11461279296875,-0.7812652587890625,-0.4927825927734375,-0.06756591796875
1772556492063595500,1.124595458984375,-0.7846832275390625,-0.4932098388671875,-0.0708160400390625
1772556492073579500,1.13457958984375,-0.8100128173828125,-0.48260498046875,-0.0630340576171875
1772556492083563500,1.1445634765625,-0.841339111328125,-0.478851318359375,-0.0475311279296875
1772556492093547500,1.154547607421875,-0.8541717529296875,-0.48846435546875,-0.0365447998046875
1772556492103531500,1.164531494140625,-0.8617401123046875,-0.4973297119140625,-0.0259246826171875
1772556492113515500,1.174515625,-0.8601531982421875,-0.49688720703125,-0.015106201171875
1772556492123499500,1.18449951171875,-0.8616790771484375,-0.4979095458984375,-0.0052642822265625
1772556492133483800,1.19448388671875,-0.86236572265625,-0.499603271484375,0.009002685546875
1772556492143466800,1.204466796875,-0.8663177490234375,-0.4999847412109375,0.014862060546875
1772556492153450800,1.21445068359375,-0.8676300048828125,-0.5012969970703125,0.0041961669921875
1772556492163434800,1.224434814453125,-0.877655029296875,-0.4972991943359375,-0.010894775390625
1772556492173418500,1.23441845703125,-0.8983917236328125,-0.4921112060546875,-0.0242767333984375
1772556492183402500,1.244402587890625,-0.9208526611328125,-0.48565673828125,-0.0414886474609375
1772556492193386500,1.254386474609375,-0.947509765625,-0.468475341796875,-0.0623321533203125
1772556492203370500,1.26437060546875,-0.972076416015625,-0.447540283203125,-0.084136962890625
1772556492213353700,1.274353759765625,-0.996490478515625,-0.4259033203125,-0.093963623046875
1772556492223337700,1.284337646484375,-1.0017242431640625,-0.4159698486328125,-0.099365234375
1772556492233321700,1.29432177734375,-0.980194091796875,-0.4194183349609375,-0.103363037109375
1772556492243305700,1.3043056640625,-0.951934814453125,-0.4470367431640625,-0.1053466796875
1772556492253289700,1.314289794921875,-0.9190216064453125,-0.5129241943359375,-0.116546630859375
1772556492263273700,1.324273681640625,-0.9026947021484375,-0.5883636474609375,-0.1243133544921875
1772556492273257700,1.3342578125,-0.926849365234375,-0.6174468994140625,-0.1157379150390625
1772556492283240700,1.34424072265625,-0.9631195068359375,-0.64990234375,-0.1113739013671875
1772556492293224700,1.354224609375,-1.0196380615234375,-0.674041748046875,-0.0992279052734375
1772556492303208700,1.364208740234375,-1.090789794921875,-0.6560516357421875,-0.080535888671875
1772556492313193000,1.37419287109375,-1.155609130859375,-0.60565185546875,-0.0768890380859375
1772556492323177000,1.384177001953125,-1.2108917236328125,-0.533538818359375,-0.068939208984375
1772556492333160700,1.39416064453125,-1.2383880615234375,-0.4505615234375,-0.050201416015625
1772556492343144700,1.404144775390625,-1.2199859619140625,-0.3738555908203125,-0.0458984375
1772556492353128700,1.414128662109375,-1.1488037109375,-0.3074188232421875,-0.0531158447265625
1772556492363111700,1.424111572265625,-1.0505523681640625,-0.2554779052734375,-0.0551300048828125
1772556492373095700,1.434095703125,-0.9643707275390625,-0.2322998046875,-0.0476226806640625
1772556492383079700,1.44407958984375,-0.8850250244140625,-0.2291107177734375,-0.0287628173828125
1772556492393063700,1.454063720703125,-0.8151397705078125,-0.2357177734375,-0.004486083984375
1772556492403047700,1.464047607421875,-0.8004150390625,-0.24774169921875,0.0066375732421875
1772556492413032000,1.474031982421875,-0.8140106201171875,-0.2679443359375,0.0067901611328125
1772556492423016000,1.484015869140625,-0.8212432861328125,-0.2890625,0.009185791015625
1772556492433000000,1.494,-0.8242340087890625,-0.3054962158203125,0.014892578125
1772556492442982700,1.503982666015625,-0.82769775390625,-0.3257598876953125,0.0258331298828125
1772556492452966700,1.513966552734375,-0.8219146728515625,-0.35321044921875,0.03411865234375
1772556492462950700,1.52395068359375,-0.8207855224609375,-0.3754730224609375,0.04266357421875
1772556492472934700,1.5339345703125,-0.8301849365234375,-0.392120361328125,0.0504302978515625
1772556492482918700,1.543918701171875,-0.837677001953125,-0.3972320556640625,0.0522003173828125
1772556492492902700,1.553902587890625,-0.84765625,-0.3834381103515625,0.04864501953125
1772556492502886700,1.56388671875,-0.868133544921875,-0.3595428466796875,0.0429229736328125
1772556492512870000,1.573869873046875,-0.895294189453125,-0.3319091796875,0.0294647216796875
1772556492522854000,1.58385400390625,-0.9094696044921875,-0.3042144775390625,0.0119171142578125
1772556492532838000,1.593837890625,-0.9188690185546875,-0.2810821533203125,-0.0106353759765625
1772556492542821600,1.603821533203125,-0.9207000732421875,-0.274627685546875,-0.0330810546875
1772556492552805600,1.6138056640625,-0.89776611328125,-0.278717041015625,-0.0493316650390625
1772556492562789600,1.62378955078125,-0.8836212158203125,-0.295867919921875,-0.062744140625
1772556492572773600,1.633773681640625,-0.8594970703125,-0.3237762451171875,-0.0740203857421875
1772556492582757600,1.643757568359375,-0.8386688232421875,-0.35089111328125,-0.0768890380859375
1772556492592740900,1.653740966796875,-0.8297882080078125,-0.3858795166015625,-0.0739898681640625
1772556492602724900,1.663724853515625,-0.8271942138671875,-0.428619384765625,-0.071319580078125
1772556492612708900,1.673708984375,-0.833160400390625,-0.4666595458984375,-0.059722900390625
1772556492622692900,1.68369287109375,-0.8379364013671875,-0.491485595703125,-0.0381622314453125
1772556492632676900,1.6936767578125,-0.82891845703125,-0.4995880126953125,-0.02435302734375
1772556492642660900,1.703660888671875,-0.826141357421875,-0.5011749267578125,-0.016387939453125
1772556492652644900,1.713644775390625,-0.8346099853515625,-0.50347900390625,-0.0072784423828125
1772556492662628600,1.723628662109375,-0.849761962890625,-0.5092620849609375,0.0046844482421875
1772556492672611800,1.73361181640625,-0.868438720703125,-0.5060577392578125,0.014190673828125
1772556492682595800,1.743595947265625,-0.871002197265625,-0.489501953125,0.01171875
1772556492692579800,1.753579833984375,-0.8553009033203125,-0.4598541259765625,-0.0022735595703125
1772556492702563800,1.763563720703125,-0.85870361328125,-0.444580078125,-0.0211029052734375
1772556492712547800,1.7735478515625,-0.8690643310546875,-0.442169189453125,-0.0369110107421875
1772556492722531800,1.78353173828125,-0.8776092529296875,-0.4363861083984375,-0.05035400390625
1772556492732515800,1.793515869140625,-0.87548828125,-0.4219970703125,-0.061614990234375
1772556492742499800,1.803499755859375,-0.8538055419921875,-0.413055419921875,-0.073272705078125
1772556492752482600,1.813482666015625,-0.8273468017578125,-0.409393310546875,-0.082000732421875
1772556492762466600,1.823466552734375,-0.81793212890625,-0.40679931640625,-0.08526611328125
1772556492772450600,1.833450439453125,-0.826141357421875,-0.4084320068359375,-0.081878662109375
1772556492782434800,1.843434814453125,-0.8408660888671875,-0.4167633056640625,-0.073394775390625
1772556492792418800,1.853418701171875,-0.8681182861328125,-0.4275970458984375,-0.0625
1772556492802402800,1.86340283203125,-0.8987579345703125,-0.4312286376953125,-0.05126953125
1772556492812386800,1.87338671875,-0.92498779296875,-0.4325408935546875,-0.04827880859375
1772556492822370800,1.883370849609375,-0.9412689208984375,-0.4352569580078125,-0.0498504638671875
1772556492832353800,1.893353759765625,-0.9490966796875,-0.437774658203125,-0.053802490234375
1772556492842337800,1.903337890625,-0.957489013671875,-0.4328155517578125,-0.0602264404296875
1772556492852321800,1.91332177734375,-0.9640655517578125,-0.424530029296875,-0.0657501220703125
1772556492862305500,1.923305419921875,-0.963897705078125,-0.4292144775390625,-0.0672454833984375
1772556492872289500,1.93328955078125,-0.9522857666015625,-0.4704742431640625,-0.0576629638671875
1772556492882273800,1.943273681640625,-0.9437103271484375,-0.52252197265625,-0.0302734375
1772556492892257800,1.9532578125,-0.97393798828125,-0.5250244140625,0.000762939453125
1772556492902241800,1.96324169921875,-1.009185791015625,-0.514068603515625,0.0156097412109375
1772556492912224800,1.973224853515625,-1.0321502685546875,-0.5220947265625,0.0084991455078125
1772556492922208800,1.983208740234375,-1.0599517822265625,-0.516937255859375,-0.0088043212890625
1772556492932192800,1.99319287109375,-1.0856781005859375,-0.4990234375,-0.02691650390625
1772556492942176800,2.0031767578125,-1.1327362060546875,-0.4559783935546875,-0.0328216552734375
1772556492952160800,2.013160888671875,-1.1813507080078125,-0.4044952392578125,-0.0393524169921875
1772556492962144800,2.023144775390625,-1.201263427734375,-0.37347412109375,-0.059539794921875
1772556492972128800,2.033128662109375,-1.193389892578125,-0.3589019775390625,-0.0828399658203125
1772556492982112800,2.04311279296875,-1.1710205078125,-0.3396453857421875,-0.0960845947265625
1772556492992095700,2.053095703125,-1.1330718994140625,-0.31329345703125,-0.10186767578125
1772556493002079700,2.063079833984375,-1.077239990234375,-0.2903289794921875,-0.1102142333984375
1772556493012063700,2.073063720703125,-1.009918212890625,-0.2780609130859375,-0.117218017578125
1772556493022047700,2.0830478515625,-0.9396820068359375,-0.28045654296875,-0.12652587890625
1772556493032031700,2.09303173828125,-0.891082763671875,-0.279998779296875,-0.127899169921875
1772556493042015700,2.103015625,-0.873321533203125,-0.2807159423828125,-0.128173828125
1772556493051999700,2.112999755859375,-0.8768310546875,-0.2916259765625,-0.12774658203125
1772556493061983700,2.122983642578125,-0.88134765625,-0.3128509521484375,-0.132171630859375
1772556493071966700,2.132966796875,-0.872039794921875,-0.3276519775390625,-0.1372833251953125
1772556493081950700,2.14295068359375,-0.8632659912109375,-0.3357086181640625,-0.148468017578125
1772556493091934700,2.152934814453125,-0.85125732421875,-0.34881591796875,-0.1636199951171875
1772556493101918700,2.162918701171875,-0.8426971435546875,-0.3621368408203125,-0.1686553955078125
1772556493111902700,2.17290283203125,-0.85662841796875,-0.375762939453125,-0.1696624755859375
1772556493121886700,2.18288671875,-0.886505126953125,-0.385833740234375,-0.1634979248046875
1772556493131870700,2.19287060546875,-0.918182373046875,-0.3941650390625,-0.1508331298828125
1772556493141854700,2.202854736328125,-0.943084716796875,-0.4028778076171875,-0.138427734375
1772556493151838700,2.212838623046875,-0.9492034912109375,-0.41278076171875,-0.1291046142578125
1772556493161822000,2.222822021484375,-0.92974853515625,-0.4204559326171875,-0.1220550537109375
1772556493171806000,2.232805908203125,-0.889068603515625,-0.41827392578125,-0.110382080078125
1772556493181790000,2.2427900390625,-0.8436279296875,-0.4208221435546875,-0.097808837890625
1772556493191773700,2.252773681640625,-0.8011932373046875,-0.4235076904296875,-0.0848541259765625
1772556493201757700,2.2627578125,-0.7712249755859375,-0.4219970703125,-0.073150634765625
1772556493211741700,2.27274169921875,-0.752685546875,-0.423675537109375,-0.065765380859375
1772556493221725700,2.2827255859375,-0.745849609375,-0.431304931640625,-0.0587921142578125
1772556493231705300,2.292705322265625,-0.7426910400390625,-0.4364166259765625,-0.049346923828125
1772556493241689300,2.302689453125,-0.7415618896484375,-0.4386749267578125,-0.0411834716796875
1772556493251672300,2.31267236328125,-0.74090576171875,-0.4404296875,-0.035888671875
1772556493261656300,2.32265625,-0.7447357177734375,-0.4463043212890625,-0.03509521484375
1772556493271640300,2.332640380859375,-0.753082275390625,-0.45758056640625,-0.0361785888671875
1772556493281624300,2.342624267578125,-0.753662109375,-0.4641876220703125,-0.0371551513671875
1772556493291608300,2.3526083984375,-0.7458953857421875,-0.4702911376953125,-0.0459442138671875
1772556493301592300,2.36259228515625,-0.74163818359375,-0.47686767578125,-0.060028076171875
1772556493311576300,2.372576416015625,-0.7442474365234375,-0.48028564453125,-0.0708465576171875
1772556493321560300,2.382560302734375,-0.7528228759765625,-0.48785400390625,-0.080657958984375
1772556493331544300,2.39254443359375,-0.7618865966796875,-0.490478515625,-0.0848388671875
1772556493341527300,2.40252734375,-0.7714385986328125,-0.49505615234375,-0.0872955322265625
1772556493351511300,2.41251123046875,-0.7807464599609375,-0.5015716552734375,-0.08538818359375
1772556493361495300,2.422495361328125,-0.789093017578125,-0.50421142578125,-0.0743255615234375
1772556493371479300,2.432479248046875,-0.8047332763671875,-0.505279541015625,-0.0631561279296875
1772556493381463300,2.44246337890625,-0.8150787353515625,-0.511383056640625,-0.0557861328125
1772556493391447300,2.452447265625,-0.8241119384765625,-0.5198822021484375,-0.0491790771484375
1772556493401431300,2.462431396484375,-0.8423309326171875,-0.5221710205078125,-0.0459136962890625
1772556493411415300,2.472415283203125,-0.8594512939453125,-0.5246429443359375,-0.0511016845703125
1772556493421398500,2.4823984375,-0.88348388671875,-0.52301025390625,-0.059539794921875
1772556493431382500,2.492382568359375,-0.91839599609375,-0.5067901611328125,-0.0676422119140625
1772556493441366500,2.502366455078125,-0.965972900390625,-0.4849853515625,-0.0736846923828125
1772556493451350500,2.5123505859375,-1.02056884765625,-0.45843505859375,-0.078216552734375
1772556493461334300,2.522334228515625,-1.064361572265625,-0.430816650390625,-0.07843017578125
1772556493471318300,2.532318359375,-1.08001708984375,-0.4075775146484375,-0.07550048828125
1772556493481302300,2.54230224609375,-1.0741729736328125,-0.3935699462890625,-0.070831298828125
1772556493491286300,2.552286376953125,-1.0491943359375,-0.3934783935546875,-0.064971923828125
1772556493501270300,2.562270263671875,-1.004913330078125,-0.4166412353515625,-0.069549560546875
1772556493511253200,2.572253173828125,-0.950927734375,-0.4853668212890625,-0.0853118896484375
1772556493521237200,2.5822373046875,-0.9356689453125,-0.555694580078125,-0.0933685302734375
1772556493531221500,2.592221435546875,-0.9682464599609375,-0.581756591796875,-0.10003662109375
1772556493541205500,2.60220556640625,-0.99627685546875,-0.615386962890625,-0.11572265625
1772556493551189500,2.612189453125,-1.0389251708984375,-0.637786865234375,-0.120025634765625
1772556493561173500,2.622173583984375,-1.100677490234375,-0.6202850341796875,-0.1146697998046875
1772556493571157500,2.632157470703125,-1.1445770263671875,-0.58349609375,-0.1178741455078125
1772556493581141200,2.642141357421875,-1.1685333251953125,-0.5294036865234375,-0.1111297607421875
1772556493591125200,2.652125244140625,-1.176361083984375,-0.4579620361328125,-0.089752197265625
1772556493601109200,2.662109130859375,-1.162017822265625,-0.3839569091796875,-0.076568603515625
1772556493611092200,2.67209228515625,-1.1202392578125,-0.316986083984375,-0.078033447265625
1772556493621076200,2.682076171875,-1.06158447265625,-0.265106201171875,-0.076080322265625
1772556493631060500,2.692060546875,-1.00537109375,-0.23162841796875,-0.0739898681640625
1772556493641044500,2.70204443359375,-0.925689697265625,-0.2128753662109375,-0.0633392333984375
1772556493651028500,2.712028564453125,-0.854156494140625,-0.1982879638671875,-0.0445556640625
1772556493661012500,2.722012451171875,-0.8100433349609375,-0.194244384765625,-0.032928466796875
1772556493670996500,2.73199658203125,-0.80096435546875,-0.2135009765625,-0.0272369384765625
1772556493680980500,2.74198046875,-0.812225341796875,-0.24365234375,-0.019561767578125
1772556493690964200,2.751964111328125,-0.8238677978515625,-0.2744903564453125,-0.012451171875
1772556493700947200,2.761947265625,-0.8293304443359375,-0.301788330078125,-0.0029449462890625
1772556493710931200,2.77193115234375,-0.817169189453125,-0.32708740234375,0.0059356689453125
1772556493720915200,2.781915283203125,-0.807830810546875,-0.3481597900390625,0.0101165771484375
1772556493730899500,2.7918994140625,-0.802093505859375,-0.3600616455078125,0.010467529296875
1772556493740883500,2.801883544921875,-0.8138580322265625,-0.3624725341796875,0.0146484375
1772556493750867500,2.811867431640625,-0.8367462158203125,-0.3600311279296875,0.0135498046875
1772556493760851500,2.8218515625,-0.857421875,-0.3460540771484375,0.0029449462890625
1772556493770835500,2.83183544921875,-0.8719482421875,-0.3261260986328125,-0.01251220703125
1772556493780819500,2.8418193359375,-0.883270263671875,-0.298492431640625,-0.0251312255859375
1772556493790803500,2.851803466796875,-0.8889617919921875,-0.278472900390625,-0.04852294921875
1772556493800786200,2.8617861328125,-0.8799896240234375,-0.2664337158203125,-0.079010009765625
1772556493810770200,2.871770263671875,-0.864471435546875,-0.260589599609375,-0.1049346923828125
1772556493820754200,2.881754150390625,-0.8443756103515625,-0.2687835693359375,-0.12481689453125
1772556493830738400,2.891738525390625,-0.8305816650390625,-0.290985107421875,-0.1363067626953125
1772556493840722400,2.901722412109375,-0.8279266357421875,-0.32098388671875,-0.1377716064453125
1772556493850706400,2.91170654296875,-0.8294830322265625,-0.3544769287109375,-0.1320953369140625
1772556493860690400,2.9216904296875,-0.834869384765625,-0.3939971923828125,-0.1261749267578125
1772556493870674400,2.93167431640625,-0.845458984375,-0.430389404296875,-0.1154022216796875
1772556493880658400,2.941658447265625,-0.853546142578125,-0.459320068359375,-0.0976715087890625
1772556493890641400,2.951641357421875,-0.8582611083984375,-0.479400634765625,-0.0745391845703125
1772556493900625200,2.961625244140625,-0.866363525390625,-0.486724853515625,-0.0510101318359375
1772556493910609200,2.971609130859375,-0.8693389892578125,-0.486663818359375,-0.026885986328125
1772556493920593200,2.98159326171875,-0.8710174560546875,-0.4781341552734375,-0.013092041015625
1772556493930577200,2.9915771484375,-0.8816986083984375,-0.464996337890625,-0.0036163330078125
1772556493940561400,3.0015615234375,-0.887237548828125,-0.4508056640625,-0.0015716552734375
1772556493950545400,3.01154541015625,-0.88409423828125,-0.4376983642578125,-0.0067291259765625
1772556493960529400,3.021529296875,-0.880523681640625,-0.4218902587890625,-0.0190887451171875
1772556493970513400,3.031513427734375,-0.8842315673828125,-0.4124298095703125,-0.0380706787109375
1772556493980497400,3.041497314453125,-0.8864593505859375,-0.399993896484375,-0.0541229248046875
1772556493990480400,3.05148046875,-0.879364013671875,-0.387969970703125,-0.0661773681640625
1772556494000464400,3.06146435546875,-0.862945556640625,-0.3826446533203125,-0.0789337158203125
1772556494010448400,3.071448486328125,-0.8499298095703125,-0.380828857421875,-0.088165283203125
1772556494020432100,3.08143212890625,-0.848968505859375,-0.38519287109375,-0.092498779296875
1772556494030416100,3.091416015625,-0.858001708984375,-0.3917694091796875,-0.099884033203125
1772556494040400400,3.101400390625,-0.876312255859375,-0.399658203125,-0.104278564453125
1772556494050384400,3.11138427734375,-0.8969573974609375,-0.412109375,-0.1070709228515625
1772556494060368400,3.121368408203125,-0.918792724609375,-0.4180450439453125,-0.1058502197265625
1772556494070352400,3.131352294921875,-0.9330596923828125,-0.422210693359375,-0.1078338623046875
1772556494080336400,3.14133642578125,-0.9449920654296875,-0.425750732421875,-0.1144561767578125
1772556494090319400,3.1513193359375,-0.9522247314453125,-0.430084228515625,-0.1158447265625
1772556494100303400,3.161303466796875,-0.9630889892578125,-0.433441162109375,-0.109588623046875
1772556494110287400,3.171287353515625,-0.9769744873046875,-0.43560791015625,-0.0970458984375
1772556494120271400,3.181271240234375,-0.987884521484375,-0.4408111572265625,-0.083526611328125
1772556494130255000,3.191255126953125,-0.998565673828125,-0.44525146484375,-0.06488037109375
1772556494140239400,3.2012392578125,-0.9916839599609375,-0.45587158203125,-0.051849365234375
1772556494150223400,3.211223388671875,-0.978790283203125,-0.488433837890625,-0.044097900390625
1772556494160207400,3.221207275390625,-0.978424072265625,-0.5352630615234375,-0.023895263671875
1772556494170191400,3.23119140625,-1.0187835693359375,-0.5238189697265625,0.0148773193359375
1772556494180175400,3.24117529296875,-1.0562744140625,-0.5009002685546875,0.028472900390625
1772556494190158300,3.251158447265625,-1.0711517333984375,-0.525543212890625,0.01031494140625
1772556494200142300,3.261142333984375,-1.105804443359375,-0.5296783447265625,0.0056915283203125
1772556494210126300,3.271126220703125,-1.1773834228515625,-0.466094970703125,0.0010528564453125
1772556494220110300,3.2811103515625,-1.24957275390625,-0.36920166015625,-0.0237274169921875
1772556494230094800,3.2910947265625,-1.2835693359375,-0.2952423095703125,-0.0592041015625
1772556494240078800,3.301078857421875,-1.2714996337890625,-0.2582244873046875,-0.10003662109375
1772556494250062800,3.311062744140625,-1.213775634765625,-0.2515716552734375,-0.1429901123046875
1772556494260046800,3.321046875,-1.131744384765625,-0.2492523193359375,-0.16937255859375
1772556494270030800,3.33103076171875,-1.046142578125,-0.241973876953125,-0.18597412109375
1772556494280015000,3.34101513671875,-0.9627532958984375,-0.233856201171875,-0.1916351318359375
1772556494289999000,3.3509990234375,-0.8896942138671875,-0.233245849609375,-0.1915740966796875
1772556494299982000,3.360982177734375,-0.842864990234375,-0.246307373046875,-0.18780517578125
1772556494309965800,3.3709658203125,-0.82171630859375,-0.26629638671875,-0.1758575439453125
1772556494319949800,3.38094970703125,-0.8296051025390625,-0.279144287109375,-0.1573486328125
1772556494329933800,3.390933837890625,-0.8318634033203125,-0.2861175537109375,-0.138702392578125
1772556494339917800,3.400917724609375,-0.8267669677734375,-0.2876739501953125,-0.1232757568359375
1772556494349901800,3.41090185546875,-0.8263092041015625,-0.292022705078125,-0.1123199462890625
1772556494359885800,3.4208857421875,-0.8273773193359375,-0.2960357666015625,-0.1006927490234375
1772556494369869800,3.430869873046875,-0.831390380859375,-0.29718017578125,-0.0924835205078125
1772556494379854000,3.44085400390625,-0.83758544921875,-0.302703857421875,-0.0871734619140625
1772556494389838000,3.450838134765625,-0.8554840087890625,-0.303680419921875,-0.07940673828125
1772556494399821000,3.460821044921875,-0.888092041015625,-0.3001861572265625,-0.0756072998046875
1772556494409805000,3.47080517578125,-0.9146881103515625,-0.301544189453125,-0.076751708984375
1772556494419789000,3.4807890625,-0.932098388671875,-0.305938720703125,-0.0752410888671875
1772556494429772800,3.490772705078125,-0.9338531494140625,-0.3138275146484375,-0.0645294189453125
1772556494439756800,3.5007568359375,-0.9235382080078125,-0.3228759765625,-0.0562591552734375
1772556494449740800,3.51074072265625,-0.9039459228515625,-0.3327178955078125,-0.0445098876953125
1772556494459724800,3.520724853515625,-0.877777099609375,-0.34002685546875,-0.03350830078125
1772556494469708800,3.530708740234375,-0.8531341552734375,-0.3463592529296875,-0.0224761962890625
1772556494479693000,3.540693115234375,-0.8344879150390625,-0.3557586669921875,-0.0144500732421875
1772556494489677000,3.550677001953125,-0.82086181640625,-0.3686065673828125,-0.010986328125
1772556494499661000,3.5606611328125,-0.8079833984375,-0.379486083984375,-0.0110321044921875
1772556494509644000,3.57064404296875,-0.8010711669921875,-0.3887481689453125,-0.0144500732421875
1772556494519628000,3.5806279296875,-0.7961883544921875,-0.3947601318359375,-0.015411376953125
1772556494529612000,3.590612060546875,-0.7956695556640625,-0.398529052734375,-0.019500732421875
1772556494539596000,3.600595947265625,-0.7982635498046875,-0.4040069580078125,-0.0272369384765625
1772556494549579800,3.610579833984375,-0.7971038818359375,-0.40887451171875,-0.0394439697265625
1772556494559563800,3.620563720703125,-0.7940826416015625,-0.413360595703125,-0.04888916015625
1772556494569547800,3.6305478515625,-0.7900848388671875,-0.418060302734375,-0.054107666015625
1772556494579532000,3.640531982421875,-0.787628173828125,-0.4258880615234375,-0.0589447021484375
1772556494589516000,3.65051611328125,-0.7935028076171875,-0.436370849609375,-0.06134033203125
1772556494599500000,3.6605,-0.7985076904296875,-0.44232177734375,-0.0600738525390625
1772556494609484000,3.670484130859375,-0.8195037841796875,-0.43994140625,-0.0583038330078125
1772556494619467000,3.680467041015625,-0.8442535400390625,-0.440185546875,-0.053680419921875
1772556494629451000,3.690450927734375,-0.856719970703125,-0.441558837890625,-0.0468902587890625
1772556494639435000,3.70043505859375,-0.8636474609375,-0.444549560546875,-0.0406036376953125
1772556494649419000,3.7104189453125,-0.8761749267578125,-0.4420928955078125,-0.0331268310546875
1772556494659402800,3.72040283203125,-0.8820648193359375,-0.4429779052734375,-0.021636962890625
1772556494669386800,3.73038671875,-0.884857177734375,-0.441497802734375,-0.0107574462890625
1772556494679371000,3.74037109375,-0.8987884521484375,-0.435943603515625,-0.0020751953125
1772556494689355000,3.75035498046875,-0.923614501953125,-0.431854248046875,-0.0037841796875
1772556494699339000,3.760339111328125,-0.9598236083984375,-0.4249114990234375,-0.005859375
1772556494709323000,3.770322998046875,-0.9956817626953125,-0.4217987060546875,-0.0122222900390625
1772556494719307000,3.78030712890625,-1.0328521728515625,-0.4206085205078125,-0.029449462890625
1772556494729290000,3.7902900390625,-1.0719146728515625,-0.4066619873046875,-0.0458221435546875
1772556494739274000,3.80027392578125,-1.1083984375,-0.3858489990234375,-0.0608978271484375
1772556494749258000,3.810258056640625,-1.134063720703125,-0.3672637939453125,-0.06719970703125
1772556494759242000,3.820241943359375,-1.1421051025390625,-0.352996826171875,-0.0682373046875
1772556494769226000,3.83022607421875,-1.12255859375,-0.3675537109375,-0.08013916015625
1772556494779209700,3.840209716796875,-1.0741424560546875,-0.4371490478515625,-0.1101531982421875
1772556494789194000,3.850194091796875,-1.04400634765625,-0.507232666015625,-0.1390380859375
1772556494799178000,3.860177978515625,-1.0714111328125,-0.5380859375,-0.1431884765625
1772556494809162000,3.870161865234375,-1.121612548828125,-0.5499114990234375,-0.1374053955078125
1772556494819146000,3.88014599609375,-1.19122314453125,-0.5270843505859375,-0.1229248046875
1772556494829130000,3.8901298828125,-1.256256103515625,-0.47265625,-0.103851318359375
1772556494839114000,3.900114013671875,-1.2916107177734375,-0.413421630859375,-0.0790557861328125
1772556494849097000,3.910096923828125,-1.3021087646484375,-0.33514404296875,-0.043365478515625
1772556494859081000,3.9200810546875,-1.2761383056640625,-0.2509613037109375,-0.00469970703125
1772556494869065000,3.93006494140625,-1.1961212158203125,-0.1943206787109375,0.0117340087890625
1772556494879049000,3.940049072265625,-1.0782623291015625,-0.16046142578125,0.00909423828125
1772556494889033000,3.950032958984375,-0.975738525390625,-0.144073486328125,0.0114288330078125
1772556494899017000,3.960016845703125,-0.909759521484375,-0.1414031982421875,0.0345001220703125
1772556494909001000,3.9700009765625,-0.884979248046875,-0.1614227294921875,0.075164794921875
1772556494918985000,3.97998486328125,-0.8793792724609375,-0.2039337158203125,0.1090240478515625
1772556494928969000,3.989968994140625,-0.8760833740234375,-0.247772216796875,0.121551513671875
1772556494938953000,3.999952880859375,-0.875396728515625,-0.2859039306640625,0.1281280517578125
1772556494948937000,4.00993701171875,-0.8660888671875,-0.3143768310546875,0.137298583984375
1772556494958921000,4.0199208984375,-0.845947265625,-0.332794189453125,0.1526947021484375
1772556494968904000,4.029904052734375,-0.82305908203125,-0.3475799560546875,0.1638641357421875
1772556494978888000,4.039887939453125,-0.82415771484375,-0.3546905517578125,0.1552581787109375
1772556494988872000,4.049871826171875,-0.830780029296875,-0.358673095703125,0.15155029296875
1772556494998856200,4.059856201171875,-0.8392791748046875,-0.3459014892578125,0.14300537109375
1772556495008840200,4.069840087890625,-0.8461761474609375,-0.3199005126953125,0.1287689208984375
1772556495018824000,4.079823974609375,-0.846435546875,-0.2942352294921875,0.1125640869140625
1772556495028808000,4.089807861328125,-0.8411407470703125,-0.278961181640625,0.0873565673828125
1772556495038792000,4.0997919921875,-0.83966064453125,-0.2705230712890625,0.0548858642578125
1772556495048776000,4.10977587890625,-0.84027099609375,-0.2693023681640625,0.021392822265625
1772556495058760000,4.119760009765625,-0.835723876953125,-0.2723236083984375,-0.004302978515625
1772556495068744000,4.129743896484375,-0.8224029541015625,-0.28167724609375,-0.024749755859375
1772556495078728000,4.13972802734375,-0.8045196533203125,-0.297271728515625,-0.0388336181640625
1772556495088711000,4.1497109375,-0.7876129150390625,-0.3187255859375,-0.0507049560546875
1772556495098695000,4.15969482421875,-0.7733612060546875,-0.350677490234375,-0.0601806640625
1772556495108679200,4.16967919921875,-0.765045166015625,-0.3783721923828125,-0.0654449462890625
1772556495118663200,4.1796630859375,-0.7571868896484375,-0.4001312255859375,-0.06329345703125
1772556495128647000,4.18964697265625,-0.7528839111328125,-0.41583251953125,-0.0536956787109375
1772556495138631000,4.199630859375,-0.7574462890625,-0.4254608154296875,-0.0444183349609375
1772556495148615000,4.209614990234375,-0.7693328857421875,-0.4320831298828125,-0.0318145751953125
1772556495158599000,4.219598876953125,-0.78240966796875,-0.4399261474609375,-0.0165863037109375
1772556495168583000,4.2295830078125,-0.7975921630859375,-0.4498443603515625,-0.0067901611328125
1772556495178567000,4.23956689453125,-0.81646728515625,-0.45794677734375,-0.0074920654296875
1772556495188551000,4.249551025390625,-0.83367919921875,-0.4587860107421875,-0.0130157470703125
1772556495198535000,4.259534912109375,-0.850830078125,-0.4562835693359375,-0.0173187255859375
1772556495208518100,4.26951806640625,-0.8651580810546875,-0.4496307373046875,-0.0205230712890625
1772556495218502100,4.279502197265625,-0.876007080078125,-0.441375732421875,-0.022918701171875
1772556495228486400,4.289486328125,-0.8932037353515625,-0.4326171875,-0.022125244140625
1772556495238470400,4.299470458984375,-0.8902587890625,-0.4278717041015625,-0.023406982421875
1772556495248454400,4.309454345703125,-0.8740997314453125,-0.423431396484375,-0.021240234375
1772556495258438100,4.319438232421875,-0.8717193603515625,-0.41748046875,-0.0206756591796875
1772556495268422100,4.329422119140625,-0.877960205078125,-0.42156982421875,-0.015716552734375
1772556495278406100,4.33940625,-0.8983154296875,-0.4278717041015625,0.0013580322265625
1772556495288390100,4.34939013671875,-0.9235992431640625,-0.4355926513671875,0.01605224609375
1772556495298374100,4.3593740234375,-0.9526519775390625,-0.4457244873046875,0.025054931640625
1772556495308358100,4.369358154296875,-0.98175048828125,-0.4548492431640625,0.0276947021484375
1772556495318342100,4.379342041015625,-1.0046234130859375,-0.4564056396484375,0.0313720703125
1772556495328326100,4.389326171875,-1.0220489501953125,-0.4574432373046875,0.0415496826171875
1772556495338309400,4.399309326171875,-1.0357818603515625,-0.4598846435546875,0.0492706298828125
1772556495348293400,4.40929345703125,-1.0480499267578125,-0.4596710205078125,0.055023193359375
1772556495358277400,4.41927734375,-1.055572509765625,-0.4559478759765625,0.0609283447265625
1772556495368261000,4.42926123046875,-1.0513153076171875,-0.4616546630859375,0.0597991943359375
1772556495378245000,4.4392451171875,-1.033477783203125,-0.4861297607421875,0.0562896728515625
1772556495388229000,4.44922900390625,-1.019073486328125,-0.5160675048828125,0.0625
1772556495398213000,4.459213134765625,-1.0314178466796875,-0.5111236572265625,0.0832061767578125
1772556495408197000,4.469197021484375,-1.0531463623046875,-0.491241455078125,0.099395751953125
1772556495418181000,4.47918115234375,-1.0679473876953125,-0.493988037109375,0.0957489013671875
1772556495428165000,4.4891650390625,-1.0853729248046875,-0.5039825439453125,0.0775909423828125
1772556495438149000,4.499149169921875,-1.1065673828125,-0.4892425537109375,0.0646820068359375
1772556495448133000,4.509133056640625,-1.1389923095703125,-0.44287109375,0.0534515380859375
1772556495458117000,4.5191171875,-1.177459716796875,-0.381622314453125,0.0374908447265625
1772556495468101400,4.529101318359375,-1.2115478515625,-0.33648681640625,0.0128936767578125
1772556495478084400,4.53908447265625,-1.2193756103515625,-0.309539794921875,-0.0232086181640625
1772556495488068000,4.549068115234375,-1.1901702880859375,-0.28643798828125,-0.0595703125
1772556495498052000,4.559052001953125,-1.1299591064453125,-0.264892578125,-0.0885009765625
1772556495508036000,4.5690361328125,-1.05328369140625,-0.2457275390625,-0.1016387939453125
1772556495518020000,4.57902001953125,-0.965850830078125,-0.235687255859375,-0.1061248779296875
1772556495528004000,4.589004150390625,-0.888092041015625,-0.2351226806640625,-0.1143341064453125
1772556495537988000,4.598988037109375,-0.8288116455078125,-0.2373199462890625,-0.1225738525390625
1772556495547972000,4.60897216796875,-0.7904815673828125,-0.24017333984375,-0.126983642578125
1772556495557956000,4.6189560546875,-0.77020263671875,-0.24920654296875,-0.1214141845703125
1772556495567940400,4.6289404296875,-0.7640838623046875,-0.265289306640625,-0.1088409423828125
1772556495577924400,4.63892431640625,-0.7553558349609375,-0.2810516357421875,-0.1018524169921875
1772556495587908400,4.648908447265625,-0.7462310791015625,-0.298858642578125,-0.097259521484375
1772556495597892400,4.658892333984375,-0.744842529296875,-0.316497802734375,-0.0922698974609375
1772556495607875000,4.668875,-0.74664306640625,-0.337310791015625,-0.0858001708984375
1772556495617859000,4.678859130859375,-0.76153564453125,-0.3589019775390625,-0.079315185546875
1772556495627843000,4.688843017578125,-0.791595458984375,-0.3771820068359375,-0.07513427734375
1772556495637827000,4.6988271484375,-0.833160400390625,-0.3837738037109375,-0.0648345947265625
1772556495647811000,4.70881103515625,-0.8744964599609375,-0.3791046142578125,-0.049072265625
1772556495657795000,4.718795166015625,-0.904571533203125,-0.3721160888671875,-0.0364227294921875
1772556495667779300,4.728779296875,-0.9151763916015625,-0.3668365478515625,-0.0302276611328125
1772556495677763300,4.738763427734375,-0.909423828125,-0.3522796630859375,-0.0289764404296875
1772556495687747300,4.748747314453125,-0.8928680419921875,-0.3375091552734375,-0.02508544921875
1772556495697731300,4.7587314453125,-0.8665771484375,-0.3314971923828125,-0.011016845703125
1772556495707715300,4.76871533203125,-0.8452911376953125,-0.328643798828125,0.0091094970703125
1772556495717699300,4.77869921875,-0.8372039794921875,-0.3318634033203125,0.02655029296875
1772556495727683300,4.788683349609375,-0.832366943359375,-0.3451385498046875,0.0308685302734375
1772556495737667300,4.798667236328125,-0.8184051513671875,-0.3573455810546875,0.026519775390625
1772556495747650000,4.808650146484375,-0.802276611328125,-0.36590576171875,0.021484375
1772556495757634000,4.818634033203125,-0.794036865234375,-0.3777618408203125,0.014984130859375
1772556495767618300,4.828618408203125,-0.7896881103515625,-0.3936004638671875,0.010467529296875
1772556495777602300,4.838602294921875,-0.79095458984375,-0.408660888671875,0.0053253173828125
1772556495787586300,4.84858642578125,-0.7966156005859375,-0.4213409423828125,0.000152587890625
1772556495797570300,4.8585703125,-0.800506591796875,-0.42626953125,-0.0043182373046875
1772556495807554300,4.86855419921875,-0.804718017578125,-0.4278717041015625,-0.0104217529296875
1772556495817538300,4.878538330078125,-0.8179473876953125,-0.43084716796875,-0.0175933837890625
1772556495827522300,4.888522216796875,-0.836212158203125,-0.4326934814453125,-0.02337646484375
1772556495837506300,4.89850634765625,-0.8518829345703125,-0.4345855712890625,-0.02691650390625
1772556495847490300,4.908490234375,-0.8639678955078125,-0.4302520751953125,-0.0338134765625
1772556495857474300,4.918474365234375,-0.8830718994140625,-0.4262847900390625,-0.0348968505859375
1772556495867458000,4.9284580078125,-0.898956298828125,-0.4280548095703125,-0.0334625244140625
1772556495877442000,4.938442138671875,-0.908905029296875,-0.43359375,-0.0342559814453125
1772556495887426000,4.948426025390625,-0.9138946533203125,-0.43243408203125,-0.0307159423828125
1772556495897409300,4.9584091796875,-0.9163665771484375,-0.4301605224609375,-0.0277099609375
1772556495907393300,4.968393310546875,-0.918701171875,-0.43084716796875,-0.026092529296875
1772556495917377300,4.978377197265625,-0.922576904296875,-0.4327850341796875,-0.026031494140625
1772556495927361300,4.988361328125,-0.9361572265625,-0.4355010986328125,-0.0294647216796875
1772556495937345300,4.99834521484375,-0.96063232421875,-0.44287109375,-0.027984619140625
1772556495947329300,5.008329345703125,-0.9893798828125,-0.4477996826171875,-0.0262451171875
1772556495957313300,5.018313232421875,-1.015380859375,-0.43609619140625,-0.0328521728515625
1772556495967297300,5.02829736328125,-1.0564422607421875,-0.4087371826171875,-0.0441436767578125
1772556495977281300,5.03828125,-1.0982666015625,-0.3787841796875,-0.0561370849609375
1772556495987265000,5.04826513671875,-1.132781982421875,-0.353240966796875,-0.064361572265625
1772556495997249000,5.0582490234375,-1.1487884521484375,-0.3321990966796875,-0.065460205078125
1772556496007233000,5.06823291015625,-1.135040283203125,-0.31817626953125,-0.0659637451171875
1772556496017217300,5.07821728515625,-1.0969390869140625,-0.323699951171875,-0.0728759765625
1772556496027201300,5.088201171875,-1.0446624755859375,-0.3716583251953125,-0.088165283203125
1772556496037185300,5.098185302734375,-0.992828369140625,-0.44390869140625,-0.1076507568359375
1772556496047168300,5.108168212890625,-0.9970550537109375,-0.49542236328125,-0.1122589111328125
1772556496057152300,5.11815234375,-1.0344390869140625,-0.5332489013671875,-0.1082611083984375
1772556496067136300,5.12813623046875,-1.08941650390625,-0.5587921142578125,-0.10308837890625
1772556496077120300,5.138120361328125,-1.166534423828125,-0.550537109375,-0.0844268798828125
1772556496087104300,5.148104248046875,-1.2321624755859375,-0.5076446533203125,-0.06060791015625
1772556496097088000,5.158087890625,-1.2662200927734375,-0.4502410888671875,-0.041229248046875
1772556496107072000,5.168072021484375,-1.27734375,-0.37640380859375,-0.0089111328125
1772556496117056300,5.17805615234375,-1.25604248046875,-0.2914276123046875,0.0339508056640625
1772556496127040300,5.188040283203125,-1.178802490234375,-0.2183380126953125,0.0554351806640625
1772556496137024300,5.198024169921875,-1.06634521484375,-0.1650543212890625,0.0526123046875
1772556496147008300,5.20800830078125,-0.9511871337890625,-0.1319732666015625,0.0507965087890625
1772556496156992300,5.2179921875,-0.8632049560546875,-0.1180572509765625,0.0693511962890625
1772556496166976300,5.227976318359375,-0.828338623046875,-0.125640869140625,0.1136627197265625
1772556496176960300,5.237960205078125,-0.8320465087890625,-0.159881591796875,0.151397705078125
1772556496186944300,5.2479443359375,-0.841278076171875,-0.1953125,0.1773834228515625
1772556496196928300,5.25792822265625,-0.849945068359375,-0.22900390625,0.1878814697265625
1772556496206911200,5.2679111328125,-0.8515625,-0.2574005126953125,0.2012786865234375
1772556496216895000,5.27789501953125,-0.84716796875,-0.270660400390625,0.2135772705078125
1772556496226878000,5.2878779296875,-0.8453216552734375,-0.276275634765625,0.214569091796875
1772556496236862000,5.297862060546875,-0.841522216796875,-0.2900390625,0.2218475341796875
1772556496246846000,5.307845947265625,-0.8466796875,-0.3002777099609375,0.2151641845703125
1772556496256830000,5.317829833984375,-0.8577728271484375,-0.29241943359375,0.1982421875
1772556496266814000,5.32781396484375,-0.8646087646484375,-0.2700653076171875,0.17523193359375
1772556496276798000,5.3377978515625,-0.8671722412109375,-0.2467193603515625,0.146484375
1772556496286782000,5.347781982421875,-0.8698577880859375,-0.2314453125,0.1063995361328125
1772556496296766000,5.357765869140625,-0.8736114501953125,-0.2254180908203125,0.0686492919921875
1772556496306750000,5.36775,-0.87054443359375,-0.2245330810546875,0.0289154052734375
1772556496316734000,5.37773388671875,-0.855133056640625,-0.2269134521484375,-0.0033111572265625
1772556496326718000,5.387718017578125,-0.8250732421875,-0.2425384521484375,-0.035125732421875
1772556496336702000,5.397701904296875,-0.799102783203125,-0.2674560546875,-0.0593719482421875
1772556496346686000,5.40768603515625,-0.7804412841796875,-0.2970733642578125,-0.07440185546875
1772556496356670000,5.417669921875,-0.7789154052734375,-0.3260498046875,-0.078399658203125
1772556496366653000,5.42765283203125,-0.7881011962890625,-0.3536834716796875,-0.07012939453125
1772556496376637000,5.437636962890625,-0.7991943359375,-0.375885009765625,-0.0531158447265625
1772556496386621000,5.447620849609375,-0.813018798828125,-0.3921966552734375,-0.0350494384765625
1772556496396605000,5.45760498046875,-0.83465576171875,-0.406463623046875,-0.02313232421875
1772556496406589000,5.4675888671875,-0.856842041015625,-0.4160614013671875,-0.00714111328125
1772556496416573000,5.477572998046875,-0.881439208984375,-0.423095703125,0.0112457275390625
1772556496426557200,5.48755712890625,-0.909637451171875,-0.4276580810546875,0.0268096923828125
1772556496436541200,5.497541259765625,-0.92462158203125,-0.425445556640625,0.0316314697265625
1772556496446525000,5.50752490234375,-0.9378204345703125,-0.4153289794921875,0.02935791015625
1772556496456509000,5.517509033203125,-0.9504547119140625,-0.40606689453125,0.0274658203125
1772556496466493000,5.527492919921875,-0.95416259765625,-0.39996337890625,0.0245361328125
1772556496476477000,5.537476806640625,-0.9631805419921875,-0.3966522216796875,0.0213165283203125
1772556496486461000,5.5474609375,-0.967437744140625,-0.3935699462890625,0.01458740234375
1772556496496445000,5.55744482421875,-0.9483184814453125,-0.382598876953125,0.00897216796875
1772556496506429000,5.567428955078125,-0.9313507080078125,-0.3779449462890625,0.0045928955078125
1772556496516413000,5.577412841796875,-0.9190521240234375,-0.376312255859375,0.009033203125
1772556496526397000,5.58739697265625,-0.9150238037109375,-0.3792724609375,0.018707275390625
1772556496536380200,5.597380126953125,-0.9280242919921875,-0.3815460205078125,0.0272369384765625
1772556496546364200,5.6073642578125,-0.944580078125,-0.3847198486328125,0.0308685302734375
1772556496556348000,5.617347900390625,-0.955902099609375,-0.3896484375,0.0360870361328125
1772556496566332000,5.627331787109375,-0.9660186767578125,-0.3955535888671875,0.0413055419921875
1772556496576316000,5.63731591796875,-0.97064208984375,-0.40625,0.0447540283203125
1772556496586300000,5.6472998046875,-0.967437744140625,-0.421783447265625,0.0415191650390625
1772556496596284000,5.657283935546875,-0.9639739990234375,-0.43487548828125,0.0392608642578125
1772556496606268000,5.667267822265625,-0.967132568359375,-0.4440460205078125,0.03900146484375
1772556496616252000,5.677251953125,-0.9684600830078125,-0.4477386474609375,0.03765869140625
1772556496626236000,5.68723583984375,-0.97601318359375,-0.4482879638671875,0.0365447998046875
1772556496636220000,5.697219970703125,-0.9804840087890625,-0.459503173828125,0.03631591796875
1772556496646204000,5.707203857421875,-0.97406005859375,-0.4887542724609375,0.0423736572265625
1772556496656188000,5.71718798828125,-0.982666015625,-0.4960479736328125,0.0670013427734375
1772556496666172000,5.727171875,-1.018035888671875,-0.472747802734375,0.09283447265625
1772556496676156200,5.73715625,-1.0620269775390625,-0.4579925537109375,0.093658447265625
1772556496686140200,5.74714013671875,-1.1029815673828125,-0.4553680419921875,0.077545166015625
1772556496696124200,5.757124267578125,-1.1493377685546875,-0.438018798828125,0.068145751953125
1772556496706108000,5.76710791015625,-1.212005615234375,-0.390472412109375,0.0623931884765625
1772556496716088000,5.777088134765625,-1.27020263671875,-0.329864501953125,0.0503692626953125
1772556496726072000,5.787072021484375,-1.2953338623046875,-0.284759521484375,0.020965576171875
1772556496736055800,5.797055908203125,-1.2753753662109375,-0.2667694091796875,-0.0258026123046875
1772556496746039800,5.807039794921875,-1.222900390625,-0.258331298828125,-0.0790863037109375
1772556496756023800,5.81702392578125,-1.139862060546875,-0.2481689453125,-0.1144561767578125
1772556496766007800,5.8270078125,-1.05145263671875,-0.2358245849609375,-0.138519287109375
1772556496775991800,5.83699169921875,-0.9774627685546875,-0.22174072265625,-0.148773193359375
1772556496785975800,5.846975830078125,-0.922210693359375,-0.224090576171875,-0.162689208984375
1772556496795960000,5.8569599609375,-0.8795928955078125,-0.23724365234375,-0.1731414794921875
1772556496805944000,5.866944091796875,-0.8560791015625,-0.251678466796875,-0.165496826171875
1772556496815928000,5.876927978515625,-0.8429107666015625,-0.2672576904296875,-0.1568603515625
1772556496825912000,5.886912109375,-0.827789306640625,-0.277862548828125,-0.1401824951171875
1772556496835896000,5.89689599609375,-0.8207244873046875,-0.2883758544921875,-0.129486083984375
1772556496845880000,5.906880126953125,-0.813140869140625,-0.3022918701171875,-0.1239166259765625
1772556496855864000,5.916864013671875,-0.8060302734375,-0.32183837890625,-0.1217041015625
1772556496865848000,5.92684814453125,-0.8085479736328125,-0.34185791015625,-0.1170501708984375
1772556496875832000,5.93683203125,-0.8164825439453125,-0.3597259521484375,-0.1069793701171875
1772556496885815800,5.94681591796875,-0.8365478515625,-0.3736114501953125,-0.092529296875
1772556496895799000,5.956799072265625,-0.8599853515625,-0.376800537109375,-0.077423095703125
1772556496905783000,5.966782958984375,-0.8798065185546875,-0.3771820068359375,-0.061981201171875
1772556496915767000,5.97676708984375,-0.89190673828125,-0.377105712890625,-0.045989990234375
1772556496925751000,5.9867509765625,-0.8926239013671875,-0.37200927734375,-0.0255126953125
1772556496935735000,5.996735107421875,-0.8836669921875,-0.3588714599609375,-0.0047454833984375
1772556496945719000,6.006718994140625,-0.8683319091796875,-0.3497161865234375,0.008514404296875
1772556496955703000,6.016703125,-0.8521881103515625,-0.348602294921875,0.02386474609375
1772556496965687000,6.02668701171875,-0.8368988037109375,-0.353240966796875,0.034637451171875
1772556496975671000,6.036671142578125,-0.8252410888671875,-0.3618011474609375,0.03436279296875
1772556496985655000,6.046655029296875,-0.81646728515625,-0.368194580078125,0.0312957763671875
1772556496995638800,6.056638671875,-0.807159423828125,-0.3773040771484375,0.02557373046875
1772556497005622800,6.066622802734375,-0.7989654541015625,-0.38616943359375,0.0166778564453125
1772556497015606800,6.076606689453125,-0.794097900390625,-0.3968658447265625,0.0050506591796875
1772556497025590800,6.0865908203125,-0.7947235107421875,-0.4105682373046875,-0.0051116943359375
1772556497035575000,6.096574951171875,-0.79534912109375,-0.4259796142578125,-0.01959228515625
1772556497045559000,6.10655908203125,-0.793121337890625,-0.437164306640625,-0.0341949462890625
1772556497055543000,6.11654296875,-0.7874603271484375,-0.44671630859375,-0.0482330322265625
1772556497065527000,6.126527099609375,-0.7866973876953125,-0.457366943359375,-0.0608062744140625
1772556497075511000,6.136510986328125,-0.784210205078125,-0.466644287109375,-0.0697479248046875
1772556497085494000,6.146493896484375,-0.7824859619140625,-0.4776458740234375,-0.0752105712890625
1772556497095478000,6.15647802734375,-0.7861785888671875,-0.4870147705078125,-0.0773162841796875
1772556497105462000,6.1664619140625,-0.7953948974609375,-0.4894561767578125,-0.0777130126953125
1772556497115445800,6.17644580078125,-0.809234619140625,-0.49072265625,-0.0780792236328125
1772556497125429800,6.1864296875,-0.818878173828125,-0.4891510009765625,-0.0765533447265625
1772556497135413800,6.196413818359375,-0.8296966552734375,-0.4840850830078125,-0.069366455078125
1772556497145401000,6.206401123046875,-0.8368682861328125,-0.4815673828125,-0.061126708984375
1772556497155385000,6.216385009765625,-0.8414154052734375,-0.479888916015625,-0.053802490234375
1772556497165369000,6.226369140625,-0.849884033203125,-0.4801025390625,-0.0482635498046875
1772556497175353000,6.23635302734375,-0.8577423095703125,-0.4834442138671875,-0.0489044189453125
1772556497185337000,6.246337158203125,-0.872467041015625,-0.4882659912109375,-0.05767822265625
1772556497195321000,6.256321044921875,-0.8930816650390625,-0.4874420166015625,-0.062896728515625
1772556497205304800,6.266304931640625,-0.9139404296875,-0.4857025146484375,-0.0740509033203125
1772556497215288800,6.276288818359375,-0.9449462890625,-0.4688873291015625,-0.0815277099609375
1772556497225272800,6.28627294921875,-0.9897003173828125,-0.4444427490234375,-0.085723876953125
1772556497235257300,6.29625732421875,-1.03155517578125,-0.41766357421875,-0.0923309326171875
1772556497245241300,6.306241455078125,-1.0638275146484375,-0.393829345703125,-0.097747802734375
1772556497255225300,6.316225341796875,-1.07452392578125,-0.381805419921875,-0.1077728271484375
1772556497265209300,6.326209228515625,-1.0617218017578125,-0.3770294189453125,-0.10943603515625
1772556497275192600,6.336192626953125,-1.030609130859375,-0.4001007080078125,-0.1162872314453125
1772556497285176600,6.346176513671875,-0.9835968017578125,-0.4691314697265625,-0.1369476318359375
1772556497295160600,6.35616064453125,-0.9522552490234375,-0.538177490234375,-0.1524200439453125
1772556497305144600,6.36614453125,-0.966827392578125,-0.5859375,-0.148895263671875
1772556497315128600,6.376128662109375,-1.020965576171875,-0.624267578125,-0.1356353759765625
1772556497325112600,6.386112548828125,-1.10174560546875,-0.6336212158203125,-0.1142425537109375
1772556497335096300,6.396096435546875,-1.1870269775390625,-0.6106719970703125,-0.099151611328125
1772556497345080300,6.406080322265625,-1.2497711181640625,-0.5569000244140625,-0.0968017578125
1772556497355064300,6.416064208984375,-1.2877655029296875,-0.475189208984375,-0.0898590087890625
1772556497365048300,6.42604833984375,-1.301849365234375,-0.3897552490234375,-0.054718017578125
1772556497375032300,6.4360322265625,-1.268707275390625,-0.3061981201171875,-0.0286712646484375
1772556497385016300,6.446016357421875,-1.1876678466796875,-0.2417755126953125,-0.0287017822265625
1772556497395000600,6.45600048828125,-1.0722503662109375,-0.2010955810546875,-0.04595947265625
1772556497404984600,6.465984619140625,-0.948577880859375,-0.1757659912109375,-0.0568389892578125
1772556497414968600,6.475968505859375,-0.8436737060546875,-0.163421630859375,-0.0419158935546875
1772556497424952600,6.48595263671875,-0.7826995849609375,-0.1735382080078125,-0.0057525634765625
1772556497434936600,6.4959365234375,-0.7807159423828125,-0.2182159423828125,0.028167724609375
1772556497444920600,6.505920654296875,-0.797454833984375,-0.27294921875,0.0520782470703125
1772556497454904600,6.515904541015625,-0.811614990234375,-0.3173370361328125,0.0714874267578125
1772556497464887300,6.52588720703125,-0.8122100830078125,-0.35113525390625,0.0901336669921875
1772556497474871300,6.535871337890625,-0.8047637939453125,-0.3692626953125,0.1171112060546875
1772556497484855300,6.545855224609375,-0.7975921630859375,-0.3721923828125,0.14202880859375
1772556497494839600,6.555839599609375,-0.79364013671875,-0.378662109375,0.1442718505859375
1772556497504823600,6.565823486328125,-0.8038482666015625,-0.3911285400390625,0.147979736328125
1772556497514807600,6.5758076171875,-0.82598876953125,-0.38787841796875,0.144744873046875
1772556497524791600,6.58579150390625,-0.8480072021484375,-0.3661651611328125,0.1369781494140625
1772556497534775600,6.595775634765625,-0.8619384765625,-0.3358154296875,0.123077392578125
1772556497544759600,6.605759521484375,-0.8653106689453125,-0.3087921142578125,0.0969696044921875
1772556497554743600,6.61574365234375,-0.8746337890625,-0.2867279052734375,0.0668182373046875
1772556497564727600,6.6257275390625,-0.8874359130859375,-0.2830657958984375,0.0372314453125
1772556497574711600,6.635711669921875,-0.875885009765625,-0.282867431640625,0.0115509033203125
1772556497584695600,6.645695556640625,-0.8530731201171875,-0.2867431640625,-0.0064239501953125
1772556497594679300,6.65567919921875,-0.8284759521484375,-0.304412841796875,-0.0252532958984375
1772556497604663300,6.665663330078125,-0.8094482421875,-0.3314056396484375,-0.04498291015625
1772556497614647300,6.675647216796875,-0.8002777099609375,-0.3600616455078125,-0.058929443359375
1772556497624631300,6.68563134765625,-0.7894744873046875,-0.3872222900390625,-0.0651092529296875
1772556497634615300,6.695615234375,-0.781219482421875,-0.4076385498046875,-0.0594482421875
1772556497644599600,6.705599609375,-0.7774810791015625,-0.426544189453125,-0.0405426025390625
1772556497654583600,6.71558349609375,-0.7755126953125,-0.447113037109375,-0.031280517578125
1772556497664567600,6.725567626953125,-0.7853240966796875,-0.46435546875,-0.01824951171875
1772556497674550500,6.735550537109375,-0.7991180419921875,-0.4750213623046875,-0.0068817138671875
1772556497684534500,6.745534423828125,-0.80816650390625,-0.479705810546875,0.001495361328125
1772556497694518500,6.7555185546875,-0.8109893798828125,-0.47802734375,0.0052642822265625
1772556497704502500,6.76550244140625,-0.8143157958984375,-0.471466064453125,0.0016326904296875
1772556497714486300,6.775486328125,-0.8260955810546875,-0.4653472900390625,0.0023651123046875
1772556497724470300,6.78547021484375,-0.8394012451171875,-0.4605560302734375,0.0073699951171875
1772556497734454300,6.795454345703125,-0.8491668701171875,-0.4488677978515625,0.0063934326171875
1772556497744438500,6.8054384765625,-0.8518524169921875,-0.4380645751953125,-0.0015106201171875
1772556497754422500,6.815422607421875,-0.8559112548828125,-0.4275970458984375,-0.0070037841796875
1772556497764406500,6.825406494140625,-0.8573455810546875,-0.4246063232421875,-0.0124664306640625
1772556497774390500,6.835390625,-0.852783203125,-0.4223785400390625,-0.0142974853515625
1772556497784374500,6.84537451171875,-0.846954345703125,-0.4158935546875,-0.0136260986328125
1772556497794358500,6.855358642578125,-0.8574066162109375,-0.414398193359375,-0.01177978515625
1772556497804342500,6.865342529296875,-0.88079833984375,-0.419921875,-0.0071563720703125
1772556497814326500,6.875326416015625,-0.9022369384765625,-0.4261016845703125,-0.00042724609375
1772556497824310500,6.885310546875,-0.9271240234375,-0.433502197265625,0.00006103515625
1772556497834294500,6.89529443359375,-0.946014404296875,-0.440032958984375,-0.000213623046875
1772556497844278500,6.905278564453125,-0.9534454345703125,-0.4460906982421875,0.0046234130859375
1772556497854262300,6.91526220703125,-0.961456298828125,-0.44873046875,0.0037078857421875
1772556497864246300,6.925246337890625,-0.9798126220703125,-0.4516448974609375,0.00555419921875
1772556497874229500,6.9352294921875,-1.0014801025390625,-0.4643096923828125,0.0125274658203125
1772556497884213500,6.945213623046875,-1.0246124267578125,-0.4750823974609375,0.019287109375
1772556497894197500,6.955197509765625,-1.0437164306640625,-0.490203857421875,0.02423095703125
1772556497904181500,6.965181396484375,-1.05010986328125,-0.5241241455078125,0.029815673828125
1772556497914165500,6.97516552734375,-1.0553436279296875,-0.5535888671875,0.0396881103515625
1772556497924149500,6.9851494140625,-1.0811004638671875,-0.5484466552734375,0.0511474609375
1772556497934133500,6.995133544921875,-1.1243743896484375,-0.5325164794921875,0.05206298828125
1772556497944117500,7.005117431640625,-1.1757965087890625,-0.5147247314453125,0.043365478515625
1772556497954101500,7.0151015625,-1.2261962890625,-0.4932708740234375,0.027618408203125
1772556497964085500,7.02508544921875,-1.263336181640625,-0.454345703125,0.0209808349609375
1772556497974069200,7.0350693359375,-1.2885589599609375,-0.39105224609375,0.0120391845703125
1772556497984053200,7.04505322265625,-1.2950286865234375,-0.326202392578125,-0.0134429931640625
1772556497994037500,7.05503759765625,-1.2740325927734375,-0.2804107666015625,-0.058258056640625
1772556498004021500,7.065021484375,-1.2289886474609375,-0.251678466796875,-0.1111602783203125
1772556498014005500,7.075005615234375,-1.1647186279296875,-0.2310791015625,-0.1541595458984375
1772556498023989500,7.084989501953125,-1.081878662109375,-0.2129974365234375,-0.18109130859375
1772556498033973500,7.094973388671875,-0.9925689697265625,-0.2038421630859375,-0.1856689453125
1772556498043957500,7.10495751953125,-0.9195098876953125,-0.200408935546875,-0.1905364990234375
1772556498053941500,7.11494140625,-0.8628997802734375,-0.206512451171875,-0.20172119140625
1772556498063925500,7.124925537109375,-0.81951904296875,-0.2183074951171875,-0.200775146484375
1772556498073909500,7.134909423828125,-0.79345703125,-0.2384796142578125,-0.192596435546875
1772556498083892500,7.144892578125,-0.7788848876953125,-0.260223388671875,-0.1783599853515625
1772556498093876500,7.15487646484375,-0.7690887451171875,-0.278076171875,-0.1557159423828125
1772556498103860500,7.164860595703125,-0.7634124755859375,-0.3015899658203125,-0.131927490234375
1772556498113844500,7.174844482421875,-0.7577056884765625,-0.32781982421875,-0.1094970703125
1772556498123828500,7.184828369140625,-0.761199951171875,-0.3565826416015625,-0.0971832275390625
1772556498133812500,7.1948125,-0.780487060546875,-0.373565673828125,-0.0843048095703125
1772556498143796500,7.20479638671875,-0.805206298828125,-0.3836822509765625,-0.066680908203125
1772556498153780500,7.214780517578125,-0.8310546875,-0.3887939453125,-0.05450439453125
1772556498163764500,7.224764404296875,-0.8481903076171875,-0.386962890625,-0.048919677734375
1772556498173748500,7.23474853515625,-0.85546875,-0.3816680908203125,-0.0258331298828125
1772556498183732500,7.244732421875,-0.8522491455078125,-0.3667449951171875,0.0027618408203125
1772556498193716500,7.254716552734375,-0.8384552001953125,-0.34893798828125,0.0215301513671875
1772556498203700500,7.264700439453125,-0.8246612548828125,-0.337310791015625,0.034820556640625
1772556498213684500,7.2746845703125,-0.8157196044921875,-0.332611083984375,0.047027587890625
1772556498223668500,7.28466845703125,-0.8082122802734375,-0.3331146240234375,0.05914306640625
1772556498233652500,7.294652587890625,-0.79949951171875,-0.3374786376953125,0.06439208984375
1772556498243636700,7.30463671875,-0.7870635986328125,-0.3481903076171875,0.0591278076171875
1772556498253620700,7.314620849609375,-0.779876708984375,-0.3621826171875,0.0465087890625
1772556498263604700,7.324604736328125,-0.7773284912109375,-0.374969482421875,0.0316619873046875
1772556498273588700,7.334588623046875,-0.7819671630859375,-0.387359619140625,0.0146026611328125
1772556498283572700,7.34457275390625,-0.7905731201171875,-0.398834228515625,-0.0012969970703125
1772556498293556700,7.354556640625,-0.797637939453125,-0.411773681640625,-0.015899658203125
1772556498303539500,7.36453955078125,-0.8038787841796875,-0.4285736083984375,-0.0310821533203125
1772556498313523500,7.3745234375,-0.80780029296875,-0.4456634521484375,-0.0447235107421875
1772556498323507500,7.384507568359375,-0.8108978271484375,-0.46087646484375,-0.0558624267578125
1772556498333491500,7.394491455078125,-0.8172760009765625,-0.47015380859375,-0.0593109130859375
1772556498343475500,7.404475341796875,-0.8278350830078125,-0.4751739501953125,-0.060028076171875
1772556498353459700,7.414459716796875,-0.8405609130859375,-0.4725494384765625,-0.0526580810546875
1772556498363443700,7.424443603515625,-0.847564697265625,-0.4676666259765625,-0.040313720703125
1772556498373427700,7.434427734375,-0.8495025634765625,-0.464752197265625,-0.032440185546875
1772556498383411700,7.44441162109375,-0.851348876953125,-0.45751953125,-0.0290069580078125
1772556498393395700,7.454395751953125,-0.8545684814453125,-0.4482421875,-0.0236358642578125
1772556498403379700,7.464379638671875,-0.8656005859375,-0.4402313232421875,-0.01715087890625
1772556498413363700,7.47436376953125,-0.883636474609375,-0.4337615966796875,-0.015594482421875
1772556498423347700,7.48434765625,-0.904144287109375,-0.43011474609375,-0.019622802734375
1772556498433331700,7.494331787109375,-0.935333251953125,-0.42742919921875,-0.028564453125
1772556498443315700,7.504315673828125,-0.9734954833984375,-0.4270172119140625,-0.0391693115234375
1772556498453299500,7.514299560546875,-1.0094146728515625,-0.422515869140625,-0.0538177490234375
1772556498463283500,7.524283447265625,-1.0530242919921875,-0.407958984375,-0.068450927734375
1772556498473267500,7.534267333984375,-1.087677001953125,-0.3894500732421875,-0.084625244140625
1772556498483251500,7.54425146484375,-1.11322021484375,-0.369293212890625,-0.1032257080078125
1772556498493235700,7.554235595703125,-1.1218414306640625,-0.3518524169921875,-0.1114501953125
1772556498503219700,7.5642197265625,-1.1032867431640625,-0.3475341796875,-0.123504638671875
1772556498513203700,7.57420361328125,-1.0656585693359375,-0.3844757080078125,-0.1535491943359375
1772556498523186700,7.584186767578125,-1.0261688232421875,-0.45428466796875,-0.1823272705078125
1772556498533170700,7.594170654296875,-1.0370025634765625,-0.5130157470703125,-0.1894989013671875
1772556498543154700,7.60415478515625,-1.0906219482421875,-0.5597381591796875,-0.1869354248046875
1772556498553138700,7.614138671875,-1.1676177978515625,-0.585662841796875,-0.1772918701171875
1772556498563122700,7.624122802734375,-1.2663726806640625,-0.559295654296875,-0.141754150390625
1772556498573106400,7.6341064453125,-1.35406494140625,-0.498565673828125,-0.1066131591796875
1772556498583090400,7.64409033203125,-1.407684326171875,-0.4101715087890625,-0.0742645263671875
1772556498593074700,7.65407470703125,-1.4219818115234375,-0.3011474609375,-0.03839111328125
1772556498603058700,7.66405859375,-1.3593597412109375,-0.20208740234375,-0.0175323486328125
1772556498613042700,7.674042724609375,-1.2257080078125,-0.1331939697265625,-0.0192718505859375
1772556498623026700,7.684026611328125,-1.075164794921875,-0.095947265625,-0.021270751953125
1772556498633010700,7.6940107421875,-0.92572021484375,-0.082244873046875,0.01141357421875
1772556498642994700,7.70399462890625,-0.8116302490234375,-0.091827392578125,0.0612030029296875
1772556498652978700,7.713978759765625,-0.7700958251953125,-0.121429443359375,0.0960540771484375
1772556498662962700,7.723962646484375,-0.7992706298828125,-0.167572021484375,0.1082916259765625
1772556498672946700,7.73394677734375,-0.8309783935546875,-0.213134765625,0.1113433837890625
1772556498682930700,7.7439306640625,-0.8435821533203125,-0.2562713623046875,0.107177734375
1772556498692914700,7.753914794921875,-0.8380889892578125,-0.288909912109375,0.105316162109375
1772556498702898700,7.763898681640625,-0.8298492431640625,-0.3062896728515625,0.1163177490234375
1772556498712882400,7.77388232421875,-0.813629150390625,-0.328094482421875,0.117767333984375
1772556498722866400,7.783866455078125,-0.815643310546875,-0.342864990234375,0.12017822265625
1772556498732849700,7.793849609375,-0.8313751220703125,-0.3346405029296875,0.106903076171875
1772556498742833700,7.803833740234375,-0.8500518798828125,-0.312744140625,0.081695556640625
1772556498752817700,7.813817626953125,-0.8581085205078125,-0.2892913818359375,0.0575103759765625
1772556498762801700,7.8238017578125,-0.8670806884765625,-0.268524169921875,0.0287322998046875
1772556498772785700,7.83378564453125,-0.88385009765625,-0.2555084228515625,-0.0113677978515625
1772556498782769700,7.843769775390625,-0.90020751953125,-0.254852294921875,-0.05657958984375
1772556498792753700,7.853753662109375,-0.904144287109375,-0.261260986328125,-0.081451416015625
1772556498802737700,7.863737548828125,-0.8959197998046875,-0.279541015625,-0.098602294921875
1772556498812721700,7.8737216796875,-0.88482666015625,-0.30224609375,-0.113067626953125
1772556498822705700,7.88370556640625,-0.867340087890625,-0.322418212890625,-0.119964599609375
1772556498832689400,7.893689453125,-0.8470611572265625,-0.3365020751953125,-0.118988037109375
1772556498842673700,7.903673583984375,-0.834564208984375,-0.347686767578125,-0.108062744140625
1772556498852657700,7.91365771484375,-0.82940673828125,-0.3590087890625,-0.08978271484375
1772556498862641700,7.9236416015625,-0.8295745849609375,-0.3684234619140625,-0.067718505859375
1772556498872625700,7.933625732421875,-0.830078125,-0.3751373291015625,-0.0460205078125
1772556498882609700,7.943609619140625,-0.8306884765625,-0.3806915283203125,-0.0281829833984375
1772556498892593700,7.95359375,-0.8351287841796875,-0.387359619140625,-0.021575927734375
1772556498902577700,7.96357763671875,-0.843109130859375,-0.3907928466796875,-0.0157470703125
1772556498912561700,7.973561767578125,-0.8454132080078125,-0.39044189453125,-0.0158233642578125
1772556498922545700,7.983545654296875,-0.8426666259765625,-0.3889312744140625,-0.0259246826171875
1772556498932529700,7.99352978515625,-0.8427886962890625,-0.3867340087890625,-0.0403594970703125
1772556498942513700,8.003513671875,-0.8417205810546875,-0.38751220703125,-0.053131103515625
1772556498952497700,8.01349755859375,-0.8329620361328125,-0.38922119140625,-0.0643463134765625
1772556498962481700,8.023481689453124,-0.8302764892578125,-0.3942413330078125,-0.0711822509765625
1772556498972464600,8.033464599609376,-0.8395538330078125,-0.404052734375,-0.071624755859375
1772556498982448600,8.04344873046875,-0.8502197265625,-0.416778564453125,-0.0598297119140625
1772556498992432600,8.0534326171875,-0.857879638671875,-0.4237823486328125,-0.0499267578125
1772556499002416600,8.063416748046874,-0.860382080078125,-0.4228057861328125,-0.054290771484375
1772556499012400600,8.073400634765624,-0.865081787109375,-0.419830322265625,-0.06512451171875
1772556499022384600,8.083384521484374,-0.8762969970703125,-0.4155731201171875,-0.0653533935546875
1772556499032368600,8.09336865234375,-0.8977508544921875,-0.419403076171875,-0.0591888427734375
1772556499042352600,8.1033525390625,-0.920867919921875,-0.42388916015625,-0.0517425537109375
1772556499052336600,8.113336669921875,-0.9333953857421875,-0.4305267333984375,-0.04974365234375
1772556499062320600,8.123320556640625,-0.9481658935546875,-0.44464111328125,-0.059356689453125
1772556499072304600,8.1333046875,-0.9603118896484375,-0.459686279296875,-0.060028076171875
1772556499082288600,8.14328857421875,-0.9680328369140625,-0.4721221923828125,-0.056549072265625
1772556499092272600,8.153272705078125,-0.985260009765625,-0.4838104248046875,-0.0528564453125
1772556499102256600,8.163256591796875,-1.010528564453125,-0.4915771484375,-0.04595947265625
1772556499112240600,8.17324072265625,-1.032012939453125,-0.4988250732421875,-0.039764404296875
1772556499122224600,8.183224609375,-1.0363006591796875,-0.5266265869140625,-0.034759521484375
1772556499132208600,8.193208740234375,-1.039794921875,-0.5597991943359375,-0.019561767578125
1772556499142192600,8.203192626953125,-1.0662994384765625,-0.534423828125,0.0127716064453125
1772556499152176600,8.2131767578125,-1.08575439453125,-0.49163818359375,0.0116729736328125
1772556499162160600,8.22316064453125,-1.0965728759765625,-0.4936065673828125,-0.0023956298828125
1772556499172144600,8.23314453125,-1.135589599609375,-0.491119384765625,-0.005340576171875
1772556499182128600,8.243128662109376,-1.20172119140625,-0.43499755859375,-0.001251220703125
1772556499192112600,8.253112548828126,-1.259490966796875,-0.347015380859375,-0.0128173828125
1772556499202096600,8.2630966796875,-1.2770233154296875,-0.2724151611328125,-0.0370941162109375
1772556499212079600,8.27307958984375,-1.246063232421875,-0.23773193359375,-0.07208251953125
1772556499222063600,8.283063720703124,-1.1801910400390625,-0.2299652099609375,-0.097076416015625
1772556499232047400,8.29304736328125,-1.1041717529296875,-0.2216949462890625,-0.10736083984375
1772556499242031400,8.30303125,-1.030670166015625,-0.220001220703125,-0.1217193603515625
1772556499252015400,8.313015380859374,-0.94842529296875,-0.220794677734375,-0.1295013427734375
1772556499261999400,8.322999267578124,-0.8814697265625,-0.223480224609375,-0.1448516845703125
1772556499271983400,8.3329833984375,-0.833404541015625,-0.22808837890625,-0.1503753662109375
1772556499281967400,8.34296728515625,-0.8102569580078125,-0.2342529296875,-0.14532470703125
1772556499291951400,8.352951416015625,-0.802642822265625,-0.247406005859375,-0.1333465576171875
1772556499301935400,8.362935302734375,-0.7990570068359375,-0.2641448974609375,-0.11700439453125
1772556499311919400,8.37291943359375,-0.80914306640625,-0.275360107421875,-0.0996856689453125
1772556499321903000,8.382903076171875,-0.8096923828125,-0.2884063720703125,-0.0882415771484375
1772556499331887400,8.392887451171875,-0.8072052001953125,-0.2980499267578125,-0.0847625732421875
1772556499341871400,8.402871337890625,-0.8127593994140625,-0.3040618896484375,-0.0886688232421875
1772556499351855400,8.41285546875,-0.8343658447265625,-0.305908203125,-0.0845489501953125
1772556499361839400,8.42283935546875,-0.86590576171875,-0.303314208984375,-0.074737548828125
1772556499371823400,8.4328232421875,-0.909027099609375,-0.3044891357421875,-0.0602264404296875
1772556499381807400,8.442807373046875,-0.9583892822265625,-0.3156585693359375,-0.0519256591796875
1772556499391791400,8.452791259765625,-0.97552490234375,-0.3217926025390625,-0.045562744140625
1772556499401775400,8.462775390625,-0.97900390625,-0.324676513671875,-0.0452728271484375
1772556499411759400,8.47275927734375,-0.962371826171875,-0.32037353515625,-0.0494537353515625
1772556499421743400,8.482743408203126,-0.924713134765625,-0.3132781982421875,-0.0561981201171875
1772556499431727400,8.492727294921876,-0.8861541748046875,-0.308990478515625,-0.057220458984375
1772556499441710300,8.50271044921875,-0.8546600341796875,-0.3135986328125,-0.0624847412109375
1772556499451694300,8.5126943359375,-0.8356475830078125,-0.3260040283203125,-0.0667724609375
1772556499461678300,8.52267822265625,-0.828948974609375,-0.3414764404296875,-0.0640869140625
1772556499471662300,8.532662353515626,-0.824951171875,-0.3539581298828125,-0.059661865234375
1772556499481646300,8.542646240234374,-0.819732666015625,-0.3660125732421875,-0.054443359375
1772556499491630300,8.55263037109375,-0.82098388671875,-0.375396728515625,-0.056884765625
1772556499501614300,8.5626142578125,-0.8250885009765625,-0.3831634521484375,-0.05975341796875
1772556499511598300,8.572598388671874,-0.8286590576171875,-0.39154052734375,-0.0701141357421875
1772556499521582300,8.582582275390624,-0.8309173583984375,-0.4009552001953125,-0.0829010009765625
1772556499531566300,8.59256640625,-0.8299713134765625,-0.4106597900390625,-0.09307861328125
1772556499541550300,8.60255029296875,-0.82623291015625,-0.4139862060546875,-0.0950164794921875
1772556499551534300,8.612534423828125,-0.8272705078125,-0.419525146484375,-0.0948028564453125
1772556499561518300,8.622518310546875,-0.830780029296875,-0.4204864501953125,-0.0943603515625
1772556499571502300,8.63250244140625,-0.8316192626953125,-0.4206390380859375,-0.0936737060546875
1772556499581486300,8.642486328125,-0.8320770263671875,-0.4122467041015625,-0.08770751953125
1772556499591470300,8.65247021484375,-0.82763671875,-0.41375732421875,-0.080902099609375
1772556499601454300,8.662454345703125,-0.82147216796875,-0.416595458984375,-0.071441650390625
1772556499611438300,8.672438232421875,-0.8272552490234375,-0.4133758544921875,-0.06304931640625
1772556499621422300,8.68242236328125,-0.836578369140625,-0.412872314453125,-0.055084228515625
1772556499631406300,8.69240625,-0.8428802490234375,-0.4210205078125,-0.04913330078125
1772556499641390300,8.702390380859375,-0.852203369140625,-0.4268798828125,-0.043670654296875
1772556499651374300,8.712374267578125,-0.872955322265625,-0.4233245849609375,-0.0440216064453125
1772556499661358300,8.7223583984375,-0.9000396728515625,-0.4200897216796875,-0.0514373779296875
1772556499671342300,8.73234228515625,-0.9239501953125,-0.4199371337890625,-0.065521240234375
1772556499681325300,8.7423251953125,-0.95550537109375,-0.41180419921875,-0.0806884765625
1772556499691309600,8.7523095703125,-1.000762939453125,-0.3919219970703125,-0.0973663330078125
1772556499701293300,8.762293212890626,-1.0523834228515625,-0.3572845458984375,-0.1084442138671875
1772556499711277300,8.77227734375,-1.0941162109375,-0.3214874267578125,-0.1251983642578125
1772556499721261300,8.78226123046875,-1.1119384765625,-0.2974090576171875,-0.1431732177734375
1772556499731245300,8.792245361328124,-1.098480224609375,-0.2870330810546875,-0.1486968994140625
1772556499741229300,8.802229248046874,-1.0487518310546875,-0.321075439453125,-0.1656951904296875
1772556499751213300,8.81221337890625,-0.994842529296875,-0.4114837646484375,-0.1834564208984375
1772556499761197300,8.822197265625,-1.0158843994140625,-0.471527099609375,-0.1708221435546875
1772556499771181300,8.832181396484375,-1.0792999267578125,-0.499542236328125,-0.160858154296875
1772556499781165300,8.842165283203125,-1.13153076171875,-0.53521728515625,-0.15972900390625
1772556499791149300,8.8521494140625,-1.1943359375,-0.528594970703125,-0.1361236572265625
1772556499801133300,8.86213330078125,-1.252166748046875,-0.48779296875,-0.11346435546875
1772556499811117300,8.872117431640625,-1.2996826171875,-0.4151763916015625,-0.09259033203125
1772556499821101300,8.882101318359375,-1.327301025390625,-0.3287353515625,-0.0728302001953125
1772556499831085600,8.89208544921875,-1.3214111328125,-0.242279052734375,-0.0540008544921875
1772556499841069600,8.902069580078125,-1.2741546630859375,-0.1785125732421875,-0.0531463623046875
1772556499851053300,8.91205322265625,-1.1869964599609375,-0.136932373046875,-0.0579986572265625
1772556499861037300,8.922037353515625,-1.0787811279296875,-0.11077880859375,-0.0514678955078125
1772556499871021300,8.932021240234375,-0.967010498046875,-0.099151611328125,-0.023468017578125
1772556499881005300,8.94200537109375,-0.8630218505859375,-0.107452392578125,0.0076141357421875
1772556499890989300,8.9519892578125,-0.8011016845703125,-0.134307861328125,0.02679443359375
1772556499900973300,8.961973388671876,-0.818206787109375,-0.169830322265625,0.029510498046875
1772556499910957300,8.971957275390626,-0.9071044921875,-0.2244873046875,0.02093505859375
1772556499920941300,8.98194140625,-0.9296417236328125,-0.28216552734375,0.0270538330078125
1772556499930924300,8.99192431640625,-0.912139892578125,-0.3099365234375,0.0438690185546875
1772556499940908500,9.001908447265626,-0.9073028564453125,-0.3125457763671875,0.0569000244140625
1772556499950892500,9.011892578125,-0.8921051025390625,-0.2998809814453125,0.065643310546875
1772556499960876300,9.021876220703126,-0.8878936767578125,-0.2836456298828125,0.067840576171875
1772556499970860300,9.0318603515625,-0.8902130126953125,-0.2704315185546875,0.064422607421875
1772556499980844300,9.04184423828125,-0.8960113525390625,-0.2541656494140625,0.0467987060546875
1772556499990828300,9.051828369140624,-0.896331787109375,-0.236297607421875,0.03326416015625
1772556500000812300,9.061812255859374,-0.886627197265625,-0.2204132080078125,0.0098419189453125
1772556500010796300,9.07179638671875,-0.8828582763671875,-0.2165374755859375,-0.0222320556640625
1772556500020780300,9.0817802734375,-0.8737030029296875,-0.2301788330078125,-0.058135986328125
1772556500030764300,9.091764404296875,-0.86395263671875,-0.25286865234375,-0.08477783203125
1772556500040748300,9.101748291015625,-0.8499298095703125,-0.27691650390625,-0.10198974609375
1772556500050732300,9.111732177734375,-0.830596923828125,-0.3047943115234375,-0.1125640869140625
1772556500060716300,9.12171630859375,-0.820404052734375,-0.333465576171875,-0.1160430908203125
1772556500070700300,9.1317001953125,-0.8096771240234375,-0.3633880615234375,-0.1178436279296875
1772556500080684500,9.1416845703125,-0.7985076904296875,-0.389007568359375,-0.1109466552734375
1772556500090668500,9.15166845703125,-0.789031982421875,-0.406646728515625,-0.0989990234375
1772556500100652500,9.161652587890625,-0.787750244140625,-0.4196624755859375,-0.0809478759765625
1772556500110636300,9.17163623046875,-0.7901611328125,-0.426513671875,-0.0658111572265625
1772556500120620300,9.181620361328125,-0.794921875,-0.4281005859375,-0.0526885986328125
1772556500130604300,9.191604248046875,-0.803375244140625,-0.430084228515625,-0.04644775390625
1772556500140588300,9.20158837890625,-0.81182861328125,-0.4295501708984375,-0.04412841796875
1772556500150572300,9.211572265625,-0.8232879638671875,-0.429534912109375,-0.047332763671875
1772556500160556300,9.221556396484376,-0.832275390625,-0.430023193359375,-0.0576019287109375
1772556500170539300,9.231539306640625,-0.8404541015625,-0.4276123046875,-0.068450927734375
1772556500180523500,9.2415234375,-0.8499603271484375,-0.4250640869140625,-0.07720947265625
1772556500190507500,9.251507568359376,-0.859466552734375,-0.4251251220703125,-0.085174560546875
1772556500200491500,9.261491455078126,-0.85784912109375,-0.415130615234375,-0.0895843505859375
1772556500210475500,9.2714755859375,-0.847076416015625,-0.4102325439453125,-0.0964202880859375
1772556500220459300,9.281459228515626,-0.8379058837890625,-0.4145050048828125,-0.1075592041015625
1772556500230444000,9.291444091796874,-0.832061767578125,-0.4252777099609375,-0.1082611083984375
1772556500240427800,9.301427734375,-0.8322906494140625,-0.4338531494140625,-0.0953826904296875
1772556500250411800,9.311411865234374,-0.8423004150390625,-0.4366455078125,-0.083251953125
1772556500260395800,9.321395751953125,-0.858245849609375,-0.4366302490234375,-0.076019287109375
1772556500270379800,9.3313798828125,-0.8793487548828125,-0.4329071044921875,-0.071990966796875
1772556500280363800,9.34136376953125,-0.908843994140625,-0.433807373046875,-0.0688629150390625
1772556500290347800,9.35134765625,-0.9354248046875,-0.4362335205078125,-0.0643310546875
1772556500300331800,9.361331787109375,-0.958770751953125,-0.431884765625,-0.05767822265625
1772556500310315800,9.371315673828125,-0.9833526611328125,-0.4252777099609375,-0.0552825927734375
1772556500320299800,9.3812998046875,-1.0088043212890625,-0.420623779296875,-0.0551910400390625
1772556500330283800,9.39128369140625,-1.0352935791015625,-0.4148101806640625,-0.051361083984375
1772556500340267800,9.401267822265625,-1.0591888427734375,-0.409454345703125,-0.040771484375
1772556500350252000,9.411251953125,-1.074615478515625,-0.407684326171875,-0.0227203369140625
1772556500360236000,9.421236083984375,-1.076446533203125,-0.40863037109375,-0.0078582763671875
1772556500370220000,9.431219970703125,-1.065399169921875,-0.4264984130859375,0.00543212890625
1772556500380203800,9.441203857421876,-1.0485992431640625,-0.4659881591796875,0.018768310546875
1772556500390187800,9.451187744140626,-1.063507080078125,-0.461700439453125,0.04449462890625
1772556500400171800,9.461171875,-1.09686279296875,-0.4322052001953125,0.066436767578125
1772556500410155800,9.47115576171875,-1.1171417236328125,-0.432952880859375,0.06524658203125
1772556500420139800,9.481139892578126,-1.1474609375,-0.43695068359375,0.0511016845703125
1772556500430123800,9.491123779296874,-1.196075439453125,-0.405303955078125,0.024261474609375
1772556500440106800,9.501106689453126,-1.2418365478515625,-0.3317413330078125,-0.0015716552734375
1772556500450091000,9.511091064453124,-1.265289306640625,-0.26141357421875,-0.025726318359375
1772556500460075000,9.521074951171874,-1.25311279296875,-0.2286376953125,-0.0622406005859375
1772556500470059000,9.53105908203125,-1.1897125244140625,-0.2329559326171875,-0.1118316650390625
1772556500480043000,9.54104296875,-1.102752685546875,-0.23968505859375,-0.1495819091796875
1772556500490027000,9.551027099609374,-1.0135650634765625,-0.24066162109375,-0.1706085205078125
1772556500500010800,9.5610107421875,-0.9384307861328125,-0.2445220947265625,-0.1748199462890625
1772556500509994800,9.570994873046875,-0.8853759765625,-0.248016357421875,-0.1697998046875
1772556500519978800,9.580978759765625,-0.8530426025390625,-0.2551422119140625,-0.1614837646484375
1772556500529962800,9.590962646484375,-0.845458984375,-0.2580413818359375,-0.147918701171875
1772556500539946800,9.60094677734375,-0.8456268310546875,-0.2584991455078125,-0.1318817138671875
1772556500549930800,9.6109306640625,-0.83331298828125,-0.2578277587890625,-0.1147003173828125
1772556500559914800,9.620914794921875,-0.818084716796875,-0.2554931640625,-0.0924835205078125
1772556500569898800,9.630898681640625,-0.7957763671875,-0.2592010498046875,-0.078369140625
1772556500579882800,9.6408828125,-0.783203125,-0.26708984375,-0.0659332275390625
1772556500589866800,9.65086669921875,-0.782989501953125,-0.2802276611328125,-0.0531768798828125
1772556500599851000,9.66085107421875,-0.795166015625,-0.296844482421875,-0.039794921875
1772556500609835000,9.6708349609375,-0.82098388671875,-0.311553955078125,-0.021759033203125
1772556500619819000,9.680819091796875,-0.8576202392578125,-0.3235321044921875,-0.0086212158203125
1772556500629803000,9.690802978515626,-0.88934326171875,-0.3337249755859375,-0.0091552734375
1772556500639787000,9.700787109375,-0.911773681640625,-0.3456268310546875,0.0017547607421875
1772556500649770800,9.710770751953126,-0.91766357421875,-0.352996826171875,0.0135040283203125
1772556500659754800,9.720754638671876,-0.9096832275390625,-0.349853515625,0.02642822265625
1772556500669738800,9.73073876953125,-0.8871002197265625,-0.33795166015625,0.036346435546875
1772556500679722800,9.74072265625,-0.8633575439453125,-0.3383331298828125,0.041839599609375
1772556500689706800,9.750706787109374,-0.8486480712890625,-0.3473968505859375,0.0418701171875
1772556500699690000,9.76068994140625,-0.8401031494140625,-0.358795166015625,0.0449981689453125
1772556500709674000,9.770674072265624,-0.829010009765625,-0.36767578125,0.0503387451171875
1772556500719655000,9.780655029296875,-0.8200836181640625,-0.3770904541015625,0.0458221435546875
1772556500729639000,9.790638916015626,-0.8162994384765625,-0.3855743408203125,0.033966064453125
1772556500739623000,9.800622802734376,-0.8197784423828125,-0.394256591796875,0.02093505859375
1772556500749607000,9.81060693359375,-0.82611083984375,-0.4029388427734375,0.00543212890625
1772556500759591000,9.8205908203125,-0.8319091796875,-0.411346435546875,-0.0102386474609375
1772556500769575000,9.830574951171876,-0.8292999267578125,-0.424224853515625,-0.0266265869140625
1772556500779559000,9.840558837890624,-0.823974609375,-0.4372100830078125,-0.03875732421875
1772556500789543000,9.85054296875,-0.82110595703125,-0.452789306640625,-0.048858642578125
1772556500799527000,9.86052685546875,-0.8134002685546875,-0.462677001953125,-0.0518341064453125
1772556500809511000,9.870510986328124,-0.8073272705078125,-0.468231201171875,-0.0555267333984375
1772556500819494700,9.88049462890625,-0.8033905029296875,-0.4687042236328125,-0.0547027587890625
1772556500829478700,9.890478759765625,-0.8052978515625,-0.4623565673828125,-0.0521240234375
1772556500839462700,9.900462646484375,-0.810150146484375,-0.4568939208984375,-0.0472869873046875
1772556500849446700,9.91044677734375,-0.814727783203125,-0.4505157470703125,-0.0387115478515625
1772556500859431000,9.920430908203125,-0.81658935546875,-0.4418487548828125,-0.0265045166015625
1772556500869415000,9.930414794921875,-0.82366943359375,-0.4273681640625,-0.009765625
1772556500879399000,9.94039892578125,-0.829620361328125,-0.412994384765625,0.00543212890625
1772556500889383000,9.9503828125,-0.8404998779296875,-0.410552978515625,0.0104522705078125
1772556500899367000,9.960366943359375,-0.8643646240234375,-0.4123687744140625,0.003143310546875
1772556500909351000,9.970350830078125,-0.896575927734375,-0.4165802001953125,-0.0030059814453125
1772556500919335000,9.9803349609375,-0.93792724609375,-0.4228668212890625,-0.003662109375
1772556500929319000,9.99031884765625,-0.987579345703125,-0.4193878173828125,-0.0155487060546875
1772556500939303000,10.000302978515625,-1.0449981689453125,-0.4008331298828125,-0.026092529296875
1772556500949287000,10.010286865234375,-1.0958709716796875,-0.3764190673828125,-0.03924560546875
1772556500959271000,10.02027099609375,-1.13311767578125,-0.353607177734375,-0.05743408203125
1772556500969254700,10.030254638671876,-1.1464080810546875,-0.3319854736328125,-0.072662353515625
1772556500979238000,10.04023779296875,-1.134063720703125,-0.3274078369140625,-0.082611083984375
1772556500989222000,10.050221923828126,-1.09698486328125,-0.363983154296875,-0.1002655029296875
1772556500999206000,10.060205810546876,-1.0521697998046875,-0.4403839111328125,-0.1321258544921875
1772556501009190000,10.07018994140625,-1.0565643310546875,-0.4925384521484375,-0.1488189697265625
1772556501019174000,10.080173828125,-1.1031036376953125,-0.529205322265625,-0.1463775634765625
1772556501029158000,10.090157958984374,-1.158416748046875,-0.5691986083984375,-0.1383056640625
1772556501039142000,10.100141845703124,-1.233978271484375,-0.5691070556640625,-0.1034088134765625
1772556501049126000,10.1101259765625,-1.2982635498046875,-0.53515625,-0.0815887451171875
1772556501059110000,10.12010986328125,-1.336669921875,-0.4816131591796875,-0.0663604736328125
1772556501069094000,10.130093994140625,-1.351409912109375,-0.404815673828125,-0.0261993408203125
1772556501079078000,10.140077880859375,-1.3244781494140625,-0.310272216796875,0.0233154296875
1772556501089061600,10.1500615234375,-1.2576751708984375,-0.2344818115234375,0.052734375
1772556501099045600,10.160045654296875,-1.1515045166015625,-0.1890716552734375,0.064666748046875
1772556501109030000,10.17002978515625,-1.0365142822265625,-0.1645355224609375,0.0899200439453125
1772556501119014000,10.180013916015625,-0.9448394775390625,-0.153076171875,0.1371002197265625
1772556501128998000,10.189997802734375,-0.8903350830078125,-0.159454345703125,0.175750732421875
1772556501138982000,10.19998193359375,-0.85955810546875,-0.1825103759765625,0.1875
1772556501148966000,10.2099658203125,-0.8404083251953125,-0.2170257568359375,0.1853790283203125
1772556501158950000,10.219949951171875,-0.82476806640625,-0.2486419677734375,0.1895294189453125
1772556501168934000,10.229933837890625,-0.8039398193359375,-0.2796783447265625,0.19525146484375
1772556501178918000,10.23991796875,-0.7931976318359375,-0.298980712890625,0.18206787109375
1772556501188902000,10.24990185546875,-0.77972412109375,-0.307342529296875,0.179656982421875
1772556501198886000,10.259885986328126,-0.7664337158203125,-0.323089599609375,0.1711578369140625
1772556501208870000,10.269869873046876,-0.7703399658203125,-0.327484130859375,0.1600799560546875
1772556501218854000,10.27985400390625,-0.78143310546875,-0.3213043212890625,0.14788818359375
1772556501228837600,10.289837646484376,-0.7881622314453125,-0.3142242431640625,0.122802734375
1772556501238822000,10.29982177734375,-0.792877197265625,-0.2950439453125,0.08990478515625
1772556501248806000,10.309805908203124,-0.80657958984375,-0.2857208251953125,0.0443878173828125
1772556501258790100,10.3197900390625,-0.8195953369140625,-0.29315185546875,-0.00543212890625
1772556501268773000,10.329773193359374,-0.8288726806640625,-0.2956390380859375,-0.0449371337890625
1772556501278756900,10.3397568359375,-0.825286865234375,-0.3032073974609375,-0.07177734375
1772556501288740900,10.349740966796874,-0.8199615478515625,-0.322021484375,-0.095245361328125
1772556501298724900,10.359724853515624,-0.80706787109375,-0.3397064208984375,-0.103363037109375
1772556501308708900,10.369708984375,-0.7916717529296875,-0.36199951171875,-0.1105804443359375
1772556501318692900,10.37969287109375,-0.777679443359375,-0.383758544921875,-0.1070404052734375
1772556501328676900,10.3896767578125,-0.7668914794921875,-0.405120849609375,-0.1015777587890625
1772556501338660900,10.399660888671875,-0.772125244140625,-0.4221649169921875,-0.0917816162109375
1772556501348644900,10.409644775390625,-0.7732696533203125,-0.4327392578125,-0.07562255859375
1772556501358628900,10.41962890625,-0.773223876953125,-0.4351348876953125,-0.060302734375
1772556501368613000,10.429613037109375,-0.77642822265625,-0.43463134765625,-0.0467987060546875
1772556501378597000,10.43959716796875,-0.7885589599609375,-0.4367828369140625,-0.036529541015625
1772556501388581000,10.4495810546875,-0.8075714111328125,-0.441864013671875,-0.02386474609375
1772556501398565000,10.459565185546875,-0.8233642578125,-0.4453125,-0.014739990234375
1772556501408549000,10.469549072265625,-0.83734130859375,-0.4453887939453125,-0.00982666015625
1772556501418532900,10.479532958984375,-0.8507080078125,-0.445770263671875,-0.009552001953125
1772556501428516900,10.489516845703125,-0.8679656982421875,-0.4462890625,-0.01007080078125
1772556501438500900,10.4995009765625,-0.8799591064453125,-0.4410552978515625,-0.012664794921875
1772556501448484900,10.50948486328125,-0.8909912109375,-0.4329071044921875,-0.0126800537109375
1772556501458468900,10.51946875,-0.8989105224609375,-0.4225311279296875,-0.009613037109375
1772556501468452900,10.529452880859376,-0.8940887451171875,-0.417022705078125,-0.00701904296875
1772556501478436900,10.539436767578126,-0.8919525146484375,-0.411865234375,-0.00177001953125
1772556501488420900,10.5494208984375,-0.8992156982421875,-0.4080657958984375,0.0063323974609375
1772556501498404900,10.55940478515625,-0.9129180908203125,-0.4091339111328125,0.014373779296875
1772556501508389000,10.56938916015625,-0.941131591796875,-0.4132080078125,0.02337646484375
1772556501518373000,10.579373046875,-0.9644012451171875,-0.4178314208984375,0.0273590087890625
1772556501528357000,10.589357177734374,-0.9826812744140625,-0.426055908203125,0.0267333984375
1772556501538341000,10.599341064453125,-1.0007476806640625,-0.434906005859375,0.0245819091796875
1772556501548323800,10.60932373046875,-1.017578125,-0.4461517333984375,0.0225677490234375
1772556501558307800,10.619307861328124,-1.0349578857421875,-0.4514617919921875,0.0226593017578125
1772556501568291800,10.629291748046874,-1.0448150634765625,-0.45916748046875,0.0221099853515625
1772556501578275800,10.63927587890625,-1.04779052734375,-0.4661712646484375,0.0178375244140625
1772556501588259800,10.649259765625,-1.0511016845703125,-0.4688568115234375,0.015655517578125
1772556501598243800,10.659243896484375,-1.05242919921875,-0.4795379638671875,0.0172576904296875
1772556501608228000,10.66922802734375,-1.0470428466796875,-0.5066986083984375,0.019287109375
1772556501618212000,10.679212158203125,-1.0407867431640625,-0.527130126953125,0.03289794921875
1772556501628196000,10.689196044921875,-1.0669403076171875,-0.518707275390625,0.0556793212890625
1772556501638180000,10.69918017578125,-1.1109466552734375,-0.508514404296875,0.0726776123046875
1772556501648164000,10.7091640625,-1.1409912109375,-0.50762939453125,0.0684356689453125
1772556501658148000,10.719148193359375,-1.169342041015625,-0.494354248046875,0.0475616455078125
1772556501668132000,10.729132080078125,-1.2068328857421875,-0.4532470703125,0.0330810546875
1772556501678116000,10.7391162109375,-1.2440338134765625,-0.3943328857421875,0.0233917236328125
1772556501688099800,10.749099853515625,-1.2684478759765625,-0.3355255126953125,0.00750732421875
1772556501698083800,10.759083740234376,-1.2606353759765625,-0.291229248046875,-0.0178375244140625
1772556501708067800,10.76906787109375,-1.2060394287109375,-0.2686614990234375,-0.0503387451171875
1772556501718051800,10.7790517578125,-1.1141204833984375,-0.25518798828125,-0.0740814208984375
1772556501728035800,10.789035888671876,-1.0109710693359375,-0.233856201171875,-0.0908050537109375
1772556501738019800,10.799019775390626,-0.91217041015625,-0.2109832763671875,-0.0962066650390625
1772556501748003800,10.80900390625,-0.8311767578125,-0.2002105712890625,-0.0982513427734375
1772556501757988000,10.818988037109374,-0.7711334228515625,-0.209259033203125,-0.1016387939453125
1772556501767972000,10.82897216796875,-0.738433837890625,-0.229583740234375,-0.097808837890625
1772556501777956000,10.8389560546875,-0.729766845703125,-0.25128173828125,-0.093292236328125
1772556501787940000,10.848940185546875,-0.731658935546875,-0.26275634765625,-0.088775634765625
1772556501797924000,10.858924072265625,-0.7435455322265625,-0.267242431640625,-0.07867431640625
1772556501807906800,10.86890673828125,-0.7540435791015625,-0.280242919921875,-0.0720367431640625
1772556501817890800,10.878890869140625,-0.768768310546875,-0.2978363037109375,-0.064056396484375
1772556501827874800,10.888874755859375,-0.7825927734375,-0.322509765625,-0.060333251953125
1772556501837858800,10.89885888671875,-0.7975311279296875,-0.3477935791015625,-0.0583953857421875
1772556501847842800,10.9088427734375,-0.8211669921875,-0.3612213134765625,-0.061065673828125
1772556501857827000,10.9188271484375,-0.8569488525390625,-0.36126708984375,-0.054901123046875
1772556501867811000,10.92881103515625,-0.897064208984375,-0.357757568359375,-0.0471649169921875
1772556501877795000,10.938795166015625,-0.9416961669921875,-0.3568878173828125,-0.043731689453125
1772556501887779000,10.948779052734375,-0.9717254638671875,-0.360107421875,-0.0311279296875
1772556501897763000,10.95876318359375,-0.97882080078125,-0.351287841796875,-0.018157958984375
1772556501907747000,10.9687470703125,-0.9638824462890625,-0.346282958984375,0.00115966796875
1772556501917731000,10.97873095703125,-0.9232025146484375,-0.3447265625,0.0275726318359375
1772556501927715000,10.988715087890625,-0.8896636962890625,-0.3461456298828125,0.047637939453125
1772556501937699000,10.998698974609376,-0.8722076416015625,-0.3509368896484375,0.07110595703125
1772556501947682800,11.008682861328126,-0.866546630859375,-0.3587646484375,0.091766357421875
1772556501957666800,11.018666748046876,-0.8683624267578125,-0.372833251953125,0.1042022705078125
1772556501967650800,11.02865087890625,-0.8736114501953125,-0.3875579833984375,0.1038665771484375
1772556501977634800,11.038634765625,-0.87554931640625,-0.3954925537109375,0.0920867919921875
1772556501987618800,11.048618896484374,-0.8701171875,-0.402252197265625,0.07501220703125
1772556501997602800,11.058602783203124,-0.8634796142578125,-0.4091644287109375,0.053741455078125
1772556502007587000,11.068587158203124,-0.8544921875,-0.4200897216796875,0.03094482421875
1772556502017571000,11.078571044921874,-0.843841552734375,-0.4313812255859375,0.0115203857421875
1772556502027555000,11.08855517578125,-0.8282928466796875,-0.4412689208984375,0.0030059814453125
1772556502037539000,11.0985390625,-0.8182220458984375,-0.4506683349609375,-0.0067901611328125
1772556502047523000,11.108523193359375,-0.8188323974609375,-0.4587249755859375,-0.0156707763671875
1772556502057507000,11.118507080078125,-0.814697265625,-0.46173095703125,-0.0236358642578125
1772556502067489800,11.12848974609375,-0.81182861328125,-0.459442138671875,-0.0214996337890625
1772556502077473800,11.138473876953125,-0.81512451171875,-0.4549407958984375,-0.019500732421875
1772556502087457800,11.148457763671875,-0.819366455078125,-0.450958251953125,-0.0185394287109375
1772556502097441800,11.15844189453125,-0.82421875,-0.446929931640625,-0.0144195556640625
1772556502107426000,11.168426025390625,-0.8298492431640625,-0.4392242431640625,-0.00830078125
1772556502117410000,11.17841015625,-0.83734130859375,-0.4343109130859375,-0.0047149658203125
1772556502127394000,11.18839404296875,-0.8419036865234375,-0.4250030517578125,-0.0012054443359375
1772556502137378000,11.1983779296875,-0.8471221923828125,-0.4221649169921875,-0.0018157958984375
1772556502147362000,11.208362060546875,-0.85992431640625,-0.4210662841796875,-0.0091705322265625
1772556502157346000,11.218345947265625,-0.88104248046875,-0.4208984375,-0.021636962890625
1772556502167330000,11.228330078125,-0.9037322998046875,-0.41754150390625,-0.0375823974609375
1772556502177314000,11.23831396484375,-0.9266815185546875,-0.4082489013671875,-0.059844970703125
1772556502187298000,11.248298095703126,-0.956878662109375,-0.390838623046875,-0.0818939208984375
1772556502197282000,11.258281982421876,-0.996612548828125,-0.373748779296875,-0.096649169921875
1772556502207265800,11.268265869140626,-1.0321197509765625,-0.3643646240234375,-0.10430908203125
1772556502217249800,11.278249755859376,-1.055938720703125,-0.3607635498046875,-0.1093597412109375
1772556502227233800,11.28823388671875,-1.061737060546875,-0.3650360107421875,-0.102935791015625
1772556502237217800,11.2982177734375,-1.0487823486328125,-0.384246826171875,-0.0952606201171875
1772556502247201800,11.308201904296874,-1.022491455078125,-0.42608642578125,-0.0955047607421875
1772556502257185800,11.318185791015624,-0.9872283935546875,-0.5009002685546875,-0.1141510009765625
1772556502267169500,11.32816943359375,-0.9749908447265625,-0.5679931640625,-0.131866455078125
1772556502277153500,11.338153564453124,-1.0072784423828125,-0.6116180419921875,-0.12274169921875
1772556502287137500,11.348137451171874,-1.0734405517578125,-0.6440582275390625,-0.100494384765625
1772556502297120500,11.35812060546875,-1.14971923828125,-0.653472900390625,-0.08319091796875
1772556502307104500,11.3681044921875,-1.2083282470703125,-0.625762939453125,-0.0679473876953125
1772556502317088500,11.378088623046875,-1.2525787353515625,-0.5601959228515625,-0.0547943115234375
1772556502327072500,11.388072509765625,-1.2934417724609375,-0.4777984619140625,-0.0353240966796875
1772556502337056500,11.398056396484375,-1.302703857421875,-0.3825225830078125,-0.01995849609375
1772556502347040800,11.408040771484375,-1.26605224609375,-0.2908782958984375,-0.0125732421875
1772556502357024800,11.418024658203125,-1.18023681640625,-0.2188568115234375,-0.022125244140625
1772556502367008800,11.4280087890625,-1.058319091796875,-0.1776885986328125,-0.0307769775390625
1772556502376992800,11.43799267578125,-0.9407806396484375,-0.15826416015625,-0.015411376953125
1772556502386976500,11.4479765625,-0.8568115234375,-0.15374755859375,0.020751953125
1772556502396960500,11.45796044921875,-0.813140869140625,-0.1763763427734375,0.050445556640625
1772556502406944500,11.467944580078125,-0.8039398193359375,-0.2213134765625,0.060272216796875
1772556502416928500,11.477928466796875,-0.8114776611328125,-0.2561798095703125,0.0825653076171875
1772556502426912500,11.48791259765625,-0.816925048828125,-0.287445068359375,0.103424072265625
1772556502436896500,11.497896484375,-0.814483642578125,-0.313873291015625,0.1176605224609375
1772556502446880500,11.507880615234376,-0.8015289306640625,-0.334716796875,0.1320343017578125
1772556502456864500,11.517864501953126,-0.7916412353515625,-0.351837158203125,0.1394805908203125
1772556502466848500,11.5278486328125,-0.7838134765625,-0.370513916015625,0.1273651123046875
1772556502476832500,11.53783251953125,-0.784423828125,-0.3924560546875,0.123077392578125
1772556502486816800,11.547816650390626,-0.7923126220703125,-0.402374267578125,0.1133880615234375
1772556502496800800,11.55780078125,-0.80670166015625,-0.3969268798828125,0.096435546875
1772556502506784800,11.56778466796875,-0.823974609375,-0.378448486328125,0.0831451416015625
1772556502516768800,11.577768798828124,-0.843231201171875,-0.3568115234375,0.0639190673828125
1772556502526751500,11.58775146484375,-0.870880126953125,-0.329986572265625,0.0359344482421875
1772556502536735500,11.597735595703124,-0.909210205078125,-0.3104248046875,0.0051727294921875
1772556502546719500,11.607719482421874,-0.9463958740234375,-0.307220458984375,-0.02740478515625
1772556502556703500,11.617703369140624,-0.9727783203125,-0.319671630859375,-0.052642822265625
1772556502566687500,11.6276875,-0.974822998046875,-0.341705322265625,-0.071319580078125
1772556502576671500,11.63767138671875,-0.9490966796875,-0.37060546875,-0.081787109375
1772556502586655700,11.64765576171875,-0.910797119140625,-0.396270751953125,-0.0795440673828125
1772556502596639700,11.6576396484375,-0.8718719482421875,-0.417266845703125,-0.0661468505859375
1772556502606623700,11.667623779296875,-0.8368377685546875,-0.430267333984375,-0.04779052734375
1772556502616607700,11.677607666015625,-0.8084869384765625,-0.4393310546875,-0.0285186767578125
1772556502626591700,11.687591796875,-0.787506103515625,-0.4433135986328125,-0.0121002197265625
1772556502636575700,11.69757568359375,-0.7737579345703125,-0.444671630859375,0.0105438232421875
1772556502646559500,11.7075595703125,-0.7712860107421875,-0.4467010498046875,0.033416748046875
1772556502656543500,11.71754345703125,-0.777313232421875,-0.4429473876953125,0.0486907958984375
1772556502666527500,11.727527587890625,-0.7841644287109375,-0.442169189453125,0.0496826171875
1772556502676511500,11.737511474609375,-0.7860107421875,-0.4423675537109375,0.0450592041015625
1772556502686495500,11.74749560546875,-0.792083740234375,-0.4391937255859375,0.043060302734375
1772556502696479500,11.7574794921875,-0.8042144775390625,-0.4355316162109375,0.036834716796875
1772556502706463500,11.76746337890625,-0.811065673828125,-0.433197021484375,0.030120849609375
1772556502716447500,11.777447509765626,-0.817657470703125,-0.428131103515625,0.0178375244140625
1772556502726430700,11.7874306640625,-0.8262176513671875,-0.42138671875,0.006103515625
1772556502736414700,11.797414794921876,-0.8291778564453125,-0.414947509765625,-0.006683349609375
1772556502746398700,11.807398681640626,-0.8291015625,-0.411346435546875,-0.0148162841796875
1772556502756382700,11.8173828125,-0.834808349609375,-0.41021728515625,-0.0153961181640625
1772556502766366500,11.827366455078124,-0.8516082763671875,-0.415557861328125,-0.011932373046875
1772556502776350500,11.8373505859375,-0.87713623046875,-0.4238739013671875,-0.0092010498046875
1772556502786334500,11.84733447265625,-0.903167724609375,-0.4322052001953125,-0.0090789794921875
1772556502796318500,11.857318359375,-0.928558349609375,-0.43914794921875,-0.0044097900390625
1772556502806302500,11.867302490234374,-0.9478912353515625,-0.4456024169921875,0.0030059814453125
1772556502816286500,11.877286376953125,-0.9698333740234375,-0.45440673828125,0.011444091796875
1772556502826270500,11.8872705078125,-0.98724365234375,-0.4648284912109375,0.0230865478515625
1772556502836254700,11.897254638671875,-0.997100830078125,-0.476043701171875,0.03021240234375
1772556502846238700,11.90723876953125,-1.0026092529296875,-0.4824676513671875,0.0330047607421875
1772556502856222700,11.91722265625,-1.003570556640625,-0.4835662841796875,0.037506103515625
1772556502866206700,11.927206787109375,-0.996917724609375,-0.4812774658203125,0.036102294921875
1772556502876190700,11.937190673828125,-0.9892120361328125,-0.482513427734375,0.0321502685546875
1772556502886174700,11.9471748046875,-0.974884033203125,-0.4876556396484375,0.034423828125
1772556502896158700,11.95715869140625,-0.9522552490234375,-0.50823974609375,0.039215087890625
1772556502906142500,11.967142578125,-0.938751220703125,-0.524139404296875,0.0527496337890625
1772556502916125400,11.97712548828125,-0.9542388916015625,-0.5189666748046875,0.0653839111328125
1772556502926109400,11.987109375,-0.9831085205078125,-0.5233306884765625,0.060028076171875
1772556502936093700,11.99709375,-1.0030517578125,-0.535736083984375,0.04705810546875
1772556502946077700,12.00707763671875,-1.026031494140625,-0.5290374755859375,0.0311279296875
1772556502956061700,12.017061767578125,-1.0755157470703125,-0.4819183349609375,0.00616455078125
1772556502966045700,12.027045654296876,-1.145050048828125,-0.4111328125,-0.0186767578125
1772556502976029700,12.03702978515625,-1.1950531005859375,-0.35662841796875,-0.04412841796875
1772556502986013700,12.047013671875,-1.2087860107421875,-0.3266143798828125,-0.08197021484375
1772556502995997700,12.056997802734376,-1.1842498779296875,-0.3021392822265625,-0.130096435546875
1772556503005981700,12.066981689453126,-1.1381072998046875,-0.2785491943359375,-0.1760101318359375
1772556503015965700,12.076965576171874,-1.076751708984375,-0.2685699462890625,-0.2234954833984375
1772556503025949400,12.086949462890624,-0.99578857421875,-0.2602386474609375,-0.2435150146484375
1772556503035933400,12.096933349609374,-0.9057464599609375,-0.253082275390625,-0.2436370849609375
1772556503045917400,12.10691748046875,-0.8299102783203125,-0.2511138916015625,-0.2176513671875
1772556503055901400,12.1169013671875,-0.78936767578125,-0.26092529296875,-0.1718902587890625
1772556503065885400,12.126885498046875,-0.772003173828125,-0.2905426025390625,-0.1385040283203125
1772556503075869400,12.136869384765625,-0.7690277099609375,-0.3124542236328125,-0.10504150390625
1772556503085853700,12.146853759765625,-0.7744293212890625,-0.324951171875,-0.0700225830078125
1772556503095837700,12.156837646484375,-0.7847747802734375,-0.3405303955078125,-0.0294952392578125
1772556503105821700,12.16682177734375,-0.807861328125,-0.3546600341796875,0.0098876953125
1772556503115804700,12.1768046875,-0.8341217041015625,-0.36871337890625,0.0370635986328125
1772556503125788700,12.18678857421875,-0.8638153076171875,-0.3805999755859375,0.0552215576171875
1772556503135772700,12.196772705078125,-0.888885498046875,-0.389251708984375,0.065582275390625
1772556503145756400,12.20675634765625,-0.918548583984375,-0.3817901611328125,0.068084716796875
1772556503155740400,12.216740478515625,-0.9482269287109375,-0.363616943359375,0.0675506591796875
1772556503165724400,12.226724365234375,-0.9739227294921875,-0.350738525390625,0.0616912841796875
1772556503175708400,12.23670849609375,-0.9904937744140625,-0.3447113037109375,0.0481109619140625
1772556503185692700,12.246692626953125,-0.9819793701171875,-0.3309173583984375,0.045928955078125
1772556503195676700,12.2566767578125,-0.95635986328125,-0.31964111328125,0.0540618896484375
1772556503205660700,12.26666064453125,-0.9248199462890625,-0.3177642822265625,0.0670166015625
1772556503215644700,12.276644775390626,-0.9007720947265625,-0.31951904296875,0.08868408203125
1772556503225628700,12.286628662109376,-0.8897552490234375,-0.329620361328125,0.1036834716796875
1772556503235616500,12.296616455078125,-0.89154052734375,-0.3399658203125,0.1148529052734375
1772556503245600500,12.3066005859375,-0.8950347900390625,-0.3456573486328125,0.1204986572265625
1772556503255584500,12.31658447265625,-0.9014434814453125,-0.346221923828125,0.125640869140625
1772556503265568500,12.326568603515625,-0.906402587890625,-0.34844970703125,0.1251220703125
1772556503275552500,12.336552490234375,-0.9130706787109375,-0.354522705078125,0.117767333984375
1772556503285535500,12.346535400390625,-0.9109344482421875,-0.361358642578125,0.10137939453125
1772556503295519200,12.356519287109375,-0.8987274169921875,-0.365142822265625,0.0808563232421875
1772556503305503500,12.36650341796875,-0.880462646484375,-0.369415283203125,0.054718017578125
1772556503315487500,12.376487548828125,-0.8634796142578125,-0.3756103515625,0.0335693359375
1772556503325471500,12.386471435546875,-0.8529205322265625,-0.3825836181640625,0.0179290771484375
1772556503335455500,12.39645556640625,-0.8502960205078125,-0.390594482421875,0.001220703125
1772556503345439500,12.406439453125,-0.8520660400390625,-0.39501953125,-0.01898193359375
1772556503355423500,12.416423583984376,-0.855010986328125,-0.4015960693359375,-0.0390472412109375
1772556503365407500,12.426407470703126,-0.861083984375,-0.4077301025390625,-0.0529327392578125
1772556503375391500,12.4363916015625,-0.874908447265625,-0.4162139892578125,-0.0617218017578125
1772556503385375500,12.44637548828125,-0.8914947509765625,-0.426422119140625,-0.066741943359375
1772556503395359500,12.456359375,-0.9071807861328125,-0.4335174560546875,-0.074920654296875
1772556503405343500,12.466343505859374,-0.93670654296875,-0.4350738525390625,-0.080780029296875
1772556503415327500,12.476327392578124,-0.975250244140625,-0.4282989501953125,-0.0914154052734375
1772556503425311500,12.4863115234375,-1.0154266357421875,-0.41400146484375,-0.0945281982421875
1772556503435295500,12.49629541015625,-1.0525360107421875,-0.39501953125,-0.092437744140625
1772556503445279200,12.506279296875,-1.0876312255859375,-0.3775482177734375,-0.09051513671875
1772556503455263500,12.516263427734375,-1.11181640625,-0.364959716796875,-0.087738037109375
1772556503465246500,12.52624658203125,-1.1138916015625,-0.352874755859375,-0.0902252197265625
1772556503475230500,12.53623046875,-1.1050567626953125,-0.34930419921875,-0.09930419921875
1772556503485214500,12.54621435546875,-1.0757598876953125,-0.354400634765625,-0.102783203125
1772556503495198500,12.556198486328125,-1.0409088134765625,-0.377777099609375,-0.1056671142578125
1772556503505182500,12.566182373046875,-1.013519287109375,-0.418212890625,-0.118560791015625
1772556503515166500,12.57616650390625,-1.0140533447265625,-0.4594879150390625,-0.1349945068359375
1772556503525150500,12.586150390625,-1.0494384765625,-0.4815826416015625,-0.13482666015625
1772556503535134500,12.596134521484375,-1.0988006591796875,-0.475067138671875,-0.105560302734375
1772556503545118500,12.606118408203125,-1.1260528564453125,-0.4495849609375,-0.0792236328125
1772556503555102500,12.6161025390625,-1.0975341796875,-0.4214630126953125,-0.061737060546875
1772556503565086500,12.62608642578125,-1.026763916015625,-0.3931884765625,-0.0406036376953125
1772556503575070500,12.636070556640625,-0.9489898681640625,-0.3747711181640625,-0.0236663818359375
1772556503585054500,12.646054443359375,-0.8679962158203125,-0.374908447265625,-0.0012359619140625
1772556503595038500,12.65603857421875,-0.80316162109375,-0.3849639892578125,0.0277862548828125
1772556503605022500,12.6660224609375,-0.7711944580078125,-0.3951568603515625,0.061126708984375
1772556503615006500,12.67600634765625,-0.7749481201171875,-0.403350830078125,0.0804595947265625
1772556503624990500,12.685990478515626,-0.796234130859375,-0.415802001953125,0.0969696044921875
1772556503634973400,12.695973388671876,-0.8232269287109375,-0.42071533203125,0.1263275146484375
1772556503644957400,12.70595751953125,-0.8433990478515625,-0.428558349609375,0.15728759765625
1772556503654941400,12.71594140625,-0.8574676513671875,-0.4302215576171875,0.17938232421875
1772556503664925700,12.72592578125,-0.8603973388671875,-0.417236328125,0.1900482177734375
1772556503674909400,12.735909423828126,-0.8601226806640625,-0.3929443359375,0.1874542236328125
1772556503684893400,12.7458935546875,-0.86236572265625,-0.3701171875,0.1773223876953125
1772556503694877400,12.75587744140625,-0.8664398193359375,-0.354827880859375,0.1675262451171875
1772556503704861400,12.765861328125,-0.861358642578125,-0.345947265625,0.15936279296875
1772556503714845400,12.775845458984374,-0.8520050048828125,-0.3464813232421875,0.1452178955078125
1772556503724829400,12.785829345703124,-0.8460845947265625,-0.3488006591796875,0.1325531005859375
