time,seconds_elapsed,z,y,x
1772556491010299400,0.07129931640625,0.17712125182151794,-0.09469801187515259,0.3533024191856384
1772556491020283400,0.081283447265625,0.2226320058107376,-0.10983169078826904,0.22870855033397675
1772556491030267400,0.091267333984375,0.2612188160419464,-0.17257629334926605,0.053098637610673904
1772556491040251400,0.10125146484375,0.2781868875026703,-0.3143768310546875,-0.15672409534454346
1772556491050235400,0.1112353515625,0.2680327892303467,-0.4832731783390045,-0.37681224942207336
1772556491060218400,0.12121826171875,0.23206785321235657,-0.6620213389396667,-0.5569721460342407
1772556491070202400,0.131202392578125,0.20599231123924255,-0.7956705093383789,-0.6456605195999146
1772556491080186400,0.141186279296875,0.19910778105258942,-0.8188349604606628,-0.5878467559814453
1772556491090170400,0.15117041015625,0.20333820581436157,-0.6963077187538147,-0.36332735419273376
1772556491100154400,0.161154296875,0.2172369807958603,-0.45375630259513855,-0.011145595461130142
1772556491110138400,0.171138427734375,0.22398462891578674,-0.1258476823568344,0.40744367241859436
1772556491120121600,0.18112158203125,0.20429055392742157,0.15955477952957153,0.7766374349594116
1772556491130105600,0.191105712890625,0.17146709561347961,0.3380161225795746,1.0066088438034058
1772556491140089300,0.20108935546875,0.13494770228862762,0.43725907802581787,1.0814372301101685
1772556491150073300,0.2110732421875,0.0874725878238678,0.4731960594654083,1.0189321041107178
1772556491160057300,0.221057373046875,0.02196442149579525,0.4630211889743805,0.869046688079834
1772556491170041300,0.231041259765625,-0.04141668230295181,0.4354042112827301,0.6792227029800415
1772556491180025300,0.241025390625,-0.08062800019979477,0.3888486921787262,0.4744277596473694
1772556491190008300,0.25100830078125,-0.07967352122068405,0.33174678683280945,0.25742247700691223
1772556491199992300,0.260992431640625,-0.06036214530467987,0.2906411588191986,0.03801688924431801
1772556491209976300,0.270976318359375,-0.021803565323352814,0.25505760312080383,-0.16291594505310059
1772556491219960600,0.280960693359375,0.0035571842454373837,0.2230203002691269,-0.3337356150150299
1772556491229944800,0.29094482421875,0.011302988044917583,0.19290900230407715,-0.4472278356552124
1772556491239928800,0.3009287109375,0.005630721338093281,0.16508536040782928,-0.49809420108795166
1772556491249911600,0.31091162109375,-0.008717591874301434,0.16724331676959991,-0.492802232503891
1772556491259895600,0.3208955078125,-0.010055563412606716,0.18877071142196655,-0.445842981338501
1772556491269879600,0.330879638671875,0.00800492987036705,0.23925679922103882,-0.3591621518135071
1772556491279863600,0.340863525390625,0.05090392753481865,0.3034043610095978,-0.2524050772190094
1772556491289847600,0.35084765625,0.10776587575674057,0.3727213740348816,-0.150294691324234
1772556491299831600,0.36083154296875,0.1670457124710083,0.41944199800491333,-0.06178640201687813
1772556491309814800,0.370814697265625,0.21196791529655457,0.4274938106536865,0.004138285759836435
1772556491319798800,0.380798828125,0.2517249286174774,0.41289064288139343,0.045277465134859085
1772556491329782800,0.39078271484375,0.2819536626338959,0.3919805586338043,0.0688411146402359
1772556491339766800,0.400766845703125,0.30837008357048035,0.36716869473457336,0.07528197020292282
1772556491349750500,0.41075048828125,0.3339358866214752,0.33004048466682434,0.07837310433387756
1772556491359734500,0.420734619140625,0.35013964772224426,0.28744056820869446,0.06506209075450897
1772556491369718500,0.430718505859375,0.3516421914100647,0.2217920422554016,0.04854250326752663
1772556491379701500,0.440701416015625,0.3278239369392395,0.1225954219698906,0.03266020864248276
1772556491389685500,0.450685546875,0.3031463027000427,-0.0031403994653373957,0.014246047474443913
1772556491399669800,0.460669677734375,0.27005597949028015,-0.10911716520786285,0.0034288198221474886
1772556491409653800,0.47065380859375,0.2334231436252594,-0.20104628801345825,-0.00427144393324852
1772556491419637800,0.4806376953125,0.191425621509552,-0.2470739632844925,-0.0033888723701238632
1772556491429621800,0.490621826171875,0.15630358457565308,-0.26576244831085205,0.010555172339081764
1772556491439605800,0.500605712890625,0.12743891775608063,-0.2660923898220062,0.048403218388557434
1772556491449588500,0.51058837890625,0.09848183393478394,-0.2507949471473694,0.11101759970188141
1772556491459572500,0.520572509765625,0.06463092565536499,-0.21195299923419952,0.19531942903995514
1772556491469556500,0.530556396484375,0.019151590764522552,-0.1876111775636673,0.2953019440174103
1772556491479540500,0.54054052734375,-0.03289429843425751,-0.17470602691173553,0.38604864478111267
1772556491489524500,0.5505244140625,-0.09224311262369156,-0.18330644071102142,0.45250728726387024
1772556491499508700,0.5605087890625,-0.1588839292526245,-0.19591811299324036,0.4857264757156372
1772556491509491700,0.57049169921875,-0.22835060954093933,-0.2033989280462265,0.46833205223083496
1772556491519475700,0.580475830078125,-0.3092784881591797,-0.2016654759645462,0.40399646759033203
1772556491529459700,0.590459716796875,-0.3789435923099518,-0.20474356412887573,0.3037489652633667
1772556491539443700,0.600443603515625,-0.42917773127555847,-0.20772522687911987,0.17464743554592133
1772556491549427700,0.610427734375,-0.4561915099620819,-0.20298533141613007,0.05825585126876831
1772556491559411500,0.620411376953125,-0.4521424174308777,-0.17800089716911316,-0.024322649464011192
1772556491569395500,0.6303955078125,-0.41692212224006653,-0.1362726241350174,-0.055744756013154984
1772556491579378700,0.640378662109375,-0.3598676323890686,-0.08566191047430038,-0.04020334407687187
1772556491589362700,0.65036279296875,-0.2819885313510895,-0.011544270440936089,0.02960210107266903
1772556491599346700,0.6603466796875,-0.19701425731182098,0.0779014527797699,0.13654905557632446
1772556491609330700,0.67033056640625,-0.14800198376178741,0.10972170531749725,0.2433231770992279
1772556491619314700,0.680314697265625,-0.13223926723003387,0.0867905542254448,0.2987864315509796
1772556491629298700,0.690298583984375,-0.13802124559879303,0.0697026476264,0.29669317603111267
1772556491639282700,0.70028271484375,-0.1538635939359665,0.05843108519911766,0.24566276371479034
1772556491649265400,0.710265380859375,-0.18925674259662628,0.03665068745613098,0.15868552029132843
1772556491659249700,0.720249755859375,-0.24735067784786224,-0.044920071959495544,0.008298410102725029
1772556491669233700,0.730233642578125,-0.31316298246383667,-0.13445314764976501,-0.18826045095920563
1772556491679217700,0.7402177734375,-0.37501993775367737,-0.23078714311122894,-0.40449288487434387
1772556491689201700,0.75020166015625,-0.38479986786842346,-0.29159989953041077,-0.5949571132659912
1772556491699185700,0.760185546875,-0.34368786215782166,-0.3076518177986145,-0.6994443535804749
1772556491709169700,0.770169677734375,-0.2618768811225891,-0.29426226019859314,-0.685081422328949
1772556491719152600,0.780152587890625,-0.16015717387199402,-0.2917655408382416,-0.543412446975708
1772556491729136600,0.79013671875,-0.0697828084230423,-0.28157708048820496,-0.30454763770103455
1772556491739120600,0.80012060546875,-0.021564148366451263,-0.26026034355163574,-0.0030445256270468235
1772556491749104600,0.810104736328125,-0.021978003904223442,-0.18630994856357574,0.30793678760528564
1772556491759088600,0.820088623046875,-0.04682636260986328,-0.0926377922296524,0.5847036838531494
1772556491769072600,0.83007275390625,-0.09289132803678513,-0.020081300288438797,0.7693797945976257
1772556491779055600,0.8400556640625,-0.1649910807609558,0.0276260357350111,0.8310703039169312
1772556491789039600,0.85003955078125,-0.24900715053081512,0.05790777504444122,0.7907117009162903
1772556491799023600,0.860023681640625,-0.33182188868522644,0.09441305696964264,0.6727434992790222
1772556491809007600,0.870007568359375,-0.4031011164188385,0.141234889626503,0.5037267804145813
1772556491818991600,0.87999169921875,-0.4480549991130829,0.19213375449180603,0.3192855715751648
1772556491828975600,0.8899755859375,-0.4668300449848175,0.25209563970565796,0.1417699158191681
1772556491838959600,0.899959716796875,-0.44630852341651917,0.3169691562652588,-0.02762523666024208
1772556491848942600,0.909942626953125,-0.40366145968437195,0.36448341608047485,-0.20307402312755585
1772556491858926600,0.919926513671875,-0.3344842493534088,0.3911597728729248,-0.3748457729816437
1772556491868910600,0.92991064453125,-0.24605637788772583,0.39950186014175415,-0.5135341286659241
1772556491878894600,0.93989453125,-0.14982092380523682,0.37519970536231995,-0.5930119156837463
1772556491888878600,0.949878662109375,-0.04815581068396568,0.30897969007492065,-0.5910441279411316
1772556491898862600,0.959862548828125,0.052442699670791626,0.1993011236190796,-0.5023611187934875
1772556491908846600,0.9698466796875,0.14137576520442963,0.06959638744592667,-0.3500373661518097
1772556491918829600,0.97982958984375,0.22099868953227997,-0.0678488239645958,-0.1895371675491333
1772556491928813600,0.9898134765625,0.2780148386955261,-0.18417862057685852,-0.05131884664297104
1772556491938797800,0.9997978515625,0.3079908490180969,-0.27605128288269043,0.04507586359977722
1772556491948781800,1.00978173828125,0.30720123648643494,-0.33000028133392334,0.08518573641777039
1772556491958765800,1.019765869140625,0.28380829095840454,-0.35676079988479614,0.07788654416799545
1772556491968749600,1.02974951171875,0.24820661544799805,-0.34812042117118835,0.027055585756897926
1772556491978733600,1.039733642578125,0.20518137514591217,-0.30165067315101624,-0.04381033033132553
1772556491988716500,1.049716552734375,0.17175285518169403,-0.221797913312912,-0.11886060982942581
1772556491998700500,1.059700439453125,0.1515016406774521,-0.11934849619865417,-0.17756493389606476
1772556492008684500,1.0696845703125,0.14192624390125275,-0.03045804053544998,-0.20204976201057434
1772556492018668500,1.07966845703125,0.1394772082567215,0.03750529885292053,-0.1774999499320984
1772556492028652500,1.089652587890625,0.140635147690773,0.08521077036857605,-0.12301833182573318
1772556492038636800,1.09963671875,0.13653387129306793,0.12414485216140747,-0.05223364382982254
1772556492048620800,1.109620849609375,0.13575170934200287,0.1632419228553772,0.01528601162135601
1772556492058604800,1.119604736328125,0.1383781135082245,0.21149307489395142,0.07211733609437943
1772556492068587500,1.12958740234375,0.15388676524162292,0.23253710567951202,0.09837557375431061
1772556492078571500,1.139571533203125,0.17106442153453827,0.23198343813419342,0.11183518916368484
1772556492088555500,1.149555419921875,0.2054964303970337,0.2284233123064041,0.13198572397232056
1772556492098539500,1.15953955078125,0.24506328999996185,0.24373888969421387,0.1627228707075119
1772556492108523500,1.1695234375,0.28552523255348206,0.2975400686264038,0.2116536647081375
1772556492118507500,1.179507568359375,0.3303334414958954,0.3485505282878876,0.26957154273986816
1772556492128491500,1.189491455078125,0.358421266078949,0.40292054414749146,0.3313409090042114
1772556492138474800,1.199474853515625,0.3760436773300171,0.4251997768878937,0.3908223509788513
1772556492148458800,1.209458740234375,0.39096564054489136,0.42958492040634155,0.4296605587005615
1772556492158442800,1.21944287109375,0.40008190274238586,0.4120541214942932,0.4461479187011719
1772556492168426500,1.229426513671875,0.401006281375885,0.3590297996997833,0.43061769008636475
1772556492178410500,1.239410400390625,0.3920351564884186,0.29190587997436523,0.376913458108902
1772556492188394500,1.24939453125,0.36552125215530396,0.21805590391159058,0.2983832359313965
1772556492198378500,1.25937841796875,0.3307238519191742,0.12926983833312988,0.21188722550868988
1772556492208361700,1.26936181640625,0.2843933701515198,0.019767045974731445,0.13285258412361145
1772556492218345700,1.279345703125,0.23100684583187103,-0.06720806658267975,0.07918909192085266
1772556492228329700,1.289329833984375,0.1892426311969757,-0.11622727662324905,0.07267659902572632
1772556492238313700,1.299313720703125,0.17007878422737122,-0.11344240605831146,0.11696124076843262
1772556492248297700,1.309297607421875,0.16628777980804443,-0.031002923846244812,0.18724605441093445
1772556492258281700,1.31928173828125,0.17935937643051147,0.06477340310811996,0.255796879529953
1772556492268265700,1.329265625,0.20497071743011475,0.12038473039865494,0.29546892642974854
1772556492278249700,1.339249755859375,0.23825490474700928,0.1398007720708847,0.2702762186527252
1772556492288232700,1.349232666015625,0.27689871191978455,0.08003517985343933,0.16155827045440674
1772556492298216700,1.359216796875,0.31296777725219727,-0.046426087617874146,-0.012651346623897552
1772556492308201000,1.369200927734375,0.34184202551841736,-0.20006997883319855,-0.2368282526731491
1772556492318185000,1.37918505859375,0.3577735722064972,-0.37326040863990784,-0.45629721879959106
1772556492328169000,1.3891689453125,0.35707664489746094,-0.5425367951393127,-0.6254180669784546
1772556492338152700,1.399152587890625,0.3756660223007202,-0.6534867286682129,-0.6824022531509399
1772556492348136700,1.40913671875,0.4064428508281708,-0.6463976502418518,-0.5948854684829712
1772556492358119700,1.41911962890625,0.4331498444080353,-0.5273948311805725,-0.3639545142650604
1772556492368103700,1.429103759765625,0.4573105573654175,-0.36901479959487915,-0.04767457768321037
1772556492378087700,1.439087646484375,0.4499663710594177,-0.14783047139644623,0.2895287573337555
1772556492388071700,1.44907177734375,0.4004709720611572,0.10206271708011627,0.5959967970848083
1772556492398055700,1.4590556640625,0.3353220820426941,0.29815152287483215,0.7962827682495117
1772556492408040000,1.4690400390625,0.2704637050628662,0.4247720539569855,0.8656368255615234
1772556492418024000,1.47902392578125,0.20749540627002716,0.5066773295402527,0.8200003504753113
1772556492428008000,1.489008056640625,0.14693830907344818,0.5515377521514893,0.6903347373008728
1772556492437990700,1.49899072265625,0.08927422016859055,0.5391769409179688,0.5103932023048401
1772556492447974700,1.508974609375,0.048288967460393906,0.4973043203353882,0.3127880096435547
1772556492457958700,1.518958740234375,0.022333800792694092,0.42679738998413086,0.11631595343351364
1772556492467942700,1.528942626953125,0.00996075477451086,0.34102335572242737,-0.07659304141998291
1772556492477926700,1.5389267578125,0.005417402368038893,0.2589434087276459,-0.2571500539779663
1772556492487910700,1.54891064453125,0.00461579067632556,0.19491009414196014,-0.42971888184547424
1772556492497894700,1.558894775390625,-0.008465389721095562,0.14716894924640656,-0.5812349319458008
1772556492507878000,1.5688779296875,-0.0320599302649498,0.09130008518695831,-0.6960733532905579
1772556492517862000,1.57886181640625,-0.06391932815313339,0.0568571574985981,-0.7654278874397278
1772556492527846000,1.588845947265625,-0.09326682984828949,0.0051841093227267265,-0.763608455657959
1772556492537830000,1.598829833984375,-0.11126793175935745,-0.026861974969506264,-0.7078639268875122
1772556492547813600,1.608813720703125,-0.11499742418527603,-0.0168524831533432,-0.6064228415489197
1772556492557797600,1.618797607421875,-0.09430759400129318,0.009129582904279232,-0.4917774498462677
1772556492567781600,1.62878173828125,-0.0466119758784771,0.07729052752256393,-0.3734374940395355
1772556492577765600,1.638765625,0.011178884655237198,0.1515786051750183,-0.26307904720306396
1772556492587748900,1.648748779296875,0.07612086832523346,0.20939023792743683,-0.18225929141044617
1772556492597732900,1.65873291015625,0.15050694346427917,0.23999927937984467,-0.14424239099025726
1772556492607716900,1.668716796875,0.22798389196395874,0.23128674924373627,-0.1478978544473648
1772556492617700900,1.678700927734375,0.28482693433761597,0.19525817036628723,-0.1878034621477127
1772556492627684900,1.688684814453125,0.3150264024734497,0.15527907013893127,-0.23534061014652252
1772556492637668900,1.6986689453125,0.325130432844162,0.10060623288154602,-0.28819477558135986
1772556492647652900,1.70865283203125,0.32051169872283936,0.037887994199991226,-0.34809911251068115
1772556492657636600,1.71863671875,0.29874515533447266,-0.038418762385845184,-0.4157063961029053
1772556492667619600,1.72861962890625,0.2651483118534088,-0.11089109629392624,-0.4814870059490204
1772556492677603800,1.738603759765625,0.21971504390239716,-0.14726269245147705,-0.5122944712638855
1772556492687587800,1.748587890625,0.1722298264503479,-0.154571995139122,-0.4699440598487854
1772556492697571800,1.75857177734375,0.1452205777168274,-0.16779938340187073,-0.3843138515949249
1772556492707555800,1.768555908203125,0.13864442706108093,-0.17241491377353668,-0.2920939028263092
1772556492717539800,1.778539794921875,0.12972870469093323,-0.17500270903110504,-0.19173695147037506
1772556492727523800,1.78852392578125,0.11397051066160202,-0.17632336914539337,-0.08620119839906693
1772556492737507800,1.7985078125,0.08711706101894379,-0.15216583013534546,0.039262983947992325
1772556492747490600,1.808490478515625,0.05858607962727547,-0.11230204254388809,0.18168483674526215
1772556492757474600,1.818474609375,0.014085458591580391,-0.07014020532369614,0.31312063336372375
1772556492767458600,1.82845849609375,-0.04159697890281677,-0.030352579429745674,0.4119734466075897
1772556492777442800,1.83844287109375,-0.10572057217359543,-0.013948572799563408,0.4568447768688202
1772556492787426800,1.8484267578125,-0.16924415528774261,-0.0189563799649477,0.44058698415756226
1772556492797410800,1.858410888671875,-0.24669766426086426,-0.02882738783955574,0.3690249025821686
1772556492807394800,1.868394775390625,-0.31821659207344055,-0.0499984510242939,0.26355308294296265
1772556492817378800,1.87837890625,-0.36820411682128906,-0.06677290797233582,0.16626940667629242
1772556492827361800,1.88836181640625,-0.4069797396659851,-0.07477064430713654,0.08596630394458771
1772556492837345800,1.898345703125,-0.4157596528530121,-0.06097067520022392,0.03154380992054939
1772556492847329800,1.908329833984375,-0.39516595005989075,-0.021225128322839737,0.009846772067248821
1772556492857313800,1.918313720703125,-0.34752681851387024,0.021584387868642807,0.03290548548102379
1772556492867297500,1.928297607421875,-0.27910086512565613,0.07233864814043045,0.09545701742172241
1772556492877281800,1.93828173828125,-0.2360016107559204,0.08795275539159775,0.1673799455165863
1772556492887265800,1.948265869140625,-0.2162870317697525,0.031735558062791824,0.22563499212265015
1772556492897249800,1.958249755859375,-0.22098112106323242,-0.025950640439987183,0.23081856966018677
1772556492907232800,1.968232666015625,-0.22292734682559967,-0.053342849016189575,0.18168377876281738
1772556492917216800,1.978216796875,-0.21221105754375458,-0.04101587459445,0.08051934093236923
1772556492927200800,1.98820068359375,-0.1953950673341751,-0.006912766955792904,-0.0420430563390255
1772556492937184800,1.998184814453125,-0.17933060228824615,-0.009830259718000889,-0.1815551519393921
1772556492947168800,2.008168701171875,-0.1512552946805954,-0.04361618682742119,-0.31584423780441284
1772556492957152800,2.01815283203125,-0.11567013710737228,-0.07664550840854645,-0.41981592774391174
1772556492967136800,2.02813671875,-0.06504984200000763,-0.0964953824877739,-0.4560583531856537
1772556492977120800,2.038120849609375,-0.004870655480772257,-0.12046889215707779,-0.411022424697876
1772556492987104800,2.048104736328125,0.05758313462138176,-0.15296317636966705,-0.27380305528640747
1772556492997087700,2.058087646484375,0.10728917270898819,-0.19491729140281677,-0.05355989933013916
1772556493007071700,2.06807177734375,0.12568522989749908,-0.2238496094942093,0.21046988666057587
1772556493017055700,2.0780556640625,0.10815469920635223,-0.22917166352272034,0.4833136796951294
1772556493027039700,2.088039794921875,0.04537573829293251,-0.21595360338687897,0.7181413769721985
1772556493037023700,2.098023681640625,-0.03590180724859238,-0.20475633442401886,0.8684251308441162
1772556493047007700,2.1080078125,-0.13854269683361053,-0.20004786550998688,0.9156006574630737
1772556493056991700,2.11799169921875,-0.24128079414367676,-0.18180601298809052,0.8722941875457764
1772556493066975700,2.127975830078125,-0.340974897146225,-0.12251180410385132,0.7627705931663513
1772556493076958700,2.137958740234375,-0.4246058762073517,-0.03482109680771828,0.6236537098884583
1772556493086942700,2.147942626953125,-0.4804864525794983,0.06316325813531876,0.4896237552165985
1772556493096926700,2.1579267578125,-0.5042048096656799,0.1632155478000641,0.3587735891342163
1772556493106910700,2.16791064453125,-0.5030881762504578,0.24137373268604279,0.2297319918870926
1772556493116894700,2.177894775390625,-0.469892680644989,0.2769351899623871,0.08407013863325119
1772556493126878700,2.187878662109375,-0.41301366686820984,0.2849542498588562,-0.07721089571714401
1772556493136862700,2.19786279296875,-0.3404678404331207,0.26363590359687805,-0.23462262749671936
1772556493146846700,2.2078466796875,-0.2483440339565277,0.2163541465997696,-0.3584468364715576
1772556493156830700,2.217830810546875,-0.14816497266292572,0.16381636261940002,-0.41617217659950256
1772556493166814000,2.22781396484375,-0.04675552248954773,0.11043675988912582,-0.3846994638442993
1772556493176798000,2.2377978515625,0.05494767054915428,0.055146608501672745,-0.2739311456680298
1772556493186781700,2.24778173828125,0.14751408994197845,-0.0025686188600957394,-0.11413935571908951
1772556493196765700,2.257765625,0.21851928532123566,-0.04152294248342514,0.036912478506565094
1772556493206749700,2.267749755859375,0.26429903507232666,-0.06496834754943848,0.15056394040584564
1772556493216733700,2.277733642578125,0.2747676372528076,-0.07606307417154312,0.21291200816631317
1772556493226713300,2.28771337890625,0.25835007429122925,-0.10050796717405319,0.22457797825336456
1772556493236697300,2.297697265625,0.219146728515625,-0.12711986899375916,0.19149300456047058
1772556493246680300,2.307680419921875,0.16587258875370026,-0.1432058960199356,0.12069153040647507
1772556493256664300,2.317664306640625,0.09884562343358994,-0.14455771446228027,0.018607772886753082
1772556493266648300,2.3276484375,0.03229641914367676,-0.13374288380146027,-0.1009359359741211
1772556493276632300,2.33763232421875,-0.034629348665475845,-0.11130069196224213,-0.2017805278301239
1772556493286616300,2.3476162109375,-0.09269078820943832,-0.08407066762447357,-0.2701236307621002
1772556493296600300,2.357600341796875,-0.13466034829616547,-0.05633917078375816,-0.29854676127433777
1772556493306584300,2.367584228515625,-0.1594511717557907,-0.03897695988416672,-0.30100512504577637
1772556493316568300,2.377568359375,-0.16820818185806274,-0.03136511147022247,-0.28826001286506653
1772556493326552300,2.38755224609375,-0.16325363516807556,-0.02990170568227768,-0.2670966684818268
1772556493336535600,2.39753564453125,-0.14727866649627686,-0.024718130007386208,-0.23974654078483582
1772556493346519300,2.407519287109375,-0.12868207693099976,-0.014364558272063732,-0.20994816720485687
1772556493356503300,2.41750341796875,-0.11239472031593323,0.0100800646468997,-0.16940313577651978
1772556493366487300,2.4274873046875,-0.10082594305276871,0.03778652846813202,-0.13043124973773956
1772556493376471300,2.43747119140625,-0.07600155472755432,0.07016444206237793,-0.08650453388690948
1772556493386455300,2.447455322265625,-0.04694114252924919,0.10175246000289917,-0.03193662688136101
1772556493396439300,2.457439208984375,-0.013521401211619377,0.1311391144990921,0.013557353988289833
1772556493406423300,2.46742333984375,0.02426059916615486,0.16874746978282928,0.054431814700365067
1772556493416407300,2.4774072265625,0.07066857814788818,0.21097269654273987,0.07673259824514389
1772556493426390500,2.487390625,0.11042238026857376,0.24331705272197723,0.07112184911966324
1772556493436374500,2.49737451171875,0.13564863801002502,0.2573692202568054,0.02298734150826931
1772556493446358500,2.507358642578125,0.14525413513183594,0.23034532368183136,-0.0477835014462471
1772556493456342500,2.517342529296875,0.15101668238639832,0.1610109955072403,-0.1203482523560524
1772556493466326300,2.527326171875,0.14168283343315125,0.06637955456972122,-0.1618855744600296
1772556493476310300,2.537310302734375,0.12737420201301575,-0.03858254477381706,-0.151956245303154
1772556493486294300,2.547294189453125,0.12226652354001999,-0.12493927031755447,-0.0772886648774147
1772556493496278300,2.5572783203125,0.11976954340934753,-0.16524435579776764,0.047153130173683167
1772556493506262300,2.56726220703125,0.13673147559165955,-0.14667412638664246,0.19742092490196228
1772556493516245200,2.577245361328125,0.16770191490650177,-0.14329883456230164,0.31278613209724426
1772556493526229500,2.5872294921875,0.2056484967470169,-0.1370265632867813,0.3388981521129608
1772556493536213500,2.597213623046875,0.24229572713375092,-0.11801638454198837,0.2714426815509796
1772556493546197500,2.607197509765625,0.2650550901889801,-0.12883014976978302,0.11449088901281357
1772556493556181500,2.617181396484375,0.2902645766735077,-0.179546058177948,-0.1044427827000618
1772556493566165500,2.62716552734375,0.32644975185394287,-0.26820269227027893,-0.33796021342277527
1772556493576149200,2.637149169921875,0.351168692111969,-0.3836802840232849,-0.5243591070175171
1772556493586133200,2.64713330078125,0.35936322808265686,-0.4930112957954407,-0.6334669589996338
1772556493596117200,2.6571171875,0.36285436153411865,-0.573829174041748,-0.6606261134147644
1772556493606100200,2.667100341796875,0.36078375577926636,-0.593856692314148,-0.5815398097038269
1772556493616084200,2.677084228515625,0.34573930501937866,-0.5490468740463257,-0.41136303544044495
1772556493626068500,2.687068359375,0.32577598094940186,-0.4665064513683319,-0.19818046689033508
1772556493636052500,2.697052490234375,0.29301029443740845,-0.3032594919204712,0.06380907446146011
1772556493646036500,2.707036376953125,0.22688613831996918,-0.10788119584321976,0.3309563398361206
1772556493656020500,2.7170205078125,0.1432357281446457,0.08075423538684845,0.5621498823165894
1772556493666004500,2.72700439453125,0.06987788528203964,0.22351591289043427,0.7243784666061401
1772556493675988500,2.736988525390625,0.01829564943909645,0.3110332489013672,0.7758345007896423
1772556493685972500,2.746972412109375,-0.019639480859041214,0.3474186956882477,0.7340457439422607
1772556493695956200,2.756956298828125,-0.039143405854701996,0.3392963111400604,0.626204788684845
1772556493705939200,2.766939208984375,-0.04808523878455162,0.3158722221851349,0.4895997941493988
1772556493715923200,2.776923095703125,-0.04639013484120369,0.2696663737297058,0.33436307311058044
1772556493725907200,2.7869072265625,-0.03298138454556465,0.22229884564876556,0.16629444062709808
1772556493735891500,2.796891357421875,-0.027824707329273224,0.17093339562416077,-0.019341474398970604
1772556493745875500,2.80687548828125,-0.026191124692559242,0.1067485511302948,-0.21135352551937103
1772556493755859500,2.816859375,-0.02966202236711979,0.050338272005319595,-0.40109071135520935
1772556493765843500,2.826843505859375,-0.04372803866863251,0.009016131982207298,-0.5644439458847046
1772556493775827500,2.836827392578125,-0.07876724749803543,-0.01612410880625248,-0.6774871349334717
1772556493785811500,2.8468115234375,-0.10755868256092072,-0.0381990522146225,-0.7248791456222534
1772556493795794200,2.856794189453125,-0.12197330594062805,-0.04271337389945984,-0.6995173096656799
1772556493805778200,2.866778076171875,-0.11743954569101334,-0.021867481991648674,-0.629045307636261
1772556493815762200,2.87676220703125,-0.1009652316570282,0.03905312716960907,-0.5214442610740662
1772556493825746200,2.88674609375,-0.06853804737329483,0.11418969184160233,-0.4076191782951355
1772556493835730400,2.89673046875,-0.024945829063653946,0.1881030648946762,-0.31168332695961
1772556493845714400,2.90671435546875,0.0280313678085804,0.25102129578590393,-0.2525113523006439
1772556493855698400,2.916698486328125,0.08291112631559372,0.29500100016593933,-0.2469187080860138
1772556493865682400,2.926682373046875,0.14609648287296295,0.31028568744659424,-0.2891082465648651
1772556493875666400,2.93666650390625,0.20803602039813995,0.297302782535553,-0.3611299693584442
1772556493885650400,2.946650390625,0.26063957810401917,0.2609354555606842,-0.4479631185531616
1772556493895633400,2.95663330078125,0.2985755205154419,0.1932418942451477,-0.5300889015197754
1772556493905617200,2.9666171875,0.31973937153816223,0.10265127569437027,-0.5896563529968262
1772556493915601200,2.97660107421875,0.31888583302497864,0.014087855815887451,-0.6205612421035767
1772556493925585200,2.986585205078125,0.3031090199947357,-0.08365415036678314,-0.6275805830955505
1772556493935569400,2.9965693359375,0.2731702923774719,-0.15285399556159973,-0.614018976688385
1772556493945553400,3.006553466796875,0.23216612637043,-0.20046305656433105,-0.5606952905654907
1772556493955537400,3.016537353515625,0.18997526168823242,-0.22936874628067017,-0.479462206363678
1772556493965521400,3.026521484375,0.14750929176807404,-0.23737287521362305,-0.3843841552734375
1772556493975505400,3.03650537109375,0.11070707440376282,-0.22540248930454254,-0.2777293622493744
1772556493985488400,3.04648828125,0.06556516140699387,-0.19804224371910095,-0.15385028719902039
1772556493995472400,3.056472412109375,0.0231734961271286,-0.15236742794513702,-0.008728510700166225
1772556494005456400,3.066456298828125,-0.021645907312631607,-0.10726440697908401,0.133482426404953
1772556494015440100,3.076440185546875,-0.07329871505498886,-0.07496292144060135,0.24995870888233185
1772556494025424100,3.086424072265625,-0.12952284514904022,-0.05017954856157303,0.3207426071166992
1772556494035408400,3.096408447265625,-0.19180485606193542,-0.045511290431022644,0.34629642963409424
1772556494045392400,3.106392333984375,-0.24686597287654877,-0.0470050573348999,0.32555121183395386
1772556494055376400,3.11637646484375,-0.30435189604759216,-0.058517903089523315,0.2591143846511841
1772556494065360400,3.1263603515625,-0.3568963408470154,-0.05698046088218689,0.18154741823673248
1772556494075344400,3.136344482421875,-0.4004608690738678,-0.04099590331315994,0.09538377821445465
1772556494085328400,3.146328369140625,-0.4139183461666107,-0.001966478070244193,0.01918701082468033
1772556494095311400,3.156311279296875,-0.40480688214302063,0.06369295716285706,-0.04975903406739235
1772556494105295400,3.16629541015625,-0.3718028664588928,0.12723198533058167,-0.0959467664361
1772556494115279400,3.176279296875,-0.3167065680027008,0.18057404458522797,-0.12019778043031693
1772556494125263400,3.186263427734375,-0.26159432530403137,0.21966923773288727,-0.1121949777007103
1772556494135247000,3.1962470703125,-0.1936645358800888,0.25929921865463257,-0.06681738048791885
1772556494145231400,3.2062314453125,-0.11907179653644562,0.3186839818954468,0.010929613374173641
1772556494155215400,3.21621533203125,-0.06001034006476402,0.3433179557323456,0.08536096662282944
1772556494165199400,3.226199462890625,-0.05239609628915787,0.31007370352745056,0.11963292211294174
1772556494175183400,3.236183349609375,-0.08358383923768997,0.2696754038333893,0.10264435410499573
1772556494185167400,3.24616748046875,-0.121378093957901,0.23309236764907837,0.04435228556394577
1772556494195150300,3.256150390625,-0.16868355870246887,0.16188476979732513,-0.0546395443379879
1772556494205134300,3.26613427734375,-0.23646660149097443,0.01338717807084322,-0.19403578341007233
1772556494215118300,3.276118408203125,-0.3227205276489258,-0.17762166261672974,-0.3467760682106018
1772556494225102800,3.286102783203125,-0.416251003742218,-0.3582138121128082,-0.4736615717411041
1772556494235086800,3.2960869140625,-0.4790180027484894,-0.46256712079048157,-0.5334165096282959
1772556494245070800,3.30607080078125,-0.4709957540035248,-0.49596473574638367,-0.48543301224708557
1772556494255054800,3.316054931640625,-0.40939897298812866,-0.4536910653114319,-0.3171318769454956
1772556494265038800,3.326038818359375,-0.3199218213558197,-0.36642220616340637,-0.05204349383711815
1772556494275023000,3.336023193359375,-0.23927916586399078,-0.25422003865242004,0.2754630148410797
1772556494285007000,3.346007080078125,-0.20065081119537354,-0.13582973182201385,0.5949307680130005
1772556494294990000,3.355989990234375,-0.2027248740196228,-0.022162560373544693,0.8570334911346436
1772556494304974000,3.36597412109375,-0.24108025431632996,0.07171759754419327,1.0222115516662598
1772556494314957800,3.375957763671875,-0.2991859018802643,0.1124996468424797,1.0616739988327026
1772556494324941800,3.38594189453125,-0.3798093795776367,0.1316765397787094,0.9954531192779541
1772556494334925800,3.39592578125,-0.4737433195114136,0.16309624910354614,0.8518666625022888
1772556494344909800,3.405909912109375,-0.5771749019622803,0.20949622988700867,0.6506970524787903
1772556494354893800,3.415893798828125,-0.6583557724952698,0.25438567996025085,0.43539169430732727
1772556494364877800,3.4258779296875,-0.7150752544403076,0.2907506227493286,0.21927988529205322
1772556494374862000,3.435862060546875,-0.7443678975105286,0.3213021159172058,0.03437155485153198
1772556494384846000,3.44584619140625,-0.741050660610199,0.3262638747692108,-0.13449256122112274
1772556494394830000,3.455830078125,-0.6985167860984802,0.31763628125190735,-0.3068763017654419
1772556494404813000,3.46581298828125,-0.6158477663993835,0.3174107074737549,-0.46005868911743164
1772556494414797000,3.475797119140625,-0.49973177909851074,0.3093269467353821,-0.5699942111968994
1772556494424781000,3.485781005859375,-0.3742945194244385,0.2839401066303253,-0.6190539002418518
1772556494434764800,3.495764892578125,-0.24729874730110168,0.22287729382514954,-0.586378276348114
1772556494444748800,3.505748779296875,-0.1281140297651291,0.12668657302856445,-0.4885169565677643
1772556494454732800,3.51573291015625,-0.0268878061324358,0.019030416384339333,-0.3463355600833893
1772556494464716800,3.525716796875,0.05430052429437637,-0.09612573683261871,-0.19775542616844177
1772556494474700800,3.53570068359375,0.11167353391647339,-0.20258772373199463,-0.07870546728372574
1772556494484685000,3.54568505859375,0.1402958631515503,-0.2871822416782379,-0.002526274649426341
1772556494494669000,3.5556689453125,0.14907416701316833,-0.3457414209842682,0.02321743778884411
1772556494504653000,3.565653076171875,0.14879560470581055,-0.3744809329509735,0.004739627707749605
1772556494514636000,3.575635986328125,0.12827514111995697,-0.37618693709373474,-0.05053747445344925
1772556494524620000,3.5856201171875,0.09436272084712982,-0.3549221456050873,-0.1362007111310959
1772556494534604000,3.59560400390625,0.05694158002734184,-0.29570940136909485,-0.24005760252475739
1772556494544587800,3.605587890625,0.022609438747167587,-0.2194252908229828,-0.33656683564186096
1772556494554571800,3.61557177734375,-0.0007968177669681609,-0.1454530656337738,-0.4051932990550995
1772556494564555800,3.6255556640625,-0.02220277301967144,-0.06763949990272522,-0.43308883905410767
1772556494574539800,3.635539794921875,-0.035826705396175385,0.006623814348131418,-0.421446830034256
1772556494584524000,3.64552392578125,-0.03867122903466225,0.06419896334409714,-0.3803260326385498
1772556494594508000,3.655508056640625,-0.03488368168473244,0.11835727095603943,-0.3227495551109314
1772556494604492000,3.665491943359375,-0.03464026749134064,0.1546657383441925,-0.2676330506801605
1772556494614476000,3.67547607421875,-0.022349247708916664,0.16963909566402435,-0.22522033751010895
1772556494624459000,3.685458984375,0.0014703312190249562,0.18529076874256134,-0.1827935129404068
1772556494634443000,3.695443115234375,0.03133608400821686,0.21277618408203125,-0.13012763857841492
1772556494644427000,3.705427001953125,0.06884697824716568,0.23664875328540802,-0.06992076337337494
1772556494654411000,3.715410888671875,0.10811981558799744,0.26527267694473267,0.005540173966437578
1772556494664394800,3.725394775390625,0.1433316022157669,0.28679847717285156,0.09710923582315445
1772556494674378800,3.735378662109375,0.1688915491104126,0.3071434199810028,0.18966980278491974
1772556494684363000,3.745363037109375,0.1902165412902832,0.3106979429721832,0.2638385593891144
1772556494694347000,3.755346923828125,0.2005152553319931,0.3021462857723236,0.3033154010772705
1772556494704331000,3.7653310546875,0.21003073453903198,0.27909421920776367,0.29829028248786926
1772556494714315000,3.77531494140625,0.2207169234752655,0.22297795116901398,0.26782798767089844
1772556494724299000,3.785299072265625,0.2190423309803009,0.14864486455917358,0.21279989182949066
1772556494734282000,3.795281982421875,0.20662854611873627,0.06312303990125656,0.14488768577575684
1772556494744266000,3.805265869140625,0.1914871335029602,-0.028594892472028732,0.09439574182033539
1772556494754250000,3.81525,0.17614519596099854,-0.11819641292095184,0.08202163130044937
1772556494764234000,3.82523388671875,0.17617130279541016,-0.147454172372818,0.12277331948280334
1772556494774218000,3.835218017578125,0.1934562772512436,-0.114671990275383,0.21445423364639282
1772556494784202000,3.845201904296875,0.2321954220533371,-0.08316412568092346,0.3145456910133362
1772556494794186000,3.85518603515625,0.28004470467567444,-0.0870632603764534,0.36276301741600037
1772556494804170000,3.865169921875,0.31686317920684814,-0.1495700478553772,0.31181302666664124
1772556494814154000,3.875154052734375,0.3320296108722687,-0.2731868028640747,0.1613718420267105
1772556494824138000,3.885137939453125,0.30208447575569153,-0.4246836304664612,-0.05783027783036232
1772556494834122000,3.8951220703125,0.24096468091011047,-0.5562528371810913,-0.28738144040107727
1772556494844106000,3.90510595703125,0.1531192511320114,-0.6585848331451416,-0.45238637924194336
1772556494854089000,3.9150888671875,0.05203070864081383,-0.7116656303405762,-0.506653368473053
1772556494864073000,3.925072998046875,-0.03718971461057663,-0.6622426509857178,-0.41977810859680176
1772556494874057000,3.935056884765625,-0.09130781143903732,-0.47177737951278687,-0.18457411229610443
1772556494884041000,3.945041015625,-0.09862803667783737,-0.19717645645141602,0.1580551415681839
1772556494894025000,3.95502490234375,-0.07504601776599884,0.09454701095819473,0.5258912444114685
1772556494904009000,3.965009033203125,-0.06629832834005356,0.32762420177459717,0.8220866918563843
1772556494913993000,3.974992919921875,-0.06877507269382477,0.491378515958786,1.0129133462905884
1772556494923977000,3.98497705078125,-0.06800781190395355,0.6098790764808655,1.0785669088363647
1772556494933961000,3.9949609375,-0.0541686974465847,0.6644392609596252,1.0388504266738892
1772556494943945000,4.004945068359375,-0.0419280081987381,0.6584513783454895,0.9316107630729675
1772556494953929000,4.014928955078125,-0.05242032930254936,0.609703004360199,0.7998918890953064
1772556494963912000,4.024911865234375,-0.07053621858358383,0.5426523685455322,0.6613827347755432
1772556494973896000,4.03489599609375,-0.06600777804851532,0.4451090097427368,0.5037286877632141
1772556494983880000,4.0448798828125,-0.05066557228565216,0.3331816792488098,0.3334362804889679
1772556494993864000,4.054864013671875,-0.02636422961950302,0.23748153448104858,0.16188690066337585
1772556495003848200,4.06484814453125,-0.019997676834464073,0.16580015420913696,0.003984888084232807
1772556495013832000,4.07483203125,-0.037101030349731445,0.11059495061635971,-0.11671330034732819
1772556495023816000,4.08481591796875,-0.05987132340669632,0.0633331686258316,-0.20232221484184265
1772556495033800000,4.094800048828125,-0.08036620914936066,0.03459819033741951,-0.2644321918487549
1772556495043784000,4.104783935546875,-0.08932215720415115,0.011359713971614838,-0.30341100692749023
1772556495053768000,4.114767822265625,-0.08790642023086548,-0.014008493162691593,-0.31624504923820496
1772556495063752000,4.124751953125,-0.08666112273931503,-0.02761777862906456,-0.29486092925071716
1772556495073736000,4.13473583984375,-0.0779523253440857,-0.03385916352272034,-0.26117008924484253
1772556495083719000,4.144718994140625,-0.06446687132120132,-0.03423520177602768,-0.21496476233005524
1772556495093703000,4.154702880859375,-0.026462765410542488,-0.02261689491569996,-0.17901794612407684
1772556495103687200,4.164687255859375,0.026162628084421158,-0.011969044804573059,-0.14916019141674042
1772556495113671200,4.174671142578125,0.08423631638288498,0.0005382248782552779,-0.1424410343170166
1772556495123655200,4.1846552734375,0.12729057669639587,0.013232714496552944,-0.15274347364902496
1772556495133639000,4.194638916015625,0.15995930135250092,0.021573202684521675,-0.18851904571056366
1772556495143623000,4.204622802734375,0.1728556603193283,0.0035246936604380608,-0.24402731657028198
1772556495153607000,4.21460693359375,0.17815348505973816,-0.033899642527103424,-0.3153451681137085
1772556495163591000,4.2245908203125,0.1752282679080963,-0.08493752777576447,-0.3879826068878174
1772556495173575000,4.234574951171875,0.15815287828445435,-0.1476120948791504,-0.46473145484924316
1772556495183559000,4.244558837890625,0.13384994864463806,-0.2017722725868225,-0.5458348393440247
1772556495193543000,4.25454296875,0.11275477707386017,-0.2535880506038666,-0.6075320243835449
1772556495203527000,4.26452685546875,0.09078050404787064,-0.2965616285800934,-0.6459172368049622
1772556495213510100,4.27451025390625,0.08234946429729462,-0.32480257749557495,-0.6489609479904175
1772556495223494100,4.284494140625,0.07314664870500565,-0.30609655380249023,-0.6238819360733032
1772556495233478400,4.294478515625,0.07899761199951172,-0.27824148535728455,-0.5425328016281128
1772556495243462400,4.30446240234375,0.08414097875356674,-0.20993672311306,-0.39538300037384033
1772556495253446100,4.314446044921875,0.10037267953157425,-0.13396498560905457,-0.20689699053764343
1772556495263430100,4.32443017578125,0.09440506249666214,-0.06897027790546417,-0.008469651453197002
1772556495273414100,4.3344140625,0.0565682053565979,-0.030674023553729057,0.16294364631175995
1772556495283398100,4.344398193359375,-0.006446714047342539,-0.004150536376982927,0.28019917011260986
1772556495293382100,4.354382080078125,-0.07709798216819763,0.01703011617064476,0.32093513011932373
1772556495303366100,4.3643662109375,-0.13490961492061615,0.03879586607217789,0.3003297448158264
1772556495313350100,4.37435009765625,-0.18101586401462555,0.06435582041740417,0.24095375835895538
1772556495323334100,4.384334228515625,-0.2134358435869217,0.07557358592748642,0.1631298065185547
1772556495333317400,4.3943173828125,-0.2256680130958557,0.0915064811706543,0.09907731413841248
1772556495343301400,4.40430126953125,-0.2192295491695404,0.09807010740041733,0.050757452845573425
1772556495353285400,4.414285400390625,-0.19580252468585968,0.11234758049249649,0.023865917697548866
1772556495363269400,4.424269287109375,-0.14895938336849213,0.15247635543346405,0.038122083991765976
1772556495373253000,4.434253173828125,-0.08573461323976517,0.22647228837013245,0.09350331872701645
1772556495383237000,4.444237060546875,-0.023390278220176697,0.2818085253238678,0.1802896112203598
1772556495393221000,4.45422119140625,0.008986570872366428,0.2648923695087433,0.2693401277065277
1772556495403205000,4.464205078125,0.00953784491866827,0.20680856704711914,0.3278859853744507
1772556495413189000,4.474189208984375,0.0004932174342684448,0.14308738708496094,0.3445744216442108
1772556495423173000,4.484173095703125,-0.0010785802733153105,0.09135068207979202,0.31027770042419434
1772556495433157000,4.4941572265625,-0.0011283813510090113,0.04122732952237129,0.23348864912986755
1772556495443141000,4.50414111328125,-0.022223813459277153,-0.029444174841046333,0.1269872486591339
1772556495453125000,4.514125,-0.04459037259221077,-0.11128844320774078,0.00990376342087984
1772556495463109400,4.524109375,-0.07306782156229019,-0.20801684260368347,-0.11061359941959381
1772556495473092400,4.53409228515625,-0.052811283618211746,-0.27245789766311646,-0.20362450182437897
1772556495483076400,4.544076416015625,0.008413458243012428,-0.3021841049194336,-0.22679346799850464
1772556495493060000,4.55406005859375,0.09192140400409698,-0.29977792501449585,-0.14598409831523895
1772556495503044000,4.564044189453125,0.1635732203722,-0.3016780912876129,0.04758589342236519
1772556495513028000,4.574028076171875,0.20583438873291016,-0.28446102142333984,0.3143760561943054
1772556495523012000,4.58401220703125,0.21463772654533386,-0.2505565881729126,0.5982170701026917
1772556495532996000,4.59399609375,0.19817540049552917,-0.2018529623746872,0.8510123491287231
1772556495542980000,4.60397998046875,0.1511591523885727,-0.15002678334712982,1.031028151512146
1772556495552964000,4.613964111328125,0.07713526487350464,-0.0852818712592125,1.1116585731506348
1772556495562948400,4.6239482421875,-0.015215704217553139,-0.00794234499335289,1.0824495553970337
1772556495572932400,4.633932373046875,-0.10961757600307465,0.08621291816234589,0.9695469737052917
1772556495582916400,4.643916259765625,-0.19680200517177582,0.2007536143064499,0.7949565052986145
1772556495592900400,4.653900390625,-0.2698706388473511,0.303243488073349,0.5873676538467407
1772556495602884400,4.66388427734375,-0.3123275339603424,0.3838057219982147,0.36057522892951965
1772556495612867000,4.6738671875,-0.3145022690296173,0.44933491945266724,0.12266387045383453
1772556495622851000,4.68385107421875,-0.2848256230354309,0.47689756751060486,-0.1310589462518692
1772556495632835000,4.6938349609375,-0.2214849889278412,0.4588139057159424,-0.3931744396686554
1772556495642819000,4.703819091796875,-0.1349242627620697,0.40428170561790466,-0.6576905250549316
1772556495652803000,4.713802978515625,-0.03513934463262558,0.33334866166114807,-0.8805243968963623
1772556495662787000,4.723787109375,0.0750713124871254,0.2679925560951233,-1.0314068794250488
1772556495672771300,4.733771240234375,0.18433788418769836,0.2117426097393036,-1.0810942649841309
1772556495682755300,4.74375537109375,0.30092334747314453,0.14182637631893158,-1.0184186697006226
1772556495692739300,4.7537392578125,0.3996083736419678,0.06870875507593155,-0.8625088930130005
1772556495702723300,4.763723388671875,0.4623410105705261,-0.006436061579734087,-0.6593472957611084
1772556495712707300,4.773707275390625,0.48020628094673157,-0.07873635739088058,-0.45669111609458923
1772556495722691300,4.78369140625,0.47648346424102783,-0.13239505887031555,-0.29470381140708923
1772556495732675300,4.79367529296875,0.45365670323371887,-0.13892565667629242,-0.18231920897960663
1772556495742659300,4.803659423828125,0.4207458794116974,-0.10254555195569992,-0.12064225971698761
1772556495752642000,4.81364208984375,0.38234230875968933,-0.03327246755361557,-0.10733870416879654
1772556495762626000,4.8236259765625,0.34402263164520264,0.058035340160131454,-0.14505945146083832
1772556495772610300,4.8336103515625,0.3079777956008911,0.15545058250427246,-0.21976245939731598
1772556495782594300,4.84359423828125,0.2763522267341614,0.2502761483192444,-0.3065814971923828
1772556495792578300,4.853578369140625,0.24481773376464844,0.3312106728553772,-0.38722681999206543
1772556495802562300,4.863562255859375,0.21624495089054108,0.38955095410346985,-0.4423723518848419
1772556495812546300,4.87354638671875,0.1952882707118988,0.4181421101093292,-0.46564412117004395
1772556495822530300,4.8835302734375,0.17648155987262726,0.4238484799861908,-0.4805991053581238
1772556495832514300,4.893514404296875,0.1507522314786911,0.41080936789512634,-0.4761154055595398
1772556495842498300,4.903498291015625,0.12800323963165283,0.395327627658844,-0.45406389236450195
1772556495852482300,4.913482421875,0.12140978127717972,0.37099379301071167,-0.4221842586994171
1772556495862466300,4.92346630859375,0.12585753202438354,0.3491409420967102,-0.3751278221607208
1772556495872450000,4.933449951171875,0.15215331315994263,0.3288969397544861,-0.3121965229511261
1772556495882434000,4.94343408203125,0.19325494766235352,0.3139193058013916,-0.23073068261146545
1772556495892417300,4.953417236328125,0.24652588367462158,0.31933218240737915,-0.12706713378429413
1772556495902401300,4.9634013671875,0.31222420930862427,0.33241522312164307,-0.01570332981646061
1772556495912385300,4.97338525390625,0.3775145411491394,0.34198981523513794,0.10042806714773178
1772556495922369300,4.983369384765625,0.4376681447029114,0.3335433602333069,0.20271795988082886
1772556495932353300,4.993353271484375,0.4880716800689697,0.2954140603542328,0.26785701513290405
1772556495942337300,5.003337158203125,0.5216639637947083,0.24036520719528198,0.2896067798137665
1772556495952321300,5.0133212890625,0.5399846434593201,0.16404247283935547,0.26005634665489197
1772556495962305300,5.02330517578125,0.5273469090461731,0.07720796763896942,0.18337062001228333
1772556495972289300,5.033289306640625,0.4971160292625427,-0.01738191954791546,0.07442576438188553
1772556495982273000,5.04327294921875,0.4532633423805237,-0.1311122179031372,-0.0441616028547287
1772556495992257000,5.053257080078125,0.40776965022087097,-0.2412206083536148,-0.1323641687631607
1772556496002241000,5.063240966796875,0.3675537705421448,-0.3254183232784271,-0.1626800000667572
1772556496012225000,5.07322509765625,0.3464900255203247,-0.33501073718070984,-0.11327888816595078
1772556496022209300,5.083209228515625,0.36638304591178894,-0.29089096188545227,0.017794976010918617
1772556496032193300,5.093193359375,0.42052963376045227,-0.2171943634748459,0.18901465833187103
1772556496042177300,5.10317724609375,0.48012399673461914,-0.1639210283756256,0.3096606433391571
1772556496052160300,5.11316015625,0.5300239324569702,-0.1464882344007492,0.3345300555229187
1772556496062144300,5.123144287109375,0.5609943270683289,-0.1757609099149704,0.23486417531967163
1772556496072128300,5.133128173828125,0.5661488771438599,-0.267530232667923,0.024984978139400482
1772556496082112300,5.1431123046875,0.5373271107673645,-0.40386518836021423,-0.23268145322799683
1772556496092096300,5.15309619140625,0.4911028742790222,-0.5479134321212769,-0.46564358472824097
1772556496102080000,5.163080078125,0.42835694551467896,-0.6835993528366089,-0.6178749203681946
1772556496112064000,5.17306396484375,0.3478389382362366,-0.764725387096405,-0.6580750942230225
1772556496122048300,5.18304833984375,0.26778990030288696,-0.723116397857666,-0.5420488715171814
1772556496132032300,5.1930322265625,0.21586865186691284,-0.5213028788566589,-0.27851125597953796
1772556496142016300,5.203016357421875,0.20223432779312134,-0.21327738463878632,0.1081075593829155
1772556496152000300,5.213000244140625,0.20606155693531036,0.13844282925128937,0.5324260592460632
1772556496161984300,5.222984375,0.2047230452299118,0.4430820941925049,0.8955414295196533
1772556496171968300,5.23296826171875,0.18389393389225006,0.6756948232650757,1.1206384897232056
1772556496181952300,5.2429521484375,0.1597108393907547,0.8475571274757385,1.208415150642395
1772556496191936300,5.252936279296875,0.14618943631649017,0.9600239992141724,1.1630250215530396
1772556496201919200,5.262919189453125,0.12970872223377228,1.0059680938720703,1.0370357036590576
1772556496211903200,5.2729033203125,0.10454291850328445,0.9681304097175598,0.8613717555999756
1772556496221887200,5.28288720703125,0.08360887318849564,0.852750301361084,0.6686856746673584
1772556496231870000,5.292869873046875,0.06497713178396225,0.6739137172698975,0.47156673669815063
1772556496241854000,5.30285400390625,0.0538022443652153,0.45923763513565063,0.26818111538887024
1772556496251838000,5.312837890625,0.03717533126473427,0.2452574223279953,0.06811700016260147
1772556496261822000,5.322822021484375,0.004514058120548725,0.07503829151391983,-0.12704209983348846
1772556496271806000,5.332805908203125,-0.03970906138420105,-0.03748585656285286,-0.29036152362823486
1772556496281790000,5.3427900390625,-0.08656418323516846,-0.10932249575853348,-0.4249981641769409
1772556496291774000,5.35277392578125,-0.11392523348331451,-0.16214843094348907,-0.5159016847610474
1772556496301758000,5.362758056640625,-0.12310781329870224,-0.19593249261379242,-0.5630759000778198
1772556496311742000,5.372741943359375,-0.1179165169596672,-0.18893210589885712,-0.5643997192382812
1772556496321726200,5.382726318359375,-0.08305520564317703,-0.13430720567703247,-0.5126137733459473
1772556496331710000,5.3927099609375,-0.02082858234643936,-0.0548001304268837,-0.4242130517959595
1772556496341694000,5.40269384765625,0.05891258642077446,0.04921228811144829,-0.31760698556900024
1772556496351678000,5.412677978515625,0.14746135473251343,0.14397528767585754,-0.229533851146698
1772556496361662000,5.422661865234375,0.22590157389640808,0.20492064952850342,-0.17496329545974731
1772556496371645000,5.43264501953125,0.27559003233909607,0.23479387164115906,-0.15217143297195435
1772556496381629000,5.44262890625,0.306974858045578,0.23413659632205963,-0.16551519930362701
1772556496391613000,5.452613037109375,0.3282258212566376,0.1942661553621292,-0.2156856805086136
1772556496401597000,5.462596923828125,0.34007367491722107,0.1323939859867096,-0.296777606010437
1772556496411581000,5.472580810546875,0.3338314890861511,0.043479301035404205,-0.4000547230243683
1772556496421565000,5.48256494140625,0.308773010969162,-0.053830742835998535,-0.5152785181999207
1772556496431549200,5.492549072265625,0.27753946185112,-0.13574664294719696,-0.6162711977958679
1772556496441533000,5.502532958984375,0.2551601231098175,-0.19629734754562378,-0.6865363121032715
1772556496451517000,5.512516845703125,0.23597471415996552,-0.23662425577640533,-0.7098802328109741
1772556496461501000,5.5225009765625,0.22076699137687683,-0.2673417031764984,-0.6792916655540466
1772556496471485000,5.53248486328125,0.20426498353481293,-0.2747202515602112,-0.6167641282081604
1772556496481469000,5.542468994140625,0.20028382539749146,-0.2603066861629486,-0.5148302912712097
1772556496491453000,5.552452880859375,0.20399360358715057,-0.21565425395965576,-0.3613092005252838
1772556496501437000,5.56243701171875,0.21686653792858124,-0.16761723160743713,-0.16393886506557465
1772556496511421000,5.5724208984375,0.21362759172916412,-0.12699443101882935,0.06010941043496132
1772556496521405000,5.582405029296875,0.18631234765052795,-0.09783574938774109,0.2656886577606201
1772556496531389000,5.592388916015625,0.13345898687839508,-0.08318250626325607,0.41541212797164917
1772556496541372200,5.6023720703125,0.06222981959581375,-0.07602152973413467,0.5007959604263306
1772556496551356200,5.612356201171875,-0.024024909362196922,-0.07473815232515335,0.5352951288223267
1772556496561340000,5.62233984375,-0.11470820754766464,-0.062022093683481216,0.5063990354537964
1772556496571324000,5.632323974609375,-0.19703051447868347,-0.04817818105220795,0.44502806663513184
1772556496581308000,5.642307861328125,-0.24932433664798737,-0.025258485227823257,0.37609028816223145
1772556496591292000,5.6522919921875,-0.2747308909893036,0.0032197616528719664,0.3086521029472351
1772556496601276000,5.66227587890625,-0.272535115480423,0.04595870152115822,0.2605210542678833
1772556496611260000,5.672260009765625,-0.2456265389919281,0.10213222354650497,0.2242128551006317
1772556496621244000,5.682243896484375,-0.19442860782146454,0.17480669915676117,0.19477401673793793
1772556496631228000,5.692227783203125,-0.12503115832805634,0.24493545293807983,0.1882772296667099
1772556496641212000,5.7022119140625,-0.05551998317241669,0.291660338640213,0.21742500364780426
1772556496651196000,5.71219580078125,-0.029381323605775833,0.296737939119339,0.24670858681201935
1772556496661180000,5.722179931640625,-0.05025890842080116,0.24842099845409393,0.2523747384548187
1772556496671164200,5.7321640625,-0.08311246335506439,0.18892304599285126,0.19869577884674072
1772556496681148200,5.742148193359375,-0.10629421472549438,0.12959980964660645,0.10323157906532288
1772556496691132200,5.752132080078125,-0.1348678022623062,0.05715356767177582,-0.02923485077917576
1772556496701116200,5.7621162109375,-0.17708875238895416,-0.04682103544473648,-0.18192026019096375
1772556496711100000,5.772099853515625,-0.2326609343290329,-0.1839732974767685,-0.3232925832271576
1772556496721080000,5.782080078125,-0.25955912470817566,-0.2925860583782196,-0.42927971482276917
1772556496731064000,5.79206396484375,-0.24011646211147308,-0.35238200426101685,-0.4370225965976715
1772556496741047800,5.8020478515625,-0.16231247782707214,-0.3592449724674225,-0.33610424399375916
1772556496751031800,5.81203173828125,-0.06482426822185516,-0.32575279474258423,-0.10193914920091629
1772556496761015800,5.822015869140625,0.02418336644768715,-0.2771730124950409,0.22741344571113586
1772556496770999800,5.831999755859375,0.06794336438179016,-0.2246094048023224,0.5826066732406616
1772556496780983800,5.84198388671875,0.07934888452291489,-0.17217816412448883,0.886753261089325
1772556496790968000,5.851968017578125,0.06806613504886627,-0.11994584649801254,1.1153990030288696
1772556496800952000,5.8619521484375,0.013635651208460331,-0.06492280960083008,1.2253994941711426
1772556496810936000,5.87193603515625,-0.07143902778625488,-0.015628227964043617,1.2261539697647095
1772556496820920000,5.881920166015625,-0.17861181497573853,0.0365377701818943,1.134454369544983
1772556496830904000,5.891904052734375,-0.28002259135246277,0.09352622181177139,0.9694998264312744
1772556496840888000,5.90188818359375,-0.3654884994029999,0.16172604262828827,0.7629396915435791
1772556496850872000,5.9118720703125,-0.41900286078453064,0.23066942393779755,0.5459014177322388
1772556496860856000,5.92185595703125,-0.43258950114250183,0.2959970235824585,0.3127579092979431
1772556496870840000,5.931840087890625,-0.4103856682777405,0.3511545658111572,0.09472038596868515
1772556496880823800,5.94182373046875,-0.3540547490119934,0.3701021671295166,-0.12415257096290588
1772556496890807800,5.951807861328125,-0.26276159286499023,0.360469251871109,-0.32992276549339294
1772556496900791000,5.961791015625,-0.1527133733034134,0.3357223570346832,-0.5194202661514282
1772556496910775000,5.971775146484375,-0.04096314683556557,0.31577447056770325,-0.6611105799674988
1772556496920759000,5.981759033203125,0.06838864833116531,0.2846756875514984,-0.7322918176651001
1772556496930743000,5.991742919921875,0.17494145035743713,0.2095087468624115,-0.7222631573677063
1772556496940727000,6.00172705078125,0.2812636196613312,0.10168694704771042,-0.628746509552002
1772556496950711000,6.0117109375,0.3571072518825531,-0.017796307802200317,-0.48463407158851624
1772556496960695000,6.021695068359375,0.4058590829372406,-0.13040781021118164,-0.32640179991722107
1772556496970679000,6.031678955078125,0.42575448751449585,-0.21064512431621552,-0.17841394245624542
1772556496980663000,6.0416630859375,0.41786089539527893,-0.2611501216888428,-0.062070559710264206
1772556496990647000,6.05164697265625,0.39770928025245667,-0.29042649269104004,0.016514528542757034
1772556497000630800,6.061630859375,0.3671574890613556,-0.2931991219520569,0.05867316573858261
1772556497010614800,6.07161474609375,0.3336629271507263,-0.2751189172267914,0.06819183379411697
1772556497020598800,6.081598876953125,0.29378873109817505,-0.24933180212974548,0.03918521851301193
1772556497030582800,6.091582763671875,0.25649383664131165,-0.21351121366024017,-0.01864772103726864
1772556497040567000,6.101567138671875,0.22246450185775757,-0.1746692806482315,-0.08314042538404465
1772556497050551000,6.111551025390625,0.18635736405849457,-0.12566418945789337,-0.1462315171957016
1772556497060535000,6.12153515625,0.15235252678394318,-0.07569689303636551,-0.19438758492469788
1772556497070519000,6.13151904296875,0.12057621777057648,-0.02702309563755989,-0.21982157230377197
1772556497080503000,6.1415029296875,0.0904710441827774,0.017556888982653618,-0.21224302053451538
1772556497090486000,6.151486083984375,0.06715879589319229,0.04507187008857727,-0.183823361992836
1772556497100470000,6.161469970703125,0.051956143230199814,0.0696595087647438,-0.13391119241714478
1772556497110454000,6.1714541015625,0.049856238067150116,0.10097907483577728,-0.07171120494604111
1772556497120437800,6.181437744140625,0.06344369053840637,0.1460064798593521,-0.009159675799310207
1772556497130421800,6.191421875,0.08433672040700912,0.19502781331539154,0.06160424277186394
1772556497140409000,6.2014091796875,0.11955196410417557,0.2429945319890976,0.1396268755197525
1772556497150393000,6.21139306640625,0.15154850482940674,0.28388097882270813,0.21897096931934357
1772556497160377000,6.221377197265625,0.18232665956020355,0.316275417804718,0.2896994650363922
1772556497170361000,6.231361083984375,0.2103966474533081,0.3362075686454773,0.35054469108581543
1772556497180345000,6.241344970703125,0.24337351322174072,0.35528460144996643,0.3778682053089142
1772556497190329000,6.2513291015625,0.27378201484680176,0.36169296503067017,0.3763829469680786
1772556497200312800,6.261312744140625,0.301857054233551,0.3539508879184723,0.3480338752269745
1772556497210296800,6.271296875,0.30048471689224243,0.3113325834274292,0.2981392741203308
1772556497220280800,6.28128076171875,0.270518034696579,0.22299739718437195,0.21640634536743164
1772556497230265300,6.291265380859375,0.21695227921009064,0.10834165662527084,0.1156938448548317
1772556497240249300,6.301249267578125,0.14671701192855835,-0.01278423797339201,0.016453541815280914
1772556497250233300,6.3112333984375,0.09144362807273865,-0.10987962782382965,-0.05705210193991661
1772556497260217300,6.32121728515625,0.04825275018811226,-0.1635226160287857,-0.076603963971138
1772556497270200600,6.33120068359375,0.02605104073882103,-0.13540975749492645,-0.03544081375002861
1772556497280184600,6.3411845703125,0.04264866188168526,-0.04242149367928505,0.06497953087091446
1772556497290168600,6.35116845703125,0.09719792008399963,0.04603460431098938,0.20178984105587006
1772556497300152600,6.361152587890625,0.16879834234714508,0.09668046981096268,0.2928457260131836
1772556497310136600,6.371136474609375,0.23528814315795898,0.07725350558757782,0.2809717357158661
1772556497320120600,6.38112060546875,0.26380500197410583,-0.050334542989730835,0.14559528231620789
1772556497330104300,6.391104248046875,0.25034165382385254,-0.2445564866065979,-0.08111216127872467
1772556497340088300,6.40108837890625,0.19590026140213013,-0.48693370819091797,-0.34357786178588867
1772556497350072300,6.411072265625,0.12437308579683304,-0.7477676868438721,-0.5704917311668396
1772556497360056300,6.421056396484375,0.021865617483854294,-0.9650177359580994,-0.7309514284133911
1772556497370040300,6.431040283203125,-0.09326896071434021,-1.0686818361282349,-0.7741327285766602
1772556497380024300,6.4410244140625,-0.17617130279541016,-1.0221984386444092,-0.6641942262649536
1772556497390008600,6.451008544921875,-0.19141656160354614,-0.8172340989112854,-0.39281466603279114
1772556497399992600,6.46099267578125,-0.17098985612392426,-0.4911841154098511,0.002418949268758297
1772556497409976600,6.4709765625,-0.15453071892261505,-0.11324719339609146,0.4683227241039276
1772556497419960600,6.480960693359375,-0.15941496193408966,0.20428656041622162,0.8964381217956543
1772556497429944600,6.490944580078125,-0.17281997203826904,0.42340293526649475,1.1974096298217773
1772556497439928600,6.500928466796875,-0.16828382015228271,0.5688719749450684,1.3280001878738403
1772556497449912600,6.51091259765625,-0.14968989789485931,0.6518163681030273,1.2908365726470947
1772556497459896600,6.520896484375,-0.13539643585681915,0.6969764232635498,1.146927833557129
1772556497469879300,6.53087939453125,-0.150966614484787,0.6915366649627686,0.9288591742515564
1772556497479863300,6.54086328125,-0.19102641940116882,0.6487622857093811,0.6863775849342346
1772556497489847300,6.550847412109375,-0.22316224873065948,0.5687574744224548,0.4312608540058136
1772556497499831600,6.56083154296875,-0.2397172600030899,0.46110209822654724,0.17357204854488373
1772556497509815600,6.570815673828125,-0.2440747171640396,0.3438231348991394,-0.08466614782810211
1772556497519799600,6.580799560546875,-0.2579604387283325,0.2244189977645874,-0.31912657618522644
1772556497529783600,6.590783447265625,-0.28528207540512085,0.1152765229344368,-0.508001446723938
1772556497539767600,6.600767578125,-0.316426157951355,0.024996163323521614,-0.6308871507644653
1772556497549751600,6.61075146484375,-0.34037062525749207,-0.05013613775372505,-0.7035166025161743
1772556497559735600,6.620735595703125,-0.3515247404575348,-0.12206811457872391,-0.7288240790367126
1772556497569719600,6.630719482421875,-0.34939101338386536,-0.18256394565105438,-0.6948900818824768
1772556497579703600,6.64070361328125,-0.3309086859226227,-0.21642231941223145,-0.6018733382225037
1772556497589687300,6.650687255859375,-0.2984410226345062,-0.20196828246116638,-0.47623366117477417
1772556497599671300,6.66067138671875,-0.24774615466594696,-0.15426839888095856,-0.3502613306045532
1772556497609655300,6.6706552734375,-0.17495636641979218,-0.09077757596969604,-0.24763962626457214
1772556497619639300,6.680639404296875,-0.08800016343593597,-0.035712189972400665,-0.17521336674690247
1772556497629623300,6.690623291015625,-0.013484649360179901,0.02142779342830181,-0.13687582314014435
1772556497639607600,6.700607666015625,0.0323701910674572,0.03461044281721115,-0.1367109715938568
1772556497649591600,6.710591552734375,0.07184596359729767,0.03863447904586792,-0.16284990310668945
1772556497659575600,6.720575439453125,0.10008452087640762,0.01044225413352251,-0.22281870245933533
1772556497669558500,6.73055859375,0.1170097067952156,-0.03585120663046837,-0.3155808448791504
1772556497679542500,6.74054248046875,0.11894635856151581,-0.08236464858055115,-0.41421636939048767
1772556497689526500,6.750526611328125,0.10786467790603638,-0.1296493411064148,-0.4929540455341339
1772556497699510500,6.760510498046875,0.09243059903383255,-0.16941618919372559,-0.5431522130966187
1772556497709494300,6.770494384765625,0.07320018112659454,-0.20673507452011108,-0.5703780055046082
1772556497719478300,6.780478271484375,0.04326092079281807,-0.2382437288761139,-0.5651137232780457
1772556497729462300,6.790462158203125,0.013915016315877438,-0.2576291561126709,-0.5275455713272095
1772556497739446500,6.800446533203125,-0.013586648739874363,-0.2571606934070587,-0.4527283310890198
1772556497749430500,6.810430419921875,-0.04355946183204651,-0.23510491847991943,-0.3544542193412781
1772556497759414500,6.82041455078125,-0.07134076207876205,-0.19798125326633453,-0.23417361080646515
1772556497769398500,6.8303984375,-0.09998971223831177,-0.14495426416397095,-0.10708384215831757
1772556497779382500,6.840382568359375,-0.1349964290857315,-0.10613629221916199,0.03388659283518791
1772556497789366500,6.850366455078125,-0.17182661592960358,-0.06262289732694626,0.1581832468509674
1772556497799350500,6.8603505859375,-0.22633060812950134,-0.042931754142045975,0.22755593061447144
1772556497809334500,6.87033447265625,-0.2976931929588318,-0.02635570801794529,0.24712777137756348
1772556497819318500,6.880318603515625,-0.36399421095848083,-0.013883591629564762,0.21513521671295166
1772556497829302500,6.890302490234375,-0.42213714122772217,-0.020315658301115036,0.1686907410621643
1772556497839286500,6.90028662109375,-0.4721670150756836,-0.033060748130083084,0.12154427170753479
1772556497849270500,6.9102705078125,-0.5102217197418213,-0.027701934799551964,0.07944076508283615
1772556497859254300,6.920254150390625,-0.5268275737762451,-0.021336713805794716,0.024633707478642464
1772556497869238300,6.93023828125,-0.5202128291130066,-0.030581610277295113,-0.0308159701526165
1772556497879221500,6.940221435546875,-0.4881015121936798,-0.04609052836894989,-0.07713526487350464
1772556497889205500,6.95020556640625,-0.4393904209136963,-0.04724207893013954,-0.12052508443593979
1772556497899189500,6.960189453125,-0.37211257219314575,-0.03298617899417877,-0.14393453299999237
1772556497909173500,6.970173583984375,-0.29892945289611816,-0.03232891112565994,-0.14195208251476288
1772556497919157500,6.980157470703125,-0.2515520751476288,-0.07851824164390564,-0.12297678738832474
1772556497929141500,6.9901416015625,-0.21992065012454987,-0.15507666766643524,-0.11863796412944794
1772556497939125500,7.00012548828125,-0.19526803493499756,-0.24059849977493286,-0.15833371877670288
1772556497949109500,7.010109619140625,-0.1683778315782547,-0.3300197124481201,-0.22368556261062622
1772556497959093500,7.020093505859375,-0.17524611949920654,-0.42082473635673523,-0.2862698435783386
1772556497969077200,7.0300771484375,-0.21161477267742157,-0.5102068185806274,-0.31931567192077637
1772556497979061200,7.040061279296875,-0.24917280673980713,-0.5911964774131775,-0.305070161819458
1772556497989045500,7.05004541015625,-0.25329405069351196,-0.6174682974815369,-0.23218077421188354
1772556497999029500,7.060029541015625,-0.21112927794456482,-0.5918635725975037,-0.09590895473957062
1772556498009013500,7.070013427734375,-0.1610669195652008,-0.538946807384491,0.11072172224521637
1772556498018997500,7.07999755859375,-0.1171702966094017,-0.4800470471382141,0.3790077567100525
1772556498028981500,7.0899814453125,-0.1195964366197586,-0.4137851893901825,0.675067663192749
1772556498038965500,7.099965576171875,-0.16851498186588287,-0.3581211268901825,0.9496137499809265
1772556498048949500,7.109949462890625,-0.23185241222381592,-0.3053990602493286,1.1736774444580078
1772556498058933500,7.11993359375,-0.31071794033050537,-0.22500115633010864,1.311723232269287
1772556498068917500,7.12991748046875,-0.4025200307369232,-0.11773781478404999,1.3421697616577148
1772556498078900500,7.139900390625,-0.494475781917572,0.01116237323731184,1.272443413734436
1772556498088884500,7.149884521484375,-0.5786468386650085,0.13874803483486176,1.1239562034606934
1772556498098868500,7.159868408203125,-0.6425145268440247,0.26049578189849854,0.9167298078536987
1772556498108852500,7.1698525390625,-0.671183168888092,0.35943061113357544,0.681122899055481
1772556498118836500,7.17983642578125,-0.655788242816925,0.4462485909461975,0.42154696583747864
1772556498128820500,7.189820556640625,-0.5930385589599609,0.5075103640556335,0.14756841957569122
1772556498138804500,7.199804443359375,-0.500763475894928,0.5388166308403015,-0.118146613240242
1772556498148788500,7.20978857421875,-0.3760082423686981,0.5243948101997375,-0.3759256899356842
1772556498158772500,7.2197724609375,-0.2191493958234787,0.4776555001735687,-0.5949339270591736
1772556498168756500,7.229756591796875,-0.07317061722278595,0.4070820212364197,-0.7393691539764404
1772556498178740500,7.239740478515625,0.0308694988489151,0.3191913068294525,-0.8201944828033447
1772556498188724500,7.249724365234375,0.11069376021623611,0.22728614509105682,-0.817476212978363
1772556498198708500,7.25970849609375,0.16967904567718506,0.13047091662883759,-0.7542285323143005
1772556498208692500,7.2696923828125,0.20865094661712646,0.033733196556568146,-0.6502552628517151
1772556498218676500,7.279676513671875,0.214997798204422,-0.047622114419937134,-0.536173939704895
1772556498228660500,7.289660400390625,0.19836609065532684,-0.12228702753782272,-0.42043402791023254
1772556498238644500,7.29964453125,0.17482240498065948,-0.17947468161582947,-0.3254862129688263
1772556498248628700,7.309628662109375,0.1367381364107132,-0.23218263685703278,-0.2569343149662018
1772556498258612700,7.31961279296875,0.09986001998186111,-0.2561529576778412,-0.22556734085083008
1772556498268596700,7.3295966796875,0.06018078327178955,-0.24972274899482727,-0.23866982758045197
1772556498278580700,7.339580810546875,0.024211063981056213,-0.22156381607055664,-0.29421165585517883
1772556498288564700,7.349564697265625,-0.0014034858904778957,-0.18902237713336945,-0.37519198656082153
1772556498298547700,7.359547607421875,-0.012089420109987259,-0.14688372611999512,-0.46185019612312317
1772556498308531500,7.369531494140625,-0.00836498849093914,-0.09163591265678406,-0.544769823551178
1772556498318515500,7.379515380859375,0.016222380101680756,-0.02719913050532341,-0.6024578809738159
1772556498328499500,7.38949951171875,0.046232741326093674,0.016475912183523178,-0.6283406019210815
1772556498338483500,7.3994833984375,0.09171713888645172,0.05203124135732651,-0.6222662329673767
1772556498348467700,7.4094677734375,0.13260518014431,0.07642579823732376,-0.5876922607421875
1772556498358451700,7.41945166015625,0.1718154400587082,0.08487547934055328,-0.5160433650016785
1772556498368435700,7.429435791015625,0.20787224173545837,0.09690364450216293,-0.40842771530151367
1772556498378419700,7.439419677734375,0.23993536829948425,0.11305651068687439,-0.2677009403705597
1772556498388403700,7.44940380859375,0.2645970284938812,0.13407844305038452,-0.11177979409694672
1772556498398387700,7.4593876953125,0.2850343883037567,0.1664784550666809,0.041791122406721115
1772556498408371700,7.469371826171875,0.30078911781311035,0.20822377502918243,0.1718418002128601
1772556498418355700,7.479355712890625,0.3120838701725006,0.24051620066165924,0.26815474033355713
1772556498428339700,7.489339599609375,0.32390058040618896,0.24035215377807617,0.31804773211479187
1772556498438323700,7.49932373046875,0.3242233395576477,0.19766727089881897,0.31891512870788574
1772556498448307500,7.509307373046875,0.3058059811592102,0.11686722934246063,0.2824854850769043
1772556498458291500,7.51929150390625,0.2647853195667267,-0.0051446943543851376,0.21129679679870605
1772556498468275500,7.529275390625,0.20750738680362701,-0.14123515784740448,0.12346920371055603
1772556498478259500,7.539259521484375,0.15340447425842285,-0.27429521083831787,0.028175711631774902
1772556498488243500,7.549243408203125,0.09697741270065308,-0.3852701783180237,-0.03815963491797447
1772556498498227700,7.559227783203125,0.058154914528131485,-0.42681336402893066,-0.05795304849743843
1772556498508211700,7.569211669921875,0.05886411666870117,-0.3713562488555908,-0.019349996000528336
1772556498518194700,7.579194580078125,0.10383691638708115,-0.27976372838020325,0.06022259220480919
1772556498528178700,7.5891787109375,0.16437989473342896,-0.2373819202184677,0.1208190992474556
1772556498538162700,7.59916259765625,0.22666509449481964,-0.2751484811306,0.09731004387140274
1772556498548146700,7.609146728515625,0.2855422794818878,-0.41188129782676697,-0.03506557643413544
1772556498558130700,7.619130615234375,0.294573575258255,-0.6007585525512695,-0.29403749108314514
1772556498568114400,7.629114501953125,0.2513424754142761,-0.7698708772659302,-0.6228060722351074
1772556498578098400,7.639098388671875,0.18829454481601715,-0.8699226379394531,-0.9287571907043457
1772556498588082400,7.64908251953125,0.11868217587471008,-0.8983755707740784,-1.116416573524475
1772556498598066700,7.659066650390625,0.05789419263601303,-0.8195214867591858,-1.1074811220169067
1772556498608050700,7.66905078125,0.037581995129585266,-0.5918989777565002,-0.8534022569656372
1772556498618034700,7.67903466796875,0.06974312663078308,-0.29724180698394775,-0.3862648904323578
1772556498628018700,7.689018798828125,0.11196248978376389,-0.010864099487662315,0.24611975252628326
1772556498638002700,7.699002685546875,0.12210806459188461,0.24058571457862854,0.9161633849143982
1772556498647986700,7.708986572265625,0.10460949689149857,0.413600891828537,1.4673281908035278
1772556498657970700,7.718970703125,0.08712611347436905,0.4780459403991699,1.7958911657333374
1772556498667954700,7.72895458984375,0.051725778728723526,0.4857102334499359,1.879286527633667
1772556498677938700,7.738938720703125,0.015812251716852188,0.4559731185436249,1.7702441215515137
1772556498687922700,7.748922607421875,-0.02991635352373123,0.4125633239746094,1.5345534086227417
1772556498697906700,7.75890673828125,-0.10268429666757584,0.35783588886260986,1.2187440395355225
1772556498707890700,7.768890625,-0.16988517343997955,0.29461485147476196,0.8776940107345581
1772556498717874400,7.77887451171875,-0.23935852944850922,0.2011062055826187,0.5146782398223877
1772556498727858400,7.7888583984375,-0.3038187325000763,0.11022637039422989,0.14833007752895355
1772556498737842400,7.798842529296875,-0.3658464252948761,0.04031360149383545,-0.19649147987365723
1772556498747825700,7.80882568359375,-0.4167652726173401,-0.010368751361966133,-0.47189563512802124
1772556498757809700,7.8188095703125,-0.4376037120819092,-0.0710613951086998,-0.6636629104614258
1772556498767793700,7.828793701171875,-0.41504141688346863,-0.13833017647266388,-0.7910046577453613
1772556498777777700,7.838777587890625,-0.3632136285305023,-0.20948344469070435,-0.8539940118789673
1772556498787761700,7.84876171875,-0.29556000232696533,-0.2647797167301178,-0.8531500697135925
1772556498797745700,7.85874560546875,-0.21272239089012146,-0.292441725730896,-0.7963727712631226
1772556498807729700,7.868729736328125,-0.11421232670545578,-0.2815845310688019,-0.6984789967536926
1772556498817713700,7.878713623046875,-0.00299259414896369,-0.23556512594223022,-0.5667480826377869
1772556498827697400,7.888697509765625,0.10754377394914627,-0.16784732043743134,-0.42543119192123413
1772556498837681400,7.898681396484375,0.20836412906646729,-0.08410342782735825,-0.2833579480648041
1772556498847665700,7.908665771484375,0.2931501269340515,-0.01474805362522602,-0.1726498007774353
1772556498857649700,7.918649658203125,0.3483015298843384,0.034985948354005814,-0.1010131686925888
1772556498867633700,7.928633544921875,0.3779108226299286,0.0605192705988884,-0.060438308864831924
1772556498877617700,7.93861767578125,0.38344860076904297,0.05944947898387909,-0.0549311600625515
1772556498887601700,7.9486015625,0.36713114380836487,0.03742300719022751,-0.07427582889795303
1772556498897585700,7.958585693359375,0.32441961765289307,-0.005017928313463926,-0.11272148787975311
1772556498907569700,7.968569580078125,0.26825010776519775,-0.05766595900058746,-0.1539219170808792
1772556498917553700,7.9785537109375,0.20324020087718964,-0.09102551639080048,-0.18824048340320587
1772556498927537700,7.98853759765625,0.13628460466861725,-0.09453875571489334,-0.21469925343990326
1772556498937521700,7.998521728515625,0.07316315919160843,-0.07474774122238159,-0.2297208160161972
1772556498947505700,8.008505615234375,0.02136201411485672,-0.026926422491669655,-0.22163306176662445
1772556498957489700,8.01848974609375,-0.02034681662917137,0.021222731098532677,-0.19150978326797485
1772556498967472600,8.02847265625,-0.05539641156792641,0.05953017249703407,-0.1471969038248062
1772556498977456600,8.03845654296875,-0.08703289926052094,0.08849205076694489,-0.09211288392543793
1772556498987440600,8.048440673828125,-0.1110929623246193,0.10842368006706238,-0.008241684176027775
1772556498997424600,8.058424560546875,-0.1282767504453659,0.11847631633281708,0.09225615859031677
1772556499007408600,8.06840869140625,-0.14734205603599548,0.12359730154275894,0.1973453015089035
1772556499017392600,8.078392578125,-0.1775827705860138,0.11822650581598282,0.27907904982566833
1772556499027376600,8.088376708984375,-0.23109154403209686,0.09916919469833374,0.3203529715538025
1772556499037360600,8.098360595703125,-0.3013814091682434,0.07006696611642838,0.3161640763282776
1772556499047344600,8.1083447265625,-0.3730904757976532,0.05273165553808212,0.2818673551082611
1772556499057328600,8.11832861328125,-0.424132376909256,0.05228397622704506,0.22616896033287048
1772556499067312600,8.128312744140626,-0.4536873400211334,0.05651041492819786,0.16718925535678864
1772556499077296600,8.138296630859376,-0.4537688195705414,0.06061727553606033,0.11293879896402359
1772556499087280600,8.14828076171875,-0.430891752243042,0.051595814526081085,0.060028981417417526
1772556499097264600,8.1582646484375,-0.380085825920105,0.02967480570077896,0.0007448861724697053
1772556499107248600,8.16824853515625,-0.31572359800338745,0.022608639672398567,-0.060813017189502716
1772556499117232600,8.178232666015624,-0.2335597574710846,0.038591332733631134,-0.0977310836315155
1772556499127216600,8.188216552734374,-0.15828551352024078,0.04367104917764664,-0.11357476562261581
1772556499137200600,8.19820068359375,-0.11243253201246262,0.003704457078129053,-0.11435747146606445
1772556499147184600,8.2081845703125,-0.08823611587285995,-0.00971254799515009,-0.10394158214330673
1772556499157168600,8.218168701171875,-0.0757291167974472,-0.016112657263875008,-0.110450878739357
1772556499167152600,8.228152587890625,-0.07605241984128952,-0.03963635861873627,-0.15765434503555298
1772556499177136600,8.23813671875,-0.0965569019317627,-0.08903693407773972,-0.24993421137332916
1772556499187120600,8.24812060546875,-0.1274181455373764,-0.1543983668088913,-0.34777289628982544
1772556499197103600,8.258103515625,-0.15932680666446686,-0.21704602241516113,-0.4092106819152832
1772556499207087600,8.268087646484375,-0.1760847419500351,-0.25487464666366577,-0.38407522439956665
1772556499217071600,8.278071533203125,-0.15253335237503052,-0.27326828241348267,-0.2578722834587097
1772556499227055600,8.2880556640625,-0.10431735217571259,-0.2887668311595917,-0.039024632424116135
1772556499237039400,8.298039306640625,-0.0444851778447628,-0.3050861358642578,0.22301684319972992
1772556499247023400,8.3080234375,-0.009346364066004753,-0.29346758127212524,0.4929971992969513
1772556499257007400,8.31800732421875,-0.015331552363932133,-0.24320518970489502,0.723721981048584
1772556499266991400,8.327991455078125,-0.05690935626626015,-0.17818917334079742,0.895033061504364
1772556499276975400,8.337975341796875,-0.12688177824020386,-0.08827473223209381,0.963629424571991
1772556499286959400,8.34795947265625,-0.20996680855751038,0.0046967510133981705,0.9333159923553467
1772556499296943400,8.357943359375,-0.3025984764099121,0.11689625680446625,0.8135107755661011
1772556499306927400,8.36792724609375,-0.40659838914871216,0.2352231740951538,0.6014943718910217
1772556499316911400,8.377911376953126,-0.5010665655136108,0.35816213488578796,0.35741060972213745
1772556499326895400,8.387895263671876,-0.5588110685348511,0.47233638167381287,0.12939020991325378
1772556499336879400,8.39787939453125,-0.5738185048103333,0.5724632740020752,-0.06710180640220642
1772556499346863400,8.40786328125,-0.5508381128311157,0.6120191812515259,-0.22585603594779968
1772556499356847400,8.417847412109374,-0.489767849445343,0.5908039212226868,-0.3632069528102875
1772556499366831400,8.427831298828124,-0.40853503346443176,0.5338982939720154,-0.507030189037323
1772556499376815400,8.4378154296875,-0.31672734022140503,0.4223190248012543,-0.636812150478363
1772556499386799400,8.44779931640625,-0.2214367836713791,0.28923580050468445,-0.7239129543304443
1772556499396783400,8.457783447265625,-0.12790364027023315,0.1587797999382019,-0.7527158260345459
1772556499406767400,8.467767333984375,-0.0379154235124588,0.02340439148247242,-0.7122632265090942
1772556499416751400,8.47775146484375,0.049491118639707565,-0.09460267424583435,-0.5843827724456787
1772556499426735400,8.4877353515625,0.12272059172391891,-0.1941511034965515,-0.41251593828201294
1772556499436719400,8.49771923828125,0.17599952220916748,-0.2652588188648224,-0.23981472849845886
1772556499446702300,8.507702392578125,0.2117183804512024,-0.3008250892162323,-0.09884428977966309
1772556499456686300,8.517686279296875,0.22245676815509796,-0.30040162801742554,-0.013997041620314121
1772556499466670300,8.52767041015625,0.21241877973079681,-0.2963847815990448,0.02491786703467369
1772556499476654300,8.537654296875,0.20128117501735687,-0.28699955344200134,0.025905633345246315
1772556499486638300,8.547638427734375,0.17050249874591827,-0.26654380559921265,-0.015049789100885391
1772556499496622300,8.557622314453125,0.12894652783870697,-0.23127689957618713,-0.09422583132982254
1772556499506606300,8.5676064453125,0.09120980650186539,-0.1977034956216812,-0.1857357770204544
1772556499516590300,8.57759033203125,0.05859034135937691,-0.16220222413539886,-0.27046531438827515
1772556499526574300,8.58757421875,0.03744111582636833,-0.13010340929031372,-0.33934450149536133
1772556499536558300,8.597558349609375,0.022360965609550476,-0.11081679165363312,-0.3785180151462555
1772556499546542300,8.607542236328126,0.014384797774255276,-0.09323354065418243,-0.39680832624435425
1772556499556526300,8.6175263671875,0.006301837973296642,-0.07433255016803741,-0.3905371129512787
1772556499566510300,8.62751025390625,0.012975453399121761,-0.05218437314033508,-0.3485691547393799
1772556499576494300,8.637494384765626,0.024877652525901794,-0.032763008028268814,-0.2811126410961151
1772556499586478300,8.647478271484376,0.0495462492108345,-0.021209681406617165,-0.18575522303581238
1772556499596462300,8.65746240234375,0.07758667320013046,0.00039068571641109884,-0.07055805623531342
1772556499606446300,8.6674462890625,0.10634881258010864,0.03334810212254524,0.03785363957285881
1772556499616430300,8.677430419921874,0.13626942038536072,0.07255542278289795,0.12752866744995117
1772556499626414300,8.687414306640624,0.17273075878620148,0.11400885879993439,0.20148678123950958
1772556499636398300,8.6973984375,0.20208066701889038,0.15103238821029663,0.245559424161911
1772556499646382300,8.70738232421875,0.22093024849891663,0.17410947382450104,0.2669491469860077
1772556499656366300,8.717366455078125,0.23472090065479279,0.181993767619133,0.25652313232421875
1772556499666350300,8.727350341796875,0.24208107590675354,0.16821616888046265,0.22261948883533478
1772556499676333300,8.737333251953125,0.23924720287322998,0.1254921406507492,0.15982428193092346
1772556499686317600,8.747317626953125,0.22133851051330566,0.0553644560277462,0.06925869733095169
1772556499696301600,8.757301513671875,0.1771010160446167,-0.04536348581314087,-0.037030454725027084
1772556499706285300,8.767285400390625,0.1313452422618866,-0.14345090091228485,-0.14718252420425415
1772556499716269300,8.777269287109375,0.10339643061161041,-0.2236887514591217,-0.21340228617191315
1772556499726253300,8.78725341796875,0.09744453430175781,-0.27053800225257874,-0.20045267045497894
1772556499736237300,8.7972373046875,0.115102618932724,-0.2575007677078247,-0.08631358295679092
1772556499746221300,8.80722119140625,0.1678611785173416,-0.2276478111743927,0.08032546192407608
1772556499756205300,8.817205322265625,0.22393003106117249,-0.2395675778388977,0.18840213119983673
1772556499766189300,8.827189208984375,0.28477075695991516,-0.2898046672344208,0.1807527393102646
1772556499776173300,8.83717333984375,0.3408377468585968,-0.3629041612148285,0.04812944680452347
1772556499786157300,8.8471572265625,0.3748937249183655,-0.4580783545970917,-0.18020039796829224
1772556499796141300,8.857141357421876,0.3712819516658783,-0.533331573009491,-0.4634835124015808
1772556499806125300,8.867125244140626,0.3458905518054962,-0.6113094687461853,-0.7343893051147461
1772556499816109300,8.877109375,0.3129693567752838,-0.6899118423461914,-0.9204073548316956
1772556499826093300,8.88709326171875,0.2669858932495117,-0.7450739145278931,-0.979554295539856
1772556499836077600,8.89707763671875,0.23165400326251984,-0.7613242268562317,-0.8758505582809448
1772556499846061300,8.907061279296874,0.21385502815246582,-0.7161245346069336,-0.6143571734428406
1772556499856045300,8.91704541015625,0.21545372903347015,-0.5851473808288574,-0.23658910393714905
1772556499866029300,8.927029296875,0.19412553310394287,-0.40540528297424316,0.21137775480747223
1772556499876013300,8.937013427734374,0.12287052720785141,-0.12793879210948944,0.6687849760055542
1772556499885997300,8.946997314453125,0.031191475689411163,0.1716223508119583,1.07040274143219
1772556499895981300,8.956981201171875,-0.032817866653203964,0.39193448424339294,1.3180290460586548
1772556499905965300,8.96696533203125,-0.04404468834400177,0.4218795895576477,1.3237603902816772
1772556499915949300,8.97694921875,-0.0163054708391428,0.4494560956954956,1.1870790719985962
1772556499925932300,8.986932373046875,-0.0023177489638328552,0.4832755923271179,0.9829636812210083
1772556499935916500,8.99691650390625,-0.008648881688714027,0.4733792841434479,0.7432746887207031
1772556499945900500,9.006900634765625,-0.04025128111243248,0.4563579559326172,0.5230421423912048
1772556499955884500,9.016884521484375,-0.08364403247833252,0.4282887578010559,0.3141944110393524
1772556499965868300,9.026868408203125,-0.13162566721439362,0.38804468512535095,0.1381637305021286
1772556499975852300,9.036852294921875,-0.1652986854314804,0.34111151099205017,-0.006845921743661165
1772556499985836300,9.046836181640625,-0.19087886810302734,0.28417178988456726,-0.10444198548793793
1772556499995820300,9.0568203125,-0.20151767134666443,0.2384652942419052,-0.14909467101097107
1772556500005804300,9.06680419921875,-0.19511888921260834,0.21066616475582123,-0.15618906915187836
1772556500015788300,9.076788330078125,-0.15922001004219055,0.1817258596420288,-0.13687635958194733
1772556500025772300,9.086772216796875,-0.11301176995038986,0.17316165566444397,-0.10641059279441833
1772556500035756300,9.09675634765625,-0.07252373546361923,0.1722087860107422,-0.0748518705368042
1772556500045740300,9.106740234375,-0.03370283544063568,0.17738783359527588,-0.04194798320531845
1772556500055724300,9.116724365234376,0.0027473168447613716,0.18359433114528656,-0.031865254044532776
1772556500065708300,9.126708251953126,0.04573313519358635,0.1922096610069275,-0.05072017014026642
1772556500075692300,9.1366923828125,0.09368760883808136,0.20231342315673828,-0.08103492856025696
1772556500085676500,9.146676513671874,0.13553225994110107,0.2036695033311844,-0.11760226637125015
1772556500095660500,9.15666064453125,0.16728007793426514,0.19686272740364075,-0.15002678334712982
1772556500105644300,9.166644287109374,0.1898128092288971,0.17424529790878296,-0.18234530091285706
1772556500115628300,9.176628173828124,0.19131962954998016,0.13843031227588654,-0.2030780166387558
1772556500125612300,9.1866123046875,0.1870497763156891,0.09609617292881012,-0.21488620340824127
1772556500135596300,9.19659619140625,0.16668911278247833,0.06084417551755905,-0.22833409905433655
1772556500145580300,9.206580322265625,0.1358901858329773,0.02190902642905712,-0.24400360882282257
1772556500155564300,9.216564208984375,0.10338737815618515,-0.02425900101661682,-0.2582336664199829
1772556500165548300,9.22654833984375,0.0604228638112545,-0.061709169298410416,-0.25669997930526733
1772556500175531300,9.23653125,0.00971627701073885,-0.09776890277862549,-0.24629606306552887
1772556500185515500,9.246515625,-0.04019375890493393,-0.12947916984558105,-0.23049844801425934
1772556500195499500,9.25649951171875,-0.08435056358575821,-0.15344814956188202,-0.18232613801956177
1772556500205483500,9.2664833984375,-0.1212175041437149,-0.1574133187532425,-0.10005655884742737
1772556500215467500,9.276467529296875,-0.1547570824623108,-0.13346032798290253,-0.006674148142337799
1772556500225451300,9.286451171875,-0.18271654844284058,-0.09708500653505325,0.08580385148525238
1772556500235435800,9.296435791015625,-0.21905139088630676,-0.0677843764424324,0.1718127727508545
1772556500245419800,9.306419677734375,-0.2774723470211029,-0.06102313846349716,0.22398409247398376
1772556500255403800,9.31640380859375,-0.34800538420677185,-0.06657583266496658,0.24409069120883942
1772556500265387800,9.3263876953125,-0.41909152269363403,-0.06160131096839905,0.2297612875699997
1772556500275371800,9.336371826171876,-0.48207929730415344,-0.0575873963534832,0.17700806260108948
1772556500285355800,9.346355712890626,-0.5274441242218018,-0.0533689484000206,0.10782686620950699
1772556500295339800,9.35633984375,-0.5517536997795105,-0.03965793177485466,0.021925272420048714
1772556500305323800,9.36632373046875,-0.5547471046447754,0.004449076950550079,-0.07259830087423325
1772556500315307800,9.376307861328126,-0.5283058881759644,0.07210960984230042,-0.17134885489940643
1772556500325291800,9.386291748046874,-0.48513659834861755,0.15071547031402588,-0.25186553597450256
1772556500335275800,9.39627587890625,-0.43056604266166687,0.22074809670448303,-0.30962443351745605
1772556500345260000,9.406260009765624,-0.3642953932285309,0.2749426066875458,-0.31642666459083557
1772556500355244000,9.416244140625,-0.2856093645095825,0.308848112821579,-0.2813754975795746
1772556500365228000,9.42622802734375,-0.20219144225120544,0.3345324397087097,-0.19189220666885376
1772556500375212000,9.4362119140625,-0.1316741406917572,0.32104992866516113,-0.07409287244081497
1772556500385195800,9.44619580078125,-0.12126144766807556,0.23102575540542603,0.031010646373033524
1772556500395179800,9.4561796875,-0.17449671030044556,0.10398498922586441,0.09654012322425842
1772556500405163800,9.466163818359375,-0.26609987020492554,-0.018395785242319107,0.11440353840589523
1772556500415147800,9.476147705078125,-0.3703644871711731,-0.13580550253391266,0.06505170464515686
1772556500425131800,9.4861318359375,-0.4541153013706207,-0.23253603279590607,-0.037159353494644165
1772556500435114800,9.49611474609375,-0.5302822589874268,-0.32679304480552673,-0.14919906854629517
1772556500445098800,9.5060986328125,-0.5896419882774353,-0.4107326865196228,-0.2313317507505417
1772556500455083000,9.5160830078125,-0.615598201751709,-0.45180898904800415,-0.24532613158226013
1772556500465067000,9.52606689453125,-0.562477171421051,-0.429137259721756,-0.15674380958080292
1772556500475051000,9.536051025390625,-0.45334404706954956,-0.36328446865081787,0.05100725591182709
1772556500485035000,9.546034912109375,-0.3159361183643341,-0.27782654762268066,0.3501124680042267
1772556500495019000,9.55601904296875,-0.21084725856781006,-0.20828129351139069,0.6757606267929077
1772556500505002800,9.566002685546875,-0.16115160286426544,-0.15788470208644867,0.955333411693573
1772556500514986800,9.57598681640625,-0.15055754780769348,-0.13022804260253906,1.160427212715149
1772556500524970800,9.585970703125,-0.18157964944839478,-0.1091320812702179,1.2333184480667114
1772556500534954800,9.595954833984376,-0.23749856650829315,-0.08564139902591705,1.1874006986618042
1772556500544938800,9.605938720703126,-0.3216360807418823,-0.03786215931177139,1.0612667798995972
1772556500554922800,9.6159228515625,-0.4121561348438263,0.02918957732617855,0.8859575390815735
1772556500564906800,9.62590673828125,-0.48807352781295776,0.12610973417758942,0.6964296698570251
1772556500574890800,9.635890869140624,-0.5394488573074341,0.2406352460384369,0.5046663880348206
1772556500584874800,9.645874755859374,-0.5555356740951538,0.352857381105423,0.3163824677467346
1772556500594859000,9.65585888671875,-0.5464657545089722,0.4363195300102234,0.1252085119485855
1772556500604843000,9.665843017578124,-0.496345579624176,0.48895663022994995,-0.06368017941713333
1772556500614827000,9.675826904296875,-0.421779990196228,0.5123980641365051,-0.26185211539268494
1772556500624811000,9.68581103515625,-0.3089698255062103,0.497504323720932,-0.4552119970321655
1772556500634795000,9.695794921875,-0.18092450499534607,0.4512063264846802,-0.6109347343444824
1772556500644778800,9.70577880859375,-0.050818704068660736,0.3660975694656372,-0.6981290578842163
1772556500654762800,9.7157626953125,0.06867333501577377,0.24953632056713104,-0.7162694334983826
1772556500664746800,9.725746826171875,0.15658853948116302,0.12981632351875305,-0.6608636975288391
1772556500674730800,9.735730712890625,0.21477915346622467,0.021631259471178055,-0.5568784475326538
1772556500684714800,9.74571484375,0.25709572434425354,-0.07581726461648941,-0.44405946135520935
1772556500694698800,9.75569873046875,0.2756968140602112,-0.1483500599861145,-0.35252875089645386
1772556500704682000,9.765681884765625,0.25328660011291504,-0.18358926475048065,-0.2839321196079254
1772556500714666000,9.775666015625,0.21967190504074097,-0.1877312809228897,-0.2436070591211319
1772556500724647000,9.78564697265625,0.19017793238162994,-0.169364795088768,-0.22494229674339294
1772556500734631000,9.795630859375,0.1577337086200714,-0.13559138774871826,-0.2380615621805191
1772556500744615000,9.805614990234375,0.1360422521829605,-0.09196880459785461,-0.2740432620048523
1772556500754599000,9.815598876953125,0.12633129954338074,-0.040531981736421585,-0.31058982014656067
1772556500764583000,9.8255830078125,0.1305987536907196,0.009779127314686775,-0.33615511655807495
1772556500774567000,9.83556689453125,0.15148566663265228,0.04790893569588661,-0.3310154676437378
1772556500784551000,9.845551025390625,0.18452990055084229,0.08230206370353699,-0.31256455183029175
1772556500794535000,9.855534912109375,0.211787611246109,0.115102618932724,-0.26987943053245544
1772556500804519000,9.865518798828125,0.248154416680336,0.15192002058029175,-0.21938028931617737
1772556500814503000,9.8755029296875,0.28031954169273376,0.1820976287126541,-0.15606310963630676
1772556500824486700,9.885486572265625,0.2976119816303253,0.22344374656677246,-0.09729805588722229
1772556500834470700,9.895470703125,0.3178810179233551,0.2645970284938812,-0.04627668485045433
1772556500844454700,9.90545458984375,0.3398720920085907,0.3197082281112671,0.0015430354978889227
1772556500854438700,9.915438720703126,0.3662048876285553,0.3722899556159973,0.05031882971525192
1772556500864423000,9.9254228515625,0.3893277943134308,0.4184816777706146,0.10874192416667938
1772556500874407000,9.935406982421876,0.4023418426513672,0.4747808873653412,0.16778181493282318
1772556500884391000,9.945390869140626,0.4161223769187927,0.5136998295783997,0.23833347856998444
1772556500894375000,9.955375,0.42412012815475464,0.5291323065757751,0.2940308153629303
1772556500904359000,9.96535888671875,0.4258173406124115,0.5066991448402405,0.3209575116634369
1772556500914343000,9.975343017578124,0.4144810736179352,0.4453641474246979,0.3058012127876282
1772556500924327000,9.985326904296874,0.3812783658504486,0.3425498902797699,0.23787380754947662
1772556500934311000,9.995310791015624,0.323822021484375,0.1855408400297165,0.13141794502735138
1772556500944295000,10.005294921875,0.2441500872373581,0.013586382381618023,-0.0019403791520744562
1772556500954279000,10.01527880859375,0.16080805659294128,-0.1466970294713974,-0.12795503437519073
1772556500964262700,10.0252626953125,0.0844738706946373,-0.27566778659820557,-0.21182197332382202
1772556500974246000,10.035245849609375,0.02094469591975212,-0.3441168963909149,-0.22011132538318634
1772556500984230000,10.04522998046875,-0.011877964250743389,-0.3399817943572998,-0.14805124700069427
1772556500994214000,10.0552138671875,0.002025866648182273,-0.2940739691257477,-0.02317322976887226
1772556501004198000,10.065197998046875,0.0500197559595108,-0.26337331533432007,0.08113932609558105
1772556501014182000,10.075181884765625,0.11105914413928986,-0.26765620708465576,0.09328467398881912
1772556501024166000,10.085165771484375,0.17016693949699402,-0.3050762712955475,0.0013630058383569121
1772556501034150000,10.09514990234375,0.20310251414775848,-0.37160763144493103,-0.18844953179359436
1772556501044134000,10.1051337890625,0.22077685594558716,-0.4308438003063202,-0.42516595125198364
1772556501054118000,10.115117919921875,0.22942626476287842,-0.49233511090278625,-0.6243988871574402
1772556501064102000,10.125101806640625,0.23116397857666016,-0.5500293374061584,-0.7299444675445557
1772556501074086000,10.1350859375,0.22510236501693726,-0.5653800368309021,-0.7055736184120178
1772556501084069600,10.145069580078125,0.22458037734031677,-0.49510854482650757,-0.5227643847465515
1772556501094053600,10.1550537109375,0.24498605728149414,-0.32662710547447205,-0.17497900128364563
1772556501104038000,10.165037841796876,0.270212858915329,-0.10178867727518082,0.29342761635780334
1772556501114022000,10.17502197265625,0.2665613889694214,0.10813445597887039,0.7879366874694824
1772556501124006000,10.185005859375,0.22204211354255676,0.27382808923721313,1.2206084728240967
1772556501133990000,10.194989990234374,0.1712854653596878,0.39651912450790405,1.5172926187515259
1772556501143974000,10.204973876953124,0.12779390811920166,0.48900139331817627,1.6613837480545044
1772556501153958000,10.2149580078125,0.07087790220975876,0.5465807914733887,1.6631792783737183
1772556501163942000,10.22494189453125,-0.0021116205025464296,0.5762454867362976,1.5568938255310059
1772556501173926000,10.23492578125,-0.07223531603813171,0.5487374067306519,1.38526451587677
1772556501183910000,10.244909912109375,-0.15578080713748932,0.4691954553127289,1.1781401634216309
1772556501193894000,10.254893798828125,-0.22541794180870056,0.376048743724823,0.9472688436508179
1772556501203878000,10.2648779296875,-0.2856504023075104,0.2660963833332062,0.7002385258674622
1772556501213862000,10.27486181640625,-0.3495588004589081,0.15377624332904816,0.4438709318637848
1772556501223846000,10.284845947265625,-0.4045000672340393,0.043712060898542404,0.19843053817749023
1772556501233830000,10.294829833984375,-0.4433920979499817,-0.061706773936748505,-0.01962456852197647
1772556501243814000,10.30481396484375,-0.4479959011077881,-0.13740898668766022,-0.2081547975540161
1772556501253798000,10.3147978515625,-0.41346508264541626,-0.19293031096458435,-0.37506574392318726
1772556501263781000,10.324781005859375,-0.36795511841773987,-0.22529835999011993,-0.5052821040153503
1772556501273764900,10.334764892578125,-0.3124455213546753,-0.23768073320388794,-0.5878720283508301
1772556501283748900,10.344748779296875,-0.23793800175189972,-0.24380254745483398,-0.6262069344520569
1772556501293732900,10.35473291015625,-0.1610775738954544,-0.2266472578048706,-0.6280159950256348
1772556501303716900,10.364716796875,-0.07006537169218063,-0.19464191794395447,-0.5946452617645264
1772556501313700900,10.374700927734375,0.025174861773848534,-0.1517421305179596,-0.548041820526123
1772556501323684900,10.384684814453125,0.11612553894519806,-0.10063126683235168,-0.48665541410446167
1772556501333668900,10.3946689453125,0.1922765076160431,-0.054665375500917435,-0.44252973794937134
1772556501343652900,10.40465283203125,0.24919597804546356,-0.008588427677750587,-0.4138711988925934
1772556501353636900,10.414636962890626,0.28385302424430847,0.018802449107170105,-0.39412039518356323
1772556501363621000,10.42462109375,0.3022876977920532,0.03544986993074417,-0.38832804560661316
1772556501373605000,10.434605224609374,0.29851025342941284,0.032272983342409134,-0.4023035168647766
1772556501383589000,10.444589111328124,0.27777063846588135,0.013194898143410683,-0.4369802474975586
1772556501393573000,10.454572998046874,0.24429816007614136,-0.019658656790852547,-0.48376214504241943
1772556501403557000,10.46455712890625,0.20891860127449036,-0.059730175882577896,-0.5238046050071716
1772556501413541000,10.474541015625,0.16995441913604736,-0.10361906886100769,-0.5588973760604858
1772556501423524900,10.48452490234375,0.13001924753189087,-0.13414394855499268,-0.5781339406967163
1772556501433508900,10.4945087890625,0.08623182028532028,-0.15285319089889526,-0.578154444694519
1772556501443492900,10.504492919921875,0.04783143848180771,-0.15359728038311005,-0.5539779663085938
1772556501453476900,10.514476806640625,0.007109042257070541,-0.14789465069770813,-0.49518871307373047
1772556501463460900,10.5244609375,-0.02598685957491398,-0.11832504719495773,-0.3912290036678314
1772556501473444900,10.53444482421875,-0.06312970072031021,-0.08650240302085876,-0.24558153748512268
1772556501483428900,10.544428955078125,-0.1083400547504425,-0.06452306360006332,-0.09648685902357101
1772556501493412900,10.554412841796875,-0.16034093499183655,-0.05894986912608147,0.045696914196014404
1772556501503396900,10.56439697265625,-0.23033013939857483,-0.0636839047074318,0.13630138337612152
1772556501513381000,10.574381103515625,-0.30643850564956665,-0.06348549574613571,0.1846819669008255
1772556501523365000,10.584365234375,-0.39034777879714966,-0.06480935961008072,0.18527664244174957
1772556501533349000,10.59434912109375,-0.45444953441619873,-0.07390031963586807,0.15939044952392578
1772556501543333000,10.6043330078125,-0.49901485443115234,-0.08409756422042847,0.11143464595079422
1772556501553315800,10.61431591796875,-0.5174455642700195,-0.09423089772462845,0.05405125021934509
1772556501563299800,10.6242998046875,-0.5114462375640869,-0.08587309718132019,-0.003290868131443858
1772556501573283800,10.634283935546875,-0.47356677055358887,-0.057494185864925385,-0.04171282425522804
1772556501583267800,10.644267822265626,-0.4151545763015747,-0.007799599785357714,-0.05488801747560501
1772556501593251800,10.654251953125,-0.34321409463882446,0.04818643629550934,-0.04893691465258598
1772556501603235800,10.66423583984375,-0.24595864117145538,0.08749229460954666,-0.0022210762836039066
1772556501613220000,10.67422021484375,-0.15636217594146729,0.09498057514429092,0.06472519785165787
1772556501623204000,10.6842041015625,-0.11664965003728867,0.05059473216533661,0.10961011797189713
1772556501633188000,10.69418798828125,-0.11839668452739716,-0.050867706537246704,0.10291226953268051
1772556501643172000,10.704172119140624,-0.12661120295524597,-0.15510089695453644,0.06358563154935837
1772556501653156000,10.714156005859374,-0.13175269961357117,-0.23732785880565643,-0.012025769799947739
1772556501663140000,10.72414013671875,-0.1441957950592041,-0.3054310083389282,-0.11687441915273666
1772556501673124000,10.7341240234375,-0.16666674613952637,-0.3832893371582031,-0.21830517053604126
1772556501683107800,10.74410791015625,-0.1868247389793396,-0.4755162000656128,-0.29157590866088867
1772556501693091800,10.754091796875,-0.18408913910388947,-0.537364661693573,-0.302263468503952
1772556501703075800,10.764075927734375,-0.1455601304769516,-0.5498223900794983,-0.21387793123722076
1772556501713059800,10.774059814453125,-0.07986313849687576,-0.518233060836792,0.002740392694249749
1772556501723043800,10.7840439453125,-0.013173059560358524,-0.4596501588821411,0.3413163125514984
1772556501733027800,10.79402783203125,0.018259432166814804,-0.39047107100486755,0.7298856377601624
1772556501743011800,10.80401171875,0.012044944800436497,-0.3206973373889923,1.11262047290802
1772556501752995800,10.813995849609375,-0.023723172023892403,-0.25694337487220764,1.4399256706237793
1772556501762980000,10.82397998046875,-0.0990685299038887,-0.18634749948978424,1.6456029415130615
1772556501772964000,10.833964111328125,-0.1991186887025833,-0.10607051104307175,1.7071824073791504
1772556501782948000,10.843947998046875,-0.3152700662612915,-0.02803323231637478,1.6388752460479736
1772556501792932000,10.85393212890625,-0.44774022698402405,0.05696927756071091,1.4433577060699463
1772556501802916000,10.863916015625,-0.5795555114746094,0.15596696734428406,1.1595147848129272
1772556501812900000,10.873900146484376,-0.6896689534187317,0.2410144805908203,0.827420175075531
1772556501822882800,10.8838828125,-0.7637498378753662,0.30015289783477783,0.47795164585113525
1772556501832866800,10.89386669921875,-0.7907521724700928,0.33182692527770996,0.13685265183448792
1772556501842850800,10.903850830078126,-0.7560825943946838,0.3668738603591919,-0.18772143125534058
1772556501852834800,10.913834716796876,-0.6604277491569519,0.37596485018730164,-0.49849289655685425
1772556501862819000,10.923819091796876,-0.5168212652206421,0.3838914632797241,-0.7929623126983643
1772556501872803000,10.933802978515626,-0.3472953736782074,0.3838967978954315,-1.0516269207000732
1772556501882787000,10.943787109375,-0.17577262222766876,0.3815425634384155,-1.2462522983551025
1772556501892771000,10.95377099609375,-0.00011265171633567661,0.35818079113960266,-1.3312159776687622
1772556501902755000,10.963755126953124,0.17009210586547852,0.28741127252578735,-1.2698335647583008
1772556501912739000,10.973739013671874,0.31765440106391907,0.18335171043872833,-1.0808756351470947
1772556501922723000,10.98372314453125,0.43042781949043274,0.08731333166360855,-0.8186951279640198
1772556501932707000,10.99370703125,0.49504807591438293,0.01619308441877365,-0.5445051193237305
1772556501942690800,11.00369091796875,0.5142952799797058,-0.0563809834420681,-0.30727285146713257
1772556501952674800,11.0136748046875,0.49659350514411926,-0.10904978960752487,-0.14091424643993378
1772556501962658800,11.023658935546875,0.4616270065307617,-0.1424788534641266,-0.05001389980316162
1772556501972642800,11.033642822265625,0.41205865144729614,-0.1568194478750229,-0.01625220663845539
1772556501982626800,11.043626708984375,0.36460351943969727,-0.13537965714931488,-0.027102723717689514
1772556501992610800,11.05361083984375,0.33238062262535095,-0.09729699045419693,-0.07372242212295532
1772556502002595000,11.063594970703125,0.3172607719898224,-0.04932786896824837,-0.12916411459445953
1772556502012579000,11.0735791015625,0.3226715326309204,0.0036703685764223337,-0.1816326379776001
1772556502022563000,11.08356298828125,0.33126768469810486,0.0545324832201004,-0.2019275277853012
1772556502032547000,11.093547119140625,0.33966168761253357,0.1029929593205452,-0.19545045495033264
1772556502042531000,11.103531005859375,0.3549636900424957,0.1304224580526352,-0.16702280938625336
1772556502052515000,11.11351513671875,0.3703303933143616,0.1520097702741623,-0.12088194489479065
1772556502062499000,11.1234990234375,0.37974226474761963,0.16504967212677002,-0.05423234403133392
1772556502072481800,11.133481689453125,0.39576810598373413,0.17159758508205414,0.016954215243458748
1772556502082465800,11.1434658203125,0.41691067814826965,0.18423216044902802,0.08792639523744583
1772556502092449800,11.15344970703125,0.44371166825294495,0.20456379652023315,0.14124713838100433
1772556502102433800,11.163433837890626,0.4708316922187805,0.2284717857837677,0.19036434590816498
1772556502112418000,11.17341796875,0.5003741383552551,0.25022128224372864,0.22623074054718018
1772556502122402000,11.183402099609374,0.5196388959884644,0.26041001081466675,0.25513482093811035
1772556502132386000,11.193385986328124,0.5323264598846436,0.26641809940338135,0.2810058295726776
1772556502142370000,11.2033701171875,0.5309259295463562,0.27441877126693726,0.29030105471611023
1772556502152354000,11.21335400390625,0.5245921015739441,0.256356418132782,0.28391721844673157
1772556502162338000,11.223338134765624,0.5050618648529053,0.222543865442276,0.2532077729701996
1772556502172322000,11.233322021484375,0.46826866269111633,0.18726202845573425,0.19736020267009735
1772556502182306000,11.24330615234375,0.410756915807724,0.15631024539470673,0.11414042115211487
1772556502192290000,11.2532900390625,0.3282463252544403,0.11841479688882828,0.010644122026860714
1772556502202274000,11.263274169921875,0.234932079911232,0.0747850239276886,-0.09750152379274368
1772556502212257800,11.2732578125,0.1513487696647644,0.03562670201063156,-0.18256528675556183
1772556502222241800,11.28324169921875,0.09229104965925217,-0.0009147958480753005,-0.20767250657081604
1772556502232225800,11.293225830078125,0.06810262054204941,-0.024503745138645172,-0.17808371782302856
1772556502242209800,11.303209716796875,0.08702118694782257,-0.018822157755494118,-0.08328317105770111
1772556502252193800,11.31319384765625,0.14885206520557404,0.010018279775977135,0.05740656703710556
1772556502262177800,11.323177734375,0.23539254069328308,0.040288034826517105,0.19125278294086456
1772556502272161500,11.33316162109375,0.31578484177589417,0.03783100098371506,0.24796798825263977
1772556502282145500,11.3431455078125,0.38706064224243164,-0.02442997507750988,0.1944272667169571
1772556502292129500,11.353129638671875,0.44461262226104736,-0.17066387832164764,0.033964358270168304
1772556502302112500,11.363112548828125,0.47419288754463196,-0.3451121151447296,-0.1693544089794159
1772556502312096500,11.373096435546875,0.4848324656486511,-0.5206450819969177,-0.3749730885028839
1772556502322080500,11.38308056640625,0.4815535843372345,-0.701225221157074,-0.5404752492904663
1772556502332064500,11.393064453125,0.4657075107097626,-0.8263652920722961,-0.6162768006324768
1772556502342048800,11.403048828125,0.43422308564186096,-0.8264361619949341,-0.5638226270675659
1772556502352032800,11.41303271484375,0.42397791147232056,-0.7089998126029968,-0.3486754298210144
1772556502362016800,11.423016845703126,0.42632120847702026,-0.4568983018398285,0.014427674934267998
1772556502372000800,11.433000732421876,0.40422070026397705,-0.13856080174446106,0.4737212359905243
1772556502381984500,11.442984619140624,0.3377642035484314,0.14636600017547607,0.9484840035438538
1772556502391968500,11.452968505859374,0.2772656977176666,0.36652714014053345,1.33780837059021
1772556502401952500,11.462952392578124,0.24449069797992706,0.5141557455062866,1.5929410457611084
1772556502411936500,11.4729365234375,0.2023557722568512,0.5950093269348145,1.6784417629241943
1772556502421920500,11.48292041015625,0.14879560470581055,0.6263701319694519,1.62525475025177
1772556502431904500,11.492904541015625,0.08346453309059143,0.6045538187026978,1.4761630296707153
1772556502441888500,11.502888427734375,0.010252904146909714,0.5440688729286194,1.27222740650177
1772556502451872500,11.51287255859375,-0.07272666692733765,0.4737872779369354,1.0407021045684814
1772556502461856500,11.5228564453125,-0.13136601448059082,0.4012318551540375,0.7828004956245422
1772556502471840500,11.532840576171875,-0.16952139139175415,0.33777084946632385,0.5103806853294373
1772556502481824500,11.542824462890625,-0.1887986809015274,0.3057769536972046,0.2302398681640625
1772556502491808800,11.552808837890625,-0.20721523463726044,0.31189078092575073,-0.03873727470636368
1772556502501792800,11.562792724609375,-0.23908022046089172,0.3451440632343292,-0.27809712290763855
1772556502511776800,11.57277685546875,-0.2574842572212219,0.3774583339691162,-0.46801647543907166
1772556502521759500,11.582759521484375,-0.2568757236003876,0.388268381357193,-0.6156730651855469
1772556502531743500,11.592743408203125,-0.23614995181560516,0.3643784821033478,-0.7260099053382874
1772556502541727500,11.6027275390625,-0.19341419637203217,0.3203551173210144,-0.812254786491394
1772556502551711500,11.61271142578125,-0.1246444582939148,0.2748235762119293,-0.8647262454032898
1772556502561695500,11.622695556640625,-0.02082565240561962,0.22206315398216248,-0.8667015433311462
1772556502571679500,11.632679443359375,0.11515241861343384,0.18304811418056488,-0.8064754605293274
1772556502581663500,11.64266357421875,0.2600177228450775,0.15883012115955353,-0.6787119507789612
1772556502591647700,11.652647705078126,0.3885514736175537,0.14991545677185059,-0.5109394192695618
1772556502601631700,11.6626318359375,0.48836222290992737,0.15674300491809845,-0.3221634030342102
1772556502611615700,11.67261572265625,0.5558038353919983,0.17396540939807892,-0.14908215403556824
1772556502621599700,11.682599853515624,0.6097448468208313,0.18141666054725647,-0.012628976255655289
1772556502631583700,11.692583740234374,0.6268319487571716,0.19283495843410492,0.07585614919662476
1772556502641567700,11.702567626953124,0.5997369289398193,0.19596338272094727,0.1155119463801384
1772556502651551500,11.712551513671874,0.54334557056427,0.18934915959835052,0.09722215682268143
1772556502661535500,11.722535400390624,0.4725688695907593,0.1776490956544876,0.04766126349568367
1772556502671519500,11.73251953125,0.40645191073417664,0.15587188303470612,-0.02219371870160103
1772556502681503500,11.74250341796875,0.3287602961063385,0.11848723143339157,-0.09534969180822372
1772556502691487500,11.752487548828125,0.24895842373371124,0.09314725548028946,-0.1669924557209015
1772556502701471500,11.762471435546875,0.16635675728321075,0.08144239336252213,-0.23140206933021545
1772556502711455500,11.77245556640625,0.10022806376218796,0.07599196583032608,-0.26801466941833496
1772556502721439500,11.782439453125,0.0453546978533268,0.07151945680379868,-0.2700141668319702
1772556502731422700,11.792422607421875,0.00803022924810648,0.06271184980869293,-0.2401854395866394
1772556502741406700,11.80240673828125,-0.026489930227398872,0.06516461819410324,-0.17667171359062195
1772556502751390700,11.812390625,-0.06480136513710022,0.047817058861255646,-0.09125187993049622
1772556502761374500,11.82237451171875,-0.10534719377756119,0.028675053268671036,-0.022157499566674232
1772556502771358500,11.8323583984375,-0.13870009779930115,-0.008346347138285637,0.009940248914062977
1772556502781342500,11.842342529296875,-0.17145857214927673,-0.02340172976255417,-0.004009921569377184
1772556502791326500,11.852326416015625,-0.20252887904644012,-0.02796958200633526,-0.06513825803995132
1772556502801310500,11.862310546875,-0.22607921063899994,-0.025586586445569992,-0.15051387250423431
1772556502811294500,11.87229443359375,-0.23010750114917755,-0.019416840746998787,-0.2414376586675644
1772556502821278500,11.882278564453125,-0.21581192314624786,-0.01931910216808319,-0.3325428068637848
1772556502831262500,11.892262451171876,-0.18223798274993896,-0.01375043299049139,-0.4057813286781311
1772556502841246700,11.902246826171876,-0.1394665539264679,0.003962783608585596,-0.4483189284801483
1772556502851230700,11.912230712890626,-0.0915972962975502,0.04541515186429024,-0.4523988962173462
1772556502861214700,11.922214599609376,-0.030773624777793884,0.08548454195261002,-0.3972269892692566
1772556502871198700,11.93219873046875,0.04505349323153496,0.11757216602563858,-0.28902673721313477
1772556502881182700,11.9421826171875,0.12187184393405914,0.14613297581672668,-0.1232050210237503
1772556502891166700,11.952166748046874,0.2010984867811203,0.15796752274036407,0.07821890711784363
1772556502901150700,11.962150634765624,0.24226483702659607,0.12761041522026062,0.28853166103363037
1772556502911134500,11.972134521484374,0.22689013183116913,0.03516038507223129,0.455063134431839
1772556502921118500,11.982118408203124,0.16916239261627197,-0.08343523740768433,0.53848797082901
1772556502931101400,11.992101318359374,0.0996704027056694,-0.18090081214904785,0.5308595895767212
1772556502941085700,12.002085693359374,0.013104616664350033,-0.2705100476741791,0.4487255811691284
1772556502951069700,12.012069580078125,-0.10374210774898529,-0.38124215602874756,0.30774396657943726
1772556502961053700,12.0220537109375,-0.24992968142032623,-0.5345835089683533,0.12407428026199341
1772556502971037700,12.03203759765625,-0.39405250549316406,-0.7009570598602295,-0.07970254868268967
1772556502981021700,12.042021728515625,-0.4931444525718689,-0.8113490343093872,-0.24818503856658936
1772556502991005700,12.052005615234375,-0.5350508689880371,-0.8164300918579102,-0.34796515107154846
1772556503000989700,12.06198974609375,-0.5218075513839722,-0.7314294576644897,-0.35399696230888367
1772556503010973700,12.0719736328125,-0.45018845796585083,-0.5876312851905823,-0.24354660511016846
1772556503020957700,12.081957763671875,-0.34009817242622375,-0.4107968509197235,-0.02087944932281971
1772556503030941400,12.09194140625,-0.2250078171491623,-0.21682392060756683,0.2957344353199005
1772556503040925400,12.101925537109375,-0.1465846449136734,-0.02568698674440384,0.6396987438201904
1772556503050909400,12.111909423828125,-0.12113148719072342,0.1454637199640274,0.9303601384162903
1772556503060893400,12.1218935546875,-0.09369613230228424,0.2954188585281372,1.1325286626815796
1772556503070877400,12.13187744140625,-0.08064611256122589,0.39207908511161804,1.2328143119812012
1772556503080861700,12.14186181640625,-0.08770881593227386,0.4510217607021332,1.2197339534759521
1772556503090845700,12.151845703125,-0.11669173091650009,0.48902055621147156,1.1075586080551147
1772556503100829700,12.16182958984375,-0.17715373635292053,0.5104094743728638,0.8950783014297485
1772556503110812700,12.171812744140626,-0.23605035245418549,0.5058791637420654,0.6148333549499512
1772556503120796700,12.181796630859376,-0.28814497590065,0.48263269662857056,0.28886136412620544
1772556503130780700,12.19178076171875,-0.3111325800418854,0.4591425359249115,-0.05161765590310097
1772556503140764400,12.201764404296876,-0.29100069403648376,0.4401576817035675,-0.3793283998966217
1772556503150748400,12.21174853515625,-0.24368828535079956,0.4025285542011261,-0.6596636772155762
1772556503160732400,12.221732421875,-0.16083228588104248,0.3640722334384918,-0.8944079875946045
1772556503170716400,12.23171630859375,-0.03570020571351051,0.36079439520835876,-1.0532135963439941
1772556503180700400,12.241700439453124,0.10247018188238144,0.3695138692855835,-1.109849452972412
1772556503190684700,12.2516845703125,0.24553732573986053,0.3742838501930237,-1.0320976972579956
1772556503200668700,12.261668701171875,0.38168957829475403,0.35501933097839355,-0.8470849394798279
1772556503210652700,12.271652587890625,0.48658668994903564,0.33614686131477356,-0.6047207713127136
1772556503220636700,12.28163671875,0.5648069381713867,0.31379708647727966,-0.363649845123291
1772556503230620700,12.29162060546875,0.6051719188690186,0.30182376503944397,-0.17596784234046936
1772556503240608500,12.3016083984375,0.6217657923698425,0.3020719885826111,-0.05515806004405022
1772556503250592500,12.311592529296876,0.6202734112739563,0.30104318261146545,0.002112952060997486
1772556503260576500,12.321576416015626,0.601841926574707,0.29383453726768494,0.0024197481106966734
1772556503270560500,12.331560546875,0.5739056468009949,0.2740033268928528,-0.03193343058228493
