time,seconds_elapsed,z,y,x
1772556576965198800,0.06719873046875,-1.10357666015625,-0.4540252685546875,-0.0171661376953125
1772556576975183600,0.07718359375,-1.164794921875,-0.411590576171875,-0.0476837158203125
1772556576985167600,0.087167724609375,-1.2491912841796875,-0.323028564453125,-0.08050537109375
1772556576995152000,0.09715185546875,-1.2888336181640625,-0.260589599609375,-0.13360595703125
1772556577005136000,0.107135986328125,-1.259552001953125,-0.2214813232421875,-0.2056427001953125
1772556577015120000,0.117119873046875,-1.1842498779296875,-0.1954345703125,-0.2796783447265625
1772556577025104000,0.127103759765625,-1.0968780517578125,-0.187957763671875,-0.337890625
1772556577035088000,0.137087890625,-1.0173187255859375,-0.1757354736328125,-0.345733642578125
1772556577045073000,0.147072998046875,-0.9627685546875,-0.157135009765625,-0.3124237060546875
1772556577055057000,0.157056884765625,-0.9393310546875,-0.15740966796875,-0.2687225341796875
1772556577065041000,0.167041015625,-0.93768310546875,-0.1801910400390625,-0.2322845458984375
1772556577075025000,0.17702490234375,-0.93109130859375,-0.20867919921875,-0.196807861328125
1772556577085009000,0.1870087890625,-0.916778564453125,-0.2481689453125,-0.155181884765625
1772556577094992600,0.19699267578125,-0.8984222412109375,-0.289886474609375,-0.1124114990234375
1772556577104978000,0.20697802734375,-0.873504638671875,-0.319427490234375,-0.088775634765625
1772556577114962000,0.2169619140625,-0.853118896484375,-0.339447021484375,-0.082794189453125
1772556577124945700,0.226945556640625,-0.8409423828125,-0.3599700927734375,-0.0882720947265625
1772556577134929700,0.2369296875,-0.8452911376953125,-0.3764190673828125,-0.089813232421875
1772556577144913700,0.24691357421875,-0.860198974609375,-0.3854827880859375,-0.0871734619140625
1772556577154897700,0.256897705078125,-0.8780364990234375,-0.3937835693359375,-0.0799102783203125
1772556577164881700,0.266881591796875,-0.896881103515625,-0.396392822265625,-0.0672760009765625
1772556577174866700,0.27686669921875,-0.910125732421875,-0.3914642333984375,-0.0536346435546875
1772556577184850700,0.2868505859375,-0.9035797119140625,-0.3834075927734375,-0.04278564453125
1772556577194834700,0.296834716796875,-0.880126953125,-0.370269775390625,-0.0540008544921875
1772556577204818700,0.306818603515625,-0.8590240478515625,-0.3536376953125,-0.0747528076171875
1772556577214802700,0.316802734375,-0.84503173828125,-0.338775634765625,-0.09149169921875
1772556577224786700,0.32678662109375,-0.836639404296875,-0.33050537109375,-0.1025848388671875
1772556577234771700,0.336771728515625,-0.834197998046875,-0.3277130126953125,-0.110565185546875
1772556577244755700,0.346755615234375,-0.8426513671875,-0.33203125,-0.116363525390625
1772556577254739700,0.35673974609375,-0.853118896484375,-0.3447723388671875,-0.116485595703125
1772556577264723700,0.3667236328125,-0.8655242919921875,-0.35931396484375,-0.1037750244140625
1772556577274707700,0.376707763671875,-0.8861083984375,-0.3769378662109375,-0.075439453125
1772556577284691700,0.386691650390625,-0.8907623291015625,-0.3928680419921875,-0.0493621826171875
1772556577294675700,0.39667578125,-0.8826751708984375,-0.4059600830078125,-0.03192138671875
1772556577304660700,0.40666064453125,-0.87469482421875,-0.411346435546875,-0.0206451416015625
1772556577314644700,0.416644775390625,-0.8652191162109375,-0.4085540771484375,-0.0178985595703125
1772556577324628700,0.426628662109375,-0.8494720458984375,-0.4046630859375,-0.02117919921875
1772556577334612700,0.43661279296875,-0.8298797607421875,-0.4063720703125,-0.0246429443359375
1772556577344596700,0.4465966796875,-0.81634521484375,-0.40875244140625,-0.03277587890625
1772556577354581000,0.4565810546875,-0.811187744140625,-0.40960693359375,-0.04071044921875
1772556577364565800,0.466565673828125,-0.8120574951171875,-0.41192626953125,-0.0445098876953125
1772556577374549800,0.4765498046875,-0.8149566650390625,-0.4093780517578125,-0.0472564697265625
1772556577384533800,0.48653369140625,-0.81689453125,-0.4060516357421875,-0.058135986328125
1772556577394518000,0.49651806640625,-0.8316192626953125,-0.400726318359375,-0.0732574462890625
1772556577404502000,0.506501953125,-0.86346435546875,-0.400238037109375,-0.0845947265625
1772556577414486000,0.516486083984375,-0.891082763671875,-0.4027557373046875,-0.0892791748046875
1772556577424470000,0.526469970703125,-0.9069671630859375,-0.4065704345703125,-0.1009368896484375
1772556577434455000,0.536455078125,-0.9322509765625,-0.4095916748046875,-0.1138916015625
1772556577444439000,0.54643896484375,-0.96142578125,-0.416168212890625,-0.12396240234375
1772556577454423000,0.556423095703125,-0.9764862060546875,-0.4149169921875,-0.1429290771484375
1772556577464407000,0.566406982421875,-0.98956298828125,-0.400390625,-0.15875244140625
1772556577474391000,0.57639111328125,-1.0065765380859375,-0.3871002197265625,-0.1726837158203125
1772556577484374800,0.586374755859375,-1.016387939453125,-0.37896728515625,-0.1810455322265625
1772556577494358800,0.59635888671875,-1.0035858154296875,-0.3769989013671875,-0.188751220703125
1772556577504344000,0.606343994140625,-0.9794158935546875,-0.3833465576171875,-0.1888580322265625
1772556577514327800,0.616327880859375,-0.947662353515625,-0.4059906005859375,-0.17822265625
1772556577524311800,0.626311767578125,-0.89630126953125,-0.4693603515625,-0.1744232177734375
1772556577534295800,0.6362958984375,-0.8487091064453125,-0.5718994140625,-0.1798858642578125
1772556577544279800,0.64627978515625,-0.843994140625,-0.6414337158203125,-0.158447265625
1772556577554263800,0.656263916015625,-0.89849853515625,-0.6838836669921875,-0.1135406494140625
1772556577564248800,0.666248779296875,-0.952728271484375,-0.7301025390625,-0.0785064697265625
1772556577574232800,0.67623291015625,-1.036346435546875,-0.733245849609375,-0.0745697021484375
1772556577584216800,0.686216796875,-1.1779632568359375,-0.646453857421875,-0.08197021484375
1772556577594200800,0.696200927734375,-1.34222412109375,-0.5070648193359375,-0.0689544677734375
1772556577604184800,0.706184814453125,-1.4301910400390625,-0.389801025390625,-0.050445556640625
1772556577614168800,0.7161689453125,-1.4336700439453125,-0.2996063232421875,-0.0416259765625
1772556577624152800,0.72615283203125,-1.3505706787109375,-0.2225189208984375,-0.050689697265625
1772556577634137900,0.736137939453125,-1.210601806640625,-0.1520843505859375,-0.0879058837890625
1772556577644121900,0.746121826171875,-1.009429931640625,-0.1063995361328125,-0.1055755615234375
1772556577654105900,0.75610595703125,-0.8251495361328125,-0.0921478271484375,-0.0822601318359375
1772556577664089900,0.76608984375,-0.729278564453125,-0.1158447265625,-0.05072021484375
1772556577674073900,0.776073974609375,-0.712188720703125,-0.17218017578125,-0.0179595947265625
1772556577684057900,0.786057861328125,-0.748748779296875,-0.238494873046875,-0.0027618408203125
1772556577694043000,0.79604296875,-0.78546142578125,-0.306365966796875,-0.0057220458984375
1772556577704027000,0.80602685546875,-0.8021697998046875,-0.3692169189453125,-0.013275146484375
1772556577714011000,0.816010986328125,-0.8152313232421875,-0.4122467041015625,-0.01531982421875
1772556577723995000,0.825994873046875,-0.812469482421875,-0.435028076171875,0.0009765625
1772556577733979000,0.835978759765625,-0.8228302001953125,-0.4459686279296875,0.0200042724609375
1772556577743963000,0.845962890625,-0.8387603759765625,-0.45050048828125,0.0303955078125
1772556577753947000,0.85594677734375,-0.8415679931640625,-0.4313812255859375,0.0163726806640625
1772556577763932000,0.865931884765625,-0.83404541015625,-0.4035491943359375,-0.018096923828125
1772556577773915600,0.87591552734375,-0.814483642578125,-0.38983154296875,-0.0655517578125
1772556577783900000,0.88589990234375,-0.8118743896484375,-0.37969970703125,-0.11456298828125
1772556577793884000,0.8958837890625,-0.8153839111328125,-0.376708984375,-0.1549530029296875
1772556577803868000,0.905867919921875,-0.8189544677734375,-0.381439208984375,-0.179229736328125
1772556577813852000,0.915851806640625,-0.826446533203125,-0.392181396484375,-0.1869049072265625
1772556577823837000,0.9258369140625,-0.8468170166015625,-0.4029388427734375,-0.1817779541015625
1772556577833821000,0.935821044921875,-0.863311767578125,-0.419158935546875,-0.1740570068359375
1772556577843805000,0.945804931640625,-0.86370849609375,-0.4362030029296875,-0.1682586669921875
1772556577853789000,0.955788818359375,-0.8583221435546875,-0.4453582763671875,-0.160430908203125
1772556577863773000,0.96577294921875,-0.8500213623046875,-0.451873779296875,-0.1485748291015625
1772556577873757000,0.9757568359375,-0.8418731689453125,-0.4577178955078125,-0.1309661865234375
1772556577883742000,0.985741943359375,-0.8341522216796875,-0.46026611328125,-0.109039306640625
1772556577893726000,0.995725830078125,-0.82647705078125,-0.4598541259765625,-0.0884857177734375
1772556577903710000,1.0057099609375,-0.8163604736328125,-0.45745849609375,-0.06756591796875
1772556577913694000,1.01569384765625,-0.80841064453125,-0.4506072998046875,-0.051788330078125
1772556577923678000,1.025677978515625,-0.805084228515625,-0.44207763671875,-0.0430908203125
1772556577933662000,1.035661865234375,-0.802276611328125,-0.4390869140625,-0.0419921875
1772556577943646000,1.04564599609375,-0.79425048828125,-0.4421539306640625,-0.047760009765625
1772556577953631000,1.055630859375,-0.7772216796875,-0.4465789794921875,-0.0597076416015625
1772556577963615000,1.065614990234375,-0.765350341796875,-0.44866943359375,-0.0747528076171875
1772556577973599000,1.075598876953125,-0.7591705322265625,-0.44769287109375,-0.0803375244140625
1772556577983583000,1.0855830078125,-0.757171630859375,-0.448150634765625,-0.080535888671875
1772556577993567000,1.09556689453125,-0.7636871337890625,-0.4478607177734375,-0.0755615234375
1772556578003550700,1.10555078125,-0.775848388671875,-0.4534912109375,-0.0702972412109375
1772556578013536000,1.115535888671875,-0.795166015625,-0.4669036865234375,-0.0630950927734375
1772556578023519700,1.125519775390625,-0.81011962890625,-0.47943115234375,-0.05767822265625
1772556578033503700,1.135503662109375,-0.8234710693359375,-0.48785400390625,-0.0471038818359375
1772556578043487700,1.14548779296875,-0.8365325927734375,-0.50445556640625,-0.0421905517578125
1772556578053471700,1.1554716796875,-0.853790283203125,-0.5281219482421875,-0.03857421875
1772556578063455700,1.165455810546875,-0.8697357177734375,-0.5463104248046875,-0.0310821533203125
1772556578073439700,1.175439697265625,-0.8833770751953125,-0.5525970458984375,-0.023284912109375
1772556578083424800,1.1854248046875,-0.902740478515625,-0.5508575439453125,-0.0126495361328125
1772556578093408800,1.19540869140625,-0.9209442138671875,-0.5475616455078125,-0.0063018798828125
1772556578103392800,1.205392822265625,-0.933197021484375,-0.53802490234375,-0.003997802734375
1772556578113376800,1.215376708984375,-0.93402099609375,-0.5269317626953125,-0.0062255859375
1772556578123360800,1.22536083984375,-0.9275665283203125,-0.5282135009765625,-0.0088348388671875
1772556578133344800,1.2353447265625,-0.89959716796875,-0.572021484375,-0.012298583984375
1772556578143329800,1.245329833984375,-0.8604888916015625,-0.6258392333984375,-0.0087432861328125
1772556578153313800,1.255313720703125,-0.848541259765625,-0.6249847412109375,0.0142822265625
1772556578163297800,1.2652978515625,-0.8639373779296875,-0.594207763671875,0.035919189453125
1772556578173281800,1.27528173828125,-0.898895263671875,-0.5968475341796875,0.0218505859375
1772556578183266000,1.28526611328125,-0.973907470703125,-0.592071533203125,-0.0156707763671875
1772556578193250000,1.29525,-1.0628204345703125,-0.5273284912109375,-0.0276641845703125
1772556578203234800,1.30523486328125,-1.1096649169921875,-0.4340667724609375,-0.0439453125
1772556578213218800,1.31521875,-1.1349334716796875,-0.3328094482421875,-0.0985870361328125
1772556578223202800,1.325202880859375,-1.1639862060546875,-0.242279052734375,-0.1824798583984375
1772556578233187000,1.33518701171875,-1.168365478515625,-0.200958251953125,-0.2777557373046875
1772556578243171000,1.345171142578125,-1.1377410888671875,-0.189971923828125,-0.3435821533203125
1772556578253154800,1.35515478515625,-1.07781982421875,-0.175750732421875,-0.347625732421875
1772556578263139800,1.365139892578125,-0.9992828369140625,-0.166290283203125,-0.3018035888671875
1772556578273124000,1.3751240234375,-0.946502685546875,-0.174530029296875,-0.2612152099609375
1772556578283107800,1.38510791015625,-0.922119140625,-0.208740234375,-0.2298583984375
1772556578293091800,1.395091796875,-0.914764404296875,-0.2568206787109375,-0.1992034912109375
1772556578303075800,1.405075927734375,-0.9170074462890625,-0.3007659912109375,-0.168609619140625
1772556578313060000,1.41506005859375,-0.9103546142578125,-0.3373260498046875,-0.1455841064453125
1772556578323045000,1.425045166015625,-0.8968505859375,-0.3675994873046875,-0.1139373779296875
1772556578333029000,1.435029052734375,-0.904571533203125,-0.3876495361328125,-0.07513427734375
1772556578343013000,1.44501318359375,-0.924072265625,-0.3968505859375,-0.02880859375
1772556578352997000,1.4549970703125,-0.9380340576171875,-0.3967132568359375,0.0237274169921875
1772556578362981000,1.464981201171875,-0.9534149169921875,-0.3930816650390625,0.0497283935546875
1772556578372965000,1.474965087890625,-0.960205078125,-0.4016876220703125,0.0749359130859375
1772556578382950100,1.4849501953125,-0.94207763671875,-0.4069366455078125,0.1072235107421875
1772556578392934100,1.49493408203125,-0.9202117919921875,-0.4041748046875,0.12249755859375
1772556578402918100,1.504918212890625,-0.9034271240234375,-0.4030609130859375,0.123687744140625
1772556578412902100,1.514902099609375,-0.88751220703125,-0.4035186767578125,0.1111602783203125
1772556578422886100,1.52488623046875,-0.8832244873046875,-0.40216064453125,0.08990478515625
1772556578432870100,1.5348701171875,-0.875701904296875,-0.4007568359375,0.0650482177734375
1772556578442855200,1.544855224609375,-0.8678741455078125,-0.4029388427734375,0.0438385009765625
1772556578452839200,1.554839111328125,-0.8606109619140625,-0.4069366455078125,0.025115966796875
1772556578462823200,1.5648232421875,-0.8541717529296875,-0.410858154296875,0.001556396484375
1772556578472807200,1.57480712890625,-0.8477783203125,-0.4183349609375,-0.0198516845703125
1772556578482791200,1.584791259765625,-0.8349151611328125,-0.4257049560546875,-0.0342864990234375
1772556578492775200,1.594775146484375,-0.8283538818359375,-0.4300384521484375,-0.04229736328125
1772556578502759200,1.60475927734375,-0.827301025390625,-0.4308319091796875,-0.03729248046875
1772556578512744200,1.614744140625,-0.8284912109375,-0.42413330078125,-0.0294952392578125
1772556578522728200,1.624728271484375,-0.8170318603515625,-0.4142913818359375,-0.032867431640625
1772556578532712200,1.634712158203125,-0.8004608154296875,-0.4001922607421875,-0.0442047119140625
1772556578542696200,1.6446962890625,-0.7858428955078125,-0.384063720703125,-0.0465087890625
1772556578552680000,1.654679931640625,-0.7734832763671875,-0.3761138916015625,-0.0391082763671875
1772556578562665200,1.664665283203125,-0.7744598388671875,-0.373626708984375,-0.0282135009765625
1772556578572649000,1.67464892578125,-0.7756500244140625,-0.3718414306640625,-0.0179443359375
1772556578582633000,1.684633056640625,-0.768829345703125,-0.37054443359375,-0.00714111328125
1772556578592617000,1.694616943359375,-0.7694091796875,-0.3709869384765625,0.0001983642578125
1772556578602601000,1.70460107421875,-0.7854461669921875,-0.376312255859375,-0.0109405517578125
1772556578612585000,1.7145849609375,-0.8032379150390625,-0.3951263427734375,-0.0273590087890625
1772556578622570000,1.724570068359375,-0.8150634765625,-0.41534423828125,-0.0520782470703125
1772556578632554000,1.734553955078125,-0.8393096923828125,-0.422119140625,-0.0778656005859375
1772556578642538000,1.7445380859375,-0.87115478515625,-0.4249725341796875,-0.100494384765625
1772556578652522000,1.75452197265625,-0.912628173828125,-0.4281158447265625,-0.117340087890625
1772556578662506000,1.764506103515625,-0.9637908935546875,-0.4341583251953125,-0.123260498046875
1772556578672490200,1.774490234375,-1.0064239501953125,-0.4376068115234375,-0.1128082275390625
1772556578682475000,1.78447509765625,-1.029876708984375,-0.43109130859375,-0.090423583984375
1772556578692459000,1.794458984375,-1.0332794189453125,-0.4204559326171875,-0.0614166259765625
1772556578702443000,1.804443115234375,-1.01202392578125,-0.43389892578125,-0.0402374267578125
1772556578712427300,1.81442724609375,-0.966339111328125,-0.496368408203125,-0.04974365234375
1772556578722411300,1.824411376953125,-0.935760498046875,-0.5600738525390625,-0.070831298828125
1772556578732395300,1.834395263671875,-0.9700927734375,-0.5894012451171875,-0.065643310546875
1772556578742380000,1.844380126953125,-1.029937744140625,-0.623016357421875,-0.0563812255859375
1772556578752364000,1.854364013671875,-1.10736083984375,-0.6410980224609375,-0.0456390380859375
1772556578762348300,1.864348388671875,-1.21893310546875,-0.6101837158203125,-0.02813720703125
1772556578772332300,1.874332275390625,-1.3672637939453125,-0.5089569091796875,0.01495361328125
1772556578782316300,1.88431640625,-1.4704742431640625,-0.368194580078125,0.078155517578125
1772556578792300300,1.89430029296875,-1.47430419921875,-0.24176025390625,0.119476318359375
1772556578802285300,1.904285400390625,-1.412017822265625,-0.1501922607421875,0.1254730224609375
1772556578812269300,1.914269287109375,-1.2698974609375,-0.0913238525390625,0.1246490478515625
1772556578822253300,1.92425341796875,-1.0966339111328125,-0.0618743896484375,0.134918212890625
1772556578832237000,1.934237060546875,-0.9538116455078125,-0.0697479248046875,0.1575164794921875
1772556578842221000,1.944220947265625,-0.86077880859375,-0.1169281005859375,0.188812255859375
1772556578852206300,1.954206298828125,-0.84210205078125,-0.17803955078125,0.19384765625
1772556578862190000,1.964190185546875,-0.8517608642578125,-0.233612060546875,0.1771240234375
1772556578872174000,1.974174072265625,-0.84588623046875,-0.2906646728515625,0.1542205810546875
1772556578882158000,1.984157958984375,-0.8333740234375,-0.3380126953125,0.135772705078125
1772556578892142000,1.99414208984375,-0.818603515625,-0.3624725341796875,0.1245269775390625
1772556578902126000,2.0041259765625,-0.8042449951171875,-0.386627197265625,0.1181793212890625
1772556578912111000,2.014111083984375,-0.8008270263671875,-0.4076385498046875,0.1170501708984375
1772556578922095000,2.02409521484375,-0.81817626953125,-0.4056549072265625,0.1254119873046875
1772556578932079000,2.0340791015625,-0.8586273193359375,-0.39715576171875,0.1404876708984375
1772556578942063000,2.04406298828125,-0.881195068359375,-0.390045166015625,0.123809814453125
1772556578952047000,2.054047119140625,-0.888092041015625,-0.3738861083984375,0.0766143798828125
1772556578962031000,2.064031005859375,-0.8911895751953125,-0.358551025390625,0.030120849609375
1772556578972016000,2.07401611328125,-0.8898468017578125,-0.3462982177734375,-0.0169830322265625
1772556578982000000,2.084000244140625,-0.88421630859375,-0.3333892822265625,-0.0550079345703125
1772556578991984000,2.093984130859375,-0.8767242431640625,-0.3234710693359375,-0.072265625
1772556579001968000,2.103968017578125,-0.871124267578125,-0.32135009765625,-0.07073974609375
1772556579011952000,2.1139521484375,-0.86700439453125,-0.324859619140625,-0.0505828857421875
1772556579021936000,2.12393603515625,-0.864593505859375,-0.334930419921875,-0.022918701171875
1772556579031921200,2.133921142578125,-0.864837646484375,-0.343475341796875,0.0026702880859375
1772556579041905200,2.1439052734375,-0.8629608154296875,-0.3498687744140625,0.0260009765625
1772556579051889200,2.15388916015625,-0.8650054931640625,-0.3585662841796875,0.0411834716796875
1772556579061873200,2.163873046875,-0.866668701171875,-0.3675689697265625,0.0501861572265625
1772556579071857200,2.173857177734375,-0.865142822265625,-0.3777923583984375,0.0557861328125
1772556579081842200,2.18384228515625,-0.861785888671875,-0.38916015625,0.0575408935546875
1772556579091826200,2.193826171875,-0.8522186279296875,-0.3964996337890625,0.055145263671875
1772556579101810200,2.20381005859375,-0.8349609375,-0.3970489501953125,0.0511322021484375
1772556579111794200,2.213794189453125,-0.8144989013671875,-0.397003173828125,0.0414276123046875
1772556579121778000,2.22377783203125,-0.8001556396484375,-0.39483642578125,0.034088134765625
1772556579131762000,2.233761962890625,-0.7965850830078125,-0.3881683349609375,0.032928466796875
1772556579141747200,2.243747314453125,-0.7958984375,-0.387420654296875,0.0325469970703125
1772556579151731000,2.25373095703125,-0.79962158203125,-0.390960693359375,0.0315704345703125
1772556579161715000,2.26371484375,-0.800079345703125,-0.3946685791015625,0.0279693603515625
1772556579171699000,2.273698974609375,-0.7938079833984375,-0.4055328369140625,0.0256195068359375
1772556579181683000,2.283682861328125,-0.7906341552734375,-0.416656494140625,0.029052734375
1772556579191668000,2.29366796875,-0.79583740234375,-0.426422119140625,0.0423431396484375
1772556579201652000,2.30365185546875,-0.8057403564453125,-0.43768310546875,0.050811767578125
1772556579211636000,2.313635986328125,-0.8170013427734375,-0.4446563720703125,0.0569610595703125
1772556579221620000,2.323619873046875,-0.8332366943359375,-0.45391845703125,0.0656890869140625
1772556579231604200,2.333604248046875,-0.850006103515625,-0.469512939453125,0.0723724365234375
1772556579241588200,2.343588134765625,-0.867706298828125,-0.47528076171875,0.09039306640625
1772556579251573000,2.353572998046875,-0.8839569091796875,-0.4745330810546875,0.1098785400390625
1772556579261557000,2.363556884765625,-0.9119415283203125,-0.4744110107421875,0.122039794921875
1772556579271541000,2.373541015625,-0.94464111328125,-0.4759674072265625,0.1282806396484375
1772556579281525200,2.383525146484375,-0.9617462158203125,-0.5044097900390625,0.1236419677734375
1772556579291509200,2.39350927734375,-0.9491119384765625,-0.5628509521484375,0.118194580078125
1772556579301494000,2.403493896484375,-0.946807861328125,-0.5960845947265625,0.1394500732421875
1772556579311477200,2.413477294921875,-0.9818115234375,-0.5940399169921875,0.1645965576171875
1772556579321461200,2.423461181640625,-1.049774169921875,-0.574005126953125,0.1687774658203125
1772556579331445200,2.4334453125,-1.1291656494140625,-0.5503387451171875,0.1502838134765625
1772556579341429200,2.44342919921875,-1.220855712890625,-0.494110107421875,0.1295013427734375
1772556579351413000,2.4534130859375,-1.3022918701171875,-0.4134674072265625,0.1087799072265625
1772556579361398300,2.463398193359375,-1.3265380859375,-0.33428955078125,0.0696868896484375
1772556579371382300,2.47338232421875,-1.2816162109375,-0.28961181640625,-0.0005645751953125
1772556579381366000,2.483365966796875,-1.194793701171875,-0.2611083984375,-0.080169677734375
1772556579391350000,2.49335009765625,-1.0982208251953125,-0.22760009765625,-0.1379241943359375
1772556579401334000,2.503333984375,-1.0003662109375,-0.20794677734375,-0.16650390625
1772556579411319000,2.513319091796875,-0.93951416015625,-0.2019805908203125,-0.17645263671875
1772556579421303000,2.523302978515625,-0.9302978515625,-0.207977294921875,-0.1734161376953125
1772556579431287000,2.533287109375,-0.957672119140625,-0.2275238037109375,-0.1537628173828125
1772556579441271000,2.54327099609375,-0.986236572265625,-0.258514404296875,-0.128021240234375
1772556579451255000,2.553255126953125,-1.0025177001953125,-0.292694091796875,-0.1019287109375
1772556579461239000,2.563239013671875,-0.9915618896484375,-0.3279571533203125,-0.078277587890625
1772556579471224000,2.57322412109375,-0.9578704833984375,-0.363861083984375,-0.05413818359375
1772556579481208000,2.5832080078125,-0.9271087646484375,-0.394134521484375,-0.0158233642578125
1772556579491192000,2.593192138671875,-0.906158447265625,-0.4089202880859375,0.027923583984375
1772556579501176000,2.603176025390625,-0.9022064208984375,-0.4176788330078125,0.0596923828125
1772556579511160000,2.61316015625,-0.891204833984375,-0.417999267578125,0.114227294921875
1772556579521145000,2.62314501953125,-0.8613128662109375,-0.4105377197265625,0.16778564453125
1772556579531129000,2.633129150390625,-0.83721923828125,-0.3993988037109375,0.198699951171875
1772556579541113000,2.643113037109375,-0.82403564453125,-0.38958740234375,0.21722412109375
1772556579551097000,2.65309716796875,-0.8137359619140625,-0.382965087890625,0.235076904296875
1772556579561081000,2.6630810546875,-0.8030242919921875,-0.3741302490234375,0.235443115234375
1772556579571065000,2.673065185546875,-0.80242919921875,-0.362579345703125,0.2220458984375
1772556579581050000,2.683050048828125,-0.808380126953125,-0.35797119140625,0.198760986328125
1772556579591034000,2.6930341796875,-0.8098297119140625,-0.3664703369140625,0.1724395751953125
1772556579601018000,2.70301806640625,-0.807647705078125,-0.3831634521484375,0.1458740234375
1772556579611002000,2.713002197265625,-0.8067779541015625,-0.3959808349609375,0.1257476806640625
1772556579620986000,2.722986083984375,-0.80487060546875,-0.4039306640625,0.11016845703125
1772556579630971100,2.73297119140625,-0.791229248046875,-0.4105224609375,0.0958251953125
1772556579640955100,2.742955078125,-0.7804107666015625,-0.4130401611328125,0.08953857421875
1772556579650939100,2.752939208984375,-0.7736663818359375,-0.4157562255859375,0.085693359375
1772556579660923000,2.7629228515625,-0.768829345703125,-0.4185638427734375,0.08135986328125
1772556579670907100,2.7729072265625,-0.7662506103515625,-0.41748046875,0.0802001953125
1772556579680892200,2.78289208984375,-0.766021728515625,-0.4124908447265625,0.0808868408203125
1772556579690876000,2.7928759765625,-0.753326416015625,-0.4103546142578125,0.07891845703125
1772556579700860000,2.80285986328125,-0.740478515625,-0.4028167724609375,0.073577880859375
1772556579710844200,2.81284423828125,-0.7324981689453125,-0.3942718505859375,0.05780029296875
1772556579720828200,2.822828125,-0.729278564453125,-0.3910369873046875,0.03607177734375
1772556579730813000,2.83281298828125,-0.73846435546875,-0.388824462890625,0.0178375244140625
1772556579740797000,2.842796875,-0.7688751220703125,-0.389007568359375,-0.00006103515625
1772556579750781200,2.85278125,-0.81256103515625,-0.393585205078125,-0.01300048828125
1772556579760765200,2.86276513671875,-0.85589599609375,-0.401885986328125,-0.0163116455078125
1772556579770749200,2.872749267578125,-0.9000091552734375,-0.40582275390625,-0.0178680419921875
1772556579780733200,2.882733154296875,-0.95257568359375,-0.3959197998046875,-0.0264129638671875
1772556579790718000,2.892718017578125,-1.0156097412109375,-0.384552001953125,-0.043121337890625
1772556579800702200,2.9027021484375,-1.0750274658203125,-0.38262939453125,-0.058135986328125
1772556579810686200,2.912686279296875,-1.1228485107421875,-0.398834228515625,-0.0716094970703125
1772556579820670200,2.922670166015625,-1.14410400390625,-0.4523162841796875,-0.105865478515625
1772556579830654200,2.932654296875,-1.16064453125,-0.5083770751953125,-0.133392333984375
1772556579840639200,2.94263916015625,-1.201141357421875,-0.540069580078125,-0.1350860595703125
1772556579850623200,2.952623291015625,-1.2754364013671875,-0.5427093505859375,-0.118988037109375
1772556579860607200,2.962607177734375,-1.37823486328125,-0.5304107666015625,-0.09490966796875
1772556579870591200,2.97259130859375,-1.4905548095703125,-0.5016326904296875,-0.0635833740234375
1772556579880575200,2.9825751953125,-1.572296142578125,-0.4348907470703125,-0.01763916015625
1772556579890560300,2.992560302734375,-1.59332275390625,-0.327880859375,0.0297698974609375
1772556579900544300,3.002544189453125,-1.546783447265625,-0.2110595703125,0.077911376953125
1772556579910528300,3.0125283203125,-1.4380950927734375,-0.11737060546875,0.1280059814453125
1772556579920512300,3.02251220703125,-1.2804718017578125,-0.073486328125,0.172698974609375
1772556579930496300,3.032496337890625,-1.11474609375,-0.0896759033203125,0.209686279296875
1772556579940480300,3.042480224609375,-0.9515533447265625,-0.1423492431640625,0.24566650390625
1772556579950465300,3.05246533203125,-0.8515777587890625,-0.185089111328125,0.268890380859375
1772556579960449300,3.06244921875,-0.8138275146484375,-0.2181396484375,0.268157958984375
1772556579970433300,3.072433349609375,-0.7979583740234375,-0.2640380859375,0.25927734375
1772556579980417000,3.0824169921875,-0.7880096435546875,-0.3028717041015625,0.2543792724609375
1772556579990401000,3.092401123046875,-0.781524658203125,-0.3354949951171875,0.2567901611328125
1772556580000386300,3.10238623046875,-0.763275146484375,-0.377532958984375,0.2645416259765625
1772556580010370000,3.1123701171875,-0.74560546875,-0.417022705078125,0.2530059814453125
1772556580020354000,3.12235400390625,-0.74066162109375,-0.44659423828125,0.19598388671875
1772556580030338000,3.132338134765625,-0.7530670166015625,-0.4429779052734375,0.1415863037109375
1772556580040322000,3.142322021484375,-0.7606658935546875,-0.4066925048828125,0.1106719970703125
1772556580050307000,3.15230712890625,-0.7790374755859375,-0.3452606201171875,0.0865631103515625
1772556580060291000,3.162291015625,-0.8058013916015625,-0.297607421875,0.067718505859375
1772556580070275000,3.172275146484375,-0.806640625,-0.27972412109375,0.056121826171875
1772556580080259000,3.182259033203125,-0.79571533203125,-0.2816314697265625,0.0455169677734375
1772556580090243000,3.1922431640625,-0.78289794921875,-0.2902069091796875,0.0413818359375
1772556580100228000,3.20222802734375,-0.7690582275390625,-0.301177978515625,0.041717529296875
1772556580110212000,3.212212158203125,-0.7594451904296875,-0.314910888671875,0.0459442138671875
1772556580120196000,3.222196044921875,-0.7580718994140625,-0.335174560546875,0.04742431640625
1772556580130180000,3.23218017578125,-0.767730712890625,-0.3632354736328125,0.05157470703125
1772556580140164000,3.2421640625,-0.778289794921875,-0.392974853515625,0.0579681396484375
1772556580150149000,3.252149169921875,-0.7883148193359375,-0.4197845458984375,0.0683441162109375
1772556580160133000,3.262133056640625,-0.8001861572265625,-0.44354248046875,0.0836029052734375
1772556580170117000,3.2721171875,-0.80865478515625,-0.4605712890625,0.0999603271484375
1772556580180101000,3.28210107421875,-0.81524658203125,-0.463104248046875,0.1133575439453125
1772556580190085000,3.292085205078125,-0.8166046142578125,-0.462890625,0.1196136474609375
1772556580200069000,3.302069091796875,-0.81976318359375,-0.4635162353515625,0.119415283203125
1772556580210054100,3.31205419921875,-0.8299407958984375,-0.4599761962890625,0.1145172119140625
1772556580220038100,3.3220380859375,-0.834014892578125,-0.4545135498046875,0.1046905517578125
1772556580230022100,3.332022216796875,-0.8359832763671875,-0.44952392578125,0.0845184326171875
1772556580240006100,3.342006103515625,-0.84136962890625,-0.4432220458984375,0.055877685546875
1772556580249990100,3.351990234375,-0.85491943359375,-0.4358673095703125,0.0220489501953125
1772556580259975200,3.36197509765625,-0.8647003173828125,-0.4273529052734375,-0.002593994140625
1772556580269959200,3.371959228515625,-0.867462158203125,-0.4187469482421875,-0.033538818359375
1772556580279943200,3.381943115234375,-0.864227294921875,-0.4154052734375,-0.061920166015625
1772556580289927000,3.391927001953125,-0.8682403564453125,-0.4110565185546875,-0.0835418701171875
1772556580299911000,3.401910888671875,-0.8731536865234375,-0.4107208251953125,-0.106475830078125
1772556580309900000,3.411900146484375,-0.8804473876953125,-0.412353515625,-0.1221771240234375
1772556580319884000,3.421884033203125,-0.893798828125,-0.412811279296875,-0.115325927734375
1772556580329868000,3.431867919921875,-0.9068756103515625,-0.4049530029296875,-0.10064697265625
1772556580339852000,3.44185205078125,-0.9131927490234375,-0.394073486328125,-0.088287353515625
1772556580349836000,3.4518359375,-0.9197845458984375,-0.3878173828125,-0.086273193359375
1772556580359821000,3.461821044921875,-0.926971435546875,-0.392730712890625,-0.0988311767578125
1772556580369805000,3.47180517578125,-0.9298248291015625,-0.41259765625,-0.1212921142578125
1772556580379789000,3.4817890625,-0.93121337890625,-0.4396820068359375,-0.1309967041015625
1772556580389772800,3.491772705078125,-0.9313812255859375,-0.4627532958984375,-0.1351318359375
1772556580399756800,3.5017568359375,-0.9320526123046875,-0.481719970703125,-0.1286163330078125
1772556580409741800,3.511741943359375,-0.9259796142578125,-0.49224853515625,-0.1128082275390625
1772556580419725800,3.521725830078125,-0.925994873046875,-0.4923858642578125,-0.0951385498046875
1772556580429709800,3.531709716796875,-0.921295166015625,-0.50079345703125,-0.0708465576171875
1772556580439693800,3.54169384765625,-0.8985137939453125,-0.5499114990234375,-0.0541839599609375
1772556580449677800,3.551677734375,-0.884490966796875,-0.6022186279296875,-0.0271148681640625
1772556580459662800,3.561662841796875,-0.889404296875,-0.6127777099609375,0.014404296875
1772556580469646800,3.571646728515625,-0.89666748046875,-0.6472930908203125,0.020660400390625
1772556580479630800,3.581630859375,-0.9262237548828125,-0.6700897216796875,-0.008331298828125
1772556580489614800,3.59161474609375,-1.0528717041015625,-0.5471954345703125,-0.0146026611328125
1772556580499599000,3.60159912109375,-1.22613525390625,-0.4027862548828125,-0.0179290771484375
1772556580509584000,3.611583984375,-1.329254150390625,-0.3282928466796875,-0.0820465087890625
1772556580519568000,3.62156787109375,-1.321044921875,-0.292236328125,-0.169158935546875
1772556580529552000,3.6315517578125,-1.2549591064453125,-0.261199951171875,-0.230499267578125
1772556580539536000,3.641535888671875,-1.1459503173828125,-0.234649658203125,-0.2579193115234375
1772556580549520100,3.65152001953125,-1.014801025390625,-0.203125,-0.2521514892578125
1772556580559505000,3.6615048828125,-0.9117279052734375,-0.173736572265625,-0.2317962646484375
1772556580569489000,3.671489013671875,-0.8659210205078125,-0.155609130859375,-0.2096405029296875
1772556580579473000,3.681472900390625,-0.8715362548828125,-0.16644287109375,-0.1854400634765625
1772556580589457200,3.69145703125,-0.895416259765625,-0.20782470703125,-0.1623687744140625
1772556580599441200,3.701441162109375,-0.90570068359375,-0.2545928955078125,-0.1408233642578125
1772556580609425200,3.711425048828125,-0.888763427734375,-0.2982330322265625,-0.1204376220703125
1772556580619410000,3.721409912109375,-0.8618621826171875,-0.3324432373046875,-0.094818115234375
1772556580629394200,3.731394287109375,-0.8466033935546875,-0.35601806640625,-0.063507080078125
1772556580639378200,3.741378173828125,-0.84759521484375,-0.3808746337890625,-0.03424072265625
1772556580649362200,3.751362060546875,-0.8646697998046875,-0.3924560546875,-0.0160064697265625
1772556580659347000,3.761346923828125,-0.8846588134765625,-0.4052886962890625,-0.0137481689453125
1772556580669331200,3.771331298828125,-0.901397705078125,-0.42041015625,-0.0140533447265625
1772556580679315200,3.781315185546875,-0.912017822265625,-0.4247283935546875,-0.0124359130859375
1772556580689299200,3.79129931640625,-0.9075927734375,-0.4119720458984375,-0.01776123046875
1772556580699283000,3.801282958984375,-0.8804931640625,-0.3855133056640625,-0.028839111328125
1772556580709268000,3.81126806640625,-0.84869384765625,-0.3649139404296875,-0.0499114990234375
1772556580719252200,3.821252197265625,-0.8310089111328125,-0.3476409912109375,-0.0720367431640625
1772556580729236000,3.831236083984375,-0.8207244873046875,-0.3277435302734375,-0.08642578125
1772556580739220000,3.841219970703125,-0.810333251953125,-0.3142242431640625,-0.0964813232421875
1772556580749204000,3.851203857421875,-0.803680419921875,-0.3107452392578125,-0.11376953125
1772556580759188000,3.86118798828125,-0.80975341796875,-0.3152313232421875,-0.1349334716796875
1772556580769173000,3.871173095703125,-0.817962646484375,-0.3301544189453125,-0.1473236083984375
1772556580779157000,3.881156982421875,-0.8189239501953125,-0.35980224609375,-0.15484619140625
1772556580789141000,3.89114111328125,-0.8227081298828125,-0.3859710693359375,-0.1608428955078125
1772556580799125000,3.901125,-0.83099365234375,-0.4036102294921875,-0.1587066650390625
1772556580809109000,3.91110888671875,-0.83233642578125,-0.421142578125,-0.157501220703125
1772556580819094000,3.921093994140625,-0.821075439453125,-0.43316650390625,-0.1522979736328125
1772556580829078000,3.931078125,-0.8141937255859375,-0.4319610595703125,-0.139434814453125
1772556580839062000,3.94106201171875,-0.8045196533203125,-0.422393798828125,-0.130126953125
1772556580849046000,3.9510458984375,-0.791961669921875,-0.410552978515625,-0.124114990234375
1772556580859030000,3.961030029296875,-0.7865447998046875,-0.41021728515625,-0.1169281005859375
1772556580869015000,3.97101513671875,-0.7783203125,-0.4138641357421875,-0.109466552734375
1772556580878999000,3.9809990234375,-0.779022216796875,-0.40814208984375,-0.0996551513671875
1772556580888983000,3.990983154296875,-0.7788543701171875,-0.4052581787109375,-0.0961761474609375
1772556580898964000,4.0009638671875,-0.7818756103515625,-0.4040374755859375,-0.0972900390625
1772556580908948000,4.010947998046875,-0.7923583984375,-0.404388427734375,-0.1065673828125
1772556580918933000,4.02093310546875,-0.80633544921875,-0.4071044921875,-0.11761474609375
1772556580928917000,4.0309169921875,-0.82171630859375,-0.404571533203125,-0.124542236328125
1772556580938901000,4.04090087890625,-0.8521728515625,-0.401824951171875,-0.1350250244140625
1772556580948885000,4.050885009765625,-0.901123046875,-0.4050140380859375,-0.1359405517578125
1772556580958869000,4.060868896484375,-0.9397125244140625,-0.4065093994140625,-0.145111083984375
1772556580968854000,4.07085400390625,-0.9701995849609375,-0.3991546630859375,-0.1622772216796875
1772556580978838000,4.080838134765625,-0.9978179931640625,-0.386993408203125,-0.1797027587890625
1772556580988822000,4.090822021484375,-1.0152740478515625,-0.3726806640625,-0.18731689453125
1772556580998806000,4.100805908203125,-1.0217742919921875,-0.3946075439453125,-0.199066162109375
1772556581008790000,4.1107900390625,-1.0088348388671875,-0.4987945556640625,-0.2128143310546875
1772556581018775000,4.120775146484375,-1.00262451171875,-0.590576171875,-0.18914794921875
1772556581028759000,4.130759033203125,-1.041229248046875,-0.627593994140625,-0.16107177734375
1772556581038743000,4.140742919921875,-1.08514404296875,-0.655914306640625,-0.15264892578125
1772556581048727000,4.15072705078125,-1.1602630615234375,-0.6262359619140625,-0.1652374267578125
1772556581058711000,4.1607109375,-1.2728271484375,-0.5195770263671875,-0.1589813232421875
1772556581068696000,4.170696044921875,-1.329132080078125,-0.3901824951171875,-0.1047210693359375
1772556581078680000,4.18068017578125,-1.371795654296875,-0.26422119140625,-0.090667724609375
1772556581088664000,4.1906640625,-1.3843841552734375,-0.19573974609375,-0.1447601318359375
1772556581098648000,4.20064794921875,-1.3319854736328125,-0.16851806640625,-0.177734375
1772556581108632000,4.210632080078125,-1.158660888671875,-0.1697998046875,-0.1405792236328125
1772556581118617000,4.2206171875,-0.9773406982421875,-0.1627655029296875,-0.08514404296875
1772556581128601000,4.23060107421875,-0.8571624755859375,-0.17364501953125,-0.0294952392578125
1772556581138585000,4.240585205078125,-0.765411376953125,-0.1933135986328125,0.0380401611328125
1772556581148569000,4.250569091796875,-0.7798004150390625,-0.2313995361328125,0.069793701171875
1772556581158552800,4.260552734375,-0.8015289306640625,-0.2777862548828125,0.061065673828125
1772556581168538000,4.2705380859375,-0.783935546875,-0.323638916015625,0.0378570556640625
1772556581178522000,4.280522216796875,-0.764251708984375,-0.35986328125,0.014617919921875
1772556581188505900,4.290505859375,-0.733917236328125,-0.384307861328125,-0.0007476806640625
1772556581198489900,4.30048974609375,-0.7180023193359375,-0.3982391357421875,-0.0179595947265625
1772556581208473900,4.310473876953125,-0.7454833984375,-0.37799072265625,0.0170135498046875
1772556581218459000,4.320458984375,-0.781951904296875,-0.344268798828125,0.0655364990234375
1772556581228443000,4.33044287109375,-0.8150177001953125,-0.317291259765625,0.045318603515625
1772556581238427000,4.340427001953125,-0.87652587890625,-0.279632568359375,0.009796142578125
1772556581248411000,4.350410888671875,-0.9272613525390625,-0.27001953125,-0.022064208984375
1772556581258395000,4.360394775390625,-0.9619140625,-0.307403564453125,-0.0828399658203125
1772556581268380000,4.3703798828125,-0.9677734375,-0.328399658203125,-0.1014404296875
1772556581278364000,4.380364013671875,-0.95574951171875,-0.347381591796875,-0.0838623046875
1772556581288350200,4.39035009765625,-0.9350738525390625,-0.373626708984375,-0.0550079345703125
1772556581298334000,4.400333984375,-0.936553955078125,-0.40289306640625,-0.0194244384765625
1772556581308319000,4.410319091796875,-0.952301025390625,-0.430816650390625,0.0149383544921875
1772556581318299400,4.42029931640625,-0.9364776611328125,-0.447509765625,0.0300140380859375
1772556581328283400,4.430283447265625,-0.9241790771484375,-0.451141357421875,0.0406341552734375
1772556581338267400,4.440267333984375,-0.9336395263671875,-0.449859619140625,0.0620880126953125
1772556581348251400,4.45025146484375,-0.944366455078125,-0.455078125,0.088470458984375
1772556581358236400,4.460236328125,-0.952667236328125,-0.4700775146484375,0.127685546875
1772556581368220400,4.470220458984375,-0.9486541748046875,-0.4874114990234375,0.1697998046875
1772556581378204400,4.480204345703125,-0.922698974609375,-0.4975128173828125,0.197967529296875
1772556581388188400,4.4901884765625,-0.8877410888671875,-0.4868927001953125,0.211700439453125
1772556581398172400,4.50017236328125,-0.8595123291015625,-0.4675750732421875,0.2094268798828125
1772556581408157400,4.510157470703125,-0.834381103515625,-0.477996826171875,0.1849212646484375
1772556581418141400,4.520141357421875,-0.8166046142578125,-0.4680023193359375,0.17816162109375
1772556581428125400,4.53012548828125,-0.823974609375,-0.47149658203125,0.1605224609375
1772556581438109400,4.540109375,-0.83740234375,-0.4920806884765625,0.1261138916015625
1772556581448093400,4.550093505859375,-0.836669921875,-0.4796295166015625,0.1043243408203125
1772556581458078500,4.560078369140625,-0.8235931396484375,-0.4552764892578125,0.101348876953125
1772556581468062500,4.5700625,-0.7947845458984375,-0.4332427978515625,0.1088409423828125
1772556581478046500,4.58004638671875,-0.770416259765625,-0.4310760498046875,0.1132659912109375
1772556581488030500,4.590030517578125,-0.7587432861328125,-0.43035888671875,0.1236419677734375
1772556581498014500,4.600014404296875,-0.7501068115234375,-0.41375732421875,0.12493896484375
1772556581507999500,4.60999951171875,-0.7393646240234375,-0.442047119140625,0.1392669677734375
1772556581517983500,4.6199833984375,-0.698150634765625,-0.426910400390625,0.1218109130859375
1772556581527967500,4.629967529296875,-0.6902618408203125,-0.4125213623046875,0.147308349609375
1772556581537951500,4.639951416015625,-0.7225189208984375,-0.4690399169921875,0.150238037109375
1772556581547935500,4.649935546875,-0.751739501953125,-0.50433349609375,0.1763153076171875
1772556581557920500,4.65992041015625,-0.7810821533203125,-0.5009002685546875,0.1929473876953125
1772556581567904500,4.669904541015625,-0.813934326171875,-0.490875244140625,0.1740264892578125
1772556581577888500,4.679888427734375,-0.851348876953125,-0.51025390625,0.1568756103515625
1772556581587872300,4.689872314453125,-0.8434295654296875,-0.549468994140625,0.1763458251953125
1772556581597856300,4.699856201171875,-0.808319091796875,-0.6132659912109375,0.227264404296875
1772556581607841300,4.70984130859375,-0.8383941650390625,-0.665496826171875,0.2687225341796875
1772556581617825300,4.7198251953125,-0.93603515625,-0.7214508056640625,0.3387451171875
1772556581627809300,4.729809326171875,-1.112274169921875,-0.753173828125,0.440826416015625
1772556581637793300,4.739793212890625,-1.2620697021484375,-0.7520599365234375,0.5028228759765625
1772556581647777300,4.74977734375,-1.2562103271484375,-0.7503662109375,0.4565277099609375
1772556581657762300,4.75976220703125,-1.1762847900390625,-0.69989013671875,0.3628387451171875
1772556581667746300,4.769746337890625,-1.1432037353515625,-0.60577392578125,0.337249755859375
1772556581677730300,4.779730224609375,-1.139007568359375,-0.49859619140625,0.3052215576171875
1772556581687714300,4.78971435546875,-1.121246337890625,-0.40460205078125,0.244781494140625
1772556581697699300,4.79969921875,-1.1108856201171875,-0.351348876953125,0.1829071044921875
1772556581707683300,4.809683349609375,-1.0683441162109375,-0.338043212890625,0.1389923095703125
1772556581717667300,4.819667236328125,-0.9884185791015625,-0.3547821044921875,0.1215362548828125
1772556581727651300,4.8296513671875,-0.9099578857421875,-0.3462371826171875,0.147918701171875
1772556581737635300,4.83963525390625,-0.8370208740234375,-0.3400421142578125,0.1976318359375
1772556581747620400,4.849620361328125,-0.779876708984375,-0.3708648681640625,0.230316162109375
1772556581757604400,4.859604248046875,-0.74029541015625,-0.41796875,0.246246337890625
1772556581767588400,4.86958837890625,-0.702178955078125,-0.4572906494140625,0.2602691650390625
1772556581777572400,4.879572265625,-0.67315673828125,-0.4847259521484375,0.2701873779296875
1772556581787556400,4.889556396484375,-0.6621551513671875,-0.511962890625,0.2874603271484375
1772556581797541400,4.899541259765625,-0.6599578857421875,-0.527099609375,0.2952728271484375
1772556581807525400,4.909525390625,-0.6319732666015625,-0.549102783203125,0.3101806640625
1772556581817509400,4.91950927734375,-0.6028594970703125,-0.5876922607421875,0.318695068359375
1772556581827493400,4.929493408203125,-0.5927734375,-0.59930419921875,0.3333740234375
1772556581837477400,4.939477294921875,-0.5888519287109375,-0.5682525634765625,0.3407135009765625
1772556581847462400,4.94946240234375,-0.6101837158203125,-0.527252197265625,0.30413818359375
1772556581857446400,4.9594462890625,-0.5484466552734375,-0.5138702392578125,0.3001861572265625
1772556581867430400,4.969430419921875,-0.552154541015625,-0.4861907958984375,0.2729034423828125
1772556581877414400,4.979414306640625,-0.541473388671875,-0.4668121337890625,0.2645416259765625
1772556581887398400,4.9893984375,-0.5369415283203125,-0.458526611328125,0.25567626953125
1772556581897383400,4.999383544921875,-0.5503082275390625,-0.4457550048828125,0.2606048583984375
1772556581907367400,5.009367431640625,-0.5620269775390625,-0.4442596435546875,0.2664947509765625
1772556581917351400,5.019351318359375,-0.5889892578125,-0.446533203125,0.29046630859375
1772556581927335200,5.029335205078125,-0.6286773681640625,-0.45184326171875,0.2978668212890625
1772556581937319200,5.039319091796875,-0.64215087890625,-0.455291748046875,0.2947845458984375
1772556581947304400,5.049304443359375,-0.6328277587890625,-0.4479827880859375,0.2856597900390625
1772556581957288200,5.0592880859375,-0.62725830078125,-0.439910888671875,0.2657928466796875
1772556581967272200,5.069272216796875,-0.62823486328125,-0.440216064453125,0.233001708984375
1772556581977256200,5.079256103515625,-0.64849853515625,-0.44659423828125,0.2005767822265625
1772556581987241200,5.0892412109375,-0.690093994140625,-0.4545135498046875,0.1863555908203125
1772556581997225200,5.09922509765625,-0.73382568359375,-0.4742279052734375,0.187103271484375
1772556582007209200,5.109209228515625,-0.7469635009765625,-0.487091064453125,0.18798828125
1772556582017193200,5.119193115234375,-0.74322509765625,-0.48565673828125,0.1924285888671875
1772556582027177200,5.12917724609375,-0.7385101318359375,-0.510589599609375,0.1835174560546875
1772556582037162200,5.139162353515625,-0.7461090087890625,-0.545562744140625,0.1673736572265625
1772556582047146200,5.149146240234375,-0.7854461669921875,-0.5767669677734375,0.1523895263671875
1772556582057130200,5.159130126953125,-0.8420562744140625,-0.5839080810546875,0.1299285888671875
1772556582067114200,5.1691142578125,-0.9180450439453125,-0.570892333984375,0.0976409912109375
1772556582077098500,5.179098388671875,-1.0155792236328125,-0.567291259765625,0.05950927734375
1772556582087083300,5.189083251953125,-1.1233367919921875,-0.581268310546875,0.026947021484375
1772556582097067300,5.1990673828125,-1.2178955078125,-0.5926055908203125,0.0341644287109375
1772556582107051300,5.20905126953125,-1.25506591796875,-0.5866546630859375,0.0589447021484375
1772556582117035300,5.21903515625,-1.243316650390625,-0.554962158203125,0.06396484375
1772556582127020300,5.229020263671875,-1.2146148681640625,-0.5054168701171875,0.059234619140625
1772556582137004300,5.23900439453125,-1.16815185546875,-0.4532012939453125,0.046173095703125
1772556582146988300,5.24898828125,-1.0910491943359375,-0.438140869140625,0.0150146484375
1772556582156972300,5.25897216796875,-1.0202484130859375,-0.4914703369140625,-0.029205322265625
1772556582166956500,5.26895654296875,-1.0125732421875,-0.5615386962890625,-0.0457000732421875
1772556582176941300,5.27894140625,-1.0613555908203125,-0.6385345458984375,-0.036773681640625
1772556582186925300,5.28892529296875,-1.12249755859375,-0.751495361328125,-0.0303192138671875
1772556582196909300,5.298909423828125,-1.2668914794921875,-0.7843780517578125,-0.0055999755859375
1772556582206893600,5.3088935546875,-1.5111236572265625,-0.6827545166015625,0.0335693359375
1772556582216877600,5.318877685546875,-1.6319427490234375,-0.5511016845703125,0.053558349609375
1772556582226862300,5.3288623046875,-1.530853271484375,-0.4354095458984375,0.0427398681640625
1772556582236846300,5.338846435546875,-1.35125732421875,-0.3046875,0.025848388671875
1772556582246830300,5.348830322265625,-1.168212890625,-0.1784515380859375,0.0373077392578125
1772556582256814600,5.358814697265625,-0.9831390380859375,-0.114410400390625,0.033111572265625
1772556582266798300,5.36879833984375,-0.8289794921875,-0.104217529296875,0.0308685302734375
1772556582276783400,5.378783447265625,-0.716888427734375,-0.13720703125,0.0428314208984375
1772556582286767400,5.388767333984375,-0.6549835205078125,-0.1900787353515625,0.0460662841796875
1772556582296751400,5.39875146484375,-0.641082763671875,-0.259185791015625,0.0121307373046875
1772556582306735400,5.4087353515625,-0.67449951171875,-0.3241729736328125,-0.039459228515625
1772556582316721200,5.41872119140625,-0.710174560546875,-0.3737335205078125,-0.0883026123046875
1772556582326705200,5.428705078125,-0.7076568603515625,-0.4317626953125,-0.104766845703125
1772556582336689200,5.438689208984375,-0.7471771240234375,-0.4589691162109375,-0.06842041015625
1772556582346673000,5.4486728515625,-0.7743682861328125,-0.50189208984375,-0.0369720458984375
1772556582356657200,5.4586572265625,-0.7558135986328125,-0.5201568603515625,-0.0547332763671875
1772556582366642200,5.46864208984375,-0.76580810546875,-0.466705322265625,-0.0783538818359375
1772556582376626000,5.4786259765625,-0.789764404296875,-0.3993682861328125,-0.1023712158203125
1772556582386610000,5.48860986328125,-0.80029296875,-0.3580474853515625,-0.1287841796875
1772556582396594000,5.498593994140625,-0.8122100830078125,-0.3382720947265625,-0.1431427001953125
1772556582406578200,5.508578125,-0.8176422119140625,-0.331298828125,-0.1500396728515625
1772556582416563000,5.51856298828125,-0.830963134765625,-0.347412109375,-0.1506195068359375
1772556582426547000,5.528546875,-0.8485260009765625,-0.3656463623046875,-0.150177001953125
1772556582436531000,5.538531005859375,-0.8615264892578125,-0.372711181640625,-0.1446533203125
1772556582446515200,5.54851513671875,-0.8610076904296875,-0.388763427734375,-0.142333984375
1772556582456499200,5.558499267578125,-0.858306884765625,-0.4087371826171875,-0.142578125
1772556582466484000,5.56848388671875,-0.8577423095703125,-0.414520263671875,-0.13385009765625
1772556582476468000,5.578468017578125,-0.84100341796875,-0.42120361328125,-0.1244659423828125
1772556582486452200,5.5884521484375,-0.8249969482421875,-0.4222869873046875,-0.12176513671875
1772556582496436200,5.598436279296875,-0.817108154296875,-0.4279327392578125,-0.1184844970703125
1772556582506421000,5.6084208984375,-0.812896728515625,-0.4317626953125,-0.1060791015625
1772556582516405000,5.618405029296875,-0.8194580078125,-0.4311370849609375,-0.0883331298828125
1772556582526389200,5.62838916015625,-0.8230133056640625,-0.4362030029296875,-0.078704833984375
1772556582536373200,5.638373291015625,-0.8106231689453125,-0.4367828369140625,-0.0733489990234375
1772556582546357200,5.648357177734375,-0.808807373046875,-0.441680908203125,-0.078948974609375
1772556582556342000,5.658342041015625,-0.804534912109375,-0.4553375244140625,-0.09429931640625
1772556582566326000,5.668325927734375,-0.7837371826171875,-0.460479736328125,-0.103729248046875
1772556582576310300,5.678310302734375,-0.7649383544921875,-0.4660491943359375,-0.1093902587890625
1772556582586294300,5.688294189453125,-0.7481536865234375,-0.4821624755859375,-0.1190185546875
1772556582596278300,5.6982783203125,-0.7377471923828125,-0.4851837158203125,-0.135955810546875
1772556582606263000,5.708262939453125,-0.73541259765625,-0.4651641845703125,-0.15020751953125
1772556582616247300,5.718247314453125,-0.7480316162109375,-0.4433441162109375,-0.1519012451171875
1772556582626231300,5.728231201171875,-0.786102294921875,-0.42791748046875,-0.1444854736328125
1772556582636215300,5.73821533203125,-0.82623291015625,-0.4199981689453125,-0.1369781494140625
1772556582646200000,5.748199951171875,-0.84478759765625,-0.43133544921875,-0.1406707763671875
1772556582656184300,5.758184326171875,-0.8571624755859375,-0.438507080078125,-0.148529052734375
1772556582666168300,5.768168212890625,-0.8712310791015625,-0.4443359375,-0.15484619140625
1772556582676152300,5.77815234375,-0.891571044921875,-0.4584808349609375,-0.1605987548828125
1772556582686136000,5.788135986328125,-0.912353515625,-0.470672607421875,-0.164947509765625
1772556582696121000,5.79812109375,-0.93841552734375,-0.4748687744140625,-0.168060302734375
1772556582706105300,5.808105224609375,-0.9534759521484375,-0.4872589111328125,-0.164947509765625
1772556582716089000,5.818089111328125,-0.9498443603515625,-0.541656494140625,-0.1557769775390625
1772556582726073000,5.828072998046875,-0.936126708984375,-0.6175079345703125,-0.133331298828125
1772556582736058000,5.83805810546875,-0.954376220703125,-0.610260009765625,-0.0889892578125
1772556582746042000,5.8480419921875,-0.9882049560546875,-0.55419921875,-0.07843017578125
1772556582756026000,5.858026123046875,-1.0385894775390625,-0.5157318115234375,-0.1125030517578125
1772556582766010000,5.868010009765625,-1.1134796142578125,-0.4453277587890625,-0.1674041748046875
1772556582775994000,5.877994140625,-1.20404052734375,-0.361083984375,-0.221282958984375
1772556582785979100,5.887979248046875,-1.229949951171875,-0.3096771240234375,-0.27325439453125
1772556582795963100,5.897963134765625,-1.1560821533203125,-0.286895751953125,-0.330169677734375
1772556582805947100,5.907947021484375,-1.10107421875,-0.263702392578125,-0.37164306640625
1772556582815931100,5.91793115234375,-1.0474090576171875,-0.254150390625,-0.3816070556640625
1772556582825915100,5.9279150390625,-0.9855804443359375,-0.2519683837890625,-0.3530426025390625
1772556582835900200,5.937900146484375,-0.9470672607421875,-0.2429351806640625,-0.3019866943359375
1772556582845884200,5.94788427734375,-0.9391632080078125,-0.2433013916015625,-0.2554473876953125
1772556582855868200,5.9578681640625,-0.9530792236328125,-0.2691650390625,-0.2204132080078125
1772556582865852200,5.96785205078125,-0.9520721435546875,-0.3007354736328125,-0.191162109375
1772556582875837200,5.977837158203125,-0.9398651123046875,-0.3254241943359375,-0.164031982421875
1772556582885821200,5.9878212890625,-0.9184112548828125,-0.3486480712890625,-0.1501007080078125
1772556582895805200,5.99780517578125,-0.89599609375,-0.368743896484375,-0.1544342041015625
1772556582905789200,6.0077890625,-0.8887786865234375,-0.3813323974609375,-0.16766357421875
1772556582915773200,6.017773193359375,-0.900787353515625,-0.386077880859375,-0.1784210205078125
1772556582925758200,6.02775830078125,-0.921234130859375,-0.3844146728515625,-0.18890380859375
1772556582935742200,6.0377421875,-0.939544677734375,-0.383026123046875,-0.18719482421875
1772556582945726200,6.047726318359375,-0.9461822509765625,-0.386016845703125,-0.183502197265625
1772556582955710200,6.057710205078125,-0.9405975341796875,-0.3801422119140625,-0.1797943115234375
1772556582965695200,6.0676953125,-0.923675537109375,-0.3741455078125,-0.1786041259765625
1772556582975679200,6.07767919921875,-0.9040069580078125,-0.3661956787109375,-0.179656982421875
1772556582985663200,6.087663330078125,-0.8892822265625,-0.3524932861328125,-0.1795501708984375
1772556582995647200,6.097647216796875,-0.8797454833984375,-0.33642578125,-0.17681884765625
1772556583005631200,6.10763134765625,-0.86956787109375,-0.3219757080078125,-0.170623779296875
1772556583015616300,6.1176162109375,-0.8612060546875,-0.3112030029296875,-0.15673828125
1772556583025600300,6.127600341796875,-0.8585052490234375,-0.30975341796875,-0.1434783935546875
1772556583035584300,6.137584228515625,-0.84954833984375,-0.3155670166015625,-0.14202880859375
1772556583045568300,6.147568359375,-0.8360137939453125,-0.321197509765625,-0.14703369140625
1772556583055552000,6.157552001953125,-0.819793701171875,-0.330902099609375,-0.1590728759765625
1772556583065537300,6.167537353515625,-0.80609130859375,-0.34625244140625,-0.16693115234375
1772556583075521300,6.177521240234375,-0.7982025146484375,-0.3610382080078125,-0.16668701171875
1772556583085505000,6.187505126953125,-0.7925262451171875,-0.3787994384765625,-0.166046142578125
1772556583095489000,6.197489013671875,-0.7891082763671875,-0.3944854736328125,-0.1658172607421875
1772556583105474300,6.207474365234375,-0.7913665771484375,-0.40313720703125,-0.158477783203125
1772556583115458000,6.2174580078125,-0.799163818359375,-0.4139251708984375,-0.143798828125
1772556583125442000,6.227442138671875,-0.80999755859375,-0.4200592041015625,-0.1234588623046875
1772556583135426000,6.237426025390625,-0.8083343505859375,-0.42730712890625,-0.1089630126953125
1772556583145410000,6.24741015625,-0.7910614013671875,-0.434234619140625,-0.106170654296875
1772556583155395000,6.25739501953125,-0.7625579833984375,-0.4368896484375,-0.1032562255859375
1772556583165379000,6.267379150390625,-0.7354888916015625,-0.43707275390625,-0.102020263671875
1772556583175363000,6.277363037109375,-0.7354583740234375,-0.443939208984375,-0.1076812744140625
1772556583185347000,6.28734716796875,-0.7524566650390625,-0.451995849609375,-0.117523193359375
1772556583195332000,6.29733203125,-0.7684326171875,-0.462646484375,-0.131561279296875
1772556583205316000,6.307316162109375,-0.78631591796875,-0.4801025390625,-0.1481475830078125
1772556583215300000,6.317300048828125,-0.818328857421875,-0.4984588623046875,-0.165069580078125
1772556583225284000,6.3272841796875,-0.873046875,-0.5148162841796875,-0.1748809814453125
1772556583235268000,6.33726806640625,-0.9275360107421875,-0.5295562744140625,-0.1854095458984375
1772556583245253000,6.347253173828125,-0.9645538330078125,-0.523681640625,-0.2033233642578125
1772556583255237000,6.357237060546875,-0.9947967529296875,-0.4996185302734375,-0.218505859375
1772556583265221000,6.36722119140625,-1.017822265625,-0.477264404296875,-0.2249908447265625
1772556583275205000,6.377205078125,-1.02923583984375,-0.458251953125,-0.22442626953125
1772556583285190100,6.387190185546875,-1.028350830078125,-0.4460601806640625,-0.2112579345703125
1772556583295174100,6.397174072265625,-1.007568359375,-0.44921875,-0.186248779296875
1772556583305158100,6.407158203125,-0.96160888671875,-0.475677490234375,-0.1656951904296875
1772556583315145500,6.4171455078125,-0.9070281982421875,-0.543487548828125,-0.1500701904296875
1772556583325129500,6.42712939453125,-0.863433837890625,-0.6544036865234375,-0.137664794921875
1772556583335114500,6.437114501953125,-0.86895751953125,-0.713897705078125,-0.1083221435546875
1772556583345098500,6.447098388671875,-0.91705322265625,-0.71746826171875,-0.0643157958984375
1772556583355082500,6.45708251953125,-0.973602294921875,-0.7635040283203125,-0.0340576171875
1772556583365066500,6.46706640625,-1.062469482421875,-0.802581787109375,-0.022247314453125
1772556583375051500,6.477051513671875,-1.2117767333984375,-0.7524261474609375,0.0214385986328125
1772556583385035500,6.487035400390625,-1.360076904296875,-0.6559295654296875,0.0790863037109375
1772556583395019500,6.49701953125,-1.416778564453125,-0.539520263671875,0.1275482177734375
1772556583405003500,6.50700341796875,-1.3690643310546875,-0.4174652099609375,0.151214599609375
1772556583414987500,6.516987548828125,-1.2526702880859375,-0.29376220703125,0.1407928466796875
1772556583424972500,6.52697265625,-1.1026611328125,-0.1826629638671875,0.1044769287109375
1772556583434956500,6.53695654296875,-0.9606781005859375,-0.1044769287109375,0.066070556640625
1772556583444940500,6.5469404296875,-0.888336181640625,-0.088775634765625,0.0320281982421875
1772556583454924500,6.556924560546875,-0.7779693603515625,-0.1215362548828125,0.0442352294921875
1772556583464909600,6.56690966796875,-0.6673126220703125,-0.1512298583984375,0.1168670654296875
1772556583474893600,6.5768935546875,-0.6393890380859375,-0.204376220703125,0.1540679931640625
1772556583484877600,6.586877685546875,-0.697784423828125,-0.28668212890625,0.14312744140625
1772556583494861600,6.596861572265625,-0.763214111328125,-0.3721923828125,0.1319732666015625
1772556583504845300,6.60684521484375,-0.75970458984375,-0.44561767578125,0.111572265625
1772556583514830600,6.61683056640625,-0.7169036865234375,-0.4945831298828125,0.0884246826171875
1772556583524814600,6.626814697265625,-0.7022247314453125,-0.5244140625,0.0823516845703125
1772556583534798300,6.63679833984375,-0.7276611328125,-0.5451507568359375,0.0869598388671875
1772556583544782300,6.6467822265625,-0.7550201416015625,-0.5467529296875,0.0852813720703125
1772556583554767600,6.656767578125,-0.7996063232421875,-0.53759765625,0.0808563232421875
1772556583564751400,6.66675146484375,-0.833251953125,-0.5200347900390625,0.068939208984375
1772556583574735400,6.6767353515625,-0.846099853515625,-0.501434326171875,0.0495758056640625
1772556583584719400,6.68671923828125,-0.8514404296875,-0.4812469482421875,0.0189666748046875
1772556583594703400,6.696703369140625,-0.85369873046875,-0.461517333984375,-0.010040283203125
1772556583604688400,6.7066884765625,-0.82830810546875,-0.445892333984375,-0.0240936279296875
1772556583614672400,6.71667236328125,-0.8184814453125,-0.449249267578125,-0.0444183349609375
1772556583624656400,6.726656494140625,-0.8039093017578125,-0.4542236328125,-0.0483856201171875
1772556583634640400,6.736640380859375,-0.7778778076171875,-0.4584503173828125,-0.032379150390625
1772556583644625400,6.74662548828125,-0.7614898681640625,-0.46832275390625,-0.0131378173828125
1772556583654609400,6.756609375,-0.759674072265625,-0.4848785400390625,0.001922607421875
1772556583664593400,6.766593505859375,-0.7606048583984375,-0.5005950927734375,0.01666259765625
1772556583674577400,6.776577392578125,-0.7578887939453125,-0.5099029541015625,0.0273895263671875
1772556583684561400,6.7865615234375,-0.757843017578125,-0.518218994140625,0.0428009033203125
1772556583694546400,6.79654638671875,-0.7646331787109375,-0.52545166015625,0.055908203125
1772556583704530400,6.806530517578125,-0.7721710205078125,-0.5296783447265625,0.0570831298828125
1772556583714514400,6.816514404296875,-0.7685699462890625,-0.528778076171875,0.0522003173828125
1772556583724498400,6.82649853515625,-0.765655517578125,-0.5221099853515625,0.0511322021484375
1772556583734482400,6.836482421875,-0.7715911865234375,-0.51513671875,0.05096435546875
1772556583744467500,6.846467529296875,-0.7749481201171875,-0.49676513671875,0.04119873046875
1772556583754451500,6.856451416015625,-0.788787841796875,-0.4937591552734375,0.0311431884765625
1772556583764435500,6.866435546875,-0.827362060546875,-0.4996337890625,0.052032470703125
1772556583774419500,6.87641943359375,-0.8346405029296875,-0.48980712890625,0.0724639892578125
1772556583784404500,6.886404541015625,-0.791290283203125,-0.501800537109375,0.066162109375
1772556583794388500,6.896388427734375,-0.766387939453125,-0.51007080078125,0.0733795166015625
1772556583804372500,6.90637255859375,-0.7812347412109375,-0.5112762451171875,0.095672607421875
1772556583814356500,6.9163564453125,-0.81964111328125,-0.512176513671875,0.123016357421875
1772556583824340500,6.926340576171875,-0.8872222900390625,-0.4964447021484375,0.128082275390625
1772556583834325500,6.936325439453125,-0.8341064453125,-0.5163116455078125,0.1090087890625
1772556583844309500,6.9463095703125,-0.768829345703125,-0.5493621826171875,0.1083831787109375
1772556583854293500,6.95629345703125,-0.8096160888671875,-0.542877197265625,0.1325225830078125
1772556583864277500,6.966277587890625,-0.8492279052734375,-0.5673675537109375,0.18829345703125
1772556583874262500,6.976262451171875,-0.8809814453125,-0.62042236328125,0.234161376953125
1772556583884246500,6.98624658203125,-0.87799072265625,-0.6886444091796875,0.2725830078125
1772556583894230500,6.99623046875,-0.8767242431640625,-0.7424774169921875,0.328033447265625
1772556583904214300,7.00621435546875,-0.925537109375,-0.7277374267578125,0.4063568115234375
1772556583914198300,7.0161982421875,-1.007904052734375,-0.6949615478515625,0.486053466796875
1772556583924183600,7.02618359375,-1.0537109375,-0.6704864501953125,0.5254669189453125
1772556583934167300,7.036167236328125,-1.065185546875,-0.6614227294921875,0.5334930419921875
1772556583944151300,7.0461513671875,-1.0733489990234375,-0.6173553466796875,0.51568603515625
1772556583954135300,7.05613525390625,-1.0715789794921875,-0.548248291015625,0.4356842041015625
1772556583964120300,7.066120361328125,-1.0643310546875,-0.5069732666015625,0.343017578125
1772556583974104300,7.076104248046875,-1.0507965087890625,-0.46160888671875,0.247772216796875
1772556583984088300,7.08608837890625,-1.0244903564453125,-0.412353515625,0.174072265625
1772556583994072300,7.096072265625,-1.0095367431640625,-0.3764801025390625,0.144287109375
1772556584004056600,7.106056640625,-0.9952392578125,-0.353759765625,0.1566619873046875
1772556584014041300,7.116041259765625,-0.9651641845703125,-0.3520050048828125,0.1932525634765625
1772556584024025300,7.126025390625,-0.9283905029296875,-0.3769989013671875,0.23858642578125
1772556584034009300,7.13600927734375,-0.888153076171875,-0.4041748046875,0.2740478515625
1772556584043993600,7.14599365234375,-0.8414764404296875,-0.398468017578125,0.2989044189453125
1772556584053978400,7.155978271484375,-0.796234130859375,-0.3882904052734375,0.3166351318359375
1772556584063962400,7.16596240234375,-0.7612457275390625,-0.3849029541015625,0.3191070556640625
1772556584073946400,7.1759462890625,-0.73248291015625,-0.403228759765625,0.3240203857421875
1772556584083930400,7.185930419921875,-0.70709228515625,-0.436126708984375,0.344970703125
1772556584093914600,7.19591455078125,-0.688873291015625,-0.4766693115234375,0.37078857421875
1772556584103899400,7.2058994140625,-0.6767120361328125,-0.513885498046875,0.395721435546875
1772556584113883400,7.21588330078125,-0.6586151123046875,-0.5346832275390625,0.42449951171875
1772556584123867400,7.225867431640625,-0.656402587890625,-0.5391387939453125,0.4405517578125
1772556584133851600,7.2358515625,-0.6620635986328125,-0.5348052978515625,0.4521942138671875
1772556584143835600,7.245835693359375,-0.675628662109375,-0.530853271484375,0.449951171875
1772556584153820400,7.2558203125,-0.6751556396484375,-0.5286865234375,0.4377899169921875
1772556584163804400,7.265804443359375,-0.6687774658203125,-0.51629638671875,0.4176177978515625
1772556584173788700,7.27578857421875,-0.665924072265625,-0.488494873046875,0.3879241943359375
1772556584183772700,7.285772705078125,-0.6705780029296875,-0.4663238525390625,0.36004638671875
1772556584193757400,7.29575732421875,-0.6710357666015625,-0.4544219970703125,0.3366546630859375
1772556584203741400,7.305741455078125,-0.6788787841796875,-0.4471282958984375,0.32440185546875
1772556584213725400,7.315725341796875,-0.6835784912109375,-0.4420166015625,0.315887451171875
1772556584223709700,7.325709716796875,-0.6820068359375,-0.4396820068359375,0.3069915771484375
1772556584233693700,7.335693603515625,-0.6816253662109375,-0.440948486328125,0.3057861328125
1772556584243678500,7.345678466796875,-0.6690673828125,-0.4478912353515625,0.31005859375
1772556584253662500,7.355662353515625,-0.6586456298828125,-0.45068359375,0.319122314453125
1772556584263646700,7.365646728515625,-0.6537017822265625,-0.447906494140625,0.326568603515625
1772556584273630500,7.37563037109375,-0.6503753662109375,-0.4506683349609375,0.329864501953125
1772556584283615500,7.385615478515625,-0.6494903564453125,-0.4595489501953125,0.3396453857421875
1772556584293599500,7.395599609375,-0.646820068359375,-0.4715576171875,0.3513031005859375
1772556584303583500,7.40558349609375,-0.6357269287109375,-0.4839019775390625,0.35308837890625
1772556584313563600,7.415563720703125,-0.6400299072265625,-0.501007080078125,0.3564605712890625
1772556584323547600,7.425547607421875,-0.65057373046875,-0.5156097412109375,0.3648834228515625
1772556584333532700,7.43553271484375,-0.660064697265625,-0.5187225341796875,0.36920166015625
1772556584343516700,7.4455166015625,-0.6837005615234375,-0.5239410400390625,0.3702392578125
1772556584353500700,7.455500732421875,-0.7114715576171875,-0.532867431640625,0.3688201904296875
1772556584363484400,7.465484375,-0.7340240478515625,-0.54058837890625,0.3707427978515625
1772556584373468400,7.475468505859375,-0.7615203857421875,-0.54742431640625,0.39093017578125
1772556584383453700,7.48545361328125,-0.8103179931640625,-0.555938720703125,0.424072265625
1772556584393437400,7.4954375,-0.8534698486328125,-0.5671234130859375,0.4627227783203125
1772556584403421400,7.50542138671875,-0.90142822265625,-0.582733154296875,0.5078125
1772556584413405400,7.515405517578125,-0.940277099609375,-0.57720947265625,0.5515899658203125
1772556584423390500,7.525390380859375,-0.9568328857421875,-0.549102783203125,0.5595550537109375
1772556584433374500,7.53537451171875,-0.94927978515625,-0.51409912109375,0.52508544921875
1772556584443358500,7.5453583984375,-0.9263763427734375,-0.478851318359375,0.487213134765625
1772556584453342500,7.555342529296875,-0.8924713134765625,-0.4663238525390625,0.443511962890625
1772556584463326500,7.565326416015625,-0.850067138671875,-0.486541748046875,0.3847808837890625
1772556584473311500,7.5753115234375,-0.8271484375,-0.4972076416015625,0.33782958984375
1772556584483295500,7.58529541015625,-0.8442840576171875,-0.5518646240234375,0.3565216064453125
1772556584493279500,7.595279541015625,-0.9236602783203125,-0.6000213623046875,0.45166015625
1772556584503263500,7.605263427734375,-0.991119384765625,-0.6595611572265625,0.5911407470703125
1772556584513247500,7.61524755859375,-1.0354766845703125,-0.6999053955078125,0.737701416015625
1772556584523232500,7.625232421875,-1.0851593017578125,-0.708221435546875,0.81689453125
1772556584533216500,7.635216552734375,-1.106414794921875,-0.659759521484375,0.8457489013671875
1772556584543200500,7.645200439453125,-1.050048828125,-0.5942230224609375,0.827239990234375
1772556584553184500,7.6551845703125,-0.95928955078125,-0.53076171875,0.7734222412109375
1772556584563169500,7.66516943359375,-0.877288818359375,-0.4629364013671875,0.669769287109375
1772556584573153500,7.675153564453125,-0.7803955078125,-0.38836669921875,0.5561370849609375
1772556584583137500,7.685137451171875,-0.6855010986328125,-0.33416748046875,0.4774932861328125
1772556584593121500,7.69512158203125,-0.626678466796875,-0.31890869140625,0.4262847900390625
1772556584603105500,7.70510546875,-0.605010986328125,-0.3298797607421875,0.40362548828125
1772556584613090600,7.715090576171875,-0.5975494384765625,-0.3576507568359375,0.4080810546875
1772556584623074600,7.725074462890625,-0.57196044921875,-0.396942138671875,0.4424896240234375
1772556584633058600,7.73505859375,-0.5481414794921875,-0.436065673828125,0.494140625
1772556584643042600,7.74504248046875,-0.53948974609375,-0.46923828125,0.5431365966796875
1772556584653026600,7.755026611328125,-0.539031982421875,-0.499542236328125,0.5914764404296875
1772556584663011600,7.765011474609375,-0.5502777099609375,-0.5204010009765625,0.6077728271484375
1772556584672995600,7.77499560546875,-0.582427978515625,-0.5361328125,0.6026763916015625
1772556584682979600,7.7849794921875,-0.6147308349609375,-0.5583953857421875,0.592376708984375
1772556584692963600,7.794963623046875,-0.63531494140625,-0.5654754638671875,0.5821075439453125
1772556584702947300,7.804947265625,-0.631561279296875,-0.5550384521484375,0.55615234375
1772556584712932600,7.8149326171875,-0.63067626953125,-0.5448455810546875,0.52288818359375
1772556584722916600,7.82491650390625,-0.6365509033203125,-0.517181396484375,0.476165771484375
1772556584732900400,7.834900390625,-0.6266326904296875,-0.4853057861328125,0.432403564453125
1772556584742884400,7.84488427734375,-0.610504150390625,-0.4655303955078125,0.38909912109375
1772556584752869600,7.85486962890625,-0.600311279296875,-0.4364013671875,0.362548828125
1772556584762853400,7.864853271484375,-0.597412109375,-0.41436767578125,0.3516693115234375
1772556584772837400,7.87483740234375,-0.5918426513671875,-0.4102935791015625,0.351898193359375
1772556584782821400,7.8848212890625,-0.5875244140625,-0.4038543701171875,0.365234375
1772556584792805400,7.894805419921875,-0.591278076171875,-0.399566650390625,0.389892578125
1772556584802790400,7.904790283203125,-0.600921630859375,-0.409576416015625,0.4148406982421875
1772556584812774400,7.9147744140625,-0.6029510498046875,-0.4261932373046875,0.4255218505859375
1772556584822758400,7.92475830078125,-0.6044769287109375,-0.439788818359375,0.4302825927734375
1772556584832742400,7.934742431640625,-0.6073150634765625,-0.4498748779296875,0.435028076171875
1772556584842726400,7.944726318359375,-0.6136627197265625,-0.4615478515625,0.441650390625
1772556584852711400,7.95471142578125,-0.6249237060546875,-0.4755096435546875,0.4506683349609375
1772556584862695400,7.9646953125,-0.6345367431640625,-0.4873809814453125,0.4611053466796875
1772556584872679400,7.974679443359375,-0.626251220703125,-0.48223876953125,0.4626312255859375
1772556584882663400,7.984663330078125,-0.605438232421875,-0.470489501953125,0.4532928466796875
1772556584892648400,7.9946484375,-0.598175048828125,-0.469635009765625,0.4502716064453125
1772556584902630700,8.004630615234374,-0.599700927734375,-0.457855224609375,0.4512786865234375
1772556584912614700,8.01461474609375,-0.5864715576171875,-0.4438934326171875,0.436553955078125
1772556584922598700,8.0245986328125,-0.6006317138671875,-0.443115234375,0.4168548583984375
1772556584932582400,8.03458251953125,-0.6244354248046875,-0.45025634765625,0.4153594970703125
1772556584942566400,8.04456640625,-0.6627349853515625,-0.454925537109375,0.4146575927734375
1772556584952551700,8.0545517578125,-0.70025634765625,-0.467559814453125,0.4232635498046875
1772556584962535400,8.064535400390625,-0.732452392578125,-0.4844207763671875,0.4432830810546875
1772556584972519400,8.07451953125,-0.74908447265625,-0.508453369140625,0.47015380859375
1772556584982503400,8.08450341796875,-0.7633819580078125,-0.534027099609375,0.493438720703125
1772556584992488400,8.094488525390625,-0.780029296875,-0.5544891357421875,0.5046844482421875
1772556585002472400,8.104472412109375,-0.7893218994140625,-0.5663299560546875,0.5112762451171875
1772556585012456400,8.11445654296875,-0.7996826171875,-0.579559326171875,0.5074462890625
1772556585022440400,8.1244404296875,-0.8123321533203125,-0.5873260498046875,0.50262451171875
1772556585032424400,8.134424560546876,-0.826446533203125,-0.5905914306640625,0.5084075927734375
1772556585042409500,8.144409423828124,-0.8305511474609375,-0.599853515625,0.5132293701171875
1772556585052393500,8.1543935546875,-0.8162689208984375,-0.63397216796875,0.5140380859375
1772556585062377500,8.16437744140625,-0.8459014892578125,-0.637359619140625,0.5374298095703125
1772556585072361500,8.174361572265624,-0.8577117919921875,-0.6036834716796875,0.584930419921875
1772556585082345500,8.184345458984374,-0.8451385498046875,-0.6139984130859375,0.5848236083984375
1772556585092330500,8.19433056640625,-0.8676605224609375,-0.6263275146484375,0.57318115234375
1772556585102314500,8.204314453125,-0.9488677978515625,-0.573272705078125,0.60467529296875
1772556585112298500,8.214298583984375,-0.9903411865234375,-0.5282440185546875,0.634246826171875
1772556585122282500,8.224282470703125,-1.005462646484375,-0.515594482421875,0.6066131591796875
1772556585132266500,8.2342666015625,-1.014434814453125,-0.4929656982421875,0.5453948974609375
1772556585142251500,8.24425146484375,-0.9855499267578125,-0.464385986328125,0.46612548828125
1772556585152235500,8.254235595703125,-0.96234130859375,-0.424957275390625,0.3819732666015625
1772556585162219500,8.264219482421876,-0.9452972412109375,-0.3870849609375,0.32513427734375
1772556585172203500,8.27420361328125,-0.913299560546875,-0.35821533203125,0.299285888671875
1772556585182187500,8.2841875,-0.882049560546875,-0.340301513671875,0.29632568359375
1772556585192172500,8.294172607421874,-0.849273681640625,-0.3409576416015625,0.3134613037109375
1772556585202156500,8.304156494140624,-0.825958251953125,-0.362823486328125,0.347686767578125
1772556585212140500,8.314140625,-0.8208160400390625,-0.39617919921875,0.3888397216796875
1772556585222124500,8.32412451171875,-0.7957916259765625,-0.4296112060546875,0.4291839599609375
1772556585232109600,8.334109619140625,-0.771942138671875,-0.4630889892578125,0.4531707763671875
1772556585242093600,8.344093505859375,-0.7632904052734375,-0.4929656982421875,0.46319580078125
1772556585252077600,8.35407763671875,-0.7595062255859375,-0.5170440673828125,0.473388671875
1772556585262061600,8.3640615234375,-0.7546844482421875,-0.5435638427734375,0.48687744140625
1772556585272045600,8.374045654296875,-0.7484283447265625,-0.5644989013671875,0.491455078125
1772556585282030600,8.384030517578125,-0.745391845703125,-0.573974609375,0.482757568359375
1772556585292014600,8.3940146484375,-0.7423248291015625,-0.5704345703125,0.46868896484375
1772556585301998300,8.403998291015625,-0.732452392578125,-0.5622100830078125,0.442413330078125
1772556585311982300,8.413982421875,-0.7304229736328125,-0.54632568359375,0.4144134521484375
1772556585321970000,8.423969970703125,-0.7328643798828125,-0.5211944580078125,0.3927459716796875
1772556585331955000,8.433954833984375,-0.722930908203125,-0.499908447265625,0.3724212646484375
1772556585341939000,8.44393896484375,-0.7219696044921875,-0.482818603515625,0.35028076171875
1772556585351923000,8.4539228515625,-0.727020263671875,-0.4637908935546875,0.33807373046875
1772556585361907000,8.463906982421875,-0.7284088134765625,-0.452056884765625,0.3248443603515625
1772556585371891000,8.473890869140625,-0.7161102294921875,-0.44378662109375,0.310638427734375
1772556585381876000,8.4838759765625,-0.699798583984375,-0.4360504150390625,0.30059814453125
1772556585391860000,8.49385986328125,-0.6792755126953125,-0.434814453125,0.293853759765625
1772556585401844000,8.503843994140626,-0.654388427734375,-0.435302734375,0.2948150634765625
1772556585411828000,8.513827880859376,-0.6372222900390625,-0.4365386962890625,0.30938720703125
1772556585421812000,8.52381201171875,-0.6270294189453125,-0.45068359375,0.322662353515625
1772556585431797000,8.533796875,-0.619873046875,-0.471160888671875,0.3344573974609375
1772556585441781000,8.543781005859374,-0.6090087890625,-0.4897003173828125,0.352142333984375
1772556585451765000,8.553764892578124,-0.597259521484375,-0.4992828369140625,0.366455078125
1772556585461749000,8.5637490234375,-0.5913848876953125,-0.50372314453125,0.3703460693359375
1772556585471733000,8.57373291015625,-0.5807647705078125,-0.506805419921875,0.373016357421875
1772556585481718000,8.583718017578125,-0.566864013671875,-0.5068206787109375,0.3716888427734375
1772556585491702000,8.593701904296875,-0.5589141845703125,-0.5140228271484375,0.364471435546875
1772556585501686000,8.60368603515625,-0.5665130615234375,-0.530853271484375,0.3679046630859375
1772556585511670000,8.613669921875,-0.5781707763671875,-0.546783447265625,0.3796234130859375
1772556585521654000,8.623654052734375,-0.5992279052734375,-0.5571441650390625,0.3995361328125
1772556585531639000,8.63363916015625,-0.6337127685546875,-0.5721435546875,0.42327880859375
1772556585541622800,8.643622802734376,-0.67742919921875,-0.5826873779296875,0.4516754150390625
1772556585551606800,8.653606689453126,-0.7299041748046875,-0.5836944580078125,0.484100341796875
1772556585561590800,8.6635908203125,-0.78277587890625,-0.582672119140625,0.5002593994140625
1772556585571575000,8.673574951171876,-0.824737548828125,-0.568634033203125,0.508209228515625
1772556585581559800,8.683559814453124,-0.8627777099609375,-0.5457763671875,0.503143310546875
1772556585591543800,8.693543701171874,-0.87255859375,-0.5258941650390625,0.473541259765625
1772556585601527800,8.70352783203125,-0.8568267822265625,-0.523712158203125,0.43157958984375
1772556585611512000,8.713511962890625,-0.825897216796875,-0.52960205078125,0.3852081298828125
1772556585621496000,8.72349609375,-0.7687530517578125,-0.5624237060546875,0.3443450927734375
1772556585631480800,8.733480712890625,-0.7384796142578125,-0.5900726318359375,0.33172607421875
1772556585641464800,8.74346484375,-0.7508544921875,-0.6102294921875,0.3705596923828125
1772556585651449000,8.753448974609375,-0.746124267578125,-0.689544677734375,0.42291259765625
1772556585661433000,8.76343310546875,-0.7617034912109375,-0.7725067138671875,0.48431396484375
1772556585671417000,8.7734169921875,-0.866485595703125,-0.782745361328125,0.5908203125
1772556585681401900,8.78340185546875,-0.973602294921875,-0.7656707763671875,0.705810546875
1772556585691386000,8.79338623046875,-0.995513916015625,-0.7803192138671875,0.7748260498046875
1772556585701370000,8.8033701171875,-0.9694671630859375,-0.76885986328125,0.7801666259765625
1772556585711354000,8.81335400390625,-0.925689697265625,-0.7151947021484375,0.7334747314453125
1772556585721338000,8.823338134765624,-0.8706512451171875,-0.64288330078125,0.6606292724609375
1772556585731323000,8.833322998046874,-0.8184051513671875,-0.5645751953125,0.55572509765625
1772556585741307100,8.84330712890625,-0.7675933837890625,-0.49151611328125,0.46282958984375
1772556585751291100,8.853291015625,-0.7235565185546875,-0.432891845703125,0.4066619873046875
1772556585761275100,8.863275146484375,-0.685882568359375,-0.3970184326171875,0.3698272705078125
1772556585771259100,8.873259033203125,-0.6551361083984375,-0.3771514892578125,0.3554229736328125
1772556585781244200,8.883244140625,-0.6407470703125,-0.378509521484375,0.3734893798828125
1772556585791228200,8.893228271484375,-0.64898681640625,-0.394775390625,0.419586181640625
1772556585801212200,8.903212158203125,-0.657440185546875,-0.403564453125,0.4738006591796875
1772556585811196200,8.913196044921875,-0.6532135009765625,-0.416900634765625,0.52215576171875
1772556585821180200,8.92318017578125,-0.6697845458984375,-0.4445037841796875,0.5502777099609375
1772556585831165200,8.933165283203126,-0.67608642578125,-0.4549407958984375,0.5632781982421875
1772556585841149200,8.943149169921876,-0.667510986328125,-0.4649810791015625,0.5417327880859375
1772556585851133200,8.95313330078125,-0.65338134765625,-0.46978759765625,0.507110595703125
1772556585861117000,8.963116943359376,-0.64154052734375,-0.4680023193359375,0.4770660400390625
1772556585871101000,8.973100830078126,-0.6280517578125,-0.4662933349609375,0.4430389404296875
1772556585881086200,8.983086181640624,-0.6188812255859375,-0.4599761962890625,0.4178924560546875
1772556585891070000,8.993070068359375,-0.6148223876953125,-0.453033447265625,0.4087066650390625
1772556585901054000,9.003053955078125,-0.6138458251953125,-0.450714111328125,0.4088592529296875
1772556585911038000,9.013037841796875,-0.6051483154296875,-0.450347900390625,0.41680908203125
1772556585921022000,9.02302197265625,-0.5996551513671875,-0.4559326171875,0.4290618896484375
1772556585931007000,9.033007080078125,-0.59918212890625,-0.46588134765625,0.443756103515625
1772556585940991000,9.042990966796875,-0.6025848388671875,-0.4718017578125,0.4510955810546875
1772556585950975000,9.05297509765625,-0.6033782958984375,-0.475128173828125,0.4482269287109375
1772556585960959000,9.062958984375,-0.6078643798828125,-0.48199462890625,0.435882568359375
1772556585970944000,9.072944091796876,-0.60687255859375,-0.4873199462890625,0.4240264892578125
1772556585980928000,9.082927978515626,-0.5939788818359375,-0.4911956787109375,0.4087066650390625
1772556585990912000,9.092912109375,-0.5911865234375,-0.489532470703125,0.3950653076171875
1772556586000896000,9.10289599609375,-0.591552734375,-0.4895782470703125,0.3828887939453125
1772556586010880000,9.1128798828125,-0.5850830078125,-0.493927001953125,0.37274169921875
1772556586020864000,9.122864013671874,-0.58941650390625,-0.4937896728515625,0.3741607666015625
1772556586030849000,9.13284912109375,-0.5858001708984375,-0.4997711181640625,0.382659912109375
1772556586040833000,9.1428330078125,-0.5864410400390625,-0.508758544921875,0.3899688720703125
1772556586050817000,9.152817138671875,-0.59942626953125,-0.5140380859375,0.4012298583984375
1772556586060801000,9.162801025390625,-0.611419677734375,-0.526947021484375,0.410491943359375
1772556586070785000,9.172784912109375,-0.6247100830078125,-0.5383758544921875,0.420745849609375
1772556586080770000,9.18277001953125,-0.6316375732421875,-0.5391998291015625,0.4287261962890625
1772556586090754000,9.192754150390625,-0.6387481689453125,-0.534698486328125,0.4242095947265625
1772556586100738000,9.202738037109375,-0.655914306640625,-0.536163330078125,0.4128875732421875
1772556586110722000,9.21272216796875,-0.6701202392578125,-0.5424957275390625,0.4098358154296875
1772556586120706000,9.2227060546875,-0.669158935546875,-0.5549774169921875,0.4112091064453125
1772556586130691000,9.232691162109376,-0.6722564697265625,-0.5665435791015625,0.418670654296875
1772556586140675000,9.242675048828126,-0.6918792724609375,-0.571380615234375,0.437164306640625
1772556586150659000,9.2526591796875,-0.713531494140625,-0.574462890625,0.455780029296875
1772556586160643000,9.26264306640625,-0.72210693359375,-0.5823974609375,0.4698638916015625
1772556586170626800,9.272626708984374,-0.7079620361328125,-0.624420166015625,0.4822540283203125
1772556586180612000,9.282612060546874,-0.7115020751953125,-0.6861419677734375,0.512359619140625
1772556586190596000,9.29259619140625,-0.7794952392578125,-0.6991424560546875,0.5701904296875
1772556586200579800,9.302579833984375,-0.852447509765625,-0.6915740966796875,0.6212615966796875
1772556586210563800,9.312563720703125,-0.8751373291015625,-0.694183349609375,0.64794921875
1772556586220547800,9.3225478515625,-0.9729766845703125,-0.666046142578125,0.6600799560546875
1772556586230532900,9.332532958984375,-1.104278564453125,-0.6088409423828125,0.6665191650390625
1772556586240516900,9.342516845703125,-1.1304168701171875,-0.5487823486328125,0.6215667724609375
1772556586250500900,9.3525009765625,-1.1207275390625,-0.4860687255859375,0.532867431640625
1772556586260484900,9.36248486328125,-1.1162261962890625,-0.419891357421875,0.4286346435546875
1772556586270468900,9.37246875,-1.0821990966796875,-0.377716064453125,0.3296051025390625
1772556586280454000,9.382453857421876,-1.0376129150390625,-0.332550048828125,0.2536773681640625
1772556586290438000,9.39243798828125,-1.0412139892578125,-0.2795257568359375,0.1968994140625
1772556586300422000,9.402421875,-1.0074920654296875,-0.2723541259765625,0.1680908203125
1772556586310406000,9.412406005859374,-0.9304351806640625,-0.276275634765625,0.183349609375
1772556586320387300,9.42238720703125,-0.8964080810546875,-0.287353515625,0.2353057861328125
1772556586330372400,9.432372314453126,-0.90350341796875,-0.3174896240234375,0.2882537841796875
1772556586340356400,9.4423564453125,-0.91876220703125,-0.3630218505859375,0.33355712890625
1772556586350340400,9.45234033203125,-0.9120635986328125,-0.405181884765625,0.3746185302734375
1772556586360324400,9.462324462890624,-0.8908843994140625,-0.4451904296875,0.3917388916015625
1772556586370308400,9.472308349609374,-0.86322021484375,-0.4839935302734375,0.396026611328125
1772556586380293400,9.48229345703125,-0.8411712646484375,-0.521270751953125,0.3923187255859375
1772556586390277400,9.49227734375,-0.8224945068359375,-0.557647705078125,0.3877105712890625
1772556586400261400,9.502261474609375,-0.808441162109375,-0.59075927734375,0.39202880859375
1772556586410245400,9.512245361328125,-0.8082275390625,-0.6006622314453125,0.4093780517578125
1772556586420229400,9.5222294921875,-0.8142547607421875,-0.5960693359375,0.428070068359375
1772556586430213400,9.53221337890625,-0.8055267333984375,-0.58062744140625,0.4415130615234375
1772556586440198400,9.542198486328125,-0.77386474609375,-0.559600830078125,0.43072509765625
1772556586450182400,9.552182373046875,-0.749847412109375,-0.5353851318359375,0.4090576171875
1772556586460166400,9.56216650390625,-0.7414093017578125,-0.50518798828125,0.3919830322265625
1772556586470150400,9.572150390625,-0.72998046875,-0.4766387939453125,0.36236572265625
1772556586480134400,9.582134521484376,-0.710479736328125,-0.4520111083984375,0.3285980224609375
1772556586490119400,9.592119384765626,-0.6943817138671875,-0.4317474365234375,0.3020477294921875
1772556586500103400,9.602103515625,-0.6927947998046875,-0.4199981689453125,0.27862548828125
1772556586510087400,9.61208740234375,-0.6987762451171875,-0.4204559326171875,0.26336669921875
1772556586520071400,9.622071533203124,-0.7017822265625,-0.4186553955078125,0.2610931396484375
1772556586530055400,9.632055419921874,-0.698883056640625,-0.41693115234375,0.2773895263671875
1772556586540040400,9.64204052734375,-0.6876983642578125,-0.4266357421875,0.303466796875
1772556586550024400,9.6520244140625,-0.6755828857421875,-0.4338226318359375,0.3263702392578125
1772556586560008400,9.662008544921875,-0.66119384765625,-0.4363250732421875,0.34503173828125
1772556586569992200,9.6719921875,-0.649169921875,-0.43731689453125,0.3596038818359375
1772556586579976400,9.6819765625,-0.636993408203125,-0.432342529296875,0.3682708740234375
1772556586589961500,9.69196142578125,-0.618072509765625,-0.4340362548828125,0.3647918701171875
1772556586599945200,9.7019453125,-0.5975799560546875,-0.4412078857421875,0.3578033447265625
1772556586609929200,9.71192919921875,-0.590118408203125,-0.4474945068359375,0.35736083984375
1772556586619913200,9.721913330078126,-0.5892333984375,-0.458587646484375,0.3603668212890625
1772556586629897500,9.7318974609375,-0.607086181640625,-0.472808837890625,0.369903564453125
1772556586639882200,9.74188232421875,-0.6284027099609375,-0.4866180419921875,0.3856201171875
1772556586649866200,9.7518662109375,-0.6522064208984375,-0.4933013916015625,0.402069091796875
1772556586659850200,9.761850341796874,-0.679046630859375,-0.4938507080078125,0.413604736328125
1772556586669834500,9.77183447265625,-0.7088165283203125,-0.4979400634765625,0.417388916015625
1772556586679818500,9.781818603515624,-0.7444305419921875,-0.497222900390625,0.4128875732421875
1772556586689802500,9.791802490234375,-0.7871246337890625,-0.4962310791015625,0.4133453369140625
1772556586699787300,9.801787353515625,-0.8383026123046875,-0.4918670654296875,0.4245147705078125
1772556586709771500,9.811771484375,-0.8779449462890625,-0.48358154296875,0.432403564453125
1772556586719755500,9.821755615234375,-0.905517578125,-0.47918701171875,0.4330596923828125
1772556586729739500,9.831739501953125,-0.933837890625,-0.475311279296875,0.42510986328125
1772556586739723500,9.8417236328125,-0.9431304931640625,-0.477630615234375,0.4017791748046875
1772556586749708300,9.851708251953125,-0.9303741455078125,-0.482177734375,0.3770904541015625
1772556586759692500,9.861692626953126,-0.89581298828125,-0.5089111328125,0.3563079833984375
1772556586769676500,9.871676513671876,-0.85076904296875,-0.5683746337890625,0.3361663818359375
1772556586779660500,9.88166064453125,-0.8743743896484375,-0.617279052734375,0.359100341796875
1772556586789644500,9.89164453125,-0.93670654296875,-0.6640625,0.4334716796875
1772556586799629600,9.901629638671874,-0.937164306640625,-0.7375335693359375,0.5062103271484375
1772556586809613600,9.911613525390624,-0.959808349609375,-0.792724609375,0.5644683837890625
1772556586819597600,9.92159765625,-1.047393798828125,-0.7841644287109375,0.6357574462890625
1772556586829581600,9.93158154296875,-1.10284423828125,-0.7582550048828125,0.7020111083984375
1772556586839565600,9.941565673828125,-1.096710205078125,-0.72210693359375,0.7203369140625
1772556586849550600,9.951550537109375,-1.0673828125,-0.666290283203125,0.69000244140625
1772556586859534600,9.96153466796875,-1.0196380615234375,-0.5810394287109375,0.6133575439453125
1772556586869518600,9.9715185546875,-0.941436767578125,-0.4940948486328125,0.5051727294921875
1772556586879502300,9.98150244140625,-0.86541748046875,-0.419677734375,0.4110565185546875
1772556586889486300,9.991486328125,-0.8107147216796875,-0.354583740234375,0.3394775390625
1772556586899471600,10.0014716796875,-0.7652740478515625,-0.311309814453125,0.2880706787109375
1772556586909455400,10.011455322265626,-0.729644775390625,-0.2915191650390625,0.2680511474609375
1772556586919439400,10.021439453125,-0.70440673828125,-0.298736572265625,0.2823944091796875
1772556586929423400,10.03142333984375,-0.6951751708984375,-0.3257598876953125,0.3287811279296875
1772556586939407400,10.041407470703126,-0.6950531005859375,-0.3561859130859375,0.3848876953125
1772556586949391400,10.051391357421876,-0.7017364501953125,-0.38555908203125,0.4391021728515625
1772556586959376400,10.06137646484375,-0.7073974609375,-0.4073028564453125,0.4791717529296875
1772556586969360400,10.0713603515625,-0.6974334716796875,-0.4215240478515625,0.4992828369140625
1772556586979344400,10.081344482421875,-0.6809844970703125,-0.42864990234375,0.4955596923828125
1772556586989328400,10.091328369140625,-0.667327880859375,-0.43902587890625,0.472686767578125
1772556586999312400,10.1013125,-0.646087646484375,-0.4537506103515625,0.4469451904296875
1772556587009297400,10.11129736328125,-0.624755859375,-0.4581451416015625,0.4242095947265625
1772556587019281400,10.121281494140625,-0.6065521240234375,-0.44647216796875,0.4077301025390625
1772556587029265400,10.131265380859375,-0.603759765625,-0.4345703125,0.395843505859375
1772556587039249400,10.14124951171875,-0.6029052734375,-0.4290771484375,0.3812103271484375
1772556587049233400,10.1512333984375,-0.5989532470703125,-0.4221954345703125,0.372222900390625
1772556587059218400,10.161218505859376,-0.5964202880859375,-0.4152984619140625,0.3755035400390625
1772556587069202400,10.171202392578126,-0.59503173828125,-0.4171905517578125,0.3916015625
1772556587079186400,10.1811865234375,-0.592926025390625,-0.4300079345703125,0.4111328125
1772556587089170400,10.19117041015625,-0.59393310546875,-0.4392242431640625,0.429168701171875
1772556587099154400,10.201154541015624,-0.5949249267578125,-0.4489898681640625,0.454010009765625
1772556587109138400,10.211138427734374,-0.5978546142578125,-0.4589385986328125,0.4740142822265625
1772556587119123500,10.22112353515625,-0.609832763671875,-0.4749603271484375,0.4933929443359375
1772556587129107500,10.231107421875,-0.6213226318359375,-0.49188232421875,0.5078582763671875
1772556587139091500,10.241091552734375,-0.636322021484375,-0.507568359375,0.50762939453125
1772556587149075500,10.251075439453125,-0.656097412109375,-0.5162353515625,0.49761962890625
1772556587159059500,10.2610595703125,-0.6666107177734375,-0.5202484130859375,0.4830169677734375
1772556587169044500,10.27104443359375,-0.6736602783203125,-0.5216217041015625,0.4649810791015625
1772556587179028500,10.281028564453125,-0.6854248046875,-0.512939453125,0.4456634521484375
1772556587189012500,10.291012451171875,-0.6902923583984375,-0.504150390625,0.4309539794921875
1772556587198996200,10.300996337890625,-0.68798828125,-0.4959869384765625,0.4162445068359375
1772556587208980200,10.310980224609375,-0.6852569580078125,-0.48748779296875,0.406768798828125
1772556587218965500,10.320965576171876,-0.6828155517578125,-0.4816741943359375,0.4014739990234375
1772556587228949200,10.33094921875,-0.6880035400390625,-0.480865478515625,0.4038238525390625
1772556587238933200,10.340933349609376,-0.7105865478515625,-0.4863433837890625,0.4166259765625
1772556587248917200,10.350917236328126,-0.736907958984375,-0.502899169921875,0.435028076171875
1772556587258901200,10.3609013671875,-0.7546539306640625,-0.517730712890625,0.4486541748046875
1772556587268885200,10.37088525390625,-0.7572479248046875,-0.5318603515625,0.4477996826171875
1772556587278870300,10.380870361328125,-0.748138427734375,-0.5438232421875,0.4380645751953125
1772556587288854300,10.390854248046875,-0.744720458984375,-0.544342041015625,0.4332427978515625
1772556587298838300,10.40083837890625,-0.751922607421875,-0.546722412109375,0.4377899169921875
1772556587308822300,10.410822265625,-0.752899169921875,-0.5519561767578125,0.4474029541015625
1772556587318805500,10.420805419921875,-0.7474517822265625,-0.550323486328125,0.458953857421875
1772556587328790500,10.43079052734375,-0.750274658203125,-0.54620361328125,0.4688262939453125
1772556587338774500,10.4407744140625,-0.7511138916015625,-0.5447235107421875,0.47210693359375
1772556587348758500,10.450758544921875,-0.72760009765625,-0.55987548828125,0.4748077392578125
1772556587358742500,10.460742431640625,-0.700347900390625,-0.60369873046875,0.49090576171875
1772556587368726500,10.4707265625,-0.7374420166015625,-0.624969482421875,0.545806884765625
1772556587378711600,10.480711669921876,-0.7870025634765625,-0.62799072265625,0.606689453125
1772556587388695600,10.490695556640626,-0.8246917724609375,-0.630828857421875,0.6375732421875
1772556587398679600,10.500679443359376,-0.9114227294921875,-0.6075897216796875,0.66290283203125
1772556587408663600,10.51066357421875,-1.031005859375,-0.5686798095703125,0.6947784423828125
1772556587418647600,10.5206474609375,-1.0782012939453125,-0.55291748046875,0.6924285888671875
1772556587428631600,10.530631591796874,-1.049652099609375,-0.51617431640625,0.6053314208984375
1772556587438616600,10.540616455078125,-1.0095367431640625,-0.461273193359375,0.49725341796875
1772556587448600600,10.5506005859375,-0.9824676513671875,-0.41070556640625,0.4046173095703125
1772556587458584600,10.56058447265625,-0.954193115234375,-0.3632659912109375,0.335906982421875
1772556587468568600,10.570568603515625,-0.9174652099609375,-0.3284759521484375,0.2984619140625
1772556587478552600,10.580552490234375,-0.8934478759765625,-0.3010406494140625,0.286285400390625
1772556587488537600,10.59053759765625,-0.8849639892578125,-0.2926788330078125,0.295196533203125
1772556587498521600,10.600521484375,-0.8831329345703125,-0.3064727783203125,0.3289794921875
1772556587508505600,10.610505615234375,-0.881256103515625,-0.3260955810546875,0.370574951171875
1772556587518489600,10.620489501953125,-0.8636932373046875,-0.3516082763671875,0.4001007080078125
1772556587528473300,10.630473388671875,-0.8341522216796875,-0.3825531005859375,0.418365478515625
1772556587538458600,10.640458740234376,-0.8101959228515625,-0.4057769775390625,0.4186553955078125
1772556587548442600,10.650442626953126,-0.7910919189453125,-0.42999267578125,0.4123992919921875
1772556587558426400,10.66042626953125,-0.77935791015625,-0.452178955078125,0.4053955078125
1772556587568410400,10.670410400390624,-0.7686614990234375,-0.4780120849609375,0.3992919921875
1772556587578394400,10.680394287109374,-0.7574920654296875,-0.508026123046875,0.4014434814453125
1772556587588378400,10.69037841796875,-0.7565765380859375,-0.528289794921875,0.4119720458984375
1772556587598363400,10.70036328125,-0.760986328125,-0.535003662109375,0.4260101318359375
1772556587608347400,10.710347412109375,-0.757720947265625,-0.5347900390625,0.4311981201171875
1772556587618331400,10.720331298828125,-0.746917724609375,-0.526702880859375,0.4192352294921875
1772556587628315400,10.7303154296875,-0.735198974609375,-0.51220703125,0.3994140625
1772556587638299400,10.74029931640625,-0.722198486328125,-0.496612548828125,0.3788604736328125
1772556587648284400,10.750284423828125,-0.7085418701171875,-0.474456787109375,0.3563690185546875
1772556587658268400,10.760268310546875,-0.6933135986328125,-0.4552154541015625,0.3365325927734375
1772556587668252400,10.77025244140625,-0.6818084716796875,-0.4479522705078125,0.317626953125
1772556587678236400,10.780236328125,-0.6739959716796875,-0.446441650390625,0.3020172119140625
1772556587688220400,10.790220458984376,-0.67608642578125,-0.445068359375,0.2897186279296875
1772556587698204400,10.800204345703126,-0.68414306640625,-0.4422760009765625,0.2853240966796875
1772556587708189400,10.810189453125,-0.688018798828125,-0.4473114013671875,0.3005523681640625
1772556587718173400,10.82017333984375,-0.696746826171875,-0.4530487060546875,0.3226470947265625
1772556587728157400,10.830157470703124,-0.7021331787109375,-0.460113525390625,0.3360443115234375
1772556587738141400,10.840141357421874,-0.6843109130859375,-0.4698944091796875,0.348602294921875
1772556587748125400,10.85012548828125,-0.667510986328125,-0.4771881103515625,0.3630218505859375
1772556587758110500,10.8601103515625,-0.660491943359375,-0.47882080078125,0.366485595703125
1772556587768094500,10.870094482421875,-0.64727783203125,-0.4788055419921875,0.3686065673828125
1772556587778078500,10.880078369140625,-0.6268768310546875,-0.4800872802734375,0.3721771240234375
1772556587788062500,10.8900625,-0.614013671875,-0.48614501953125,0.368377685546875
1772556587798046500,10.90004638671875,-0.6083526611328125,-0.4923095703125,0.363983154296875
1772556587808030700,10.91003076171875,-0.598602294921875,-0.4931488037109375,0.3673858642578125
1772556587818015500,10.920015380859375,-0.5904083251953125,-0.498565673828125,0.3713531494140625
1772556587827999500,10.92999951171875,-0.5997772216796875,-0.5110626220703125,0.3712921142578125
1772556587837983500,10.9399833984375,-0.61688232421875,-0.5213623046875,0.3763580322265625
1772556587847967500,10.949967529296876,-0.63580322265625,-0.5275726318359375,0.3930816650390625
1772556587857951500,10.959951416015626,-0.6657867431640625,-0.533233642578125,0.412109375
1772556587867936500,10.9699365234375,-0.705322265625,-0.5391387939453125,0.43133544921875
1772556587877920500,10.97992041015625,-0.74810791015625,-0.5325927734375,0.4450836181640625
1772556587887904500,10.989904541015624,-0.7905426025390625,-0.521087646484375,0.4496307373046875
1772556587897888500,10.999888427734374,-0.83709716796875,-0.5143890380859375,0.45465087890625
1772556587907872500,11.00987255859375,-0.8737640380859375,-0.506256103515625,0.4522247314453125
1772556587917856500,11.0198564453125,-0.8944244384765625,-0.4941558837890625,0.439483642578125
1772556587927841500,11.029841552734375,-0.9057769775390625,-0.4920654296875,0.421173095703125
1772556587937825500,11.039825439453125,-0.9012298583984375,-0.499664306640625,0.4021453857421875
1772556587947809500,11.0498095703125,-0.8855133056640625,-0.4984130859375,0.3749847412109375
1772556587957793500,11.05979345703125,-0.854095458984375,-0.487945556640625,0.3433074951171875
1772556587967777500,11.069777587890625,-0.788360595703125,-0.51190185546875,0.3106231689453125
1772556587977762600,11.079762451171876,-0.7368316650390625,-0.5677642822265625,0.28619384765625
1772556587987746600,11.08974658203125,-0.7849273681640625,-0.6186981201171875,0.33831787109375
1772556587997730600,11.09973046875,-0.8603973388671875,-0.6878204345703125,0.4477386474609375
1772556588007714600,11.109714599609376,-0.897705078125,-0.75579833984375,0.55120849609375
1772556588017698600,11.119698486328126,-0.9432220458984375,-0.7952423095703125,0.6306610107421875
1772556588027682600,11.1296826171875,-1.0346221923828125,-0.8033599853515625,0.69677734375
1772556588037667600,11.13966748046875,-1.1046600341796875,-0.7901611328125,0.742218017578125
1772556588047651600,11.149651611328125,-1.1050262451171875,-0.752716064453125,0.7344970703125
1772556588057635600,11.159635498046875,-1.0874786376953125,-0.6782073974609375,0.6859588623046875
1772556588067619600,11.16961962890625,-1.0410003662109375,-0.57720947265625,0.5852508544921875
1772556588077603600,11.179603515625,-0.95721435546875,-0.483001708984375,0.4692230224609375
1772556588087588600,11.189588623046875,-0.869140625,-0.3932037353515625,0.370849609375
1772556588097572600,11.199572509765625,-0.798248291015625,-0.31951904296875,0.2874755859375
1772556588107556600,11.209556640625,-0.7317962646484375,-0.2712860107421875,0.22259521484375
1772556588117540600,11.21954052734375,-0.683807373046875,-0.2492218017578125,0.193634033203125
1772556588127524600,11.229524658203125,-0.66204833984375,-0.254669189453125,0.211639404296875
1772556588137508400,11.23950830078125,-0.666473388671875,-0.289306640625,0.2836761474609375
1772556588147493600,11.24949365234375,-0.68536376953125,-0.33758544921875,0.3717498779296875
1772556588157477400,11.259477294921876,-0.7000885009765625,-0.380096435546875,0.4636993408203125
1772556588167461400,11.26946142578125,-0.70782470703125,-0.4132537841796875,0.52972412109375
1772556588177445400,11.2794453125,-0.703887939453125,-0.4428863525390625,0.5489959716796875
1772556588187429400,11.289429443359374,-0.6840667724609375,-0.4615325927734375,0.54205322265625
1772556588197414400,11.299414306640625,-0.658294677734375,-0.4746246337890625,0.5258026123046875
1772556588207398400,11.3093984375,-0.641815185546875,-0.486328125,0.50860595703125
1772556588217382400,11.31938232421875,-0.6347808837890625,-0.489898681640625,0.490631103515625
1772556588227366400,11.329366455078125,-0.625396728515625,-0.486175537109375,0.46270751953125
1772556588237350400,11.339350341796875,-0.6131134033203125,-0.4828948974609375,0.4392547607421875
1772556588247334400,11.34933447265625,-0.6144866943359375,-0.48443603515625,0.427093505859375
1772556588257319400,11.3593193359375,-0.6263427734375,-0.4906463623046875,0.4258575439453125
1772556588267303400,11.369303466796875,-0.636322021484375,-0.487396240234375,0.4330291748046875
1772556588277287400,11.379287353515625,-0.647247314453125,-0.4774932861328125,0.4434814453125
1772556588287271400,11.389271484375,-0.653228759765625,-0.469573974609375,0.4589080810546875
1772556588297255400,11.39925537109375,-0.6532745361328125,-0.4633941650390625,0.4730072021484375
1772556588307240400,11.409240478515626,-0.6511077880859375,-0.4624176025390625,0.48297119140625
1772556588317228500,11.419228515625,-0.64862060546875,-0.4583740234375,0.48529052734375
1772556588327212500,11.429212646484375,-0.6483306884765625,-0.4524688720703125,0.4806060791015625
1772556588337196500,11.439196533203125,-0.6527252197265625,-0.4564208984375,0.4693145751953125
1772556588347180500,11.4491806640625,-0.6612548828125,-0.46746826171875,0.4567108154296875
1772556588357164500,11.45916455078125,-0.668975830078125,-0.479705810546875,0.4443817138671875
1772556588367149600,11.469149658203126,-0.6728973388671875,-0.4903106689453125,0.439056396484375
1772556588377133600,11.479133544921876,-0.6821136474609375,-0.4968414306640625,0.4376983642578125
1772556588387117600,11.48911767578125,-0.6795196533203125,-0.4995269775390625,0.4339141845703125
1772556588397101600,11.4991015625,-0.670623779296875,-0.4976348876953125,0.4259185791015625
1772556588407085300,11.509085205078126,-0.662811279296875,-0.4982757568359375,0.4135894775390625
1772556588417070600,11.519070556640624,-0.65802001953125,-0.497314453125,0.4033660888671875
1772556588427054600,11.5290546875,-0.6576080322265625,-0.5023193359375,0.400482177734375
1772556588437038300,11.539038330078125,-0.6636962890625,-0.5182342529296875,0.4105987548828125
1772556588447022300,11.549022216796875,-0.6677093505859375,-0.53155517578125,0.424835205078125
1772556588457006300,11.55900634765625,-0.6698455810546875,-0.5381317138671875,0.43585205078125
1772556588466990600,11.568990478515625,-0.6839447021484375,-0.5452117919921875,0.445159912109375
1772556588476975400,11.578975341796875,-0.6932373046875,-0.5531158447265625,0.4481048583984375
1772556588486959400,11.58895947265625,-0.6932373046875,-0.5599212646484375,0.4494781494140625
1772556588496943400,11.598943359375,-0.7011566162109375,-0.5652618408203125,0.44677734375
1772556588506927600,11.608927734375,-0.7128143310546875,-0.572967529296875,0.4478302001953125
1772556588516911600,11.61891162109375,-0.725799560546875,-0.5782012939453125,0.4521942138671875
1772556588526895600,11.6288955078125,-0.7372589111328125,-0.57489013671875,0.453521728515625
1772556588536880400,11.63888037109375,-0.7405853271484375,-0.5680999755859375,0.4507598876953125
1772556588546864400,11.648864501953126,-0.7433624267578125,-0.5593414306640625,0.44464111328125
1772556588556848600,11.6588486328125,-0.7421722412109375,-0.5514068603515625,0.4376068115234375
1772556588566832600,11.66883251953125,-0.726837158203125,-0.55938720703125,0.4379119873046875
1772556588576816600,11.678816650390624,-0.69488525390625,-0.5905914306640625,0.4482421875
1772556588586801400,11.688801513671875,-0.7082977294921875,-0.619903564453125,0.486297607421875
1772556588596785700,11.69878564453125,-0.7573394775390625,-0.6242523193359375,0.5478057861328125
1772556588606769700,11.708769775390625,-0.7666015625,-0.6276702880859375,0.5852203369140625
1772556588616753700,11.718753662109375,-0.77325439453125,-0.6461181640625,0.5958709716796875
1772556588626737700,11.728737548828125,-0.849639892578125,-0.639129638671875,0.6222381591796875
1772556588636721700,11.7387216796875,-0.9598388671875,-0.591827392578125,0.66094970703125
1772556588646706700,11.748706787109375,-0.9940032958984375,-0.563995361328125,0.6686553955078125
1772556588656690700,11.758690673828125,-0.97796630859375,-0.537445068359375,0.623992919921875
1772556588666674700,11.7686748046875,-0.9694671630859375,-0.4909210205078125,0.5524139404296875
1772556588676658700,11.77865869140625,-0.9637298583984375,-0.4466552734375,0.4735870361328125
1772556588686642700,11.788642578125,-0.9483184814453125,-0.40618896484375,0.400482177734375
1772556588696626400,11.79862646484375,-0.927490234375,-0.3640899658203125,0.3422698974609375
1772556588706611700,11.80861181640625,-0.916351318359375,-0.3292388916015625,0.3018341064453125
1772556588716595700,11.818595703125,-0.9027557373046875,-0.304901123046875,0.2777099609375
1772556588726579500,11.828579345703124,-0.8837127685546875,-0.29791259765625,0.2677001953125
1772556588736563500,11.8385634765625,-0.8585662841796875,-0.3101348876953125,0.2713623046875
1772556588746547500,11.84854736328125,-0.82928466796875,-0.33642578125,0.298492431640625
1772556588756532500,11.858532470703125,-0.81060791015625,-0.370697021484375,0.3344268798828125
1772556588766516500,11.8685166015625,-0.7998046875,-0.4034576416015625,0.365203857421875
1772556588776500500,11.87850048828125,-0.7861328125,-0.4387664794921875,0.3898162841796875
1772556588786484500,11.888484375,-0.77667236328125,-0.4737091064453125,0.400604248046875
1772556588796468500,11.898468505859375,-0.7584686279296875,-0.5151824951171875,0.4134368896484375
1772556588806452500,11.908452392578125,-0.7387847900390625,-0.54949951171875,0.4237060546875
1772556588816437500,11.9184375,-0.721588134765625,-0.5753631591796875,0.4278106689453125
1772556588826421500,11.92842138671875,-0.7108001708984375,-0.5895843505859375,0.4334716796875
1772556588836405500,11.938405517578126,-0.7106170654296875,-0.59844970703125,0.4421844482421875
1772556588846389500,11.948389404296876,-0.7154998779296875,-0.596832275390625,0.4460906982421875
1772556588856373500,11.95837353515625,-0.7127838134765625,-0.584716796875,0.4388275146484375
1772556588866357500,11.968357421875,-0.7046966552734375,-0.5608673095703125,0.4219512939453125
1772556588876342500,11.978342529296874,-0.7014007568359375,-0.5334014892578125,0.397918701171875
1772556588886326500,11.988326416015624,-0.6981964111328125,-0.5102996826171875,0.3672943115234375
1772556588896310500,11.998310546875,-0.695709228515625,-0.49005126953125,0.3469390869140625
1772556588906294500,12.00829443359375,-0.6901397705078125,-0.46685791015625,0.331817626953125
1772556588916278500,12.018278564453125,-0.6858367919921875,-0.4481964111328125,0.3173370361328125
1772556588926263600,12.028263671875,-0.68743896484375,-0.4367218017578125,0.308807373046875
1772556588936247600,12.03824755859375,-0.6912689208984375,-0.4305267333984375,0.309600830078125
1772556588946231600,12.0482314453125,-0.6936798095703125,-0.4271087646484375,0.31390380859375
1772556588956215600,12.058215576171875,-0.6883697509765625,-0.4303436279296875,0.3173370361328125
1772556588966199600,12.068199462890625,-0.683319091796875,-0.439666748046875,0.3238372802734375
1772556588976183600,12.07818359375,-0.6812286376953125,-0.4492950439453125,0.325347900390625
1772556588986168600,12.08816845703125,-0.669525146484375,-0.4578399658203125,0.31982421875
1772556588996152600,12.098152587890626,-0.6568145751953125,-0.4636993408203125,0.3122100830078125
1772556589006136600,12.108136474609376,-0.6420745849609375,-0.467559814453125,0.3071136474609375
1772556589016120300,12.118120361328126,-0.62298583984375,-0.4768218994140625,0.2990570068359375
1772556589026104600,12.1281044921875,-0.6120758056640625,-0.4859771728515625,0.2974700927734375
1772556589036088600,12.138088623046874,-0.6045989990234375,-0.4989166259765625,0.2996368408203125
1772556589046073300,12.1480732421875,-0.5990753173828125,-0.5193939208984375,0.3054656982421875
1772556589056057300,12.158057373046875,-0.6077880859375,-0.5330657958984375,0.32647705078125
1772556589066041300,12.168041259765625,-0.6343231201171875,-0.54412841796875,0.3526611328125
1772556589076025600,12.178025634765625,-0.6598358154296875,-0.5550079345703125,0.3692169189453125
1772556589086009600,12.188009521484375,-0.6771697998046875,-0.5625152587890625,0.3817291259765625
1772556589095994400,12.197994384765625,-0.6934051513671875,-0.5661773681640625,0.39093017578125
1772556589105978400,12.207978271484375,-0.72430419921875,-0.5700836181640625,0.40228271484375
1772556589115962600,12.217962646484375,-0.7652130126953125,-0.5730438232421875,0.4207611083984375
1772556589125946600,12.227946533203125,-0.8084259033203125,-0.5699615478515625,0.442138671875
1772556589135930600,12.2379306640625,-0.85107421875,-0.56060791015625,0.450897216796875
1772556589145914600,12.24791455078125,-0.8707733154296875,-0.5549163818359375,0.43768310546875
1772556589155899600,12.257899658203126,-0.858306884765625,-0.58160400390625,0.413665771484375
1772556589165883600,12.267883544921874,-0.87579345703125,-0.6046295166015625,0.4003753662109375
1772556589175867600,12.27786767578125,-0.942291259765625,-0.6166839599609375,0.417327880859375
1772556589185851600,12.2878515625,-1.0108184814453125,-0.6492462158203125,0.4546966552734375
1772556589195835600,12.297835693359374,-1.11102294921875,-0.658447265625,0.5231781005859375
1772556589205819600,12.307819580078124,-1.161895751953125,-0.671051025390625,0.5982818603515625
1772556589215804700,12.3178046875,-1.1722869873046875,-0.6620941162109375,0.645263671875
1772556589225788700,12.32778857421875,-1.1757965087890625,-0.621246337890625,0.650146484375
1772556589235772700,12.337772705078125,-1.1440277099609375,-0.560546875,0.5978546142578125
1772556589245756700,12.347756591796875,-1.0915679931640625,-0.491851806640625,0.520233154296875
1772556589255740700,12.35774072265625,-1.0260772705078125,-0.4325714111328125,0.447845458984375
1772556589265724400,12.367724365234375,-0.9620819091796875,-0.389617919921875,0.3943328857421875
1772556589275709700,12.377709716796875,-0.8971710205078125,-0.3611297607421875,0.3529815673828125
1772556589285693700,12.387693603515626,-0.836029052734375,-0.34283447265625,0.332794189453125
1772556589295677400,12.397677490234376,-0.80096435546875,-0.329193115234375,0.3484954833984375
1772556589305661400,12.407661376953126,-0.7937164306640625,-0.3239593505859375,0.391815185546875
1772556589315645400,12.4176455078125,-0.7803192138671875,-0.3409881591796875,0.43878173828125
1772556589325630000,12.4276298828125,-0.7557525634765625,-0.3639373779296875,0.4920501708984375
1772556589335614000,12.437614013671874,-0.7306976318359375,-0.3824920654296875,0.5465087890625
1772556589345598000,12.447597900390624,-0.7144775390625,-0.3971099853515625,0.583892822265625
1772556589355582000,12.45758203125,-0.7052459716796875,-0.3862457275390625,0.5920867919921875
1772556589365566000,12.46756591796875,-0.6938018798828125,-0.3553009033203125,0.5773773193359375
1772556589375550000,12.477550048828125,-0.68603515625,-0.339752197265625,0.5598907470703125
1772556589385535000,12.487534912109375,-0.6813201904296875,-0.33258056640625,0.5319976806640625
1772556589395519000,12.49751904296875,-0.6678314208984375,-0.3348236083984375,0.4954833984375
1772556589405503000,12.5075029296875,-0.6454010009765625,-0.343048095703125,0.465301513671875
1772556589415487000,12.517487060546875,-0.6222381591796875,-0.341552734375,0.4385223388671875
1772556589425471000,12.527470947265625,-0.61004638671875,-0.342376708984375,0.408935546875
1772556589435455000,12.537455078125,-0.614715576171875,-0.3601837158203125,0.39495849609375
1772556589445440000,12.54743994140625,-0.6300201416015625,-0.3808135986328125,0.4062347412109375
1772556589455424000,12.557424072265626,-0.642425537109375,-0.4041595458984375,0.423492431640625
1772556589465408000,12.567407958984376,-0.6496429443359375,-0.4289093017578125,0.438446044921875
1772556589475392000,12.57739208984375,-0.6528472900390625,-0.4473419189453125,0.4593048095703125
1772556589485376000,12.5873759765625,-0.6476898193359375,-0.463043212890625,0.4844207763671875
1772556589495361000,12.597361083984374,-0.6437835693359375,-0.4927825927734375,0.5104827880859375
1772556589505345000,12.607344970703124,-0.6659698486328125,-0.495391845703125,0.53594970703125
1772556589515329000,12.6173291015625,-0.657501220703125,-0.4653167724609375,0.4747161865234375
1772556589525313000,12.62731298828125,-0.6478424072265625,-0.49871826171875,0.4547882080078125
1772556589535297300,12.63729736328125,-0.6766357421875,-0.4981689453125,0.511322021484375
1772556589545281000,12.647281005859375,-0.7070159912109375,-0.4800872802734375,0.468170166015625
1772556589555266000,12.65726611328125,-0.7125091552734375,-0.4779510498046875,0.4351806640625
1772556589565249800,12.667249755859375,-0.71246337890625,-0.4693756103515625,0.428009033203125
1772556589575234000,12.677234130859375,-0.7273406982421875,-0.467926025390625,0.3992462158203125
1772556589585218000,12.687218017578125,-0.70849609375,-0.4521636962890625,0.402435302734375
1772556589595202000,12.6972021484375,-0.711029052734375,-0.44769287109375,0.3863525390625
1772556589605186000,12.70718603515625,-0.70538330078125,-0.429046630859375,0.3792572021484375
1772556589615171000,12.717171142578126,-0.6866455078125,-0.4040679931640625,0.3835601806640625
1772556589625155000,12.727155029296876,-0.6826019287109375,-0.3918914794921875,0.3805999755859375
1772556589635139000,12.73713916015625,-0.6959228515625,-0.3950347900390625,0.395477294921875
1772556589645123000,12.747123046875,-0.720703125,-0.412506103515625,0.4187164306640625
1772556589655107000,12.757107177734374,-0.7382659912109375,-0.42706298828125,0.4497222900390625
1772556589665091000,12.767091064453124,-0.74334716796875,-0.4372711181640625,0.4890899658203125
1772556589675076000,12.777076171875,-0.75921630859375,-0.45196533203125,0.5238037109375
1772556589685060000,12.78706005859375,-0.7659149169921875,-0.436676025390625,0.5325164794921875
1772556589695044000,12.797044189453125,-0.747222900390625,-0.403594970703125,0.50701904296875
1772556589705028000,12.807028076171875,-0.741424560546875,-0.379913330078125,0.48394775390625
1772556589715012000,12.81701220703125,-0.7481536865234375,-0.3702545166015625,0.479583740234375
1772556589724996000,12.82699609375,-0.759857177734375,-0.3664398193359375,0.471832275390625
1772556589734981000,12.836981201171875,-0.7696075439453125,-0.3762969970703125,0.46966552734375
1772556589744965000,12.846965087890625,-0.7743682861328125,-0.3918304443359375,0.478302001953125
