time,seconds_elapsed,z,y,x
1772556576980175600,0.082175537109375,-0.34648430347442627,-0.7969598174095154,-0.1024760976433754
1772556576990160000,0.092159912109375,-0.4326482117176056,-0.8051732778549194,-0.2955038845539093
1772556577000144000,0.102143798828125,-0.42747825384140015,-0.7110403180122375,-0.4149363338947296
1772556577010128000,0.1121279296875,-0.328156977891922,-0.531692624092102,-0.39989104866981506
1772556577020112000,0.12211181640625,-0.15591681003570557,-0.33212485909461975,-0.2402859777212143
1772556577030096000,0.132095947265625,0.016914626583456993,-0.16432492434978485,0.03412160649895668
1772556577040081000,0.142080810546875,0.11349644511938095,-0.03530246391892433,0.32843124866485596
1772556577050065000,0.15206494140625,0.1388252228498459,0.04841027781367302,0.5627036690711975
1772556577060049000,0.162048828125,0.12530723214149475,0.09516555070877075,0.6783344149589539
1772556577070033000,0.172032958984375,0.08500508219003677,0.13617636263370514,0.691845715045929
1772556577080017000,0.182016845703125,0.021611779928207397,0.17748533189296722,0.6239786744117737
1772556577090000600,0.192000732421875,-0.05930863320827484,0.2137882113456726,0.5087623000144958
1772556577099984600,0.201984619140625,-0.13688871264457703,0.26828092336654663,0.3728667199611664
1772556577109970000,0.211969970703125,-0.18376301229000092,0.34192344546318054,0.22865602374076843
1772556577119953700,0.22195361328125,-0.18657511472702026,0.43368014693260193,0.07625681161880493
1772556577129937700,0.231937744140625,-0.14447054266929626,0.525078296661377,-0.07973705232143402
1772556577139921700,0.241921630859375,-0.06482434272766113,0.590461254119873,-0.23962512612342834
1772556577149905700,0.25190576171875,0.045357026159763336,0.6001226902008057,-0.3881336450576782
1772556577159889700,0.2618896484375,0.16137893497943878,0.5293877720832825,-0.5086454153060913
1772556577169874700,0.271874755859375,0.2614613175392151,0.39125171303749084,-0.5962215662002563
1772556577179858700,0.281858642578125,0.33447515964508057,0.2561400532722473,-0.6216207146644592
1772556577189842700,0.2918427734375,0.3906111419200897,0.1678656041622162,-0.578754723072052
1772556577199826700,0.30182666015625,0.43822214007377625,0.12528060376644135,-0.49153000116348267
1772556577209810700,0.311810791015625,0.47925132513046265,0.11865120381116867,-0.3883093297481537
1772556577219794700,0.321794677734375,0.5038188099861145,0.13669773936271667,-0.2803945243358612
1772556577229778700,0.33177880859375,0.5131790041923523,0.16895022988319397,-0.20012019574642181
1772556577239763700,0.341763671875,0.5175264477729797,0.21567007899284363,-0.1710042506456375
1772556577249747700,0.351747802734375,0.5125892162322998,0.2562960982322693,-0.18037298321723938
1772556577259731700,0.361731689453125,0.498086154460907,0.2706981897354126,-0.2226485311985016
1772556577269715700,0.3717158203125,0.46276146173477173,0.24392302334308624,-0.2723689675331116
1772556577279699700,0.38169970703125,0.4130959212779999,0.20362015068531036,-0.3070540130138397
1772556577289683700,0.39168359375,0.35978078842163086,0.16578035056591034,-0.304538369178772
1772556577299667700,0.401667724609375,0.3109491765499115,0.13132521510124207,-0.27040866017341614
1772556577309652700,0.41165283203125,0.27193865180015564,0.10208450257778168,-0.19388139247894287
1772556577319636700,0.42163671875,0.24073737859725952,0.0803728848695755,-0.08026164770126343
1772556577329620700,0.431620849609375,0.199607253074646,0.07882452011108398,0.06341429054737091
1772556577339604700,0.441604736328125,0.16796600818634033,0.0938626155257225,0.21761462092399597
1772556577349589000,0.451589111328125,0.13271960616111755,0.10919284075498581,0.36764779686927795
1772556577359573000,0.461572998046875,0.10636619478464127,0.11510062962770462,0.4946776032447815
1772556577369557800,0.471557861328125,0.08393917977809906,0.11748096346855164,0.6004765033721924
1772556577379541800,0.481541748046875,0.05977806821465492,0.13948483765125275,0.6772993206977844
1772556577389526000,0.491526123046875,0.04464731737971306,0.18345148861408234,0.7134149670600891
1772556577399510000,0.501510009765625,0.04434870183467865,0.2180476188659668,0.7010481357574463
1772556577409494000,0.511493896484375,0.04336439445614815,0.23246116936206818,0.6617944836616516
1772556577419478000,0.52147802734375,0.04437551274895668,0.21071907877922058,0.6060423254966736
1772556577429462800,0.531462890625,0.03949340432882309,0.1391407698392868,0.5402473211288452
1772556577439447000,0.541447021484375,0.028824884444475174,0.02094915322959423,0.46985265612602234
1772556577449431000,0.55143115234375,0.01628112979233265,-0.11165948957204819,0.40687263011932373
1772556577459415000,0.5614150390625,-0.020716750994324684,-0.23336829245090485,0.3500593900680542
1772556577469399000,0.57139892578125,-0.06904460489749908,-0.3283579349517822,0.2885209321975708
1772556577479382800,0.5813828125,-0.12139534205198288,-0.38937434554100037,0.2239149957895279
1772556577489366800,0.59136669921875,-0.16041384637355804,-0.39304018020629883,0.18957139551639557
1772556577499352000,0.60135205078125,-0.1684628427028656,-0.34590327739715576,0.2066774070262909
1772556577509335800,0.611335693359375,-0.1437540352344513,-0.24927952885627747,0.2915259897708893
1772556577519319800,0.62131982421875,-0.0896204262971878,-0.11114910989999771,0.4601808190345764
1772556577529303800,0.6313037109375,-0.010548507794737816,0.046788860112428665,0.6738504767417908
1772556577539287800,0.641287841796875,0.047566358000040054,0.17765258252620697,0.8577150106430054
1772556577549271800,0.651271728515625,0.09135191887617111,0.2227761298418045,0.9236268997192383
1772556577559255800,0.661255859375,0.13464105129241943,0.19568344950675964,0.8450407385826111
1772556577569240800,0.67124072265625,0.1914510726928711,0.0843350887298584,0.600725531578064
1772556577579224800,0.681224853515625,0.23487594723701477,-0.17026501893997192,0.1704559177160263
1772556577589208800,0.691208740234375,0.22010605037212372,-0.5340732932090759,-0.3993971645832062
1772556577599192800,0.70119287109375,0.1562620997428894,-0.8990901708602905,-0.9697239398956299
1772556577609176800,0.7111767578125,0.08127600699663162,-1.180519700050354,-1.4225304126739502
1772556577619160800,0.721160888671875,0.01497042365372181,-1.2691129446029663,-1.6209055185317993
1772556577629145900,0.731145751953125,0.0055881068110466,-1.1759417057037354,-1.5274969339370728
1772556577639129900,0.7411298828125,0.04307917132973671,-0.8508086204528809,-1.0996758937835693
1772556577649113900,0.75111376953125,0.08735156059265137,-0.4330340027809143,-0.4530603587627411
1772556577659097900,0.761097900390625,0.1255393922328949,-0.05208151787519455,0.25085192918777466
1772556577669081900,0.771081787109375,0.15753300487995148,0.22297348082065582,0.8421469330787659
1772556577679065900,0.78106591796875,0.18260620534420013,0.40237101912498474,1.2109426259994507
1772556577689049900,0.7910498046875,0.19033603370189667,0.5230681896209717,1.3470016717910767
1772556577699035000,0.801034912109375,0.17819257080554962,0.6008217334747314,1.3009318113327026
1772556577709019000,0.811018798828125,0.15725931525230408,0.6262309551239014,1.118229866027832
1772556577719003000,0.8210029296875,0.1117335855960846,0.6078231930732727,0.8661608695983887
1772556577728987000,0.83098681640625,0.052887048572301865,0.515819251537323,0.5804129838943481
1772556577738971000,0.840970947265625,-0.01807960495352745,0.3714548349380493,0.2983474135398865
1772556577748955000,0.850954833984375,-0.09161508083343506,0.23052272200584412,0.040092431008815765
1772556577758940000,0.86093994140625,-0.1669076830148697,0.11943439394235611,-0.16011913120746613
1772556577768923600,0.870923583984375,-0.23040170967578888,0.07961028069257736,-0.28623631596565247
1772556577778907600,0.88090771484375,-0.2712641656398773,0.07278334349393845,-0.36275726556777954
1772556577788892000,0.890891845703125,-0.2893020212650299,0.06693930178880692,-0.40426743030548096
1772556577798876000,0.9008759765625,-0.29528704285621643,0.05594245344400406,-0.41999197006225586
1772556577808860000,0.91085986328125,-0.29463934898376465,0.02802559733390808,-0.4149748384952545
1772556577818844000,0.920843994140625,-0.29465535283088684,-0.017450911924242973,-0.4137362837791443
1772556577828829000,0.930828857421875,-0.2870270013809204,-0.0751003623008728,-0.4047259986400604
1772556577838813000,0.94081298828125,-0.2662338316440582,-0.1290789097547531,-0.3802129328250885
1772556577848797000,0.950796875,-0.2282686084508896,-0.17137177288532257,-0.3324102759361267
1772556577858781000,0.960781005859375,-0.17380671203136444,-0.198017880320549,-0.2690047323703766
1772556577868765000,0.970764892578125,-0.11292444169521332,-0.20531094074249268,-0.2042505145072937
1772556577878749000,0.9807490234375,-0.05209936946630478,-0.20385238528251648,-0.1364278942346573
1772556577888734000,0.99073388671875,-0.006588878110051155,-0.20922505855560303,-0.07587186992168427
1772556577898718000,1.000718017578125,0.010904151014983654,-0.21184615790843964,-0.028165612369775772
1772556577908702000,1.010701904296875,-0.000583128072321415,-0.20621809363365173,0.005348404869437218
1772556577918686000,1.02068603515625,-0.04272286221385002,-0.2129027396440506,0.020207993686199188
1772556577928670000,1.030669921875,-0.10167832672595978,-0.22075188159942627,0.021813346073031425
1772556577938654000,1.040654052734375,-0.17521215975284576,-0.2164313644170761,0.03302016481757164
1772556577948639000,1.050638916015625,-0.2568037211894989,-0.1980677992105484,0.058491699397563934
1772556577958623000,1.060623046875,-0.3355785012245178,-0.17750798165798187,0.10626830905675888
1772556577968607000,1.07060693359375,-0.4102383553981781,-0.16413384675979614,0.16771940886974335
1772556577978591000,1.080591064453125,-0.4800461530685425,-0.1572083830833435,0.2379070669412613
1772556577988575000,1.090574951171875,-0.5381028056144714,-0.16048699617385864,0.29242172837257385
1772556577998558700,1.100558837890625,-0.5858085751533508,-0.14714863896369934,0.323077917098999
1772556578008542700,1.110542724609375,-0.6220834851264954,-0.12117482721805573,0.32371655106544495
1772556578018528000,1.120528076171875,-0.6429605484008789,-0.0804314985871315,0.3007237911224365
1772556578028511700,1.13051171875,-0.6372936367988586,-0.03415907174348831,0.261610209941864
1772556578038495700,1.140495849609375,-0.6001710891723633,0.011504700407385826,0.21923033893108368
1772556578048479700,1.150479736328125,-0.5291600227355957,0.06019767001271248,0.15482445061206818
1772556578058463700,1.160463623046875,-0.43583056330680847,0.11463586241006851,0.08860576152801514
1772556578068447700,1.17044775390625,-0.33466053009033203,0.17370396852493286,0.02915414795279503
1772556578078432800,1.180432861328125,-0.233940988779068,0.22056764364242554,-0.020018745213747025
1772556578088416800,1.190416748046875,-0.1349470317363739,0.25359219312667847,-0.048775024712085724
1772556578098400800,1.20040087890625,-0.05015423148870468,0.2832568883895874,-0.04540428891777992
1772556578108384800,1.210384765625,0.027150673791766167,0.29843369126319885,0.0074456119909882545
1772556578118368800,1.22036865234375,0.09151254594326019,0.3077697455883026,0.10502980649471283
1772556578128352800,1.230352783203125,0.15749795734882355,0.32109594345092773,0.25365763902664185
1772556578138337800,1.240337890625,0.1858690083026886,0.3520580530166626,0.4324118494987488
1772556578148321800,1.25032177734375,0.12003034353256226,0.3717401325702667,0.5861340165138245
1772556578158305800,1.260305908203125,-0.012177846394479275,0.346778005361557,0.6768082976341248
1772556578168289800,1.270289794921875,-0.151859849691391,0.27847936749458313,0.6549413204193115
1772556578178273800,1.280273681640625,-0.3144804537296295,0.14069126546382904,0.48412996530532837
1772556578188258000,1.290258056640625,-0.5121256113052368,-0.042143527418375015,0.1639554351568222
1772556578198242000,1.300241943359375,-0.6744157075881958,-0.180929034948349,-0.2063635140657425
1772556578208226800,1.310226806640625,-0.7395896315574646,-0.24801991879940033,-0.5590677857398987
1772556578218210800,1.3202109375,-0.7143930196762085,-0.24601148068904877,-0.8682746291160583
1772556578228195000,1.330195068359375,-0.5872246623039246,-0.18797694146633148,-1.0729211568832397
1772556578238179000,1.340178955078125,-0.3976140320301056,-0.14672857522964478,-1.111976146697998
1772556578248163000,1.3501630859375,-0.20181603729724884,-0.15291562676429749,-0.9573608040809631
1772556578258146800,1.360146728515625,-0.08709949254989624,-0.17152346670627594,-0.6520430445671082
1772556578268132000,1.370132080078125,-0.04224067181348801,-0.18102002143859863,-0.29905515909194946
1772556578278116000,1.3801162109375,-0.042562562972307205,-0.1684993952512741,0.01050693541765213
1772556578288099800,1.390099853515625,-0.0661400631070137,-0.10134458541870117,0.20060895383358002
1772556578298083800,1.400083740234375,-0.09842507541179657,0.00535210408270359,0.25892144441604614
1772556578308068000,1.410068115234375,-0.12645483016967773,0.16194356977939606,0.21397848427295685
1772556578318052000,1.420052001953125,-0.13834773004055023,0.3428570628166199,0.10061699151992798
1772556578328037000,1.430037109375,-0.12260710448026657,0.5035130381584167,-0.06729664653539658
1772556578338021000,1.440021240234375,-0.08242673426866531,0.6076180934906006,-0.2582229971885681
1772556578348005000,1.450005126953125,-0.02995234541594982,0.6647002696990967,-0.4497985541820526
1772556578357989000,1.459989013671875,0.04762361943721771,0.6743636727333069,-0.6123421788215637
1772556578367973000,1.46997314453125,0.12905536592006683,0.6345674991607666,-0.7271952629089355
1772556578377957000,1.47995703125,0.18250040709972382,0.5808456540107727,-0.7537280917167664
1772556578387942100,1.489942138671875,0.19488224387168884,0.49455252289772034,-0.6963926553726196
1772556578397926100,1.499926025390625,0.17708811163902283,0.36486634612083435,-0.5747066736221313
1772556578407910100,1.50991015625,0.13681524991989136,0.22951757907867432,-0.42757102847099304
1772556578417894100,1.51989404296875,0.08106635510921478,0.08861102163791656,-0.29397112131118774
1772556578427878100,1.529878173828125,0.012977313250303268,-0.023680100217461586,-0.19907496869564056
1772556578437862100,1.539862060546875,-0.04735620319843292,-0.10240332037210464,-0.15153290331363678
1772556578447847200,1.54984716796875,-0.08538854122161865,-0.15443402528762817,-0.14924338459968567
1772556578457831200,1.5598310546875,-0.09192497283220291,-0.1777450442314148,-0.18778355419635773
1772556578467815200,1.569815185546875,-0.056558724492788315,-0.17208155989646912,-0.24638934433460236
1772556578477799200,1.579799072265625,-0.009112524800002575,-0.13624396920204163,-0.2996426820755005
1772556578487783200,1.589783203125,0.042965859174728394,-0.08773157000541687,-0.3454280197620392
1772556578497767200,1.59976708984375,0.0878211036324501,-0.04992198571562767,-0.3700861632823944
1772556578507752200,1.609752197265625,0.12339320778846741,-0.03047158755362034,-0.3580838441848755
1772556578517736200,1.619736083984375,0.14749927818775177,-0.008132820948958397,-0.2951129376888275
1772556578527720200,1.62972021484375,0.1713220477104187,0.02667975425720215,-0.17965452373027802
1772556578537704200,1.6397041015625,0.1785983443260193,0.07486006617546082,-0.021096570417284966
1772556578547688000,1.64968798828125,0.1828221082687378,0.14063401520252228,0.14677952229976654
1772556578557672000,1.659671875,0.18826134502887726,0.20163489878177643,0.2948087155818939
1772556578567657200,1.6696572265625,0.2077104151248932,0.2617000937461853,0.41835007071495056
1772556578577641000,1.679640869140625,0.21851861476898193,0.3182602822780609,0.5139084458351135
1772556578587625000,1.689625,0.22945967316627502,0.3727882206439972,0.5886439681053162
1772556578597609000,1.69960888671875,0.25537434220314026,0.4090726971626282,0.6107675433158875
1772556578607593000,1.709593017578125,0.2811097800731659,0.4368992745876312,0.5919211506843567
1772556578617577000,1.719576904296875,0.29042360186576843,0.475693941116333,0.540267288684845
1772556578627562000,1.72956201171875,0.2945842444896698,0.5131576657295227,0.4466135501861572
1772556578637546000,1.7395458984375,0.2881038784980774,0.5265156030654907,0.315394788980484
1772556578647530000,1.749530029296875,0.2821847200393677,0.4927717447280884,0.151096373796463
1772556578657514000,1.759513916015625,0.27232369780540466,0.39269909262657166,-0.025382330641150475
1772556578667498000,1.769498046875,0.2563740313053131,0.2597615420818329,-0.19295641779899597
1772556578677482200,1.779482177734375,0.2288348525762558,0.14075767993927002,-0.31167998909950256
1772556578687467000,1.789467041015625,0.19483986496925354,0.08174201846122742,-0.34554579854011536
1772556578697451000,1.799450927734375,0.1694912612438202,0.10208270698785782,-0.27127888798713684
1772556578707435000,1.80943505859375,0.18893420696258545,0.2360149472951889,-0.09363088011741638
1772556578717419300,1.819419189453125,0.2151707261800766,0.40968289971351624,0.14678436517715454
1772556578727403300,1.8294033203125,0.22878533601760864,0.5201886296272278,0.3231665790081024
1772556578737387300,1.83938720703125,0.27517828345298767,0.5630791783332825,0.37004947662353516
1772556578747372000,1.8493720703125,0.3494466543197632,0.5235514640808105,0.2557961642742157
1772556578757356300,1.859356201171875,0.3828147351741791,0.3784541189670563,-0.022558562457561493
1772556578767340300,1.86934033203125,0.31890177726745605,0.10857762396335602,-0.45347559452056885
1772556578777324300,1.87932421875,0.17746157944202423,-0.19733430445194244,-0.9205808043479919
1772556578787308300,1.889308349609375,0.021887436509132385,-0.42348513007164,-1.299463152885437
1772556578797293300,1.899293212890625,-0.07456465810537338,-0.45308056473731995,-1.4835089445114136
1772556578807277300,1.90927734375,-0.09503558278083801,-0.2692662477493286,-1.3688549995422363
1772556578817261300,1.91926123046875,-0.05363903567194939,0.03387542441487312,-0.9424048066139221
1772556578827245300,1.929245361328125,0.02554340474307537,0.3115912079811096,-0.31497469544410706
1772556578837229000,1.93922900390625,0.11081109195947647,0.495930939912796,0.34107765555381775
1772556578847213000,1.949213134765625,0.17199695110321045,0.5434481501579285,0.8554288744926453
1772556578857198300,1.9591982421875,0.1728423535823822,0.5330812931060791,1.1384679079055786
1772556578867182000,1.96918212890625,0.1204739660024643,0.5154197812080383,1.2162986993789673
1772556578877166000,1.979166015625,0.02802058681845665,0.48980066180229187,1.1304943561553955
1772556578887150000,1.989150146484375,-0.08924052119255066,0.4543460011482239,0.9443439245223999
1772556578897134000,1.999134033203125,-0.19170992076396942,0.40969040989875793,0.6900190711021423
1772556578907118000,2.0091181640625,-0.2691487967967987,0.3744677007198334,0.3988175690174103
1772556578917103000,2.01910302734375,-0.33213910460472107,0.34105488657951355,0.081868976354599
1772556578927087000,2.029087158203125,-0.3891102373600006,0.26040610671043396,-0.22735464572906494
1772556578937071000,2.039071044921875,-0.41732174158096313,0.14753633737564087,-0.4766605496406555
1772556578947055000,2.04905517578125,-0.40329355001449585,0.021269487217068672,-0.6451027989387512
1772556578957039000,2.0590390625,-0.35184216499328613,-0.0988255962729454,-0.7243956327438354
1772556578967024000,2.069024169921875,-0.26337674260139465,-0.20585617423057556,-0.7229468822479248
1772556578977008000,2.079008056640625,-0.154925137758255,-0.295706182718277,-0.6575298309326172
1772556578986992000,2.0889921875,-0.05307493731379509,-0.3462660312652588,-0.555034339427948
1772556578996976000,2.09897607421875,0.02099694311618805,-0.36624398827552795,-0.4254128336906433
1772556579006960000,2.108960205078125,0.05819544568657875,-0.36402395367622375,-0.2903420925140381
1772556579016944000,2.118944091796875,0.07883455604314804,-0.361610472202301,-0.15723168849945068
1772556579026929200,2.12892919921875,0.0916784480214119,-0.3533775806427002,-0.0424790158867836
1772556579036913200,2.1389130859375,0.09107904136180878,-0.33946123719215393,0.048138026148080826
1772556579046897200,2.148897216796875,0.08840122818946838,-0.31856951117515564,0.11509761959314346
1772556579056881200,2.158881103515625,0.08670523762702942,-0.28363385796546936,0.14858585596084595
1772556579066865200,2.168865234375,0.0820966362953186,-0.24636000394821167,0.15436971187591553
1772556579076849200,2.17884912109375,0.06502934545278549,-0.21018695831298828,0.14528636634349823
1772556579086834200,2.188834228515625,0.03843715041875839,-0.18317557871341705,0.1494387686252594
1772556579096818200,2.198818115234375,0.0010820754105225205,-0.17709468305110931,0.18717563152313232
1772556579106802200,2.20880224609375,-0.05227036401629448,-0.18287639319896698,0.2581605911254883
1772556579116786000,2.218785888671875,-0.1180485412478447,-0.1901864856481552,0.3494167923927307
1772556579126770000,2.22877001953125,-0.19452227652072906,-0.20784804224967957,0.4406098425388336
1772556579136755200,2.238755126953125,-0.279895156621933,-0.2257540076971054,0.5153000950813293
1772556579146739000,2.248739013671875,-0.3658260405063629,-0.24150927364826202,0.557778537273407
1772556579156723000,2.258722900390625,-0.4501511752605438,-0.2266434282064438,0.5789051651954651
1772556579166707000,2.26870703125,-0.5262448787689209,-0.18202856183052063,0.5862014293670654
1772556579176691000,2.27869091796875,-0.5902678966522217,-0.11151300370693207,0.5842296481132507
1772556579186675000,2.288675048828125,-0.6415364146232605,-0.03795623406767845,0.5665127038955688
1772556579196660000,2.298659912109375,-0.6769188642501831,0.047971129417419434,0.5307667255401611
1772556579206644000,2.30864404296875,-0.6819466352462769,0.14606121182441711,0.48197656869888306
1772556579216628000,2.3186279296875,-0.6641231775283813,0.2632541060447693,0.404380738735199
1772556579226612000,2.328612060546875,-0.6023352146148682,0.37797296047210693,0.3160271644592285
1772556579236596200,2.33859619140625,-0.5130289196968079,0.47601526975631714,0.2354671061038971
1772556579246581000,2.3485810546875,-0.4039578437805176,0.5453322529792786,0.16053320467472076
1772556579256565000,2.35856494140625,-0.2921392321586609,0.5797712206840515,0.1119057685136795
1772556579266549000,2.368549072265625,-0.17370130121707916,0.5849222540855408,0.07391524314880371
1772556579276533200,2.378533203125,-0.051515109837055206,0.5649568438529968,0.06337230652570724
1772556579286517200,2.388517333984375,0.04993375018239021,0.5248549580574036,0.10384676605463028
1772556579296501200,2.398501220703125,0.08306819945573807,0.4392600953578949,0.15926066040992737
1772556579306485200,2.4084853515625,0.02819829061627388,0.2981533110141754,0.16699528694152832
1772556579316469200,2.41846923828125,-0.0748034194111824,0.09334590286016464,0.07015551626682281
1772556579326453200,2.428453369140625,-0.1842382848262787,-0.13149972259998322,-0.14274024963378906
1772556579336437200,2.438437255859375,-0.30036842823028564,-0.3597518503665924,-0.4471588432788849
1772556579346421000,2.4484208984375,-0.40648525953292847,-0.6111792325973511,-0.7813323140144348
1772556579356406300,2.45840625,-0.46913856267929077,-0.8192237615585327,-1.0435113906860352
1772556579366390300,2.468390380859375,-0.4551106095314026,-0.874866783618927,-1.1574068069458008
1772556579376374000,2.4783740234375,-0.38107070326805115,-0.7891820073127747,-1.0392088890075684
1772556579386358000,2.48835791015625,-0.2948910892009735,-0.6479282379150391,-0.6944924592971802
1772556579396342000,2.498342041015625,-0.22478538751602173,-0.4995671808719635,-0.18730324506759644
1772556579406326000,2.508325927734375,-0.19125352799892426,-0.35504117608070374,0.3551536500453949
1772556579416311000,2.51831103515625,-0.19679954648017883,-0.22603093087673187,0.7775394320487976
1772556579426295000,2.528294921875,-0.2374875843524933,-0.11469241976737976,0.9929100871086121
1772556579436279000,2.538279052734375,-0.28911957144737244,-0.011527812108397484,0.9983649253845215
1772556579446263000,2.548262939453125,-0.32920655608177185,0.10245414823293686,0.8391627669334412
1772556579456247000,2.5582470703125,-0.3506488800048828,0.24551673233509064,0.5873010158538818
1772556579466232000,2.568232177734375,-0.32008564472198486,0.40115559101104736,0.3162604570388794
1772556579476216000,2.578216064453125,-0.24803413450717926,0.537883996963501,0.07360013574361801
1772556579486200000,2.588199951171875,-0.13430145382881165,0.6488797664642334,-0.14500464498996735
1772556579496184000,2.59818408203125,0.022203687578439713,0.6857753396034241,-0.3123718500137329
1772556579506168000,2.60816796875,0.17813123762607574,0.6522658467292786,-0.4249500632286072
1772556579516152000,2.618152099609375,0.28961002826690674,0.5938503742218018,-0.4474515914916992
1772556579526137000,2.62813720703125,0.35462844371795654,0.5002388954162598,-0.4002470374107361
1772556579536121000,2.63812109375,0.3692924976348877,0.3826177418231964,-0.31140607595443726
1772556579546105000,2.64810498046875,0.33262503147125244,0.2415436953306198,-0.19102586805820465
1772556579556089000,2.658089111328125,0.25077787041664124,0.10771339386701584,-0.06529127061367035
1772556579566073000,2.668072998046875,0.13599564135074615,-0.008632125332951546,0.030777212232351303
1772556579576058000,2.67805810546875,0.017951684072613716,-0.09244902431964874,0.07353086024522781
1772556579586042000,2.6880419921875,-0.08726581931114197,-0.1623745858669281,0.06525455415248871
1772556579596026000,2.698026123046875,-0.15289206802845,-0.22188596427440643,0.015231166034936905
1772556579606010000,2.708010009765625,-0.1800784170627594,-0.2599920630455017,-0.06774014979600906
1772556579615994000,2.717994140625,-0.15853869915008545,-0.2968282997608185,-0.16270704567432404
1772556579625979100,2.727979248046875,-0.09957844018936157,-0.31672635674476624,-0.2488962560892105
1772556579635963100,2.737963134765625,-0.014676549471914768,-0.3185272216796875,-0.3216109871864319
1772556579645947100,2.747947021484375,0.07535001635551453,-0.2861436903476715,-0.38713937997817993
1772556579655931100,2.75793115234375,0.1588718295097351,-0.23088069260120392,-0.4314631223678589
1772556579665915100,2.7679150390625,0.22172455489635468,-0.18191660940647125,-0.45100754499435425
1772556579675899100,2.777899169921875,0.2602516710758209,-0.14121709764003754,-0.4272747337818146
1772556579685884200,2.78788427734375,0.27284708619117737,-0.0974632278084755,-0.35350197553634644
1772556579695868000,2.797867919921875,0.2660409212112427,-0.05885022506117821,-0.23325587809085846
1772556579705852000,2.807851806640625,0.24462857842445374,-0.02473513036966324,-0.08307036757469177
1772556579715836200,2.817836181640625,0.22575901448726654,0.016563840210437775,0.07002011686563492
1772556579725820200,2.827820068359375,0.2158760279417038,0.057732582092285156,0.19886064529418945
1772556579735805000,2.837804931640625,0.22479483485221863,0.0955769494175911,0.2751578092575073
1772556579745789000,2.847788818359375,0.24691186845302582,0.10421757400035858,0.287139356136322
1772556579755773200,2.857773193359375,0.26620951294898987,0.10172773152589798,0.2582970857620239
1772556579765757200,2.867757080078125,0.26301106810569763,0.0743914544582367,0.20503519475460052
1772556579775741200,2.8777412109375,0.24016495048999786,0.007733712904155254,0.1311590075492859
1772556579785726000,2.887725830078125,0.21457943320274353,-0.09796608239412308,0.05136163532733917
1772556579795710200,2.897710205078125,0.18663857877254486,-0.2341161072254181,-0.024572063237428665
1772556579805694200,2.907694091796875,0.1575278341770172,-0.38667210936546326,-0.0855049192905426
1772556579815678200,2.91767822265625,0.14156505465507507,-0.5048948526382446,-0.12176939845085144
1772556579825662200,2.927662109375,0.11717662960290909,-0.6068225502967834,-0.1471967250108719
1772556579835646200,2.937646240234375,0.06851013004779816,-0.7306963801383972,-0.20501524209976196
1772556579845631200,2.94763134765625,0.007131724618375301,-0.8869181871414185,-0.35948604345321655
1772556579855615200,2.957615234375,-0.028011512011289597,-1.019906759262085,-0.6531418561935425
1772556579865599200,2.96759912109375,-0.0746980607509613,-1.0665456056594849,-1.066948652267456
1772556579875583200,2.977583251953125,-0.15320318937301636,-1.0041000843048096,-1.5170807838439941
1772556579885567200,2.987567138671875,-0.2237929403781891,-0.835572361946106,-1.8602136373519897
1772556579895552300,2.99755224609375,-0.2684881091117859,-0.5776109099388123,-1.9701650142669678
1772556579905536300,3.007536376953125,-0.26278600096702576,-0.24118652939796448,-1.757122278213501
1772556579915520300,3.017520263671875,-0.20667658746242523,0.08295626193284988,-1.2076472043991089
1772556579925504300,3.027504150390625,-0.11372402310371399,0.32711249589920044,-0.4096789062023163
1772556579935488300,3.03748828125,-0.01925792172551155,0.5135422945022583,0.5073059797286987
1772556579945473300,3.047473388671875,0.044684041291475296,0.6083105802536011,1.3459136486053467
1772556579955457300,3.057457275390625,0.07475949823856354,0.6283801198005676,1.9748858213424683
1772556579965441300,3.067441162109375,0.06226128339767456,0.6028148531913757,2.3426473140716553
1772556579975425000,3.077425048828125,-0.002625763416290283,0.5217952132225037,2.4682304859161377
1772556579985409000,3.087408935546875,-0.11328063905239105,0.3892994821071625,2.3908803462982178
1772556579995394300,3.097394287109375,-0.23685193061828613,0.23514196276664734,2.1767468452453613
1772556580005378000,3.1073779296875,-0.333131343126297,0.07355225831270218,1.8732128143310547
1772556580015362000,3.117362060546875,-0.32647424936294556,-0.08009809255599976,1.4936504364013672
1772556580025346000,3.127345947265625,-0.2781115174293518,-0.2312260866165161,1.068527340888977
1772556580035330000,3.137330078125,-0.21933118999004364,-0.31671324372291565,0.6377162933349609
1772556580045314000,3.14731396484375,-0.1733943223953247,-0.3537634015083313,0.22340114414691925
1772556580055299000,3.157299072265625,-0.11964299529790878,-0.3723054826259613,-0.15258638560771942
1772556580065283000,3.167282958984375,-0.05607441067695618,-0.3758091330528259,-0.4383779466152191
1772556580075267000,3.17726708984375,0.022811580449342728,-0.3833884000778198,-0.607652485370636
1772556580085251000,3.1872509765625,0.10400390625,-0.3855562210083008,-0.6693757772445679
1772556580095235000,3.197235107421875,0.18429803848266602,-0.3683646619319916,-0.646277129650116
1772556580105220000,3.20722021484375,0.25368696451187134,-0.30753806233406067,-0.570747971534729
1772556580115204000,3.2172041015625,0.3186221122741699,-0.2007080316543579,-0.4849645495414734
1772556580125188000,3.22718798828125,0.39459386467933655,-0.0637001097202301,-0.4130195081233978
1772556580135172000,3.237172119140625,0.48024383187294006,0.06192641705274582,-0.36813512444496155
1772556580145156000,3.247156005859375,0.5634332895278931,0.14957158267498016,-0.3451387286186218
1772556580155141000,3.25714111328125,0.6329707503318787,0.19052793085575104,-0.3415372967720032
1772556580165125000,3.267125,0.6702553033828735,0.1918400675058365,-0.3437618315219879
1772556580175109000,3.277109130859375,0.6677190661430359,0.1446130871772766,-0.3508557677268982
1772556580185093000,3.287093017578125,0.6248496174812317,0.0671507939696312,-0.35026323795318604
1772556580195077000,3.2970771484375,0.5459262728691101,-0.02648637443780899,-0.35844069719314575
1772556580205062100,3.307062255859375,0.43280529975891113,-0.14395840466022491,-0.38122352957725525
1772556580215046100,3.317046142578125,0.30577352643013,-0.2752678096294403,-0.3957836627960205
1772556580225030100,3.327030029296875,0.1823493093252182,-0.4030987322330475,-0.40677374601364136
1772556580235014100,3.33701416015625,0.06710954010486603,-0.5026713013648987,-0.40601566433906555
1772556580244998100,3.346998046875,-0.02808195725083351,-0.5967327952384949,-0.3921336829662323
1772556580254983200,3.356983154296875,-0.10624809563159943,-0.6967855095863342,-0.3606424033641815
1772556580264967200,3.36696728515625,-0.1692100167274475,-0.7604039311408997,-0.3162294030189514
1772556580274951200,3.376951171875,-0.22071625292301178,-0.7630590796470642,-0.2647949457168579
1772556580284935200,3.38693505859375,-0.26828670501708984,-0.7304415106773376,-0.20827282965183258
1772556580294919000,3.3969189453125,-0.30547064542770386,-0.6711077690124512,-0.15411865711212158
1772556580304904200,3.406904296875,-0.34051838517189026,-0.5998170971870422,-0.10155478864908218
1772556580314892000,3.41689208984375,-0.383400559425354,-0.5569596290588379,-0.043705809861421585
1772556580324876000,3.4268759765625,-0.4376329183578491,-0.5744688510894775,0.03069918230175972
1772556580334860000,3.436860107421875,-0.5050702095031738,-0.6298946738243103,0.119085393846035
1772556580344844000,3.446843994140625,-0.5659053325653076,-0.6824703216552734,0.2029387503862381
1772556580354827800,3.456827880859375,-0.5858299136161804,-0.6809878349304199,0.2642225921154022
1772556580364813000,3.46681298828125,-0.5597019195556641,-0.6112273931503296,0.29645004868507385
1772556580374797000,3.476797119140625,-0.4945487678050995,-0.4999430477619171,0.3079143762588501
1772556580384780800,3.48678076171875,-0.3975820243358612,-0.37250733375549316,0.3098185360431671
1772556580394764800,3.496764892578125,-0.2823445200920105,-0.2825418710708618,0.3134719133377075
1772556580404748800,3.506748779296875,-0.1765291541814804,-0.21767842769622803,0.32975447177886963
1772556580414733800,3.51673388671875,-0.08205457031726837,-0.19319279491901398,0.3599376678466797
1772556580424717800,3.5267177734375,-0.01393224485218525,-0.19815532863140106,0.41230952739715576
1772556580434701800,3.536701904296875,0.03421624004840851,-0.1954333484172821,0.4987451434135437
1772556580444685800,3.546685791015625,0.03404899314045906,-0.20528490841388702,0.5936426520347595
1772556580454670000,3.556670166015625,-0.03869343921542168,-0.2252727597951889,0.666600227355957
1772556580464654800,3.56665478515625,-0.13564927875995636,-0.20616590976715088,0.696782112121582
1772556580474638800,3.576638916015625,-0.2359323650598526,-0.18953797221183777,0.6370767951011658
1772556580484622800,3.586622802734375,-0.38519853353500366,-0.3106750547885895,0.42174872756004333
1772556580494606800,3.59660693359375,-0.5990283489227295,-0.5059108734130859,0.008622375316917896
1772556580504591000,3.606591064453125,-0.7033874988555908,-0.6265206336975098,-0.5058214664459229
1772556580514576000,3.616575927734375,-0.6380189657211304,-0.623918354511261,-0.9360278248786926
1772556580524560000,3.626559814453125,-0.4484940767288208,-0.5363451242446899,-1.157313346862793
1772556580534544000,3.6365439453125,-0.22215653955936432,-0.4164113402366638,-1.1137523651123047
1772556580544528100,3.646528076171875,-0.03069363534450531,-0.30498096346855164,-0.8046123385429382
1772556580554512100,3.65651220703125,0.08060012012720108,-0.2104218453168869,-0.33895328640937805
1772556580564497000,3.666496826171875,0.10578616708517075,-0.10280804336071014,0.12259543687105179
1772556580574481000,3.67648095703125,0.056556109338998795,0.021310539916157722,0.4699591100215912
1772556580584465200,3.686465087890625,-0.011194173246622086,0.14138315618038177,0.6519656777381897
1772556580594449200,3.69644921875,-0.06487381458282471,0.25737911462783813,0.6945563554763794
1772556580604433200,3.70643310546875,-0.10325715690851212,0.3676856458187103,0.6554385423660278
1772556580614418000,3.71641796875,-0.13699603080749512,0.4769638776779175,0.5677241086959839
1772556580624402000,3.72640185546875,-0.15760543942451477,0.5646452903747559,0.4438413381576538
1772556580634386200,3.73638623046875,-0.15174804627895355,0.6080930233001709,0.2778906524181366
1772556580644370200,3.7463701171875,-0.11006398499011993,0.6131258606910706,0.07040509581565857
1772556580654354200,3.756354248046875,-0.03101164475083351,0.5526521801948547,-0.16846919059753418
1772556580664339000,3.7663388671875,0.07375045120716095,0.4421864151954651,-0.4176095128059387
1772556580674323200,3.7763232421875,0.17774543166160583,0.3301766812801361,-0.658011257648468
1772556580684307200,3.78630712890625,0.26938480138778687,0.24415498971939087,-0.8410066366195679
1772556580694291200,3.796291259765625,0.34192100167274475,0.16580837965011597,-0.9197080731391907
1772556580704275000,3.80627490234375,0.4101945757865906,0.07743217051029205,-0.8946866393089294
1772556580714260200,3.81626025390625,0.45181530714035034,-0.029938576743006706,-0.7955352067947388
1772556580724244000,3.826243896484375,0.4561746120452881,-0.15342402458190918,-0.6539303660392761
1772556580734228000,3.83622802734375,0.42614611983299255,-0.2772934138774872,-0.49591127038002014
1772556580744212000,3.8462119140625,0.37422725558280945,-0.36321258544921875,-0.36757779121398926
1772556580754196000,3.856196044921875,0.3249203562736511,-0.39915281534194946,-0.2967451810836792
1772556580764181000,3.866180908203125,0.3037109375,-0.4005352556705475,-0.2770620286464691
1772556580774165000,3.8761650390625,0.3223976194858551,-0.37770524621009827,-0.3036581873893738
1772556580784149000,3.88614892578125,0.36947670578956604,-0.3479667901992798,-0.35472697019577026
1772556580794133000,3.896133056640625,0.4207483232021332,-0.30405235290527344,-0.40726250410079956
1772556580804117000,3.906116943359375,0.4647921919822693,-0.23956602811813354,-0.4425038695335388
1772556580814102000,3.91610205078125,0.49359261989593506,-0.14461059868335724,-0.4403148591518402
1772556580824086000,3.9260859375,0.49964413046836853,-0.05401650443673134,-0.39787524938583374
1772556580834070000,3.936070068359375,0.5032383799552917,0.0260928925126791,-0.30291005969047546
1772556580844054000,3.946053955078125,0.4988100528717041,0.08791790902614594,-0.16269676387310028
1772556580854038000,3.9560380859375,0.5006758570671082,0.12403250485658646,0.009991914965212345
1772556580864023000,3.96602294921875,0.48673316836357117,0.15700644254684448,0.1855863779783249
1772556580874007000,3.976007080078125,0.4527647793292999,0.17140385508537292,0.35263657569885254
1772556580883991000,3.985990966796875,0.39806583523750305,0.19109606742858887,0.503007709980011
1772556580893972000,3.995971923828125,0.34059974551200867,0.2371453195810318,0.618246853351593
1772556580903956000,4.0059560546875,0.2906196713447571,0.31421053409576416,0.688930332660675
1772556580913940000,4.01593994140625,0.258587509393692,0.4089542031288147,0.7186398506164551
1772556580923925000,4.025925048828125,0.24253717064857483,0.49787527322769165,0.7281702756881714
1772556580933909000,4.035908935546875,0.24290259182453156,0.5339176058769226,0.712085485458374
1772556580943893000,4.04589306640625,0.24063251912593842,0.4896009564399719,0.6664530634880066
1772556580953877000,4.055876953125,0.23743091523647308,0.3884876072406769,0.5934467911720276
1772556580963862000,4.065862060546875,0.22785712778568268,0.2584846019744873,0.4980151057243347
1772556580973846000,4.075845947265625,0.2098715454339981,0.12725910544395447,0.3821476399898529
1772556580983830000,4.085830078125,0.1946031153202057,0.034741152077913284,0.26576536893844604
1772556580993814000,4.09581396484375,0.1959584355354309,0.009940912947058678,0.16230134665966034
1772556581003798000,4.105798095703125,0.22859227657318115,0.03292905166745186,0.09011262655258179
1772556581013782000,4.115781982421875,0.2660652995109558,0.04730219766497612,0.0473182238638401
1772556581023767000,4.12576708984375,0.29715532064437866,0.014409496448934078,-0.004064006265252829
1772556581033751000,4.1357509765625,0.3184123933315277,-0.08670193701982498,-0.07984984666109085
1772556581043735000,4.145735107421875,0.3323332965373993,-0.25617778301239014,-0.22206024825572968
1772556581053719000,4.155718994140625,0.3040272295475006,-0.48979857563972473,-0.45492520928382874
1772556581063704000,4.1657041015625,0.212502121925354,-0.607640266418457,-0.6905627250671387
1772556581073688000,4.17568798828125,0.08574986457824707,-0.657352089881897,-0.9176033735275269
1772556581083672000,4.185672119140625,0.020717594772577286,-0.6868340969085693,-1.0765330791473389
1772556581093656000,4.195656005859375,0.07604800164699554,-0.6421096324920654,-1.112163782119751
1772556581103640000,4.20564013671875,0.18573960661888123,-0.37085410952568054,-0.8960700631141663
1772556581113625000,4.215625,0.2738015949726105,-0.012179629877209663,-0.47458577156066895
1772556581123609000,4.225609130859375,0.3624992370605469,0.3318387269973755,0.06998087465763092
1772556581133593000,4.235593017578125,0.38754114508628845,0.6878451108932495,0.6082154512405396
1772556581143577000,4.2455771484375,0.38798004388809204,0.8688760995864868,0.9761929512023926
1772556581153560800,4.255560791015625,0.3910386860370636,0.9742147922515869,1.1564263105392456
1772556581163546000,4.265546142578125,0.4116017520427704,1.0924330949783325,1.1826767921447754
1772556581173530000,4.275530029296875,0.43266281485557556,1.2028254270553589,1.0965209007263184
1772556581183513900,4.285513916015625,0.4210463762283325,1.3370386362075806,0.9589648246765137
1772556581193497900,4.295497802734375,0.37505483627319336,1.4627583026885986,0.7858684659004211
1772556581203481900,4.30548193359375,0.25735828280448914,1.4881746768951416,0.6050387620925903
1772556581213467000,4.315466796875,0.0919041782617569,1.4099676609039307,0.44697296619415283
1772556581223451000,4.325450927734375,-0.0447964183986187,1.2807912826538086,0.3129355311393738
1772556581233435000,4.335434814453125,-0.1288619488477707,1.131291151046753,0.1608506590127945
1772556581243419000,4.3454189453125,-0.17667393386363983,1.0478668212890625,0.018190179020166397
1772556581253403000,4.35540283203125,-0.1400417983531952,1.0271739959716797,-0.11656150221824646
1772556581263388000,4.365387939453125,-0.08544247597455978,1.0676634311676025,-0.2095995545387268
1772556581273372000,4.375371826171875,-0.03899749740958214,1.1424946784973145,-0.25326159596443176
1772556581283356000,4.38535595703125,0.00937456265091896,1.2254489660263062,-0.244484081864357
1772556581293342200,4.39534228515625,0.06471318751573563,1.2650120258331299,-0.21573419868946075
1772556581303326000,4.405325927734375,0.13391804695129395,1.262518286705017,-0.18952634930610657
1772556581313307400,4.415307373046875,0.21268050372600555,1.2848535776138306,-0.14791151881217957
1772556581323291400,4.42529150390625,0.2887793481349945,1.3178998231887817,-0.1049543246626854
1772556581333275400,4.435275390625,0.3481827676296234,1.320802092552185,-0.07419507950544357
1772556581343259400,4.44525927734375,0.3994944989681244,1.2762234210968018,-0.06588805466890335
1772556581353243400,4.455243408203125,0.44178470969200134,1.1841877698898315,-0.06577380746603012
1772556581363228400,4.465228515625,0.4588358402252197,1.083799958229065,-0.05029382184147835
1772556581373212400,4.47521240234375,0.47609952092170715,0.9890207052230835,-0.0012266742996871471
1772556581383196400,4.485196533203125,0.4768611788749695,0.8918302655220032,0.09966228157281876
1772556581393180400,4.495180419921875,0.4885644316673279,0.7887989282608032,0.2305513322353363
1772556581403164400,4.505164306640625,0.5247904658317566,0.6426363587379456,0.4057166874408722
1772556581413149400,4.5151494140625,0.5365837812423706,0.5656949877738953,0.5714049339294434
1772556581423133400,4.525133544921875,0.5433076024055481,0.5604495406150818,0.6913195252418518
1772556581433117400,4.535117431640625,0.5332019925117493,0.5712108016014099,0.7693166136741638
1772556581443101400,4.545101318359375,0.5040202140808105,0.5802956223487854,0.8034244775772095
1772556581453085400,4.55508544921875,0.45110851526260376,0.6048363447189331,0.8046865463256836
1772556581463070500,4.565070556640625,0.3970356285572052,0.6394774913787842,0.8100086450576782
1772556581473054500,4.575054443359375,0.3747708201408386,0.7064235210418701,0.8223885893821716
1772556581483038500,4.58503857421875,0.3747277855873108,0.7692121267318726,0.8264613151550293
1772556581493022500,4.5950224609375,0.3900492191314697,0.7957640886306763,0.8166800737380981
1772556581503006500,4.60500634765625,0.38186711072921753,0.8333078026771545,0.8106521368026733
1772556581512991500,4.614991455078125,0.3817001283168793,0.9603126049041748,0.8394894003868103
1772556581522975500,4.6249755859375,0.32265597581863403,1.1422510147094727,0.8511316776275635
1772556581532959500,4.63495947265625,0.25246313214302063,1.193053960800171,0.8358817100524902
1772556581542943500,4.644943603515625,0.13989748060703278,1.1243009567260742,0.8192758560180664
1772556581552928500,4.654928466796875,0.035473600029945374,1.0590558052062988,0.8128552436828613
1772556581562912500,4.66491259765625,-0.01089717261493206,1.0848926305770874,0.8118263483047485
1772556581572896500,4.674896484375,0.006480752490460873,1.141714096069336,0.8114284873008728
1772556581582880300,4.68488037109375,0.021505529060959816,1.3206539154052734,0.8441805839538574
1772556581592864300,4.6948642578125,-0.04609562084078789,1.6078225374221802,0.9238783717155457
1772556581602849500,4.704849609375,-0.19209705293178558,1.8148491382598877,0.9844772219657898
1772556581612833300,4.714833251953125,-0.4522266387939453,1.7707679271697998,0.9369792342185974
1772556581622817300,4.7248173828125,-0.8204013109207153,1.3276294469833374,0.7517055869102478
1772556581632801300,4.73480126953125,-1.176964521408081,0.6106313467025757,0.49426180124282837
1772556581642785300,4.744785400390625,-1.3294689655303955,-0.028575550764799118,0.2982639670372009
1772556581652770300,4.754770263671875,-1.2340960502624512,-0.42924734950065613,0.18726740777492523
1772556581662754300,4.76475439453125,-1.0487920045852661,-0.6571081876754761,0.13860082626342773
1772556581672738300,4.77473828125,-0.8343643546104431,-0.7437251210212708,0.1751260757446289
1772556581682722300,4.784722412109375,-0.571898877620697,-0.6623235940933228,0.25710976123809814
1772556581692706300,4.794706298828125,-0.27918684482574463,-0.5571391582489014,0.3518703579902649
1772556581702691300,4.80469140625,0.0418911874294281,-0.4133506119251251,0.4814309775829315
1772556581712675300,4.81467529296875,0.3524831533432007,-0.24227312207221985,0.6725724339485168
1772556581722659300,4.824659423828125,0.5418999791145325,-0.12565968930721283,0.8945080041885376
1772556581732643300,4.834643310546875,0.5670721530914307,-0.06562113016843796,1.1062111854553223
1772556581742627300,4.84462744140625,0.503095805644989,-0.05379916727542877,1.2449212074279785
1772556581752612400,4.8546123046875,0.4001563787460327,-0.07975007593631744,1.2765870094299316
1772556581762596400,4.864596435546875,0.2705446183681488,-0.07042944431304932,1.2047511339187622
1772556581772580400,4.874580322265625,0.11704188585281372,-0.010532022453844547,1.0355136394500732
1772556581782564400,4.884564453125,-0.06022699922323227,0.050980694591999054,0.775728702545166
1772556581792548400,4.89454833984375,-0.2365064173936844,0.09467145055532455,0.4499441683292389
1772556581802533400,4.904533447265625,-0.4012010097503662,0.12217265367507935,0.105146624147892
1772556581812517400,4.914517333984375,-0.5116540193557739,0.0861739069223404,-0.20935912430286407
1772556581822501400,4.92450146484375,-0.5685248970985413,-0.015394491143524647,-0.48579683899879456
1772556581832485400,4.9344853515625,-0.5850162506103516,-0.14041738212108612,-0.7332316637039185
1772556581842470400,4.944470458984375,-0.514455258846283,-0.07168463617563248,-0.9885699152946472
1772556581852454400,4.954454345703125,-0.4081762433052063,-0.17164985835552216,-1.1154823303222656
1772556581862438400,4.9644384765625,-0.3033466637134552,-0.22375501692295074,-1.222062110900879
1772556581872422400,4.97442236328125,-0.18517634272575378,-0.3052014112472534,-1.2530325651168823
1772556581882406400,4.984406494140625,-0.07737556844949722,-0.431186318397522,-1.2396600246429443
1772556581892391400,4.994391357421875,-0.0013793378602713346,-0.6306003928184509,-1.1972830295562744
1772556581902375400,5.00437548828125,0.06404925882816315,-0.8546468615531921,-1.1502810716629028
1772556581912359400,5.014359375,0.083663709461689,-1.106224775314331,-1.1165984869003296
1772556581922343200,5.02434326171875,0.09426440298557281,-1.3785876035690308,-1.0970805883407593
1772556581932327200,5.0343271484375,0.09125342965126038,-1.6003412008285522,-1.0826526880264282
1772556581942312400,5.0443125,0.06437347829341888,-1.7061456441879272,-1.0712541341781616
1772556581952296200,5.054296142578125,0.03386084362864494,-1.645782470703125,-1.0620486736297607
1772556581962280200,5.0642802734375,0.015840984880924225,-1.4315695762634277,-1.0662535429000854
1772556581972264200,5.07426416015625,0.010452876798808575,-1.1522321701049805,-1.0779472589492798
1772556581982248200,5.084248291015625,0.013739672489464283,-0.8881628513336182,-1.0953878164291382
1772556581992233200,5.094233154296875,0.012331926263868809,-0.6893999576568604,-1.0701652765274048
1772556582002217200,5.10421728515625,-0.00042126583866775036,-0.5418060421943665,-0.9487118721008301
1772556582012201200,5.114201171875,-0.04621671512722969,-0.4146992266178131,-0.7455366849899292
1772556582022185200,5.124185302734375,-0.09433359652757645,-0.3090638816356659,-0.4796643555164337
1772556582032169200,5.134169189453125,-0.12374607473611832,-0.2455487996339798,-0.2129269391298294
1772556582042154200,5.144154296875,-0.13348343968391418,-0.3040291666984558,0.029716696590185165
1772556582052138200,5.15413818359375,-0.11384423077106476,-0.46455466747283936,0.22182726860046387
1772556582062122200,5.164122314453125,-0.06292669475078583,-0.6441087126731873,0.33063703775405884
1772556582072106200,5.174106201171875,-0.004941429942846298,-0.8316884636878967,0.33677828311920166
1772556582082091300,5.18409130859375,0.03532447665929794,-1.0540671348571777,0.23472960293293
1772556582092075300,5.1940751953125,0.046231985092163086,-1.3085745573043823,0.057060811668634415
1772556582102059300,5.204059326171875,0.0010746510233730078,-1.514424204826355,-0.13178467750549316
1772556582112043300,5.214043212890625,-0.05370737239718437,-1.6491035223007202,-0.2760137617588043
1772556582122027500,5.224027587890625,-0.10848680883646011,-1.7117631435394287,-0.33977633714675903
1772556582132012300,5.23401220703125,-0.15724129974842072,-1.7143133878707886,-0.26566457748413086
1772556582141996300,5.243996337890625,-0.1959598809480667,-1.6038216352462769,-0.06459558755159378
1772556582151980300,5.253980224609375,-0.206959530711174,-1.4210190773010254,0.2193453162908554
1772556582161964500,5.263964599609375,-0.240120530128479,-1.2489227056503296,0.48113375902175903
1772556582171948500,5.273948486328125,-0.2887551784515381,-1.1287950277328491,0.630118191242218
1772556582181933300,5.283933349609375,-0.2835104465484619,-1.0569535493850708,0.6077910661697388
1772556582191917300,5.293917236328125,-0.22290274500846863,-1.218477725982666,0.334542453289032
1772556582201901300,5.3039013671875,-0.1449596881866455,-1.7299052476882935,-0.23169980943202972
1772556582211885600,5.313885498046875,-0.04949256032705307,-2.305938959121704,-0.9030491709709167
1772556582221869600,5.32386962890625,0.057048723101615906,-2.6367950439453125,-1.3822965621948242
1772556582231854300,5.333854248046875,0.1288486123085022,-2.7355268001556396,-1.5431139469146729
1772556582241838300,5.34383837890625,0.1326475590467453,-2.587271213531494,-1.4217665195465088
1772556582251822600,5.353822509765625,0.1274631768465042,-2.2114925384521484,-1.0643993616104126
1772556582261806600,5.363806640625,0.1400918960571289,-1.7545698881149292,-0.5650753378868103
1772556582271791400,5.373791259765625,0.15560214221477509,-1.3408139944076538,0.004266676027327776
1772556582281775400,5.383775390625,0.12137697637081146,-1.029758334159851,0.5293377637863159
1772556582291759400,5.39375927734375,0.04464491084218025,-0.7509269714355469,0.9152660369873047
1772556582301743400,5.403743408203125,-0.05068548396229744,-0.45478084683418274,1.0490493774414062
1772556582311728000,5.41372802734375,-0.09724659472703934,-0.09425540268421173,0.9857603907585144
1772556582321713200,5.423713134765625,-0.13974544405937195,0.26667800545692444,0.8125020861625671
1772556582331697200,5.433697265625,-0.20050732791423798,0.44248124957084656,0.5652033686637878
1772556582341681000,5.443680908203125,-0.23659536242485046,0.4438132345676422,0.3173709809780121
1772556582351665000,5.453664794921875,-0.22970256209373474,0.42447495460510254,0.1092771664261818
1772556582361649200,5.463649169921875,-0.2307015359401703,0.39884206652641296,-0.06940699368715286
1772556582371634000,5.473634033203125,-0.2423270344734192,0.3931410312652588,-0.22372359037399292
1772556582381618000,5.483617919921875,-0.2258322536945343,0.3999609351158142,-0.34475818276405334
1772556582391602000,5.493601806640625,-0.18454180657863617,0.36710870265960693,-0.42865708470344543
1772556582401586200,5.503586181640625,-0.129821315407753,0.3576433062553406,-0.48292991518974304
1772556582411571000,5.513571044921875,-0.06606337428092957,0.3629046380519867,-0.513750433921814
1772556582421555000,5.523554931640625,0.009565074928104877,0.2999810576438904,-0.5251820087432861
1772556582431539000,5.5335390625,0.09267008304595947,0.19799023866653442,-0.5107735395431519
1772556582441523200,5.543523193359375,0.16648682951927185,0.10260593146085739,-0.48689812421798706
1772556582451507200,5.553507080078125,0.22232399880886078,0.04422970488667488,-0.4554597735404968
1772556582461492000,5.563491943359375,0.2499937117099762,0.018446311354637146,-0.4381396472454071
1772556582471476000,5.57347607421875,0.2755312919616699,0.05173315852880478,-0.4298665225505829
1772556582481460000,5.5834599609375,0.29765841364860535,0.12124984711408615,-0.41140216588974
1772556582491444200,5.5934443359375,0.31724971532821655,0.18085244297981262,-0.3729945719242096
1772556582501428200,5.60342822265625,0.3211148679256439,0.16516172885894775,-0.2876293361186981
1772556582511413000,5.6134130859375,0.31269288063049316,0.08419657498598099,-0.16728559136390686
1772556582521397000,5.62339697265625,0.29211297631263733,-0.06198261305689812,-0.007667402271181345
1772556582531381200,5.63338134765625,0.2505146861076355,-0.18954509496688843,0.14792165160179138
1772556582541365200,5.643365234375,0.20218107104301453,-0.29881221055984497,0.2765013873577118
1772556582551349200,5.653349365234375,0.15705592930316925,-0.36400213837623596,0.34627965092658997
1772556582561334000,5.663333984375,0.1054982915520668,-0.3670195937156677,0.3787267804145813
1772556582571318300,5.673318359375,0.04613269865512848,-0.33582010865211487,0.38224267959594727
1772556582581302300,5.68330224609375,-0.01558656245470047,-0.27700483798980713,0.3693176507949829
1772556582591286300,5.693286376953125,-0.08211072534322739,-0.21511989831924438,0.3643564283847809
1772556582601271000,5.70327099609375,-0.15376797318458557,-0.1683843582868576,0.36506810784339905
1772556582611255300,5.71325537109375,-0.24144749343395233,-0.13944751024246216,0.36048561334609985
1772556582621239300,5.7232392578125,-0.3475642204284668,-0.13831616938114166,0.33715754747390747
1772556582631223300,5.733223388671875,-0.4434276521205902,-0.16111628711223602,0.2971475422382355
1772556582641207300,5.743207275390625,-0.5108566880226135,-0.1624564379453659,0.26168903708457947
1772556582651192000,5.753192138671875,-0.5488483309745789,-0.1521659791469574,0.23416048288345337
1772556582661176300,5.76317626953125,-0.5444085597991943,-0.1329282969236374,0.19994866847991943
1772556582671160300,5.773160400390625,-0.49669700860977173,-0.09966780990362167,0.1538648009300232
1772556582681144300,5.783144287109375,-0.40376609563827515,-0.08875797688961029,0.10560804605484009
1772556582691129000,5.793129150390625,-0.278702974319458,-0.11917313933372498,0.07810132205486298
1772556582701113300,5.80311328125,-0.14838282763957977,-0.1469653844833374,0.09425579011440277
1772556582711097000,5.81309716796875,-0.02498951554298401,-0.17321163415908813,0.16488148272037506
1772556582721081000,5.8230810546875,0.047388412058353424,-0.225424125790596,0.26326876878738403
1772556582731065000,5.833065185546875,0.02900008112192154,-0.3164863884449005,0.3395337164402008
1772556582741050000,5.843050048828125,-0.04845517501235008,-0.34589940309524536,0.34205538034439087
1772556582751034000,5.8530341796875,-0.1409102827310562,-0.34505411982536316,0.21530809998512268
1772556582761018000,5.86301806640625,-0.23410558700561523,-0.3377656638622284,-0.052081797271966934
1772556582771002000,5.873002197265625,-0.29484349489212036,-0.2978017330169678,-0.4358172118663788
1772556582780986000,5.882986083984375,-0.2946007251739502,-0.22420287132263184,-0.7844654321670532
1772556582790971100,5.89297119140625,-0.2175472229719162,-0.09869448095560074,-0.9539833664894104
1772556582800955100,5.902955078125,-0.09838658571243286,-0.04749128594994545,-0.9458452463150024
1772556582810939100,5.912939208984375,0.029476838186383247,-0.05738226696848869,-0.7832760214805603
1772556582820923100,5.922923095703125,0.13128052651882172,-0.1105082780122757,-0.5044785141944885
1772556582830908200,5.932908203125,0.17101462185382843,-0.17275060713291168,-0.19955798983573914
1772556582840892200,5.94289208984375,0.14071887731552124,-0.22791847586631775,0.03924661874771118
1772556582850876200,5.952876220703125,0.06498949229717255,-0.2631033658981323,0.15375030040740967
1772556582860860200,5.962860107421875,-0.0309565681964159,-0.2640216648578644,0.1610257476568222
1772556582870844200,5.97284423828125,-0.15207606554031372,-0.21974314749240875,0.1002793163061142
1772556582880829200,5.9828291015625,-0.2845396399497986,-0.12675529718399048,0.0032702628523111343
1772556582890813200,5.992813232421875,-0.38360098004341125,0.013988500460982323,-0.10935987532138824
1772556582900797200,6.002797119140625,-0.435556024312973,0.1491539627313614,-0.2175094485282898
1772556582910781200,6.01278125,-0.4395539462566376,0.24967923760414124,-0.3253059685230255
1772556582920766200,6.02276611328125,-0.3912825882434845,0.3065841495990753,-0.43906399607658386
1772556582930750200,6.032750244140625,-0.3143140375614166,0.29763084650039673,-0.5365580916404724
1772556582940734200,6.042734130859375,-0.21695639193058014,0.2241480052471161,-0.5929350852966309
1772556582950718200,6.05271826171875,-0.1217435821890831,0.1085798591375351,-0.590538740158081
1772556582960702200,6.0627021484375,-0.039193786680698395,-0.008357266895473003,-0.5488936305046082
1772556582970687200,6.072687255859375,0.011928785592317581,-0.10075963288545609,-0.4841340184211731
1772556582980671200,6.082671142578125,0.030835868790745735,-0.15888842940330505,-0.41760095953941345
1772556582990655200,6.0926552734375,0.028115449473261833,-0.19230391085147858,-0.35861915349960327
1772556583000639200,6.10263916015625,0.018367836251854897,-0.2225402593612671,-0.303165078163147
1772556583010624300,6.112624267578125,-0.009389759041368961,-0.2458314746618271,-0.24248524010181427
1772556583020608300,6.122608154296875,-0.05137201398611069,-0.26357975602149963,-0.18820402026176453
1772556583030592300,6.13259228515625,-0.09065976738929749,-0.24680474400520325,-0.1313772201538086
1772556583040576300,6.142576171875,-0.11596127599477768,-0.17830850183963776,-0.07260346412658691
1772556583050560300,6.152560302734375,-0.11810112744569778,-0.08025571703910828,-0.022137891501188278
1772556583060545300,6.162545166015625,-0.09868742525577545,0.04078216850757599,0.020797017961740494
1772556583070529300,6.172529296875,-0.0678219273686409,0.16490598022937775,0.04630663990974426
1772556583080513300,6.18251318359375,-0.028743257746100426,0.2824673354625702,0.0676957443356514
1772556583090497000,6.1924970703125,0.02497856132686138,0.36806318163871765,0.0889565572142601
1772556583100481000,6.20248095703125,0.08312572538852692,0.42233070731163025,0.10788535326719284
1772556583110466000,6.212466064453125,0.13454709947109222,0.42598190903663635,0.13159947097301483
1772556583120450000,6.222449951171875,0.1641380488872528,0.3855534791946411,0.15977269411087036
1772556583130434000,6.23243408203125,0.1759243905544281,0.3389154076576233,0.20793409645557404
1772556583140418000,6.24241796875,0.17026759684085846,0.3167363405227661,0.28316614031791687
1772556583150403000,6.252403076171875,0.15098285675048828,0.33753588795661926,0.4038715064525604
1772556583160387000,6.262386962890625,0.12346614897251129,0.4018200635910034,0.534670889377594
1772556583170371000,6.27237109375,0.09980369359254837,0.5061746835708618,0.635986328125
1772556583180355000,6.28235498046875,0.0760582983493805,0.6157461404800415,0.6934744119644165
1772556583190339000,6.292339111328125,0.06353585422039032,0.7375311851501465,0.7134417295455933
1772556583200324000,6.302323974609375,0.06409041583538055,0.8456403613090515,0.6933304071426392
1772556583210308000,6.31230810546875,0.07235686480998993,0.9272968769073486,0.6421087980270386
1772556583220292000,6.3222919921875,0.0734810158610344,0.9234996438026428,0.547028660774231
1772556583230276000,6.332276123046875,0.06395355612039566,0.8241685032844543,0.44777530431747437
1772556583240261000,6.34226123046875,0.0568559393286705,0.6721554398536682,0.3592483401298523
1772556583250245000,6.3522451171875,0.04817909374833107,0.5037443041801453,0.2901230454444885
1772556583260229000,6.36222900390625,0.03441089764237404,0.3681093454360962,0.2224237471818924
1772556583270213000,6.372213134765625,0.023194193840026855,0.2895548641681671,0.16465845704078674
1772556583280197000,6.382197021484375,0.008256977424025536,0.27934449911117554,0.13880036771297455
1772556583290182100,6.39218212890625,0.011275936849415302,0.32166212797164917,0.1806146502494812
1772556583300166100,6.402166259765625,0.04418361186981201,0.4192473888397217,0.31131646037101746
1772556583310153500,6.412153564453125,0.11286599934101105,0.5758212804794312,0.5234670639038086
1772556583320137500,6.422137451171875,0.1885564923286438,0.7366141676902771,0.7759658694267273
1772556583330122500,6.43212255859375,0.2575390338897705,0.8274897336959839,0.9927120208740234
1772556583340106500,6.4421064453125,0.3022214472293854,0.8465172052383423,1.09101402759552
1772556583350090500,6.452090576171875,0.3084801435470581,0.8332200646400452,1.0215656757354736
1772556583360074500,6.462074462890625,0.28820571303367615,0.7094204425811768,0.7685793042182922
1772556583370058500,6.47205859375,0.2571668326854706,0.405197411775589,0.329919695854187
1772556583380043500,6.48204345703125,0.21769122779369354,0.006361309438943863,-0.22984109818935394
1772556583390027500,6.492027587890625,0.15171220898628235,-0.3337957262992859,-0.7591369152069092
1772556583400011500,6.502011474609375,0.0893658697605133,-0.5816925764083862,-1.0766630172729492
1772556583409995500,6.51199560546875,0.07008085399866104,-0.6279104351997375,-1.096259355545044
1772556583419980500,6.52198046875,0.09707892686128616,-0.5177647471427917,-0.7979236245155334
1772556583429964500,6.531964599609375,0.16883914172649384,-0.3414640724658966,-0.2819540202617645
1772556583439948500,6.541948486328125,0.2828597128391266,-0.214524507522583,0.2619117200374603
1772556583449932500,6.5519326171875,0.3592255711555481,0.11692053079605103,0.7714458107948303
1772556583459916500,6.56191650390625,0.3086291551589966,0.5335908532142639,1.1914324760437012
1772556583469901600,6.571901611328125,0.18094950914382935,0.7761891484260559,1.4669197797775269
1772556583479885600,6.581885498046875,0.0661623626947403,0.82668536901474,1.5150032043457031
1772556583489869600,6.59186962890625,-0.00024861772544682026,0.7688286900520325,1.3604998588562012
1772556583499853600,6.601853515625,-0.03927021101117134,0.7124450206756592,1.108036994934082
1772556583509838600,6.611838623046875,-0.07508653402328491,0.7223730087280273,0.8455872535705566
1772556583519822600,6.621822509765625,-0.1180223748087883,0.7319284677505493,0.5878393054008484
1772556583529806600,6.631806640625,-0.16456589102745056,0.6432992815971375,0.3264492154121399
1772556583539790300,6.641790283203125,-0.2009497731924057,0.5866647362709045,0.06167282909154892
1772556583549774300,6.6517744140625,-0.2189817577600479,0.49124875664711,-0.21259841322898865
1772556583559759400,6.66175927734375,-0.22232283651828766,0.3694709539413452,-0.4545365869998932
1772556583569743400,6.671743408203125,-0.20506581664085388,0.2577822208404541,-0.6374770998954773
1772556583579727400,6.681727294921875,-0.15877124667167664,0.16123159229755402,-0.7405150532722473
1772556583589711400,6.69171142578125,-0.09580665081739426,0.02238849177956581,-0.7564181089401245
1772556583599696400,6.7016962890625,-0.03251415491104126,-0.014628284610807896,-0.7046523094177246
1772556583609680400,6.711680419921875,0.037860412150621414,-0.05742634832859039,-0.5801751017570496
1772556583619664400,6.721664306640625,0.07443686574697495,-0.08229611814022064,-0.4184277653694153
1772556583629648400,6.7316484375,0.0687403678894043,-0.04775625467300415,-0.24799586832523346
1772556583639632400,6.74163232421875,0.041749246418476105,0.02242971770465374,-0.09363063424825668
1772556583649617400,6.751617431640625,0.020156867802143097,0.09497769176959991,0.030855901539325714
1772556583659601400,6.761601318359375,0.012205321341753006,0.15198665857315063,0.11354032158851624
1772556583669585400,6.77158544921875,0.003080532420426607,0.20647120475769043,0.15922632813453674
1772556583679569400,6.7815693359375,-0.01938563957810402,0.25301578640937805,0.18401582539081573
1772556583689553400,6.791553466796875,-0.044696323573589325,0.28600648045539856,0.20388486981391907
1772556583699538400,6.801538330078125,-0.0602806881070137,0.3036580979824066,0.21691666543483734
1772556583709522400,6.8115224609375,-0.05483212694525719,0.33440694212913513,0.23850186169147491
1772556583719506400,6.82150634765625,-0.0454179085791111,0.38156792521476746,0.2708699703216553
1772556583729490400,6.831490478515625,-0.01564936153590679,0.4633762240409851,0.29790210723876953
1772556583739475500,6.841475341796875,0.05463024601340294,0.6334960460662842,0.3164762258529663
1772556583749459500,6.85145947265625,0.1456829309463501,0.9362386465072632,0.31935325264930725
1772556583759443500,6.861443359375,0.17464113235473633,1.1167970895767212,0.26748761534690857
1772556583769427500,6.871427490234375,0.1317533254623413,1.1169278621673584,0.2338220477104187
1772556583779411500,6.881411376953125,0.0650358647108078,1.0964553356170654,0.2653523087501526
1772556583789396500,6.891396484375,-0.02258346416056156,1.1186304092407227,0.3257235288619995
1772556583799380500,6.90138037109375,-0.14923644065856934,1.1846566200256348,0.36820849776268005
1772556583809364500,6.911364501953125,-0.2918732464313507,1.3047010898590088,0.34107327461242676
1772556583819348500,6.921348388671875,-0.35989516973495483,1.6936224699020386,0.22352245450019836
1772556583829333500,6.93133349609375,-0.46102845668792725,1.708234190940857,0.22394296526908875
1772556583839317500,6.9413173828125,-0.4888833463191986,1.8979345560073853,0.2656572461128235
1772556583849301500,6.951301513671875,-0.45750999450683594,2.2542874813079834,0.2629392147064209
1772556583859285500,6.961285400390625,-0.43013277649879456,2.407299041748047,0.1990320384502411
1772556583869269500,6.97126953125,-0.32936063408851624,2.587677478790283,0.06931053102016449
1772556583879254500,6.981254638671875,-0.18306951224803925,2.7665305137634277,-0.05290920287370682
1772556583889238500,6.991238525390625,-0.03555088862776756,2.8438374996185303,-0.13402563333511353
1772556583899222500,7.001222412109375,0.0629514679312706,2.651076555252075,-0.175765722990036
1772556583909206300,7.011206298828125,0.10639907419681549,2.1302003860473633,-0.205915629863739
1772556583919191600,7.021191650390625,0.13101308047771454,1.447590708732605,-0.18228575587272644
1772556583929175300,7.03117529296875,0.15021207928657532,0.7246948480606079,-0.10511480271816254
1772556583939159300,7.0411591796875,0.1607210338115692,0.049026716500520706,-0.018465114757418633
1772556583949143300,7.051143310546875,0.1971845030784607,-0.5014097690582275,0.06807297468185425
1772556583959127600,7.06112744140625,0.28400686383247375,-0.8387196660041809,0.16666072607040405
1772556583969112300,7.0711123046875,0.416210412979126,-0.9393035173416138,0.2601637840270996
1772556583979096300,7.081096435546875,0.5463332533836365,-0.823658287525177,0.32927659153938293
1772556583989080300,7.091080322265625,0.6184612512588501,-0.5662469863891602,0.34321129322052
1772556583999064300,7.101064208984375,0.5893975496292114,-0.2055305391550064,0.2796318829059601
1772556584009049300,7.11104931640625,0.4713548421859741,0.22293850779533386,0.15783381462097168
1772556584019033300,7.121033447265625,0.29922953248023987,0.6695653200149536,0.01775306463241577
1772556584029017300,7.131017333984375,0.1376187950372696,1.0867491960525513,-0.09520890563726425
1772556584039001300,7.14100146484375,-0.006362061016261578,1.4599496126174927,-0.17578241229057312
1772556584048985600,7.150985595703125,-0.1375935822725296,1.7724511623382568,-0.25316721200942993
1772556584058970400,7.160970458984375,-0.21505355834960938,2.0215981006622314,-0.34337130188941956
1772556584068954400,7.170954345703125,-0.254833459854126,2.2322537899017334,-0.45155075192451477
1772556584078938400,7.1809384765625,-0.2595698833465576,2.4013235569000244,-0.5908561944961548
1772556584088922600,7.190922607421875,-0.2346946746110916,2.4941751956939697,-0.724435031414032
1772556584098906600,7.20090673828125,-0.1911104917526245,2.468360662460327,-0.8197481036186218
1772556584108891400,7.210891357421875,-0.15299586951732635,2.3252553939819336,-0.8515353202819824
1772556584118875400,7.22087548828125,-0.1065087839961052,2.0685861110687256,-0.8377636671066284
1772556584128859400,7.230859375,-0.07436975836753845,1.6982524394989014,-0.7866315245628357
1772556584138843600,7.24084375,-0.05933193862438202,1.298279047012329,-0.7256214022636414
1772556584148828400,7.250828369140625,-0.07434923946857452,0.9081645011901855,-0.6430681943893433
1772556584158812400,7.2608125,-0.10551421344280243,0.597237229347229,-0.535146951675415
1772556584168796400,7.27079638671875,-0.1438876986503601,0.3587256073951721,-0.43312767148017883
1772556584178780700,7.28078076171875,-0.17312082648277283,0.1945817619562149,-0.3520432114601135
1772556584188764700,7.2907646484375,-0.19187667965888977,0.09219306707382202,-0.30782437324523926
1772556584198749400,7.30074951171875,-0.18678781390190125,0.046816058456897736,-0.29373592138290405
1772556584208733400,7.3107333984375,-0.15786562860012054,0.033272020518779755,-0.3124409019947052
1772556584218717700,7.3207177734375,-0.11580950766801834,0.03985154628753662,-0.3472146689891815
1772556584228701700,7.33070166015625,-0.061127886176109314,0.04935583472251892,-0.386743426322937
1772556584238686500,7.3406865234375,0.0007845419459044933,0.06925253570079803,-0.3977167010307312
1772556584248670500,7.35067041015625,0.062311019748449326,0.06539973616600037,-0.3730177581310272
1772556584258654700,7.36065478515625,0.11214794963598251,0.011323153972625732,-0.3190707862377167
1772556584268638700,7.370638671875,0.1572456657886505,-0.09857191890478134,-0.23550665378570557
1772556584278622500,7.38062255859375,0.19127875566482544,-0.24124795198440552,-0.12282398343086243
1772556584288607500,7.390607421875,0.2021055668592453,-0.3749828338623047,0.004732114728540182
1772556584298591500,7.400591552734375,0.1933569759130478,-0.45248880982398987,0.14187300205230713
1772556584308575500,7.410575439453125,0.16097772121429443,-0.4672113060951233,0.26288995146751404
1772556584318555600,7.4205556640625,0.11177537590265274,-0.4348101019859314,0.3616875112056732
1772556584328539600,7.43053955078125,0.06212686747312546,-0.3584543466567993,0.44026514887809753
1772556584338524700,7.440524658203125,0.03995158523321152,-0.2817663848400116,0.49259889125823975
1772556584348508700,7.4505087890625,0.052819713950157166,-0.2260032296180725,0.5220316052436829
1772556584358492700,7.46049267578125,0.09452083706855774,-0.19327808916568756,0.5324798822402954
1772556584368476400,7.470476318359375,0.13507306575775146,-0.18998321890830994,0.5266494154930115
1772556584378461700,7.480461669921875,0.14284062385559082,-0.22842951118946075,0.4745626747608185
1772556584388445400,7.490445556640625,0.10628660023212433,-0.2890598475933075,0.38709592819213867
1772556584398429400,7.500429443359375,0.02051532082259655,-0.3984032869338989,0.2779000699520111
1772556584408413400,7.510413330078125,-0.10312699526548386,-0.5718038082122803,0.19352658092975616
1772556584418397400,7.5203974609375,-0.2225613296031952,-0.768752932548523,0.16038690507411957
1772556584428382500,7.530382568359375,-0.27554652094841003,-0.9296180009841919,0.18715938925743103
1772556584438366500,7.540366455078125,-0.260091632604599,-0.9926201701164246,0.2711244821548462
1772556584448350500,7.5503505859375,-0.16167718172073364,-0.8813857436180115,0.39421072602272034
1772556584458334500,7.56033447265625,0.05473998561501503,-0.5373246669769287,0.5285170078277588
1772556584468319500,7.570319580078125,0.34777799248695374,-0.027386315166950226,0.6285962462425232
1772556584478303500,7.580303466796875,0.6219690442085266,0.5130476951599121,0.6367565393447876
1772556584488287500,7.59028759765625,0.7919759154319763,0.8977152109146118,0.5321832299232483
1772556584498271500,7.600271484375,0.8161100745201111,1.0539542436599731,0.4009672701358795
1772556584508255500,7.61025537109375,0.6959559917449951,0.9785776734352112,0.26602569222450256
1772556584518240500,7.620240478515625,0.46990859508514404,0.6157057881355286,0.10559530556201935
1772556584528224500,7.630224609375,0.19524720311164856,0.06907971203327179,-0.056960850954055786
1772556584538208500,7.64020849609375,-0.06209123507142067,-0.4129605293273926,-0.14900264143943787
1772556584548192500,7.650192626953125,-0.2930791676044464,-0.6345930099487305,-0.10693509131669998
1772556584558176500,7.660176513671875,-0.4332006573677063,-0.6844763159751892,-0.0037559326738119125
1772556584568161500,7.67016162109375,-0.4791998267173767,-0.5717908143997192,0.13222533464431763
1772556584578145500,7.6801455078125,-0.44874778389930725,-0.27846574783325195,0.2796672284603119
1772556584588129500,7.690129638671875,-0.3503863215446472,0.09553980082273483,0.4018557369709015
1772556584598113500,7.700113525390625,-0.20310284197330475,0.457467645406723,0.45623987913131714
1772556584608097500,7.71009765625,-0.0399131178855896,0.7314680814743042,0.4633212387561798
1772556584618082600,7.72008251953125,0.08272537589073181,0.9400669932365417,0.4399276077747345
1772556584628066600,7.730066650390625,0.1187739223241806,1.069185733795166,0.39999085664749146
1772556584638050600,7.740050537109375,0.08056566119194031,1.1210911273956299,0.3386729061603546
1772556584648034600,7.75003466796875,-0.03242028132081032,1.0764176845550537,0.2622508406639099
1772556584658019600,7.76001953125,-0.16539369523525238,0.9232377409934998,0.1538952738046646
1772556584668003600,7.770003662109375,-0.2694369852542877,0.6718579530715942,0.01104543823748827
1772556584677987600,7.779987548828125,-0.3189120292663574,0.3140788674354553,-0.15906889736652374
1772556584687971600,7.7899716796875,-0.32311370968818665,-0.06900911778211594,-0.33147528767585754
1772556584697955600,7.79995556640625,-0.30008819699287415,-0.4161427319049835,-0.4699571430683136
1772556584707940600,7.809940673828125,-0.26360076665878296,-0.7290028929710388,-0.5860267877578735
1772556584717924600,7.819924560546875,-0.18956713378429413,-0.9770427346229553,-0.6764706969261169
1772556584727908600,7.82990869140625,-0.08738216757774353,-1.1072497367858887,-0.7338689565658569
1772556584737892400,7.839892333984375,0.026680905371904373,-1.1108198165893555,-0.7267320156097412
1772556584747876400,7.84987646484375,0.1201874166727066,-1.0257015228271484,-0.677061140537262
1772556584757861600,7.859861572265625,0.19367116689682007,-0.8777516484260559,-0.6015665531158447
1772556584767845400,7.869845458984375,0.2314009666442871,-0.6897165179252625,-0.5035494565963745
1772556584777829400,7.879829345703125,0.23333537578582764,-0.47029033303260803,-0.39016225934028625
1772556584787813400,7.8898134765625,0.18975646793842316,-0.24691584706306458,-0.2742180824279785
1772556584797797400,7.89979736328125,0.11051928997039795,-0.0024486330803483725,-0.20751941204071045
1772556584807782400,7.909782470703125,0.013993282802402973,0.27609750628471375,-0.19924497604370117
1772556584817766400,7.919766357421875,-0.07684386521577835,0.5650737285614014,-0.24981749057769775
1772556584827750400,7.92975048828125,-0.15646865963935852,0.8349073529243469,-0.34695789217948914
1772556584837734400,7.939734375,-0.2247600108385086,1.0464357137680054,-0.4820740222930908
1772556584847719400,7.949719482421875,-0.27583837509155273,1.163238286972046,-0.6292051672935486
1772556584857703400,7.959703369140625,-0.30450186133384705,1.164718508720398,-0.7453985810279846
1772556584867687400,7.9696875,-0.3151249289512634,1.0664585828781128,-0.7935367822647095
1772556584877671400,7.97967138671875,-0.30193206667900085,0.8858067393302917,-0.7463536262512207
1772556584887655400,7.989655517578125,-0.25170430541038513,0.6057164669036865,-0.6199293732643127
1772556584897638700,7.999638671875,-0.17800381779670715,0.2866540551185608,-0.44061046838760376
1772556584907622700,8.00962255859375,-0.06547994911670685,-0.02974933385848999,-0.172262042760849
1772556584917606700,8.019606689453125,0.05924520269036293,-0.27943480014801025,0.06352651119232178
1772556584927590700,8.029590576171875,0.16567069292068481,-0.4278494715690613,0.27210578322410583
1772556584937574400,8.039574462890625,0.24476312100887299,-0.5120988488197327,0.3961739242076874
1772556584947559700,8.0495595703125,0.2952099144458771,-0.529918909072876,0.4552170932292938
1772556584957543700,8.059543701171876,0.304779976606369,-0.5173165202140808,0.4656827747821808
1772556584967527400,8.06952734375,0.28475141525268555,-0.47820526361465454,0.4411464035511017
1772556584977511400,8.079511474609374,0.23629361391067505,-0.43233418464660645,0.4039481580257416
1772556584987495400,8.089495361328124,0.16773547232151031,-0.37514132261276245,0.35125523805618286
1772556584997480400,8.09948046875,0.07746044546365738,-0.25594356656074524,0.2803419232368469
1772556585007464400,8.10946435546875,-0.012527387589216232,-0.07515779137611389,0.2041727751493454
1772556585017448400,8.119448486328125,-0.08683996647596359,0.12811942398548126,0.13220271468162537
1772556585027432400,8.129432373046875,-0.13503478467464447,0.31670182943344116,0.08464859426021576
1772556585037416400,8.13941650390625,-0.13184484839439392,0.47505900263786316,0.08563796430826187
1772556585047401500,8.1494013671875,-0.0555858314037323,0.5907466411590576,0.1515747755765915
1772556585057385500,8.159385498046875,0.029095232486724854,0.5080685615539551,0.23924364149570465
1772556585067369500,8.169369384765625,0.061616744846105576,0.304313987493515,0.39237892627716064
1772556585077353500,8.179353515625,0.1030677780508995,0.11878087371587753,0.535951554775238
1772556585087338500,8.18933837890625,0.13222533464431763,-0.08128338307142258,0.6353724598884583
1772556585097322500,8.199322509765626,0.050460170954465866,-0.3785041272640228,0.6596876382827759
1772556585107306500,8.209306396484376,-0.13352863490581512,-0.6573320031166077,0.6247109174728394
1772556585117290500,8.21929052734375,-0.2941119074821472,-0.8759833574295044,0.5477461218833923
1772556585127274500,8.2292744140625,-0.370464026927948,-1.060736894607544,0.4544025957584381
1772556585137259500,8.239259521484374,-0.3378051519393921,-1.1468170881271362,0.363998681306839
1772556585147243500,8.249243408203125,-0.21678680181503296,-1.1285364627838135,0.26794904470443726
1772556585157227500,8.2592275390625,-0.06784765422344208,-0.9975703954696655,0.17126218974590302
1772556585167211500,8.26921142578125,0.04312368109822273,-0.7699081301689148,0.09769194573163986
1772556585177195500,8.279195556640625,0.08416751772165298,-0.48441725969314575,0.03032888099551201
1772556585187180500,8.2891806640625,0.056375324726104736,-0.14960291981697083,-0.014593807980418205
1772556585197164500,8.29916455078125,-0.015407520346343517,0.16427645087242126,-0.030890222638845444
1772556585207148500,8.3091484375,-0.11573604494333267,0.3985818326473236,-0.06311190873384476
1772556585217132500,8.319132568359375,-0.23772241175174713,0.5620178580284119,-0.08544570952653885
1772556585227116500,8.329116455078125,-0.34814703464508057,0.6460728645324707,-0.11090758442878723
1772556585237101600,8.3391015625,-0.4188310503959656,0.6454227566719055,-0.13297507166862488
1772556585247085600,8.34908544921875,-0.4636170268058777,0.5616194009780884,-0.16520600020885468
1772556585257069600,8.359069580078126,-0.48038801550865173,0.4311622977256775,-0.1900748759508133
1772556585267053600,8.369053466796874,-0.4797529876232147,0.2612352967262268,-0.19866028428077698
1772556585277037300,8.379037353515624,-0.4528297483921051,0.051168352365493774,-0.17332723736763
1772556585287022600,8.389022705078125,-0.4124940037727356,-0.18108834326267242,-0.12343353778123856
1772556585297006600,8.399006591796875,-0.35536280274391174,-0.40268945693969727,-0.038874708116054535
1772556585306990300,8.408990234375,-0.2898269593715668,-0.6058825254440308,0.0695047527551651
1772556585316978000,8.41897802734375,-0.226185142993927,-0.7712933421134949,0.18293331563472748
1772556585326962000,8.4289619140625,-0.18356230854988098,-0.8675708770751953,0.30057287216186523
1772556585336947000,8.438947021484376,-0.15936942398548126,-0.8927168846130371,0.4002302289009094
1772556585346931000,8.448930908203126,-0.14668585360050201,-0.8657007217407227,0.45761364698410034
1772556585356915000,8.4589150390625,-0.1410873532295227,-0.7925615310668945,0.46801435947418213
1772556585366899000,8.46889892578125,-0.1341431736946106,-0.6760023832321167,0.4525727927684784
1772556585376883000,8.478883056640624,-0.12469878792762756,-0.5216019749641418,0.4145761728286743
1772556585386868000,8.488867919921875,-0.10762792080640793,-0.33169838786125183,0.3623683750629425
1772556585396852000,8.49885205078125,-0.09411245584487915,-0.1280161291360855,0.3166586756706238
1772556585406836000,8.5088359375,-0.09860174357891083,0.05175177752971649,0.27138999104499817
1772556585416820000,8.518820068359375,-0.10921445488929749,0.18930861353874207,0.22811508178710938
1772556585426804000,8.528803955078125,-0.1275833398103714,0.2789019048213959,0.19190700352191925
1772556585436789000,8.5387890625,-0.13921110332012177,0.328071266412735,0.18440282344818115
1772556585446773000,8.54877294921875,-0.13902920484542847,0.3216839134693146,0.20611611008644104
1772556585456757000,8.558757080078125,-0.12257805466651917,0.2613023817539215,0.2606089413166046
1772556585466741000,8.568740966796875,-0.10066954791545868,0.17577388882637024,0.3377074599266052
1772556585476725000,8.57872509765625,-0.0676150843501091,0.10823054611682892,0.431486040353775
1772556585486710000,8.5887099609375,-0.024238314479589462,0.06893746554851532,0.5263651013374329
1772556585496694000,8.598694091796874,0.025540724396705627,0.056789759546518326,0.6028354167938232
1772556585506678000,8.608677978515624,0.05125913769006729,0.06444980949163437,0.6506367325782776
1772556585516661800,8.618661865234374,0.06129811704158783,0.061709463596343994,0.6686082482337952
1772556585526647000,8.62864697265625,0.04314335063099861,0.009114963002502918,0.6593854427337646
1772556585536631000,8.638631103515625,-0.0012658683117479086,-0.10332462191581726,0.6091153621673584
1772556585546614800,8.64861474609375,-0.06363736838102341,-0.26412948966026306,0.5269914269447327
1772556585556598800,8.658598876953125,-0.13010747730731964,-0.45087960362434387,0.40510743856430054
1772556585566583000,8.6685830078125,-0.20381392538547516,-0.6309199333190918,0.25526362657546997
1772556585576567800,8.67856787109375,-0.27996721863746643,-0.7735905051231384,0.08220991492271423
1772556585586551800,8.6885517578125,-0.318632572889328,-0.8238861560821533,-0.057665955275297165
1772556585596535800,8.698535888671875,-0.2862914204597473,-0.7695494294166565,-0.14827068150043488
1772556585606520000,8.70852001953125,-0.15159539878368378,-0.6117770671844482,-0.15758615732192993
1772556585616504000,8.718504150390626,0.09168379753828049,-0.3425513505935669,-0.05458207428455353
1772556585626488800,8.72848876953125,0.37818828225135803,-0.06871821731328964,0.13310927152633667
1772556585636472800,8.738472900390626,0.6309641003608704,0.14905454218387604,0.318498432636261
1772556585646456800,8.748456787109374,0.8452225923538208,0.3298056721687317,0.46178051829338074
1772556585656441000,8.758441162109374,0.9729009866714478,0.4099419414997101,0.5511857867240906
1772556585666425000,8.768425048828124,0.904381275177002,0.19771385192871094,0.520379364490509
1772556585676409900,8.778409912109375,0.6247320175170898,-0.22095446288585663,0.3466889560222626
1772556585686393900,8.788393798828125,0.22197496891021729,-0.6344315409660339,0.11783712357282639
1772556585696378000,8.798378173828125,-0.1808180809020996,-0.9020933508872986,-0.09565117210149765
1772556585706362000,8.808362060546875,-0.5118122696876526,-0.9937614798545837,-0.25976261496543884
1772556585716346000,8.81834619140625,-0.7569745182991028,-0.9709653854370117,-0.3597106635570526
1772556585726331000,8.828330810546875,-0.8573136925697327,-0.8439887762069702,-0.4029654562473297
1772556585736315100,8.838315185546875,-0.8299451470375061,-0.6214406490325928,-0.39409297704696655
1772556585746299100,8.848299072265625,-0.7076407670974731,-0.32476818561553955,-0.34549081325531006
1772556585756283100,8.858283203125,-0.5220770835876465,0.009046102873980999,-0.26872551441192627
1772556585766267100,8.86826708984375,-0.3085022270679474,0.3256871700286865,-0.17143385112285614
1772556585776252000,8.878251953125,-0.10592447966337204,0.5806639790534973,-0.07401642948389053
1772556585786236200,8.888236083984374,0.038020968437194824,0.7056501507759094,-0.010652368888258934
1772556585796220200,8.89822021484375,0.09987469017505646,0.7622154355049133,0.011056670919060707
1772556585806204200,8.9082041015625,0.09087932854890823,0.7519569396972656,0.019894637167453766
1772556585816188200,8.918188232421874,0.034234412014484406,0.6655481457710266,-0.00665161432698369
1772556585826173200,8.928173095703125,-0.04119136929512024,0.5379177927970886,-0.06706995517015457
1772556585836157200,8.9381572265625,-0.07938572019338608,0.4101608395576477,-0.13254190981388092
1772556585846141200,8.94814111328125,-0.05960855260491371,0.31795021891593933,-0.2092617154121399
1772556585856125000,8.958125,-0.00893695279955864,0.25932085514068604,-0.2743428647518158
1772556585866109000,8.96810888671875,0.07976841926574707,0.2334141880273819,-0.3303651213645935
1772556585876094200,8.97809423828125,0.19043275713920593,0.220383420586586,-0.36823973059654236
1772556585886078000,8.988077880859375,0.28053468465805054,0.19774867594242096,-0.39410489797592163
1772556585896062000,8.99806201171875,0.33415552973747253,0.15976639091968536,-0.4031093418598175
1772556585906046000,9.0080458984375,0.34926870465278625,0.133828267455101,-0.3920404314994812
1772556585916030000,9.018030029296876,0.31568968296051025,0.11572365462779999,-0.36768561601638794
1772556585926015000,9.028014892578126,0.25005632638931274,0.1024818867444992,-0.33312925696372986
1772556585935999000,9.0379990234375,0.1604275107383728,0.09212183207273483,-0.3224084973335266
1772556585945983000,9.04798291015625,0.05998586118221283,0.10125168412923813,-0.33434078097343445
1772556585955967000,9.057967041015624,-0.016942698508501053,0.12611524760723114,-0.3662445843219757
1772556585965951000,9.067950927734374,-0.06500263512134552,0.17560823261737823,-0.4063563048839569
1772556585975936000,9.07793603515625,-0.08145049214363098,0.24700497090816498,-0.42061781883239746
1772556585985920000,9.087919921875,-0.061869069933891296,0.2908131778240204,-0.42516303062438965
1772556585995904000,9.097904052734375,-0.008327856659889221,0.3015352785587311,-0.4109945595264435
1772556586005888000,9.107887939453125,0.06125042214989662,0.28390756249427795,-0.37083008885383606
1772556586015872000,9.1178720703125,0.1249818354845047,0.218608096241951,-0.309090256690979
1772556586025857000,9.12785693359375,0.1643553376197815,0.14731499552726746,-0.21261191368103027
1772556586035841000,9.137841064453125,0.1839361935853958,0.07245443761348724,-0.10993008315563202
1772556586045825000,9.147824951171875,0.17127685248851776,-0.01940757781267166,-0.007872950285673141
1772556586055809000,9.15780908203125,0.14019787311553955,-0.11018700152635574,0.08200357854366302
1772556586065793000,9.16779296875,0.10736989229917526,-0.20260187983512878,0.16940027475357056
1772556586075778000,9.177778076171874,0.06700450927019119,-0.285386860370636,0.2669702172279358
1772556586085762000,9.187761962890624,0.03641810268163681,-0.35264843702316284,0.3501836061477661
1772556586095746000,9.19774609375,0.019363313913345337,-0.39207276701927185,0.3881602883338928
1772556586105730000,9.20772998046875,0.004065584857016802,-0.38123610615730286,0.388711541891098
1772556586115714000,9.217714111328124,-0.012477891519665718,-0.27513349056243896,0.372575968503952
1772556586125699000,9.227698974609375,-0.03001374378800392,-0.11547750234603882,0.33366718888282776
1772556586135683000,9.23768310546875,-0.0604119598865509,0.04242599755525589,0.2728888988494873
1772556586145667000,9.2476669921875,-0.09432225674390793,0.1532617062330246,0.207546666264534
1772556586155651000,9.257651123046875,-0.12113825231790543,0.2360263615846634,0.15231576561927795
1772556586165635000,9.267635009765625,-0.11760397255420685,0.3525468409061432,0.13236522674560547
1772556586175620000,9.2776201171875,-0.10840640217065811,0.46059849858283997,0.12326943874359131
1772556586185604000,9.28760400390625,-0.15503622591495514,0.42636170983314514,0.08031877130270004
1772556586195588000,9.297588134765626,-0.2675879895687103,0.2584722936153412,-0.018440725281834602
1772556586205571800,9.30757177734375,-0.3642577826976776,0.06478247046470642,-0.08338377624750137
1772556586215555800,9.317555908203126,-0.45251646637916565,-0.20793591439723969,-0.19469788670539856
1772556586225541000,9.327541015625,-0.5617451667785645,-0.704941987991333,-0.3706212341785431
1772556586235524900,9.33752490234375,-0.6142677664756775,-1.1322113275527954,-0.49229612946510315
1772556586245508900,9.3475087890625,-0.5684811472892761,-1.4575854539871216,-0.5289318561553955
1772556586255492900,9.357492919921874,-0.39800766110420227,-1.6919186115264893,-0.5054840445518494
1772556586265476900,9.367476806640624,-0.14402467012405396,-1.789141297340393,-0.4106428027153015
1772556586275460900,9.3774609375,0.13504371047019958,-1.6621872186660767,-0.24773447215557098
1772556586285446000,9.38744580078125,0.3837435245513916,-1.491809368133545,-0.13443562388420105
1772556586295430000,9.397429931640625,0.5737197399139404,-1.1603726148605347,-0.018224647268652916
1772556586305414000,9.407413818359375,0.6334775686264038,-0.6482528448104858,0.13419020175933838
1772556586315395300,9.417395263671875,0.561495304107666,-0.0794590562582016,0.2863716781139374
1772556586325379300,9.42737939453125,0.4058001935482025,0.38465481996536255,0.37732794880867004
1772556586335364400,9.4373642578125,0.21694104373455048,0.7169772982597351,0.39413538575172424
1772556586345348400,9.447348388671875,0.014705389738082886,0.9597292542457581,0.34142422676086426
1772556586355332400,9.457332275390625,-0.14997035264968872,1.154066562652588,0.22845351696014404
1772556586365316400,9.46731640625,-0.2716158330440521,1.290128469467163,0.07347218692302704
1772556586375300400,9.47730029296875,-0.3364831805229187,1.373531699180603,-0.10955829173326492
1772556586385285400,9.487285400390626,-0.33637747168540955,1.371153712272644,-0.2856278717517853
1772556586395269400,9.497269287109376,-0.2864265441894531,1.2609614133834839,-0.4346453547477722
1772556586405253400,9.50725341796875,-0.22867563366889954,1.005491852760315,-0.5367341041564941
1772556586415237400,9.5172373046875,-0.1893201768398285,0.6065244078636169,-0.5882662534713745
1772556586425221400,9.527221435546876,-0.18930207192897797,0.13106891512870789,-0.5815843343734741
1772556586435206400,9.537206298828124,-0.20663587749004364,-0.3057548701763153,-0.49370554089546204
1772556586445190400,9.5471904296875,-0.2373863309621811,-0.6553930044174194,-0.3670825958251953
1772556586455174400,9.55717431640625,-0.28126585483551025,-0.9247000217437744,-0.23518869280815125
1772556586465158400,9.567158447265625,-0.3303883969783783,-1.0891451835632324,-0.11489369720220566
1772556586475142400,9.577142333984375,-0.35788485407829285,-1.0973026752471924,-0.0033143372274935246
1772556586485127400,9.58712744140625,-0.3673694431781769,-0.9513553380966187,0.08061917871236801
1772556586495111400,9.597111328125,-0.34783610701560974,-0.7156593799591064,0.12315603345632553
1772556586505095400,9.607095458984375,-0.2991255521774292,-0.42270663380622864,0.10711421817541122
1772556586515079400,9.617079345703125,-0.23837551474571228,-0.11582145094871521,0.05476982891559601
1772556586525063400,9.6270634765625,-0.18803006410598755,0.16841134428977966,-0.009952441789209843
1772556586535047400,9.63704736328125,-0.15219184756278992,0.3980076313018799,-0.06277069449424744
1772556586545032400,9.647032470703126,-0.1403471827507019,0.5496488213539124,-0.09472569823265076
1772556586555016400,9.657016357421876,-0.1437087506055832,0.6332764029502869,-0.10336506366729736
1772556586565000200,9.667000244140626,-0.14356201887130737,0.6524556875228882,-0.08311624825000763
1772556586574984200,9.676984130859376,-0.14727650582790375,0.6148451566696167,-0.02514629252254963
1772556586584968400,9.686968505859374,-0.13350076973438263,0.5478693246841431,0.047575317323207855
1772556586594953200,9.696953125,-0.09851396828889847,0.47718846797943115,0.13989374041557312
1772556586604937200,9.706937255859375,-0.05612177774310112,0.4158281981945038,0.2179773449897766
1772556586614921200,9.716921142578125,-0.011158982291817665,0.3632049262523651,0.2719653844833374
1772556586624905500,9.726905517578125,0.03279968723654747,0.2905328571796417,0.29843878746032715
1772556586634889500,9.736889404296875,0.05772261321544647,0.19735845923423767,0.30533158779144287
1772556586644874200,9.746874267578125,0.06856568902730942,0.07595288753509521,0.29745784401893616
1772556586654858200,9.756858154296875,0.07033786177635193,-0.07315313071012497,0.28183242678642273
1772556586664842200,9.76684228515625,0.07025104016065598,-0.22481001913547516,0.2615838944911957
1772556586674826500,9.776826416015625,0.09791973233222961,-0.3798770308494568,0.2318849116563797
1772556586684810500,9.786810546875,0.1287551373243332,-0.5284169912338257,0.1839197874069214
1772556586694795300,9.796795166015626,0.14242176711559296,-0.6871643662452698,0.1193462535738945
1772556586704779300,9.806779296875,0.1336703598499298,-0.8224648833274841,0.054862868040800095
1772556586714763500,9.816763427734376,0.10918960720300674,-0.9106285572052002,0.0011515698861330748
1772556586724747500,9.82674755859375,0.09713613986968994,-0.9484933614730835,-0.024171363562345505
1772556586734731500,9.8367314453125,0.12708723545074463,-0.926176130771637,0.0036906814202666283
1772556586744716300,9.84671630859375,0.20730537176132202,-0.8117241263389587,0.0906548723578453
1772556586754700500,9.856700439453125,0.3383457362651825,-0.5693533420562744,0.23719657957553864
1772556586764684500,9.8666845703125,0.521413266658783,-0.18196113407611847,0.4122680127620697
1772556586774668500,9.87666845703125,0.6902680993080139,0.1690371036529541,0.5286926031112671
1772556586784652500,9.886652587890625,0.7848235964775085,0.38874974846839905,0.538546085357666
1772556586794637600,9.896637451171875,0.7921815514564514,0.551199734210968,0.5031318664550781
1772556586804621600,9.90662158203125,0.7278620004653931,0.5952654480934143,0.43579864501953125
1772556586814605600,9.91660546875,0.5507310628890991,0.381817489862442,0.2874131500720978
1772556586824589600,9.926589599609375,0.2656002640724182,-0.019699838012456894,0.09217521548271179
1772556586834573600,9.936573486328125,-0.04564927890896797,-0.43515756726264954,-0.08905746787786484
1772556586844557600,9.9465576171875,-0.319670170545578,-0.7654289603233337,-0.2304159253835678
1772556586854542600,9.95654248046875,-0.5030432343482971,-0.9675345420837402,-0.2999563217163086
1772556586864526600,9.966526611328124,-0.5542710423469543,-0.9876781105995178,-0.29373306035995483
1772556586874510600,9.976510498046874,-0.5050606727600098,-0.8456300497055054,-0.22570016980171204
1772556586884494300,9.986494384765624,-0.3886789083480835,-0.5847539305686951,-0.1251453310251236
1772556586894478300,9.996478271484374,-0.231011301279068,-0.24745503067970276,-0.02279014140367508
1772556586904463600,10.006463623046875,-0.06356345117092133,0.11548295617103577,0.06710007041692734
1772556586914447400,10.016447265625,0.08516310155391693,0.45803600549697876,0.13953010737895966
1772556586924431400,10.026431396484375,0.17688263952732086,0.7365504503250122,0.18367572128772736
1772556586934415400,10.036415283203125,0.1976684331893921,0.9287307858467102,0.1955343633890152
1772556586944399400,10.0463994140625,0.13787034153938293,1.0060075521469116,0.1657029688358307
1772556586954384400,10.05638427734375,0.025958670303225517,0.9770955443382263,0.10886716842651367
1772556586964368400,10.066368408203125,-0.11541096866130829,0.8962451219558716,0.04735134541988373
1772556586974352400,10.076352294921875,-0.2529905140399933,0.806725025177002,-0.01894022338092327
1772556586984336400,10.08633642578125,-0.3513929843902588,0.7293290495872498,-0.09478731453418732
1772556586994320400,10.0963203125,-0.40191197395324707,0.687744140625,-0.15879037976264954
1772556587004305400,10.106305419921876,-0.4000040888786316,0.6513986587524414,-0.1967920958995819
1772556587014289400,10.116289306640626,-0.3648792803287506,0.6149353981018066,-0.22743229568004608
1772556587024273400,10.1262734375,-0.2904205024242401,0.5441770553588867,-0.2516212463378906
1772556587034257400,10.13625732421875,-0.172611802816391,0.45489194989204407,-0.27861323952674866
1772556587044241400,10.146241455078124,-0.03882391005754471,0.3655119836330414,-0.2920060157775879
1772556587054225400,10.156225341796874,0.07774604111909866,0.2743492126464844,-0.3010443449020386
1772556587064210400,10.16621044921875,0.15785817801952362,0.20065395534038544,-0.3067222237586975
1772556587074194400,10.1761943359375,0.1856483817100525,0.14642001688480377,-0.316191703081131
1772556587084178400,10.186178466796875,0.17155493795871735,0.12068749219179153,-0.3194311857223511
1772556587094162400,10.196162353515625,0.1031852588057518,0.10568957030773163,-0.3244117200374603
1772556587104146400,10.206146484375,0.004711952060461044,0.10410872101783752,-0.3378641605377197
1772556587114131500,10.21613134765625,-0.10688655078411102,0.09134654700756073,-0.3622642457485199
1772556587124115500,10.226115478515625,-0.20730477571487427,0.06586915254592896,-0.39382219314575195
1772556587134099500,10.236099365234375,-0.2676015794277191,0.011424340307712555,-0.4307365417480469
1772556587144083500,10.24608349609375,-0.28173336386680603,-0.06875598430633545,-0.4693441092967987
1772556587154067500,10.2560673828125,-0.257235586643219,-0.138595849275589,-0.4925599992275238
1772556587164052500,10.266052490234374,-0.20857085287570953,-0.19710123538970947,-0.5035881400108337
1772556587174036500,10.276036376953124,-0.13996408879756927,-0.2441369742155075,-0.4913339912891388
1772556587184020500,10.2860205078125,-0.07098022103309631,-0.28148701786994934,-0.44817933440208435
1772556587194004200,10.296004150390624,0.0018563433550298214,-0.30031177401542664,-0.36108720302581787
1772556587203988200,10.30598828125,0.06548459082841873,-0.30755186080932617,-0.23097392916679382
1772556587213972200,10.31597216796875,0.12116102129220963,-0.3118690252304077,-0.07118207216262817
1772556587223957200,10.325957275390625,0.15472057461738586,-0.31167328357696533,0.08788906782865524
1772556587233941200,10.335941162109375,0.1599915325641632,-0.34356489777565,0.22537748515605927
1772556587243925200,10.34592529296875,0.13985484838485718,-0.38189712166786194,0.31592124700546265
1772556587253909200,10.3559091796875,0.10553096234798431,-0.39364093542099,0.36795538663864136
1772556587263893200,10.365893310546875,0.07120388746261597,-0.34461960196495056,0.382133811712265
1772556587273878300,10.375878173828125,0.04239151254296303,-0.21625831723213196,0.37175214290618896
1772556587283862300,10.3858623046875,0.02446763962507248,-0.04912685230374336,0.3441479504108429
1772556587293846300,10.39584619140625,0.002228325232863426,0.1252320259809494,0.2926099896430969
1772556587303830300,10.405830322265626,-0.014168491587042809,0.27585163712501526,0.2448565810918808
1772556587313814500,10.415814453125,-0.027205519378185272,0.3963555097579956,0.21535174548625946
1772556587323797500,10.425797607421876,-0.02862871252000332,0.474847674369812,0.20963287353515625
1772556587333782500,10.435782470703124,-0.02640550024807453,0.518923819065094,0.23346617817878723
1772556587343766500,10.4457666015625,0.0065878694877028465,0.610897421836853,0.2952515184879303
1772556587353750500,10.45575048828125,0.058561619371175766,0.7586377263069153,0.39774665236473083
1772556587363734500,10.465734619140624,0.07279142737388611,0.8303859829902649,0.4764188230037689
1772556587373718500,10.475718505859374,0.031975410878658295,0.7824168801307678,0.5043407678604126
1772556587383703600,10.48570361328125,-0.03671363741159439,0.6403238773345947,0.47306889295578003
1772556587393687600,10.4956875,-0.1292477250099182,0.3450089693069458,0.344366192817688
1772556587403671600,10.505671630859375,-0.25511592626571655,-0.10380981117486954,0.10350830107927322
1772556587413655600,10.515655517578125,-0.3730444312095642,-0.5664997696876526,-0.14850041270256042
1772556587423639600,10.5256396484375,-0.38480040431022644,-0.8853994607925415,-0.3269044756889343
1772556587433624600,10.53562451171875,-0.2709386646747589,-1.037966012954712,-0.3921319544315338
1772556587443608600,10.545608642578125,-0.061140406876802444,-1.0840685367584229,-0.377171128988266
1772556587453592600,10.555592529296876,0.19251643121242523,-1.027881383895874,-0.2884206473827362
1772556587463576600,10.56557666015625,0.4119395911693573,-0.8510808348655701,-0.1434703767299652
1772556587473560600,10.575560546875,0.5613771080970764,-0.5803148150444031,0.01713027060031891
1772556587483544600,10.585544677734376,0.6292784214019775,-0.28663575649261475,0.1603124588727951
1772556587493529600,10.595529541015624,0.6093782782554626,-0.035570308566093445,0.26888152956962585
1772556587503513600,10.605513671875,0.514980137348175,0.1544821858406067,0.32954487204551697
1772556587513497600,10.61549755859375,0.3808399438858032,0.3260793089866638,0.35246527194976807
1772556587523481600,10.625481689453125,0.2219805270433426,0.5042421221733093,0.34248480200767517
1772556587533465300,10.63546533203125,0.0828089490532875,0.6724424958229065,0.29975488781929016
1772556587543450600,10.64545068359375,-0.03228195756673813,0.8239862322807312,0.2183321863412857
1772556587553434600,10.6554345703125,-0.11187564581632614,0.9309770464897156,0.10499770194292068
1772556587563418400,10.66541845703125,-0.16010256111621857,0.9728331565856934,-0.030046936124563217
1772556587573402400,10.67540234375,-0.1836845725774765,0.9415274262428284,-0.15872353315353394
1772556587583386400,10.685386474609375,-0.18792246282100677,0.8064427971839905,-0.2704007923603058
1772556587593371400,10.695371337890625,-0.1859322339296341,0.548039972782135,-0.35202181339263916
1772556587603355400,10.70535546875,-0.17522446811199188,0.21025420725345612,-0.3969802260398865
1772556587613339400,10.71533935546875,-0.1465780884027481,-0.146994948387146,-0.38250890374183655
1772556587623323400,10.725323486328126,-0.1112256869673729,-0.486022025346756,-0.3278581500053406
1772556587633307400,10.735307373046876,-0.076692596077919,-0.7835129499435425,-0.24064220488071442
1772556587643291400,10.74529150390625,-0.061729367822408676,-1.0031359195709229,-0.1324041485786438
1772556587653276400,10.7552763671875,-0.06384078413248062,-1.1106895208358765,-0.030467664822936058
1772556587663260400,10.765260498046874,-0.07090668380260468,-1.0722302198410034,0.06450492143630981
1772556587673244400,10.775244384765625,-0.07374914735555649,-0.8874769806861877,0.14634230732917786
1772556587683228400,10.785228515625,-0.07545942813158035,-0.6158172488212585,0.1735086888074875
1772556587693212400,10.79521240234375,-0.07302393764257431,-0.3013142943382263,0.15313194692134857
1772556587703197400,10.805197509765625,-0.08131169527769089,0.05197318643331528,0.09169041365385056
1772556587713181400,10.815181396484375,-0.10764749348163605,0.3601691722869873,0.00034493952989578247
1772556587723165400,10.82516552734375,-0.13835319876670837,0.6034281253814697,-0.09583938121795654
1772556587733149400,10.8351494140625,-0.15953372418880463,0.7954142689704895,-0.17344553768634796
1772556587743133400,10.845133544921875,-0.17792046070098877,0.9168940782546997,-0.21147014200687408
1772556587753117400,10.855117431640625,-0.1741158813238144,0.9291935563087463,-0.22059696912765503
1772556587763102500,10.8651025390625,-0.1567816287279129,0.8641918897628784,-0.19581758975982666
1772556587773086500,10.87508642578125,-0.11472896486520767,0.765716552734375,-0.12792202830314636
1772556587783070500,10.885070556640626,-0.047712914645671844,0.6304884552955627,-0.03260296210646629
1772556587793054500,10.895054443359374,0.037897393107414246,0.44533753395080566,0.07050038874149323
1772556587803038700,10.905038818359374,0.11889344453811646,0.26308223605155945,0.17730194330215454
1772556587813023500,10.9150234375,0.18576037883758545,0.13863083720207214,0.2721036970615387
1772556587823007500,10.925007568359375,0.2367314100265503,0.05687791854143143,0.3322746455669403
1772556587832991500,10.934991455078125,0.26769986748695374,-0.002223067218437791,0.354126513004303
1772556587842975500,10.9449755859375,0.2645309865474701,-0.04417211189866066,0.3424949049949646
1772556587852959500,10.95495947265625,0.23362889885902405,-0.0882224515080452,0.2930985987186432
1772556587862943500,10.964943603515625,0.19480454921722412,-0.1550006866455078,0.22211681306362152
1772556587872928300,10.97492822265625,0.1437245011329651,-0.25943583250045776,0.12330783903598785
1772556587882912500,10.98491259765625,0.08935900032520294,-0.3657265901565552,0.012162942439317703
1772556587892896500,10.994896484375,0.028010305017232895,-0.467410683631897,-0.11692319810390472
1772556587902880500,11.004880615234375,-0.031392037868499756,-0.5496363043785095,-0.24818186461925507
1772556587912864500,11.014864501953125,-0.07059568911790848,-0.5992519855499268,-0.3542954921722412
1772556587922849500,11.024849609375,-0.07330412417650223,-0.6212624311447144,-0.4170856177806854
1772556587932833500,11.03483349609375,-0.004373587667942047,-0.6110718846321106,-0.4007134437561035
1772556587942817500,11.044817626953124,0.122492216527462,-0.5905474424362183,-0.29514920711517334
1772556587952801500,11.054801513671874,0.2930901348590851,-0.5217488408088684,-0.09803658723831177
1772556587962785500,11.06478564453125,0.5106248259544373,-0.2923108637332916,0.1811644285917282
1772556587972769500,11.07476953125,0.7724650502204895,0.10053370893001556,0.4822952151298523
1772556587982754600,11.084754638671875,0.9781920909881592,0.4320663809776306,0.6890673637390137
1772556587992738600,11.094738525390625,1.0484358072280884,0.5977928638458252,0.7364417910575867
1772556588002722600,11.10472265625,0.9747669696807861,0.6516028642654419,0.6870872974395752
1772556588012706600,11.11470654296875,0.7850996851921082,0.5880324244499207,0.5546308755874634
1772556588022690600,11.124690673828125,0.5013731122016907,0.30511149764060974,0.3022220730781555
1772556588032675600,11.134675537109375,0.17424122989177704,-0.15240052342414856,-0.011935753747820854
1772556588042659600,11.14465966796875,-0.12289083749055862,-0.6373951435089111,-0.29683858156204224
1772556588052643600,11.1546435546875,-0.3767632842063904,-1.0863772630691528,-0.49612393975257874
1772556588062627600,11.164627685546876,-0.49896669387817383,-1.4124715328216553,-0.5898017287254333
1772556588072611600,11.174611572265626,-0.5026711225509644,-1.541770577430725,-0.5534495711326599
1772556588082595600,11.184595703125,-0.428206205368042,-1.4623693227767944,-0.40772274136543274
1772556588092580600,11.19458056640625,-0.28536778688430786,-1.1768267154693604,-0.19185255467891693
1772556588102564600,11.204564697265624,-0.10115664452314377,-0.7231752872467041,0.046858012676239014
1772556588112548600,11.214548583984374,0.09184721112251282,-0.17494416236877441,0.25583726167678833
1772556588122532600,11.22453271484375,0.2503007650375366,0.3591495752334595,0.40828725695610046
1772556588132516400,11.234516357421874,0.330613911151886,0.7883901596069336,0.4955330789089203
1772556588142501600,11.244501708984375,0.3103320896625519,1.0732380151748657,0.5117810368537903
1772556588152485600,11.254485595703125,0.178569957613945,1.2260262966156006,0.46972158551216125
1772556588162469400,11.264469482421875,-0.033873867243528366,1.2616814374923706,0.36412137746810913
1772556588172453400,11.274453369140625,-0.25961577892303467,1.2135438919067383,0.23047247529029846
1772556588182437400,11.284437255859375,-0.44155627489089966,1.1453170776367188,0.09718712419271469
1772556588192421400,11.29442138671875,-0.5637016296386719,1.072775959968567,-0.014831616543233395
1772556588202406400,11.304406494140625,-0.6271942853927612,0.9739825129508972,-0.11571668833494186
1772556588212390400,11.314390380859376,-0.637948751449585,0.8299591541290283,-0.2153729945421219
1772556588222374400,11.32437451171875,-0.5905330181121826,0.6706909537315369,-0.2956409454345703
1772556588232358400,11.3343583984375,-0.49423807859420776,0.5239386558532715,-0.3602648973464966
1772556588242342400,11.34434228515625,-0.3793141543865204,0.3923742473125458,-0.42619332671165466
1772556588252327400,11.354327392578124,-0.25451532006263733,0.2592974603176117,-0.4854509234428406
1772556588262311400,11.3643115234375,-0.14906637370586395,0.1239527016878128,-0.5327973961830139
1772556588272295400,11.37429541015625,-0.08103970438241959,-0.012584775686264038,-0.5586518049240112
1772556588282279400,11.384279541015625,-0.05157263204455376,-0.16205842792987823,-0.5520567893981934
1772556588292263400,11.394263427734375,-0.05419529601931572,-0.3017897307872772,-0.5168153047561646
1772556588302247400,11.404247314453125,-0.07780208438634872,-0.42051851749420166,-0.4439283013343811
1772556588312232400,11.414232421875,-0.1119110956788063,-0.506536066532135,-0.3534919023513794
1772556588322220500,11.424220458984376,-0.15050296485424042,-0.5413845777511597,-0.2641468346118927
1772556588332204500,11.43420458984375,-0.1780797392129898,-0.5228029489517212,-0.20229536294937134
1772556588342188500,11.4441884765625,-0.17789918184280396,-0.4462306499481201,-0.17598839104175568
1772556588352172500,11.454172607421874,-0.15640957653522491,-0.32456040382385254,-0.17048703134059906
1772556588362157600,11.464157470703125,-0.12250806391239166,-0.1815100461244583,-0.18731741607189178
1772556588372141600,11.4741416015625,-0.0956382304430008,-0.05634336918592453,-0.1908750832080841
1772556588382125600,11.48412548828125,-0.07476864755153656,0.03921404480934143,-0.17653848230838776
1772556588392109600,11.494109619140625,-0.05503278970718384,0.12479577213525772,-0.12043536454439163
1772556588402093600,11.504093505859375,-0.03321004658937454,0.18204522132873535,-0.036559097468853
1772556588412077300,11.514077392578125,-0.005780767183750868,0.20800435543060303,0.05151507258415222
1772556588422062600,11.5240625,0.012700505554676056,0.2076653242111206,0.1348981112241745
1772556588432046600,11.534046630859375,0.028894247487187386,0.17799314856529236,0.20905546844005585
1772556588442030300,11.5440302734375,0.029973359778523445,0.12495364248752594,0.2719803750514984
1772556588452014300,11.554014404296876,0.019529063254594803,0.047043025493621826,0.3215167820453644
1772556588461998300,11.563998291015626,0.004471549764275551,-0.06504728645086288,0.34981074929237366
1772556588471982600,11.573982666015626,-0.009905422106385231,-0.18189309537410736,0.3620033860206604
1772556588481967400,11.58396728515625,-0.024150671437382698,-0.2689787447452545,0.3616507649421692
1772556588491951400,11.593951416015624,-0.032417621463537216,-0.318345844745636,0.3449496328830719
1772556588501935400,11.603935302734374,-0.04388066381216049,-0.31906089186668396,0.3090108036994934
1772556588511919600,11.613919677734375,-0.053358688950538635,-0.3017461895942688,0.2707444727420807
1772556588521903600,11.623903564453125,-0.06713682413101196,-0.2736029624938965,0.2350085824728012
1772556588531888400,11.633888427734375,-0.07430093735456467,-0.21930046379566193,0.22114570438861847
1772556588541872400,11.643872314453125,-0.07615076750516891,-0.13456560671329498,0.23416750133037567
1772556588551856600,11.653856689453125,-0.06705018132925034,-0.03997403383255005,0.27602893114089966
1772556588561840600,11.663840576171875,-0.03741718828678131,0.08594847470521927,0.3505108952522278
1772556588571824600,11.67382470703125,0.021394608542323112,0.26155123114585876,0.46891525387763977
1772556588581808600,11.68380859375,0.06591680645942688,0.3808770775794983,0.5747522115707397
1772556588591793700,11.693793701171876,0.05440942570567131,0.37264305353164673,0.6366456151008606
1772556588601777700,11.703777587890626,0.0154135562479496,0.3091373145580292,0.6698538661003113
1772556588611761700,11.71376171875,-0.022854257375001907,0.24394148588180542,0.6574180722236633
1772556588621745700,11.72374560546875,-0.09319845587015152,0.08214887231588364,0.5573583245277405
1772556588631729700,11.733729736328126,-0.24254289269447327,-0.2234203964471817,0.35276439785957336
1772556588641713700,11.743713623046874,-0.43398502469062805,-0.5264492034912109,0.10232739895582199
1772556588651698700,11.75369873046875,-0.5794109106063843,-0.7465624809265137,-0.09719829261302948
1772556588661682700,11.7636826171875,-0.6322959661483765,-0.898730993270874,-0.23677295446395874
1772556588671666700,11.773666748046875,-0.5715056657791138,-1.017316460609436,-0.32697147130966187
1772556588681650700,11.783650634765625,-0.42076459527015686,-1.098522663116455,-0.35534822940826416
1772556588691634700,11.793634765625,-0.22934351861476898,-1.1021932363510132,-0.32423532009124756
1772556588701619700,11.80361962890625,-0.03935067355632782,-1.0201319456100464,-0.2605452835559845
1772556588711603700,11.813603759765625,0.10918346047401428,-0.8447862863540649,-0.17971841990947723
1772556588721587500,11.82358740234375,0.20764878392219543,-0.5931186676025391,-0.10293735563755035
1772556588731571500,11.833571533203125,0.2573491930961609,-0.2850920855998993,-0.026317395269870758
1772556588741555500,11.843555419921875,0.2557089328765869,0.035182856023311615,0.04860052466392517
1772556588751539500,11.85353955078125,0.21288448572158813,0.3166208267211914,0.1005520150065422
1772556588761524500,11.8635244140625,0.14692410826683044,0.5308833122253418,0.11988922953605652
1772556588771508500,11.873508544921876,0.07066985219717026,0.6686859130859375,0.10888298600912094
1772556588781492500,11.883492431640626,0.014414564706385136,0.7336180210113525,0.06895235180854797
1772556588791476500,11.8934765625,-0.028388839215040207,0.7447652220726013,0.017621073871850967
1772556588801460500,11.90346044921875,-0.05283266305923462,0.7107358574867249,-0.02889130264520645
1772556588811444500,11.913444580078124,-0.06376389414072037,0.6305334568023682,-0.06466570496559143
1772556588821429500,11.923429443359375,-0.07759129256010056,0.49142885208129883,-0.08624769002199173
1772556588831413500,11.93341357421875,-0.09557400643825531,0.2967548072338104,-0.10396398603916168
1772556588841397500,11.9433974609375,-0.12578943371772766,0.06771282851696014,-0.10747536271810532
1772556588851381500,11.953381591796875,-0.1665121614933014,-0.1641409993171692,-0.09049887210130692
1772556588861365500,11.963365478515625,-0.2073003351688385,-0.36825230717658997,-0.05706101655960083
1772556588871350500,11.9733505859375,-0.23078830540180206,-0.53221595287323,-0.012223799712955952
1772556588881334500,11.98333447265625,-0.22247444093227386,-0.6405472159385681,0.021664127707481384
1772556588891318500,11.993318603515625,-0.19666965305805206,-0.6930705904960632,0.04562510550022125
1772556588901302500,12.003302490234375,-0.1593143492937088,-0.6806628704071045,0.06087065860629082
1772556588911286500,12.01328662109375,-0.11528483778238297,-0.606866180896759,0.06016997992992401
1772556588921270500,12.0232705078125,-0.07811293005943298,-0.49141982197761536,0.03541594743728638
1772556588931255600,12.033255615234374,-0.0609310157597065,-0.3361745774745941,-0.006725114304572344
1772556588941239600,12.043239501953124,-0.06305023282766342,-0.16034993529319763,-0.06573136895895004
1772556588951223600,12.0532236328125,-0.08198343962430954,0.021438492462038994,-0.12110088020563126
1772556588961207600,12.06320751953125,-0.1063983291387558,0.18674643337726593,-0.1745675653219223
1772556588971191600,12.073191650390624,-0.1258665770292282,0.3069671392440796,-0.20947468280792236
1772556588981176600,12.083176513671875,-0.12314633280038834,0.3886978328227997,-0.21564041078090668
1772556588991160600,12.09316064453125,-0.1012255847454071,0.4275994300842285,-0.18960267305374146
1772556589001144600,12.10314453125,-0.06456424295902252,0.4365401864051819,-0.1276138722896576
1772556589011128300,12.11312841796875,-0.008920954540371895,0.4314591586589813,-0.03460137918591499
1772556589021112300,12.1231123046875,0.04620887711644173,0.42097070813179016,0.060274239629507065
1772556589031096600,12.1330966796875,0.09354443848133087,0.42416250705718994,0.15749959647655487
1772556589041081300,12.143081298828125,0.1412353813648224,0.4400433897972107,0.24467933177947998
1772556589051065300,12.1530654296875,0.16794635355472565,0.4201250672340393,0.31281229853630066
1772556589061049300,12.16304931640625,0.17563676834106445,0.3406241834163666,0.35604041814804077
1772556589071033600,12.17303369140625,0.17074401676654816,0.20024549961090088,0.3766024112701416
1772556589081017600,12.183017578125,0.1503620743751526,0.03051975555717945,0.3809913396835327
1772556589091001600,12.193001708984376,0.11924809217453003,-0.12718677520751953,0.3722758889198303
1772556589100986400,12.202986328125,0.0714031308889389,-0.26789093017578125,0.33980607986450195
1772556589110970600,12.212970703125,0.013717726804316044,-0.3956499397754669,0.2724597752094269
1772556589120954600,12.22295458984375,-0.05159963667392731,-0.5264423489570618,0.18391317129135132
1772556589130938600,12.232938720703125,-0.0957748219370842,-0.6518918871879578,0.08771155029535294
1772556589140922600,12.242922607421875,-0.08698558807373047,-0.7432934641838074,0.008115790784358978
1772556589150906600,12.25290673828125,-0.0027077277190983295,-0.6995353102684021,-0.026783602312207222
1772556589160891600,12.2628916015625,0.11038246750831604,-0.5774641633033752,-0.06053723394870758
1772556589170875600,12.272875732421875,0.22156518697738647,-0.4604584872722626,-0.14198574423789978
1772556589180859600,12.282859619140625,0.2860337197780609,-0.4061827063560486,-0.27631741762161255
1772556589190843600,12.29284375,0.23486614227294922,-0.4976210296154022,-0.44721779227256775
1772556589200827600,12.30282763671875,0.05979808419942856,-0.6621303558349609,-0.5835294127464294
1772556589210811600,12.312811767578125,-0.20017437636852264,-0.8528531789779663,-0.6645308136940002
1772556589220796700,12.322796630859376,-0.475811243057251,-1.0366343259811401,-0.679367184638977
1772556589230780700,12.33278076171875,-0.6833316683769226,-1.1416388750076294,-0.6331394910812378
1772556589240764700,12.3427646484375,-0.7711924314498901,-1.120275616645813,-0.5346865653991699
1772556589250748700,12.352748779296874,-0.7481624484062195,-0.9538665413856506,-0.3911781311035156
1772556589260732700,12.362732666015624,-0.6358178853988647,-0.6648297309875488,-0.2249133437871933
1772556589270717700,12.3727177734375,-0.4545535743236542,-0.2901064455509186,-0.054858796298503876
1772556589280701700,12.38270166015625,-0.23599009215831757,0.13013160228729248,0.10714638233184814
1772556589290685700,12.392685791015625,-0.03996332734823227,0.4963698089122772,0.2319173514842987
