time,seconds_elapsed,z,y,x
1772650326255764000,-0.005236083984375,-0.15530791878700256,0.0036650835536420345,-0.0787992998957634
1772650326265641200,0.00464111328125,0.012369656935334206,-0.10918894410133362,-0.10964708030223846
1772650326275518500,0.0145185546875,0.0856713280081749,-0.028098974376916885,-0.1501157134771347
1772650326285395700,0.024395751953125,0.06276455521583557,0.05390727147459984,-0.16156910359859467
1772650326295273000,0.03427294921875,0.07467607408761978,0.04199574887752533,-0.13270656764507294
1772650326305150200,0.044150146484375,0.07559234648942947,0.06902574002742767,-0.07452336698770523
1772650326315027500,0.05402734375,0.06948387622833252,0.14965757727622986,0.012216945178806782
1772650326324904700,0.06390478515625,0.042606595903635025,0.21975229680538177,0.09208522737026215
1772650326334782000,0.073781982421875,0.05329642444849014,0.20722992718219757,0.12094775587320328
1772650326344659000,0.083658935546875,0.06749862432479858,0.18142163753509521,0.1044548824429512
1772650326354536200,0.0935361328125,0.06551336497068405,0.16874656081199646,0.07391251623630524
1772650326413799700,0.152799560546875,-0.032222192734479904,-0.11835165321826935,-0.04031591862440109
1772650326433554200,0.17255419921875,-0.02901524491608143,-0.13682979345321655,-0.05360184609889984
1772650326443431400,0.182431396484375,-0.018783552572131157,-0.130721315741539,-0.05864133685827255
1772650326453308400,0.192308349609375,-0.006719320081174374,-0.11972606182098389,-0.06368082761764526
1772650326463185700,0.202185546875,0.0010689827613532543,-0.1056765764951706,-0.06429167091846466
1772650326473063000,0.21206298828125,0.005955760832875967,-0.08964183181524277,-0.05329642444849014
1772650326482940200,0.221940185546875,0.009009997360408306,-0.07650861889123917,-0.040010496973991394
1772650326492817400,0.2318173828125,0.01252236869186163,-0.06062658876180649,-0.03145863488316536
1772650326502694700,0.241694580078125,0.019088976085186005,-0.032222192734479904,-0.02489202655851841
1772650326512572000,0.251572021484375,0.030389651656150818,-0.0015271181473508477,-0.01710372418165207
1772650326522449200,0.26144921875,0.046729814261198044,0.021990500390529633,-0.008704573847353458
1772650326532326400,0.271326416015625,0.056961506605148315,0.038636088371276855,0.0029015245381742716
1772650326542203600,0.28120361328125,0.06139015033841133,0.04688252881169319,0.018783552572131157
1772650326552081000,0.291080810546875,0.059557609260082245,0.053143709897994995,0.03527642786502838
1772650326561958000,0.3009580078125,0.058335911482572556,0.05619794875383377,0.04016320779919624
1772650326571835100,0.310835205078125,0.05894676223397255,0.05925218388438225,0.03588727489113808
1772650326581712400,0.32071240234375,0.058183200657367706,0.06276455521583557,0.031000498682260513
1772650326591589600,0.330589599609375,0.051616594195365906,0.05238015204668045,0.025502873584628105
1772650326601467000,0.340466796875,0.03771981969475746,0.03023693896830082,0.017714571207761765
1772650326611344100,0.35034423828125,0.027946261689066887,0.023975754156708717,0.01710372418165207
1772650326621221400,0.360221435546875,0.01954711228609085,0.01725643500685692,0.015423892997205257
1772650326631098600,0.3700986328125,0.01588202826678753,0.008704573847353458,0.012980503961443901
1772650326640975600,0.3799755859375,0.01588202826678753,0.0024433890357613564,0.011147962883114815
1772650326650852900,0.389852783203125,0.02214321307837963,-0.0006108472589403391,0.011147962883114815
1772650326660730000,0.399730224609375,0.029320668429136276,-0.0006108472589403391,0.008704573847353458
1772650326670607400,0.409607421875,0.02993151545524597,0.0006108472589403391,0.004428642801940441
1772650326680484600,0.419484619140625,0.023364907130599022,-0.018630841746926308,-0.010231691412627697
1772650326690361900,0.42936181640625,0.02076880633831024,-0.018019994720816612,-0.01695101149380207
1772650326700239000,0.439239013671875,0.016492875292897224,-0.016798298805952072,-0.016340164467692375
1772650326710116400,0.449116455078125,0.009773556143045425,-0.019241688773036003,-0.013285927474498749
1772650326719993600,0.45899365234375,0.00916270911693573,-0.011300674639642239,-0.012675080448389053
1772650326729870800,0.468870849609375,0.012675080448389053,-0.0015271181473508477,-0.012216945178806782
1772650326739747800,0.478747802734375,0.017561858519911766,0.010842538438737392,-0.005497625097632408
1772650326749625000,0.488625,0.02351761981844902,0.024433890357613564,0.0024433890357613564
1772650326759502300,0.49850244140625,0.02901524491608143,0.03802524134516716,0.007941014133393764
1772650326769379600,0.508379638671875,0.025961007922887802,0.02886253222823143,0.0036650835536420345
1772650326779256800,0.5182568359375,0.014049487188458443,-0.006413896102458239,-0.009620844386518002
1772650326789134000,0.528134033203125,0.004275931045413017,-0.01252236869186163,-0.011453386396169662
1772650326799011300,0.53801123046875,-0.009009997360408306,-0.03268032893538475,-0.010078979656100273
1772650326808888300,0.547888427734375,-0.018630841746926308,-0.04321744292974472,-0.010689826682209969
1772650326818765600,0.557765625,-0.024128466844558716,-0.03955236077308655,-0.015576604753732681
1772650326828642800,0.567642822265625,-0.025502873584628105,-0.0390942245721817,-0.021685076877474785
1772650326838520000,0.57752001953125,-0.021837789565324783,-0.038483377546072006,-0.02229592576622963
1772650326848397300,0.587397216796875,-0.01817270554602146,-0.030389651656150818,-0.014965757727622986
1772650326858274600,0.597274658203125,-0.01572931744158268,-0.025961007922887802,-0.008246437646448612
1772650326868151800,0.60715185546875,-0.010842538438737392,-0.018019994720816612,-0.004734066314995289
1772650326878029000,0.617029052734375,-0.006719320081174374,-0.006261184345930815,-0.0004581354442052543
1772650326887906300,0.62690625,-0.0030542362947016954,0.0012216945178806782,0.004428642801940441
1772650326897783300,0.636783203125,-0.0024433890357613564,0.006719320081174374,0.009315420873463154
1772650326907660500,0.64666064453125,-0.0006108472589403391,0.007330167107284069,0.011147962883114815
1772650326917537800,0.656537841796875,0.0024433890357613564,0.007330167107284069,0.010537114925682545
1772650326927415000,0.6664150390625,0.00916270911693573,0.008551862090826035,0.0068720318377017975
1772650326937292300,0.676292236328125,0.012675080448389053,0.00916270911693573,0.001985253533348441
1772650326947169500,0.68616943359375,0.012675080448389053,0.004734066314995289,-0.006108472589403391
1772650326957046800,0.696046875,0.010842538438737392,-0.0009162708884105086,-0.012216945178806782
1772650326966923800,0.705923828125,0.007788302376866341,-0.003970507066696882,-0.018936265259981155
1772650326976801000,0.715801025390625,0.0016798300202935934,-0.009620844386518002,-0.026877280324697495
1772650326986678300,0.72567822265625,-0.001374406274408102,-0.023823043331503868,-0.03405473381280899
1772650326996555500,0.735555419921875,-0.005497625097632408,-0.034818295389413834,-0.037108972668647766
1772650327006432800,0.745432861328125,-0.008399149402976036,-0.0397050715982914,-0.033443886786699295
1772650327016310000,0.75531005859375,-0.011453386396169662,-0.04031591862440109,-0.026571854948997498
1772650327026187300,0.765187255859375,-0.0065666078589856625,-0.030389651656150818,-0.021837789565324783
1772650327036064300,0.775064208984375,-0.004275931045413017,-0.020005248486995697,-0.01695101149380207
1772650327045941500,0.78494140625,-0.0024433890357613564,-0.010078979656100273,-0.010842538438737392
1772650327055818800,0.79481884765625,-0.0006108472589403391,-0.0032069480512291193,-0.0065666078589856625
1772650327065696000,0.804696044921875,-0.0006108472589403391,-0.00015271181473508477,-0.0029015245381742716
1772650327075573200,0.8145732421875,-0.0012216945178806782,-0.0007635590736754239,-0.0022906772792339325
1772650327085450500,0.824450439453125,-0.004886778071522713,-0.008093725889921188,-0.0010689827613532543
1772650327095327700,0.83432763671875,-0.010231691412627697,-0.01847812905907631,0.002748812548816204
1772650327105205000,0.844205078125,-0.01252236869186163,-0.01847812905907631,0.005803049076348543
1772650327115082000,0.85408203125,-0.013896775431931019,-0.021685076877474785,0.0009162708884105086
1772650327124959200,0.863959228515625,-0.013285927474498749,-0.02107422985136509,-0.005803049076348543
1772650327134836500,0.87383642578125,-0.012064233422279358,-0.021226942539215088,-0.01511846948415041
1772650327144713700,0.883713623046875,-0.012675080448389053,-0.024281177669763565,-0.01511846948415041
1772650327154591000,0.893591064453125,-0.01511846948415041,-0.02351761981844902,-0.008857285603880882
1772650327164468200,0.90346826171875,-0.017409147694706917,-0.029626091942191124,0.0015271181473508477
1772650327174345500,0.913345458984375,-0.014813045971095562,-0.0331384651362896,0.008246437646448612
1772650327184222500,0.923222412109375,-0.005650337319821119,-0.03436015918850899,0.010078979656100273
1772650327194099700,0.933099609375,0.004734066314995289,-0.03497100621461868,0.0015271181473508477
1772650327203977000,0.94297705078125,0.016187451779842377,-0.03145863488316536,-0.012675080448389053
1772650327213854200,0.952854248046875,0.017714571207761765,-0.028557108715176582,-0.024281177669763565
1772650327223731500,0.9627314453125,0.00916270911693573,-0.030542362481355667,-0.028557108715176582
1772650327233608700,0.972608642578125,-0.0029015245381742716,-0.03665083646774292,-0.026571854948997498
1772650327243486000,0.98248583984375,-0.009009997360408306,-0.037108972668647766,-0.02351761981844902
1772650327253363000,0.992363037109375,-0.01252236869186163,-0.0462716780602932,-0.019241688773036003
1772650327263240200,1.002240234375,-0.01435491070151329,-0.051769305020570755,-0.018019994720816612
1772650327273117400,1.012117431640625,-0.013133215717971325,-0.05375456064939499,-0.02107422985136509
1772650327282994700,1.02199462890625,-0.013133215717971325,-0.054365407675504684,-0.022906772792339325
1772650327292872000,1.031871826171875,-0.013744063675403595,-0.05008947476744652,-0.021685076877474785
1772650327302749200,1.041749267578125,-0.014965757727622986,-0.0462716780602932,-0.018019994720816612
1772650327312626200,1.051626220703125,-0.013133215717971325,-0.04199574887752533,-0.013744063675403595
1772650327322503400,1.06150341796875,-0.009468132629990578,-0.041232191026210785,-0.007024743594229221
1772650327332380700,1.071380615234375,-0.007482878863811493,-0.040010496973991394,-0.00030542362947016954
1772650327342258000,1.0812578125,-0.004428642801940441,-0.03497100621461868,0.003970507066696882
1772650327352135200,1.09113525390625,-0.002748812548816204,-0.027029991149902344,0.006413896102458239
1772650327362012400,1.101012451171875,-0.0015271181473508477,-0.02092151902616024,0.00519220158457756
1772650327371889400,1.110889404296875,-0.0016798300202935934,-0.01725643500685692,0.00519220158457756
1772650327381766700,1.1207666015625,0.00015271181473508477,-0.016034740954637527,0.005803049076348543
1772650327391644000,1.130643798828125,0.001985253533348441,-0.014813045971095562,0.007635590620338917
1772650327401521200,1.140521240234375,0.0015271181473508477,-0.01588202826678753,0.008246437646448612
1772650327411398400,1.1503984375,-0.0016798300202935934,-0.017867282032966614,0.006413896102458239
1772650327421275600,1.160275634765625,-0.004581354558467865,-0.023975754156708717,0.003970507066696882
1772650327431152600,1.170152587890625,-0.008857285603880882,-0.028404397889971733,-0.0009162708884105086
1772650327441030000,1.18002978515625,-0.012064233422279358,-0.025350160896778107,-0.007024743594229221
1772650327450907100,1.1899072265625,-0.006719320081174374,-0.018019994720816612,-0.013896775431931019
1772650327460784400,1.199784423828125,-0.004886778071522713,-0.014965757727622986,-0.014507622458040714
1772650327470661600,1.20966162109375,-0.006719320081174374,-0.014965757727622986,-0.009009997360408306
1772650327480539000,1.219538818359375,-0.005344913341104984,-0.011147962883114815,0.0007635590736754239
1772650327490415900,1.229415771484375,-0.007177455350756645,-0.0068720318377017975,0.0068720318377017975
1772650327500293000,1.239293212890625,-0.007788302376866341,-0.0030542362947016954,0.007482878863811493
1772650327510170400,1.24917041015625,-0.0038177953101694584,0.007941014133393764,0.0038177953101694584
1772650327520047600,1.259047607421875,-0.0015271181473508477,0.019394399598240852,-0.0024433890357613564
1772650327529924900,1.2689248046875,-0.002748812548816204,0.02244863659143448,-0.006719320081174374
1772650327539802000,1.278802001953125,-0.007024743594229221,0.02367033064365387,-0.005497625097632408
1772650327549679000,1.28867919921875,-0.010689826682209969,0.023212196305394173,0.0012216945178806782
1772650327559556400,1.298556396484375,-0.012369656935334206,0.013438640162348747,0.0068720318377017975
1772650327569433600,1.30843359375,-0.012216945178806782,0.00916270911693573,0.011147962883114815
1772650327579310800,1.318310791015625,-0.011606098152697086,0.005497625097632408,0.011147962883114815
1772650327589188000,1.32818798828125,-0.007941014133393764,0,0.007482878863811493
1772650327599065300,1.3380654296875,-0.006719320081174374,-0.0038177953101694584,0.00259610079228878
1772650327608942300,1.3479423828125,-0.0024433890357613564,-0.005803049076348543,-0.0065666078589856625
1772650327618819600,1.357819580078125,0.0012216945178806782,-0.003359660040587187,-0.012064233422279358
1772650327628696800,1.36769677734375,0.005344913341104984,-0.003359660040587187,-0.013896775431931019
1772650327638574000,1.377573974609375,0.008399149402976036,-0.0009162708884105086,-0.011453386396169662
1772650327648451300,1.387451416015625,0.004886778071522713,-0.001374406274408102,-0.005344913341104984
1772650327658328600,1.39732861328125,-0.0006108472589403391,-0.0050394898280501366,-0.0029015245381742716
1772650327668205600,1.40720556640625,-0.004886778071522713,-0.009315420873463154,-0.004734066314995289
1772650327678082800,1.417082763671875,-0.004734066314995289,-0.016187451779842377,-0.007788302376866341
1772650327687960000,1.4269599609375,-0.0022906772792339325,-0.02107422985136509,-0.011453386396169662
1772650327697837300,1.43683740234375,-0.0016798300202935934,-0.02901524491608143,-0.013133215717971325
1772650327707714600,1.446714599609375,-0.003970507066696882,-0.03512371703982353,-0.010689826682209969
1772650327717591800,1.456591796875,-0.007024743594229221,-0.038788799196481705,-0.005803049076348543
1772650327727468800,1.46646875,-0.009315420873463154,-0.042453885078430176,-0.002748812548816204
1772650327737346000,1.476345947265625,-0.007635590620338917,-0.03817795217037201,-0.00030542362947016954
1772650327747223300,1.486223388671875,-0.0021379655227065086,-0.0325276181101799,0.0015271181473508477
1772650327757100500,1.4961005859375,0.004581354558467865,-0.023975754156708717,0.0009162708884105086
1772650327766977800,1.505977783203125,0.007482878863811493,-0.017867282032966614,0.004581354558467865
1772650327776855000,1.51585498046875,0.008093725889921188,-0.015423892997205257,0.005803049076348543
1772650327786732000,1.52573193359375,0.010537114925682545,-0.015423892997205257,0.004428642801940441
1772650327796609300,1.535609375,0.012980503961443901,-0.01847812905907631,0.0007635590736754239
1772650327806486500,1.545486572265625,0.01847812905907631,-0.020310672000050545,-0.004123218823224306
1772650327816363800,1.55536376953125,0.02214321307837963,-0.02351761981844902,-0.008399149402976036
1772650327826241000,1.565240966796875,0.02092151902616024,-0.02473931387066841,-0.012675080448389053
1772650327836118000,1.575117919921875,0.02214321307837963,-0.03023693896830082,-0.009009997360408306
1772650327845995300,1.584995361328125,0.024128466844558716,-0.0325276181101799,-0.0015271181473508477
1772650327855872500,1.59487255859375,0.02473931387066841,-0.03008422814309597,0.008246437646448612
1772650327865749800,1.604749755859375,0.022906772792339325,-0.02626643143594265,0.013133215717971325
1772650327875627000,1.614626953125,0.01817270554602146,-0.03298575058579445,0.011300674639642239
1772650327885504000,1.62450390625,0.01511846948415041,-0.038636088371276855,0.004581354558467865
1772650327895381200,1.63438134765625,0.009620844386518002,-0.04428642615675926,-0.005803049076348543
1772650327905258500,1.644258544921875,0.003970507066696882,-0.04810422286391258,-0.013744063675403595
1772650327915135700,1.6541357421875,0.0015271181473508477,-0.05115845799446106,-0.017409147694706917
1772650327925013000,1.664012939453125,0.0004581354442052543,-0.0584886260330677,-0.018019994720816612
1772650327934890200,1.67389013671875,0.0024433890357613564,-0.06948387622833252,-0.01847812905907631
1772650327944767200,1.683767333984375,0.005497625097632408,-0.06948387622833252,-0.01847812905907631
1772650327954644500,1.69364453125,0.007788302376866341,-0.0659715011715889,-0.024128466844558716
1772650327964521700,1.703521728515625,0.010689826682209969,-0.05986303091049194,-0.027793550863862038
1772650327974399000,1.71339892578125,0.01252236869186163,-0.053143709897994995,-0.027182703837752342
1772650327984276200,1.723276123046875,0.011911521665751934,-0.04871506989002228,-0.020463382825255394
1772650327994153200,1.7331533203125,0.013133215717971325,-0.04321744292974472,-0.011911521665751934
1772650328004030500,1.743030517578125,0.018019994720816612,-0.03817795217037201,-0.007024743594229221
1772650328013907700,1.75290771484375,0.02229592576622963,-0.033291175961494446,-0.007635590620338917
1772650328023785000,1.762784912109375,0.022754060104489326,-0.027793550863862038,-0.010842538438737392
1772650328033662200,1.772662109375,0.021532366052269936,-0.03023693896830082,-0.014507622458040714
1772650328043539200,1.782539306640625,0.01969982497394085,-0.03588727489113808,-0.017409147694706917
1772650328053416400,1.79241650390625,0.016798298805952072,-0.04199574887752533,-0.018019994720816612
1772650328063293700,1.802293701171875,0.014965757727622986,-0.04688252881169319,-0.021685076877474785
1772650328073171000,1.8121708984375,0.014965757727622986,-0.04932591691613197,-0.024128466844558716
1772650328083048200,1.822048095703125,0.007024743594229221,-0.0456608310341835,-0.021685076877474785
1772650328092925200,1.83192529296875,0.003970507066696882,-0.041384901851415634,-0.018019994720816612
1772650328102802400,1.841802490234375,0.003359660040587187,-0.03894151374697685,-0.015576604753732681
1772650328112679700,1.8516796875,0.007635590620338917,-0.03451287001371384,-0.014965757727622986
1772650328122557000,1.861556884765625,0.014202198944985867,-0.024128466844558716,-0.01572931744158268
1772650328132434200,1.87143408203125,0.021990500390529633,-0.016187451779842377,-0.020616095513105392
1772650328142311400,1.8813115234375,0.025655584409832954,-0.012064233422279358,-0.023823043331503868
1772650328152188400,1.8911884765625,0.02489202655851841,-0.011453386396169662,-0.02993151545524597
1772650328162065700,1.901065673828125,0.020616095513105392,-0.016340164467692375,-0.030542362481355667
1772650328171943000,1.91094287109375,0.016034740954637527,-0.027946261689066887,-0.02733541466295719
1772650328181820200,1.920820068359375,0.011147962883114815,-0.037108972668647766,-0.02367033064365387
1772650328191697400,1.930697509765625,0.010078979656100273,-0.04077405482530594,-0.021685076877474785
1772650328201574400,1.940574462890625,0.007635590620338917,-0.041384901851415634,-0.016798298805952072
1772650328211451600,1.95045166015625,0.005803049076348543,-0.04199574887752533,-0.013744063675403595
1772650328221329000,1.960328857421875,0.004581354558467865,-0.037567105144262314,-0.010689826682209969
1772650328231206100,1.9702060546875,0.00519220158457756,-0.03023693896830082,-0.011300674639642239
1772650328241083400,1.98008349609375,0.008704573847353458,-0.02107422985136509,-0.013285927474498749
1772650328250960400,1.98996044921875,0.013438640162348747,-0.01435491070151329,-0.01572931744158268
1772650328260837600,1.999837646484375,0.016492875292897224,-0.010078979656100273,-0.01695101149380207
1772650328270715000,2.00971484375,0.01832541823387146,-0.009468132629990578,-0.01695101149380207
1772650328280592100,2.019592041015625,0.017714571207761765,-0.009468132629990578,-0.01695101149380207
1772650328290469400,2.029469482421875,0.01588202826678753,-0.009468132629990578,-0.01572931744158268
1772650328300346400,2.039346435546875,0.017714571207761765,-0.005803049076348543,-0.01511846948415041
1772650328310223600,2.0492236328125,0.01511846948415041,-0.002748812548816204,-0.01588202826678753
1772650328320100900,2.059100830078125,0.011606098152697086,-0.003970507066696882,-0.013896775431931019
1772650328329978000,2.06897802734375,0.004886778071522713,-0.010689826682209969,-0.010842538438737392
1772650328339855400,2.07885546875,-0.0029015245381742716,-0.019241688773036003,-0.0029015245381742716
1772650328349732400,2.088732421875,-0.008857285603880882,-0.021532366052269936,0.003970507066696882
1772650328359609600,2.098609619140625,-0.009009997360408306,-0.015423892997205257,0.005803049076348543
1772650328369486800,2.10848681640625,-0.004123218823224306,-0.008093725889921188,0.001985253533348441
1772650328379364000,2.118364013671875,0,-0.00015271181473508477,-0.0029015245381742716
1772650328389241000,2.128240966796875,0.0029015245381742716,0.0065666078589856625,-0.006108472589403391
1772650328399118300,2.138118408203125,0.005344913341104984,0.007788302376866341,-0.007941014133393764
1772650328408995600,2.14799560546875,0.0036650835536420345,0.004734066314995289,-0.006719320081174374
1772650328418872800,2.157872802734375,0.0006108472589403391,-0.00259610079228878,-0.0065666078589856625
1772650328428750000,2.16775,-0.0030542362947016954,-0.005803049076348543,-0.009620844386518002
1772650328438627000,2.177626953125,-0.006719320081174374,-0.007635590620338917,-0.011453386396169662
1772650328448504300,2.18750439453125,-0.006719320081174374,-0.008246437646448612,-0.014507622458040714
1772650328458381600,2.197381591796875,-0.00916270911693573,-0.004581354558467865,-0.014507622458040714
1772650328468258800,2.2072587890625,-0.012827792204916477,-0.004581354558467865,-0.009620844386518002
1772650328478136000,2.217135986328125,-0.01710372418165207,-0.004428642801940441,0.0007635590736754239
1772650328488013000,2.227012939453125,-0.016492875292897224,-0.0006108472589403391,0.008093725889921188
1772650328497890300,2.236890380859375,-0.01588202826678753,0.007941014133393764,0.00992626789957285
1772650328507767600,2.246767578125,-0.01588202826678753,0.00916270911693573,0.014202198944985867
1772650328517644800,2.256644775390625,-0.014660334214568138,0.004886778071522713,0.01175880990922451
1772650328527522000,2.26652197265625,-0.011606098152697086,0.0012216945178806782,0.0032069480512291193
1772650328537399000,2.27639892578125,-0.00916270911693573,-0.00015271181473508477,-0.005344913341104984
1772650328547276300,2.2862763671875,-0.006719320081174374,-0.003359660040587187,-0.011453386396169662
1772650328557153500,2.296153564453125,-0.00916270911693573,-0.008246437646448612,-0.011453386396169662
1772650328567030800,2.30603076171875,-0.01588202826678753,-0.01435491070151329,-0.007788302376866341
1772650328576908000,2.315907958984375,-0.02367033064365387,-0.013591351918876171,-0.0009162708884105086
1772650328586785000,2.325784912109375,-0.026724567636847496,-0.011147962883114815,0.0021379655227065086
1772650328596662300,2.335662353515625,-0.027946261689066887,-0.0068720318377017975,0.006413896102458239
1772650328606539500,2.34553955078125,-0.02733541466295719,0.0018325417768210173,0.011147962883114815
1772650328616416800,2.355416748046875,-0.029320668429136276,0.008551862090826035,0.015423892997205257
1772650328626293800,2.365293701171875,-0.028098974376916885,0.013591351918876171,0.017867282032966614
1772650328636171000,2.3751708984375,-0.029320668429136276,0.016645587980747223,0.017867282032966614
1772650328646048300,2.38504833984375,-0.028098974376916885,0.017867282032966614,0.019088976085186005
1772650328655925500,2.394925537109375,-0.025655584409832954,0.019088976085186005,0.01969982497394085
1772650328665802800,2.404802734375,-0.023212196305394173,0.01847812905907631,0.019088976085186005
1772650328675679700,2.4146796875,-0.01969982497394085,0.021532366052269936,0.014202198944985867
1772650328685557000,2.424556884765625,-0.01725643500685692,0.02504473738372326,0.010995250195264816
1772650328695434200,2.434434326171875,-0.01847812905907631,0.023823043331503868,0.008551862090826035
1772650328705311500,2.4443115234375,-0.019088976085186005,0.021379653364419937,0.008093725889921188
1772650328715188500,2.4541884765625,-0.02092151902616024,0.018936265259981155,0.010537114925682545
1772650328725065700,2.464065673828125,-0.022601349279284477,0.01588202826678753,0.014813045971095562
1772650328734943000,2.47394287109375,-0.02504473738372326,0.007941014133393764,0.014202198944985867
1772650328744820200,2.4838203125,-0.026724567636847496,0.005497625097632408,0.014202198944985867
1772650328754697200,2.493697265625,-0.0261137206107378,0.0036650835536420345,0.01175880990922451
1772650328764574500,2.503574462890625,-0.025502873584628105,0.0018325417768210173,0.009315420873463154
1772650328774451700,2.51345166015625,-0.024281177669763565,0.0024433890357613564,0.010537114925682545
1772650328784329000,2.523328857421875,-0.02489202655851841,0.006108472589403391,0.014202198944985867
1772650328794206200,2.533206298828125,-0.02489202655851841,0.00992626789957285,0.01969982497394085
1772650328804083500,2.54308349609375,-0.022601349279284477,0.021532366052269936,0.023975754156708717
1772650328813960400,2.55296044921875,-0.01832541823387146,0.02764083817601204,0.023975754156708717
1772650328823837700,2.562837646484375,-0.016034740954637527,0.03130592033267021,0.021379653364419937
1772650328833715000,2.57271484375,-0.01588202826678753,0.028404397889971733,0.025197450071573257
1772650328843592200,2.58259228515625,-0.018936265259981155,0.02229592576622963,0.03008422814309597
1772650328853469200,2.59246923828125,-0.021837789565324783,0.0198525357991457,0.03436015918850899
1772650328863346400,2.602346435546875,-0.025502873584628105,0.013744063675403595,0.0325276181101799
1772650328873223700,2.6122236328125,-0.028557108715176582,0.006261184345930815,0.028404397889971733
1772650328883101000,2.622100830078125,-0.029167955741286278,0.00015271181473508477,0.02229592576622963
1772650328892978000,2.63197802734375,-0.027946261689066887,-0.0018325417768210173,0.01435491070151329
1772650328902855200,2.641855224609375,-0.02733541466295719,-0.0032069480512291193,0.008093725889921188
1772650328912732400,2.651732421875,-0.027946261689066887,-0.001374406274408102,0.004428642801940441
1772650328922609700,2.661609619140625,-0.02504473738372326,0.0035123717971146107,-0.0010689827613532543
1772650328932486700,2.671486572265625,-0.02214321307837963,0.0065666078589856625,-0.005344913341104984
1772650328942364000,2.681364013671875,-0.021532366052269936,0.010842538438737392,-0.006719320081174374
1772650328952241200,2.6912412109375,-0.02092151902616024,0.013896775431931019,-0.0030542362947016954
1772650328962118400,2.701118408203125,-0.022754060104489326,0.014660334214568138,0.0032069480512291193
1772650328971995600,2.71099560546875,-0.024586603045463562,0.020157959312200546,0.01175880990922451
1772650328981872600,2.72087255859375,-0.023364907130599022,0.025808297097682953,0.01847812905907631
1772650328991750000,2.73075,-0.022754060104489326,0.03268032893538475,0.023975754156708717
1772650329001627100,2.740627197265625,-0.02092151902616024,0.040010496973991394,0.026877280324697495
1772650329011504400,2.75050439453125,-0.01969982497394085,0.04306473210453987,0.02626643143594265
1772650329021381600,2.760381591796875,-0.01969982497394085,0.04184303805232048,0.02076880633831024
1772650329031258600,2.770258544921875,-0.02092151902616024,0.02641914412379265,0.013591351918876171
1772650329041135900,2.780135986328125,-0.02626643143594265,0.01038440316915512,0.0068720318377017975
1772650329051013000,2.79001318359375,-0.02748812735080719,0.0022906772792339325,-0.005344913341104984
1772650329060890400,2.799890380859375,-0.02764083817601204,0.0009162708884105086,-0.01572931744158268
1772650329070767400,2.809767333984375,-0.028251685202121735,0.003359660040587187,-0.01817270554602146
1772650329080644600,2.81964453125,-0.03008422814309597,0.003970507066696882,-0.012675080448389053
1772650329090521900,2.82952197265625,-0.02886253222823143,0.00519220158457756,-0.008399149402976036
1772650329100399000,2.839399169921875,-0.02641914412379265,0.010231691412627697,-0.0035123717971146107
1772650329110276000,2.849276123046875,-0.01969982497394085,0.020616095513105392,-0.0024433890357613564
1772650329120153300,2.8591533203125,-0.01725643500685692,0.022601349279284477,0
1772650329130030600,2.869030517578125,-0.014202198944985867,0.02076880633831024,0.004275931045413017
1772650329139907800,2.878907958984375,-0.014202198944985867,0.014049487188458443,0.001985253533348441
1772650329149784800,2.888784912109375,-0.016034740954637527,0.011453386396169662,-0.0035123717971146107
1772650329159662000,2.898662109375,-0.015423892997205257,0.012675080448389053,-0.010995250195264816
1772650329169539300,2.908539306640625,-0.018019994720816612,0.01252236869186163,-0.015271181240677834
1772650329179416600,2.91841650390625,-0.021532366052269936,0.007635590620338917,-0.015271181240677834
1772650329189293600,2.92829345703125,-0.023364907130599022,0.00519220158457756,-0.010842538438737392
1772650329199170800,2.9381708984375,-0.02214321307837963,0.008399149402976036,-0.004123218823224306
1772650329209048000,2.948048095703125,-0.01847812905907631,0.012675080448389053,-0.0016798300202935934
1772650329218925300,2.95792529296875,-0.015423892997205257,0.01832541823387146,0.004428642801940441
1772650329228802600,2.967802490234375,-0.012369656935334206,0.023823043331503868,0.007330167107284069
1772650329238679600,2.977679443359375,-0.009315420873463154,0.024433890357613564,0.009773556143045425
1772650329248556800,2.987556884765625,-0.008093725889921188,0.021990500390529633,0.009773556143045425
1772650329258434000,2.99743408203125,-0.008093725889921188,0.01710372418165207,0.008704573847353458
1772650329268311300,3.007311279296875,-0.00916270911693573,0.00916270911693573,0.0050394898280501366
1772650329278188300,3.017188232421875,-0.01038440316915512,0.0004581354442052543,0.00259610079228878
1772650329288065500,3.0270654296875,-0.010995250195264816,-0.001374406274408102,-0.0004581354442052543
1772650329297942800,3.03694287109375,-0.012216945178806782,-0.0032069480512291193,-0.0016798300202935934
1772650329307820000,3.046820068359375,-0.011606098152697086,-0.0032069480512291193,-0.0029015245381742716
1772650329317697000,3.056697021484375,-0.01572931744158268,-0.007482878863811493,0.0032069480512291193
1772650329327574300,3.06657421875,-0.013896775431931019,-0.010537114925682545,0.00519220158457756
1772650329337451500,3.076451416015625,-0.011453386396169662,-0.00992626789957285,0.004428642801940441
1772650329347328800,3.086328857421875,-0.007177455350756645,-0.006261184345930815,0.0032069480512291193
1772650329357205800,3.096205810546875,-0.0029015245381742716,-0.006261184345930815,0.0050394898280501366
1772650329367083000,3.1060830078125,-0.0016798300202935934,-0.005497625097632408,0.008093725889921188
1772650329376960300,3.115960205078125,-0.0004581354442052543,-0.004886778071522713,0.01175880990922451
1772650329386837500,3.12583740234375,0.00015271181473508477,-0.006108472589403391,0.015576604753732681
1772650329396714800,3.13571484375,-0.0009162708884105086,-0.00916270911693573,0.018630841746926308
1772650329406591700,3.145591796875,-0.0021379655227065086,-0.011606098152697086,0.019241688773036003
1772650329416469000,3.155468994140625,-0.003359660040587187,-0.007330167107284069,0.019241688773036003
1772650329426346200,3.16534619140625,-0.0029015245381742716,-0.0030542362947016954,0.01175880990922451
1772650329436223500,3.175223388671875,-0.005344913341104984,-0.004428642801940441,0.0068720318377017975
1772650329446100500,3.1851005859375,-0.007788302376866341,-0.01175880990922451,0.003359660040587187
1772650329455977700,3.194977783203125,-0.009009997360408306,-0.01969982497394085,0.003970507066696882
1772650329465855000,3.20485498046875,-0.008246437646448612,-0.025808297097682953,0.009468132629990578
1772650329475732200,3.214732177734375,-0.008246437646448612,-0.022601349279284477,0.013133215717971325
1772650329485609200,3.224609130859375,-0.005803049076348543,-0.01954711228609085,0.017409147694706917
1772650329495486500,3.234486572265625,-0.003359660040587187,-0.018936265259981155,0.019241688773036003
1772650329505363700,3.24436376953125,-0.0009162708884105086,-0.01511846948415041,0.021685076877474785
1772650329515241000,3.254240966796875,0.0015271181473508477,-0.011606098152697086,0.018630841746926308
1772650329525118000,3.264117919921875,0.00030542362947016954,-0.007941014133393764,0.017409147694706917
1772650329534995200,3.2739951171875,-0.004734066314995289,-0.004275931045413017,0.016187451779842377
1772650329544872400,3.28387255859375,-0.007177455350756645,0.0006108472589403391,0.012980503961443901
1772650329554749700,3.293749755859375,-0.008551862090826035,0.01038440316915512,0.007482878863811493
1772650329564626700,3.303626708984375,-0.006261184345930815,0.017714571207761765,0.004275931045413017
1772650329574504000,3.31350390625,-0.008704573847353458,0.020157959312200546,0.008093725889921188
1772650329584381200,3.323381103515625,-0.011147962883114815,0.02092151902616024,0.016034740954637527
1772650329594258400,3.333258544921875,-0.01710372418165207,0.02214321307837963,0.025197450071573257
1772650329604135400,3.343135498046875,-0.020616095513105392,0.02229592576622963,0.0331384651362896
1772650329614012700,3.3530126953125,-0.021837789565324783,0.02733541466295719,0.039857782423496246
1772650329623890000,3.362889892578125,-0.02076880633831024,0.034665580838918686,0.04107947647571564
1772650329633767200,3.37276708984375,-0.016034740954637527,0.041384901851415634,0.037414394319057465
1772650329643644200,3.38264404296875,-0.011147962883114815,0.04306473210453987,0.03237490355968475
1772650329653521400,3.392521484375,-0.0068720318377017975,0.037567105144262314,0.026877280324697495
1772650329663398700,3.402398681640625,-0.0032069480512291193,0.03008422814309597,0.018936265259981155
1772650329673276000,3.41227587890625,-0.004428642801940441,0.024586603045463562,0.009773556143045425
1772650329683153000,3.42215283203125,-0.006261184345930815,0.021990500390529633,0.0030542362947016954
1772650329693030100,3.432030029296875,-0.008093725889921188,0.021226942539215088,-0.0024433890357613564
1772650329702907400,3.441907470703125,-0.009315420873463154,0.020005248486995697,-0.0030542362947016954
1772650329712784600,3.45178466796875,-0.010537114925682545,0.020616095513105392,-0.0024433890357613564
1772650329722661600,3.46166162109375,-0.009315420873463154,0.020005248486995697,-0.0012216945178806782
1772650329732539000,3.471538818359375,-0.0068720318377017975,0.01954711228609085,-0.0012216945178806782
1772650329742416100,3.481416015625,-0.006261184345930815,0.018936265259981155,0.0024433890357613564
1772650329752293400,3.49129345703125,0.0010689827613532543,0.01832541823387146,0.0036650835536420345
1772650329762170400,3.50117041015625,0.004275931045413017,0.012216945178806782,0.008704573847353458
1772650329772047600,3.511047607421875,0.00259610079228878,0.0032069480512291193,0.015423892997205257
1772650329781924900,3.5209248046875,-0.0021379655227065086,-0.011606098152697086,0.016187451779842377
1772650329791802000,3.530802001953125,-0.007635590620338917,-0.023364907130599022,0.013133215717971325
1772650329801679000,3.54067919921875,-0.011300674639642239,-0.023975754156708717,0.005803049076348543
1772650329811556400,3.550556396484375,-0.011300674639642239,-0.03451287001371384,-0.002748812548816204
1772650329821433600,3.56043359375,-0.008399149402976036,-0.029626091942191124,-0.009468132629990578
1772650329831310800,3.570310791015625,-0.007330167107284069,-0.013133215717971325,-0.01511846948415041
1772650329841187800,3.580187744140625,-0.006719320081174374,-0.009468132629990578,-0.014507622458040714
1772650329851065000,3.590065185546875,-0.009315420873463154,0.0009162708884105086,-0.012064233422279358
1772650329860942300,3.5999423828125,-0.011606098152697086,0.0016798300202935934,-0.004123218823224306
1772650329870819600,3.609819580078125,-0.015271181240677834,0.004886778071522713,0.004428642801940441
1772650329880696600,3.619696533203125,-0.018936265259981155,0.011606098152697086,0.012980503961443901
1772650329890573800,3.62957373046875,-0.021379653364419937,0.014813045971095562,0.019088976085186005
1772650329900451000,3.639451171875,-0.022601349279284477,0.013591351918876171,0.019088976085186005
1772650329910328300,3.649328369140625,-0.024433890357613564,0.019088976085186005,0.017867282032966614
1772650329920205300,3.659205322265625,-0.023975754156708717,0.028251685202121735,0.016645587980747223
1772650329930082600,3.66908251953125,-0.023975754156708717,0.031916771084070206,0.012216945178806782
1772650329939959800,3.678959716796875,-0.021532366052269936,0.03436015918850899,0.010995250195264816
1772650329949836800,3.6888369140625,-0.02092151902616024,0.03436015918850899,0.012216945178806782
1772650329959714000,3.698714111328125,-0.02092151902616024,0.0325276181101799,0.014660334214568138
1772650329969591300,3.70859130859375,-0.020310672000050545,0.03374931216239929,0.01710372418165207
1772650329979468500,3.718468505859375,-0.02092151902616024,0.030695075169205666,0.016492875292897224
1772650329989345800,3.728345703125,-0.022601349279284477,0.022754060104489326,0.016645587980747223
1772650329999222800,3.738222900390625,-0.023823043331503868,0.020310672000050545,0.01847812905907631
1772650330009100000,3.74810009765625,-0.02504473738372326,0.017867282032966614,0.01847812905907631
1772650330018977300,3.757977294921875,-0.025655584409832954,0.014813045971095562,0.015423892997205257
1772650330028854300,3.767854248046875,-0.023212196305394173,0.012827792204916477,0.009315420873463154
1772650330038731500,3.7777314453125,-0.01969982497394085,0.010995250195264816,0.001374406274408102
1772650330048608800,3.78760888671875,-0.01725643500685692,0.005955760832875967,-0.007788302376866341
1772650330058486000,3.797486083984375,-0.015423892997205257,0.0009162708884105086,-0.012675080448389053
1772650330068363000,3.807363037109375,-0.014049487188458443,-0.00519220158457756,-0.01511846948415041
1772650330078240300,3.817240234375,-0.013438640162348747,-0.009468132629990578,-0.01695101149380207
1772650330088117500,3.827117431640625,-0.014049487188458443,-0.008857285603880882,-0.017561858519911766
1772650330097994800,3.836994873046875,-0.014660334214568138,-0.009468132629990578,-0.014507622458040714
1772650330107872000,3.8468720703125,-0.016492875292897224,-0.014965757727622986,-0.010231691412627697
1772650330117749000,3.8567490234375,-0.018783552572131157,-0.022906772792339325,-0.00030542362947016954
1772650330127626200,3.866626220703125,-0.01969982497394085,-0.03130592033267021,0.007024743594229221
1772650330137503500,3.87650341796875,-0.019088976085186005,-0.030695075169205666,0.007635590620338917
1772650330147380500,3.88638037109375,-0.015576604753732681,-0.030695075169205666,0.00519220158457756
1772650330157257700,3.8962578125,-0.011911521665751934,-0.028251685202121735,0.003359660040587187
1772650330167135000,3.906135009765625,-0.011300674639642239,-0.02764083817601204,0.002748812548816204
1772650330177012200,3.91601220703125,-0.011300674639642239,-0.028251685202121735,0.00519220158457756
1772650330186889200,3.92588916015625,-0.01252236869186163,-0.028251685202121735,0.008857285603880882
1772650330196766500,3.935766357421875,-0.017867282032966614,-0.036192700266838074,0.01511846948415041
1772650330206643700,3.945643798828125,-0.021379653364419937,-0.04718795046210289,0.01817270554602146
1772650330216520700,3.955520751953125,-0.024281177669763565,-0.04886778071522713,0.019394399598240852
1772650330226398000,3.96539794921875,-0.025655584409832954,-0.046577103435993195,0.01817270554602146
1772650330236275200,3.975275146484375,-0.023212196305394173,-0.04474456235766411,0.013896775431931019
1772650330246152400,3.98515234375,-0.017867282032966614,-0.04230117425322533,0.009009997360408306
1772650330256029700,3.99502978515625,-0.014813045971095562,-0.04428642615675926,0.0010689827613532543
1772650330265906700,4.00490673828125,-0.013133215717971325,-0.043828289955854416,-0.010689826682209969
1772650330275784000,4.014783935546875,-0.009009997360408306,-0.03833066672086716,-0.02229592576622963
1772650330285661200,4.0246611328125,-0.0018325417768210173,-0.036039989441633224,-0.03588727489113808
1772650330295538200,4.0345380859375,-0.0006108472589403391,-0.03420744836330414,-0.04077405482530594
1772650330305415400,4.04441552734375,-0.0018325417768210173,-0.036039989441633224,-0.03771981969475746
1772650330315292700,4.054292724609375,-0.0035123717971146107,-0.03787253051996231,-0.030389651656150818
1772650330325170000,4.064169921875,-0.0065666078589856625,-0.033443886786699295,-0.020463382825255394
1772650330335047000,4.074046875,-0.010842538438737392,-0.028557108715176582,-0.01252236869186163
1772650330344924200,4.083924072265625,-0.010842538438737392,-0.024128466844558716,-0.004581354558467865
1772650330354801400,4.093801513671875,-0.009009997360408306,-0.01969982497394085,-0.0015271181473508477
1772650330364678700,4.1036787109375,-0.005955760832875967,-0.015423892997205257,-0.0016798300202935934
1772650330374555600,4.1135556640625,-0.004123218823224306,-0.012980503961443901,-0.0022906772792339325
1772650330384433000,4.123432861328125,-0.004886778071522713,-0.013133215717971325,-0.004734066314995289
1772650330394310100,4.13331005859375,-0.009773556143045425,-0.006413896102458239,-0.010842538438737392
1772650330404187100,4.143187255859375,-0.014660334214568138,-0.005803049076348543,-0.010842538438737392
1772650330414064400,4.153064453125,-0.01588202826678753,-0.004581354558467865,-0.011453386396169662
1772650330423941600,4.162941650390625,-0.01588202826678753,-0.0021379655227065086,-0.007177455350756645
1772650330433819000,4.17281884765625,-0.01832541823387146,-0.0038177953101694584,-0.0016798300202935934
1772650330443695900,4.18269580078125,-0.019394399598240852,-0.00259610079228878,0.005650337319821119
1772650330453573000,4.192572998046875,-0.018783552572131157,-0.0024433890357613564,0.009315420873463154
1772650330463450400,4.202450439453125,-0.021226942539215088,-0.006108472589403391,0.011300674639642239
1772650330473327600,4.21232763671875,-0.024281177669763565,-0.006108472589403391,0.01252236869186163
1772650330483204600,4.22220458984375,-0.02367033064365387,-0.0030542362947016954,0.011911521665751934
1772650330493081900,4.232081787109375,-0.021226942539215088,0,0.009315420873463154
1772650330502959000,4.241958984375,-0.019394399598240852,0.0012216945178806782,0.007482878863811493
1772650330512836400,4.25183642578125,-0.01954711228609085,-0.001985253533348441,0.001985253533348441
1772650330522713300,4.26171337890625,-0.01695101149380207,-0.009315420873463154,-0.0029015245381742716
1772650330532590600,4.271590576171875,-0.016340164467692375,-0.013133215717971325,-0.004734066314995289
1772650330542467800,4.2814677734375,-0.01511846948415041,-0.016187451779842377,-0.007177455350756645
1772650330552344800,4.2913447265625,-0.017561858519911766,-0.020463382825255394,-0.007635590620338917
1772650330562222000,4.30122216796875,-0.018783552572131157,-0.018019994720816612,-0.006413896102458239
1772650330572099300,4.311099365234375,-0.01695101149380207,-0.013133215717971325,-0.0022906772792339325
1772650330581976600,4.3209765625,-0.01511846948415041,-0.009315420873463154,-0.0022906772792339325
1772650330591853600,4.330853515625,-0.012064233422279358,-0.007482878863811493,-0.0022906772792339325
1772650330601730800,4.340730712890625,-0.010995250195264816,-0.0050394898280501366,0.00015271181473508477
1772650330611608000,4.350608154296875,-0.012064233422279358,-0.004428642801940441,0.00259610079228878
1772650330621485000,4.360485107421875,-0.014507622458040714,-0.008093725889921188,0.004428642801940441
1772650330631362300,4.3703623046875,-0.01695101149380207,-0.009315420873463154,0.004581354558467865
1772650330641239600,4.380239501953125,-0.01695101149380207,-0.008093725889921188,-0.0022906772792339325
1772650330651116800,4.39011669921875,-0.017714571207761765,-0.008246437646448612,-0.007177455350756645
1772650330660993800,4.399993896484375,-0.018936265259981155,-0.008857285603880882,-0.010842538438737392
1772650330670871000,4.40987109375,-0.017714571207761765,-0.015576604753732681,-0.012064233422279358
1772650330680748300,4.419748291015625,-0.017561858519911766,-0.02229592576622963,-0.005803049076348543
1772650330690625500,4.42962548828125,-0.016798298805952072,-0.024586603045463562,0.00030542362947016954
1772650330700502500,4.43950244140625,-0.016798298805952072,-0.025808297097682953,0.005803049076348543
1772650330710379800,4.4493798828125,-0.017867282032966614,-0.025808297097682953,0.011911521665751934
1772650330720257000,4.459257080078125,-0.01847812905907631,-0.02504473738372326,0.016187451779842377
1772650330730134000,4.469134033203125,-0.019088976085186005,-0.03298575058579445,0.01817270554602146
1772650330740011300,4.47901123046875,-0.021379653364419937,-0.04169032722711563,0.01817270554602146
1772650330749888500,4.488888427734375,-0.024433890357613564,-0.039857782423496246,0.01511846948415041
1772650330759765800,4.498765869140625,-0.025197450071573257,-0.03436015918850899,0.009009997360408306
1772650330769642800,4.508642822265625,-0.027793550863862038,-0.022754060104489326,0.0015271181473508477
1772650330779520000,4.51852001953125,-0.02993151545524597,-0.006413896102458239,-0.0065666078589856625
1772650330789397200,4.528397216796875,-0.03008422814309597,0.004581354558467865,-0.011453386396169662
1772650330799274500,4.5382744140625,-0.029473381116986275,0.009468132629990578,-0.013438640162348747
1772650330809151500,4.5481513671875,-0.027029991149902344,0.010689826682209969,-0.014049487188458443
1772650330819028700,4.55802880859375,-0.025197450071573257,0.008857285603880882,-0.013438640162348747
1772650330828906000,4.567906005859375,-0.02214321307837963,0.003970507066696882,-0.01511846948415041
1772650330838783000,4.577782958984375,-0.021532366052269936,-0.002748812548816204,-0.018783552572131157
1772650330848660200,4.58766015625,-0.020157959312200546,-0.011300674639642239,-0.01695101149380207
1772650330858537500,4.597537353515625,-0.02244863659143448,-0.018630841746926308,-0.011453386396169662
1772650330868414500,4.60741455078125,-0.025961007922887802,-0.027182703837752342,-0.003359660040587187
1772650330878291700,4.617291748046875,-0.027793550863862038,-0.031916771084070206,0.003970507066696882
1772650330888169000,4.6271689453125,-0.029473381116986275,-0.03130592033267021,0.006413896102458239
1772650330898046200,4.637046142578125,-0.027182703837752342,-0.02641914412379265,0.007024743594229221
1772650330907923200,4.646923095703125,-0.021837789565324783,-0.01847812905907631,0.0009162708884105086
1772650330917800400,4.656800537109375,-0.016034740954637527,-0.003359660040587187,-0.013896775431931019
1772650330927677700,4.666677734375,-0.01435491070151329,0.007635590620338917,-0.021990500390529633
1772650330937554700,4.6765546875,-0.017409147694706917,0.008704573847353458,-0.025655584409832954
1772650330947432000,4.686431884765625,-0.02092151902616024,0.00259610079228878,-0.023823043331503868
1772650330957309200,4.69630908203125,-0.023975754156708717,-0.0004581354442052543,-0.021837789565324783
1772650330967186400,4.7061865234375,-0.024586603045463562,-0.003359660040587187,-0.01817270554602146
1772650330977063400,4.7160634765625,-0.02626643143594265,-0.003970507066696882,-0.013285927474498749
1772650330986940700,4.725940673828125,-0.02626643143594265,-0.00030542362947016954,-0.007788302376866341
1772650330996818000,4.73581787109375,-0.026877280324697495,0.0035123717971146107,-0.0029015245381742716
1772650331006695200,4.745695068359375,-0.028098974376916885,0.004123218823224306,0.0032069480512291193
1772650331016572200,4.755572265625,-0.029320668429136276,0.0036650835536420345,0.008093725889921188
1772650331026449400,4.765449462890625,-0.026724567636847496,-0.0007635590736754239,0.0050394898280501366
1772650331036326700,4.77532666015625,-0.02489202655851841,-0.006261184345930815,-0.0004581354442052543
1772650331046203600,4.78520361328125,-0.02076880633831024,-0.009468132629990578,-0.010231691412627697
1772650331056081000,4.795080810546875,-0.01969982497394085,-0.004734066314995289,-0.020005248486995697
1772650331065958100,4.804958251953125,-0.01725643500685692,0.00015271181473508477,-0.02504473738372326
1772650331075835100,4.814835205078125,-0.01725643500685692,0.00030542362947016954,-0.021379653364419937
1772650331085712400,4.82471240234375,-0.016645587980747223,-0.0015271181473508477,-0.01511846948415041
1772650331095589600,4.834589599609375,-0.01588202826678753,-0.005803049076348543,-0.004734066314995289
1772650331105467000,4.844466796875,-0.01572931744158268,-0.009315420873463154,0.005803049076348543
1772650331115344000,4.85434375,-0.01511846948415041,-0.009773556143045425,0.011911521665751934
1772650331125221000,4.86422119140625,-0.014507622458040714,-0.009773556143045425,0.011911521665751934
1772650331135098400,4.874098388671875,-0.01572931744158268,-0.007941014133393764,0.011911521665751934
1772650331144975400,4.883975341796875,-0.01511846948415041,-0.0030542362947016954,0.01252236869186163
1772650331154852600,4.8938525390625,-0.01572931744158268,0,0.008704573847353458
1772650331164729900,4.903729736328125,-0.016340164467692375,-0.001985253533348441,0.006261184345930815
1772650331174607000,4.913607177734375,-0.020005248486995697,-0.00992626789957285,0.003970507066696882
1772650331184484000,4.923484130859375,-0.020616095513105392,-0.016187451779842377,-0.002748812548816204
1772650331194361300,4.933361328125,-0.019394399598240852,-0.020463382825255394,-0.008246437646448612
1772650331204238600,4.943238525390625,-0.017561858519911766,-0.018019994720816612,-0.013285927474498749
1772650331214115600,4.953115478515625,-0.01710372418165207,-0.011300674639642239,-0.017561858519911766
1772650331223992800,4.962992919921875,-0.016034740954637527,-0.003970507066696882,-0.01695101149380207
1772650331233870000,4.9728701171875,-0.014813045971095562,0.0021379655227065086,-0.014507622458040714
1772650331243747000,4.9827470703125,-0.012369656935334206,0.005344913341104984,-0.009620844386518002
1772650331253624300,4.992624267578125,-0.01175880990922451,0.011453386396169662,-0.004886778071522713
1772650331263501600,5.00250146484375,-0.008093725889921188,0.01572931744158268,-0.004275931045413017
1772650331273378800,5.01237890625,-0.009315420873463154,0.0065666078589856625,-0.007330167107284069
1772650331283255800,5.022255859375,-0.009315420873463154,0.0035123717971146107,-0.009009997360408306
1772650331293133000,5.032133056640625,-0.006261184345930815,0.006413896102458239,-0.014049487188458443
1772650331303010300,5.04201025390625,-0.001985253533348441,0.005803049076348543,-0.017714571207761765
1772650331312887300,5.05188720703125,-0.0007635590736754239,0.003970507066696882,-0.01832541823387146
1772650331322764500,5.0617646484375,0.0010689827613532543,0.003359660040587187,-0.015271181240677834
1772650331332641800,5.071641845703125,0.0006108472589403391,-0.0021379655227065086,-0.011453386396169662
1772650331342518800,5.081518798828125,0.0012216945178806782,-0.004581354558467865,-0.010231691412627697
1772650331352396000,5.09139599609375,0.004275931045413017,-0.010078979656100273,-0.01511846948415041
1772650331362273300,5.101273193359375,0.004886778071522713,-0.016340164467692375,-0.019394399598240852
1772650331372150500,5.111150634765625,0.0024433890357613564,-0.01695101149380207,-0.023059483617544174
1772650331382027500,5.121027587890625,-0.0006108472589403391,-0.01817270554602146,-0.023059483617544174
1772650331391904800,5.13090478515625,-0.004886778071522713,-0.020616095513105392,-0.01695101149380207
1772650331401782000,5.140781982421875,-0.0065666078589856625,-0.024128466844558716,-0.009620844386518002
1772650331411659000,5.150658935546875,-0.005803049076348543,-0.03145863488316536,-0.002748812548816204
1772650331421536300,5.160536376953125,-0.003359660040587187,-0.03130592033267021,-0.00030542362947016954
1772650331431413500,5.17041357421875,0.0021379655227065086,-0.03130592033267021,0.0015271181473508477
1772650331441290500,5.18029052734375,0.005803049076348543,-0.02764083817601204,0.0009162708884105086
1772650331451167700,5.190167724609375,0.002748812548816204,-0.02092151902616024,0.0021379655227065086
1772650331461045000,5.200044921875,-0.0015271181473508477,-0.02214321307837963,0.0009162708884105086
1772650331470922200,5.209922119140625,0.004581354558467865,-0.023364907130599022,0.0009162708884105086
1772650331480799200,5.21979931640625,0.005650337319821119,-0.01847812905907631,-0.0022906772792339325
1772650331490676500,5.229676513671875,-0.0016798300202935934,-0.01725643500685692,-0.00030542362947016954
1772650331500553700,5.2395537109375,-0.006413896102458239,-0.021532366052269936,0.004581354558467865
1772650331510430700,5.2494306640625,-0.008857285603880882,-0.022754060104489326,0.003359660040587187
1772650331520308000,5.259307861328125,-0.009468132629990578,-0.02886253222823143,0.003970507066696882
1772650331530185200,5.269185302734375,-0.007635590620338917,-0.031916771084070206,0.004581354558467865
1772650331540062500,5.2790625,-0.010537114925682545,-0.030695075169205666,0.007635590620338917
1772650331549939500,5.288939453125,-0.004428642801940441,-0.02748812735080719,0.013133215717971325
1772650331559816700,5.298816650390625,0.0009162708884105086,-0.01710372418165207,0.011300674639642239
1772650331569694000,5.30869384765625,0.00259610079228878,-0.008551862090826035,0.008704573847353458
1772650331579571000,5.318571044921875,0.00259610079228878,-0.006719320081174374,0.0068720318377017975
1772650331589448200,5.3284482421875,0.00259610079228878,-0.006261184345930815,0.0007635590736754239
1772650331599325400,5.338325439453125,0.0007635590736754239,-0.011300674639642239,-0.005955760832875967
1772650331609202400,5.348202392578125,-0.0024433890357613564,-0.016187451779842377,-0.013896775431931019
1772650331619079700,5.35807958984375,-0.006719320081174374,-0.020005248486995697,-0.018783552572131157
1772650331628957000,5.36795703125,-0.009620844386518002,-0.023059483617544174,-0.019394399598240852
1772650331638834000,5.377833984375,-0.01572931744158268,-0.021685076877474785,-0.012675080448389053
1772650331648711200,5.387711181640625,-0.023059483617544174,-0.021685076877474785,0.00030542362947016954
1772650331658588400,5.39758837890625,-0.027793550863862038,-0.019088976085186005,0.011911521665751934
1772650331668465400,5.40746533203125,-0.025350160896778107,-0.010995250195264816,0.015576604753732681
1772650331678342700,5.4173427734375,-0.02244863659143448,-0.0024433890357613564,0.010537114925682545
1772650331688220000,5.427219970703125,-0.02076880633831024,0.0012216945178806782,0.006261184345930815
1772650331698097200,5.43709716796875,-0.01954711228609085,0.004123218823224306,0.001374406274408102
1772650331707974100,5.44697412109375,-0.017714571207761765,0.0029015245381742716,-0.0029015245381742716
1772650331717851400,5.456851318359375,-0.01832541823387146,0.0022906772792339325,-0.007788302376866341
1772650331727728600,5.466728759765625,-0.019088976085186005,0.009620844386518002,-0.007330167107284069
1772650331737605600,5.476605712890625,-0.022754060104489326,0.012675080448389053,-0.005497625097632408
1772650331747483000,5.48648291015625,-0.027029991149902344,0.012064233422279358,-0.0022906772792339325
1772650331757360000,5.496360107421875,-0.02764083817601204,0.013285927474498749,-0.0016798300202935934
1772650331767237000,5.506237060546875,-0.028251685202121735,0.011453386396169662,-0.0010689827613532543
1772650331777114400,5.5161142578125,-0.02886253222823143,0.013896775431931019,-0.0004581354442052543
1772650331786991600,5.52599169921875,-0.028251685202121735,0.01695101149380207,0.001374406274408102
1772650331796868600,5.53586865234375,-0.029473381116986275,0.020157959312200546,0.00259610079228878
1772650331806745900,5.545745849609375,-0.0325276181101799,0.021990500390529633,0.0050394898280501366
1772650331816623000,5.555623046875,-0.03680354729294777,0.02076880633831024,0.007482878863811493
1772650331826500000,5.5655,-0.038483377546072006,0.016492875292897224,0.005650337319821119
1772650331836377300,5.57537744140625,-0.0397050715982914,0.014507622458040714,0.0038177953101694584
1772650331846254600,5.585254638671875,-0.0397050715982914,0.009009997360408306,0.001985253533348441
1772650331856131800,5.5951318359375,-0.0397050715982914,0.005955760832875967,-0.0010689827613532543
1772650331866008800,5.6050087890625,-0.038636088371276855,0.005803049076348543,-0.007177455350756645
1772650331875886000,5.614885986328125,-0.03558185324072838,0.011911521665751934,-0.009773556143045425
1772650331885763300,5.624763427734375,-0.03451287001371384,0.02229592576622963,-0.012216945178806782
1772650331895640300,5.634640380859375,-0.03390202298760414,0.029778804630041122,-0.014049487188458443
1772650331905517600,5.644517578125,-0.03451287001371384,0.031000498682260513,-0.007941014133393764
1772650331915394800,5.654394775390625,-0.03634541109204292,0.030389651656150818,-0.0018325417768210173
1772650331925271800,5.664271728515625,-0.037414394319057465,0.025655584409832954,0.004886778071522713
1772650331935149000,5.674149169921875,-0.03680354729294777,0.023212196305394173,0.007482878863811493
1772650331945026300,5.6840263671875,-0.03436015918850899,0.02076880633831024,0.0068720318377017975
1772650331954903300,5.6939033203125,-0.030695075169205666,0.021379653364419937,0.004428642801940441
1772650331964780500,5.703780517578125,-0.02764083817601204,0.020616095513105392,0.0006108472589403391
1772650331974657800,5.71365771484375,-0.02886253222823143,0.020005248486995697,0.0018325417768210173
1772650331984534800,5.72353466796875,-0.02886253222823143,0.020005248486995697,0.0012216945178806782
1772650331994412000,5.733412109375,-0.027029991149902344,0.019394399598240852,0.0006108472589403391
1772650332004289300,5.743289306640625,-0.025197450071573257,0.017561858519911766,-0.004275931045413017
1772650332014166300,5.753166259765625,-0.022754060104489326,0.01511846948415041,-0.008551862090826035
1772650332024043500,5.76304345703125,-0.020310672000050545,0.008857285603880882,-0.012216945178806782
1772650332033920800,5.772920654296875,-0.020310672000050545,0.0021379655227065086,-0.009009997360408306
1772650332043797800,5.7827978515625,-0.02076880633831024,-0.001374406274408102,-0.005955760832875967
1772650332053675000,5.792675048828125,-0.021990500390529633,-0.00015271181473508477,-0.0022906772792339325
1772650332063560700,5.802560791015625,-0.021990500390529633,0.004734066314995289,0.001374406274408102
1772650332073429200,5.81242919921875,-0.021990500390529633,0.010231691412627697,0.0032069480512291193
1772650332083306500,5.822306396484375,-0.018936265259981155,0.012827792204916477,0.0038177953101694584
1772650332093183700,5.832183837890625,-0.016492875292897224,0.015271181240677834,0.005650337319821119
1772650332103060700,5.842060791015625,-0.012827792204916477,0.01588202826678753,0.008093725889921188
1772650332112938000,5.85193798828125,-0.010995250195264816,0.014049487188458443,0.011147962883114815
1772650332122815200,5.861815185546875,-0.011606098152697086,0.011606098152697086,0.011147962883114815
1772650332132692200,5.871692138671875,-0.014049487188458443,0.00916270911693573,0.00992626789957285
1772650332142569500,5.881569580078125,-0.017714571207761765,0.006108472589403391,0.009315420873463154
1772650332152446700,5.89144677734375,-0.02244863659143448,0.0012216945178806782,0.008704573847353458
1772650332162324000,5.901323974609375,-0.02489202655851841,-0.006261184345930815,0.00519220158457756
1772650332172201000,5.911200927734375,-0.021837789565324783,-0.01175880990922451,0.0015271181473508477
1772650332182078200,5.921078125,-0.020005248486995697,-0.012980503961443901,-0.0029015245381742716
1772650332191955200,5.930955078125,-0.01832541823387146,-0.008857285603880882,-0.005955760832875967
1772650332201832400,5.94083251953125,-0.01832541823387146,-0.0009162708884105086,-0.009620844386518002
1772650332211709700,5.950709716796875,-0.02092151902616024,0.004123218823224306,-0.007788302376866341
1772650332221587000,5.9605869140625,-0.02504473738372326,0.007177455350756645,-0.004734066314995289
1772650332231464000,5.9704638671875,-0.02626643143594265,0.009773556143045425,0.00259610079228878
1772650332241341200,5.980341064453125,-0.02626643143594265,0.012216945178806782,0.008704573847353458
1772650332251218400,5.990218505859375,-0.02504473738372326,0.015423892997205257,0.014813045971095562
1772650332261095400,6.000095458984375,-0.024433890357613564,0.021532366052269936,0.02092151902616024
1772650332270972700,6.00997265625,-0.025655584409832954,0.02641914412379265,0.021532366052269936
1772650332280849700,6.019849609375,-0.025808297097682953,0.025197450071573257,0.014813045971095562
1772650332290727000,6.029726806640625,-0.02641914412379265,0.01954711228609085,0.0068720318377017975
1772650332300604200,6.039604248046875,-0.02993151545524597,0.011453386396169662,0.001985253533348441
1772650332310481400,6.0494814453125,-0.031153209507465363,0.004123218823224306,-0.004123218823224306
1772650332320358400,6.0593583984375,-0.033596597611904144,0.0015271181473508477,-0.010842538438737392
1772650332330235600,6.069235595703125,-0.03374931216239929,0.005803049076348543,-0.010842538438737392
1772650332340112600,6.079112548828125,-0.036039989441633224,0.0015271181473508477,-0.009009997360408306
1772650332349990000,6.088989990234375,-0.04092676565051079,-0.0021379655227065086,-0.005344913341104984
1772650332359867100,6.0988671875,-0.04031591862440109,0.0029015245381742716,0.001374406274408102
1772650332369744400,6.108744384765625,-0.0390942245721817,0.0010689827613532543,0.006261184345930815
1772650332379621400,6.118621337890625,-0.042606595903635025,-0.007482878863811493,0.005803049076348543
1772650332389498600,6.12849853515625,-0.04749337583780289,-0.010537114925682545,0.006413896102458239
1772650332399375600,6.138375732421875,-0.04810422286391258,-0.00259610079228878,0.007635590620338917
1772650332409252900,6.1482529296875,-0.04871506989002228,-0.0032069480512291193,0.0021379655227065086
1772650332419130000,6.158130126953125,-0.051769305020570755,-0.008246437646448612,-0.0021379655227065086
1772650332429007400,6.16800732421875,-0.05604523420333862,-0.010078979656100273,-0.006413896102458239
1772650332438884400,6.17788427734375,-0.0584886260330677,-0.020616095513105392,-0.009468132629990578
1772650332448761600,6.18776171875,-0.06261184066534042,-0.031000498682260513,-0.01435491070151329
1772650332458638600,6.197638671875,-0.06261184066534042,-0.033596597611904144,-0.018630841746926308
1772650332468515800,6.207515869140625,-0.05894676223397255,-0.03542914241552353,-0.021685076877474785
1772650332478393000,6.21739306640625,-0.05650337040424347,-0.04031591862440109,-0.02229592576622963
1772650332488270000,6.22727001953125,-0.05650337040424347,-0.03787253051996231,-0.020463382825255394
1772650332498147300,6.237147216796875,-0.05726693198084831,-0.03298575058579445,-0.02107422985136509
1772650332508024600,6.247024658203125,-0.05482354015111923,-0.02748812735080719,-0.02473931387066841
1772650332517901600,6.256901611328125,-0.04581354558467865,-0.020157959312200546,-0.029778804630041122
1772650332527778800,6.26677880859375,-0.04092676565051079,-0.023364907130599022,-0.037108972668647766
1772650332537656000,6.276656005859375,-0.03665083646774292,-0.029473381116986275,-0.041384901851415634
1772650332547533000,6.286532958984375,-0.036039989441633224,-0.0325276181101799,-0.04016320779919624
1772650332557410300,6.296410400390625,-0.037261683493852615,-0.03436015918850899,-0.03771981969475746
1772650332567287600,6.30628759765625,-0.03787253051996231,-0.031153209507465363,-0.03527642786502838
1772650332577164500,6.31616455078125,-0.03542914241552353,-0.024433890357613564,-0.03771981969475746
1772650332587041800,6.326041748046875,-0.02886253222823143,-0.01969982497394085,-0.04199574887752533
1772650332596919000,6.3359189453125,-0.025808297097682953,-0.020310672000050545,-0.0462716780602932
1772650332606796000,6.345796142578125,-0.02092151902616024,-0.01725643500685692,-0.042606595903635025
1772650332616673300,6.35567333984375,-0.02092151902616024,-0.010995250195264816,-0.03787253051996231
1772650332626550500,6.365550537109375,-0.020310672000050545,-0.010995250195264816,-0.0328330397605896
1772650332636427500,6.375427490234375,-0.01969982497394085,-0.0065666078589856625,-0.026724567636847496
1772650332646304800,6.3853046875,-0.01725643500685692,0.0009162708884105086,-0.018936265259981155
1772650332656182000,6.39518212890625,-0.016034740954637527,-0.0009162708884105086,-0.012675080448389053
1772650332666059000,6.40505908203125,-0.014049487188458443,0.0009162708884105086,-0.010231691412627697
1772650332675936300,6.414936279296875,-0.00992626789957285,0.00519220158457756,-0.012827792204916477
1772650332685813500,6.4248134765625,-0.001985253533348441,0.010078979656100273,-0.013438640162348747
1772650332695690500,6.4346904296875,0.006413896102458239,0.013896775431931019,-0.014049487188458443
1772650332705567700,6.444567626953125,0.0029015245381742716,0.012064233422279358,-0.014049487188458443
1772650332715445000,6.454445068359375,-0.001374406274408102,0.007024743594229221,-0.015271181240677834
1772650332725322000,6.464322021484375,-0.0038177953101694584,0.00519220158457756,-0.01588202826678753
1772650332735199200,6.47419921875,0.0029015245381742716,0.002748812548816204,-0.020157959312200546
1772650332745076200,6.484076171875,0.04550812020897865,0.007024743594229221,-0.03436015918850899
1772650332754953500,6.493953369140625,0.07864658534526825,0.025808297097682953,-0.04978405311703682
1772650332764830700,6.503830810546875,0.05482354015111923,-0.01588202826678753,-0.04474456235766411
1772650332774707700,6.513707763671875,0.01954711228609085,-0.023823043331503868,-0.0328330397605896
1772650332784585000,6.5235849609375,-0.004886778071522713,-0.02993151545524597,-0.029778804630041122
1772650332794462200,6.533462158203125,-0.00916270911693573,-0.025655584409832954,-0.026724567636847496
1772650332804339200,6.543339111328125,-0.006719320081174374,-0.013285927474498749,-0.017561858519911766
1772650332814216400,6.553216552734375,-0.011606098152697086,-0.01435491070151329,-0.008399149402976036
1772650332824093700,6.56309375,-0.019394399598240852,-0.015576604753732681,-0.004123218823224306
1772650332833970700,6.572970703125,-0.02076880633831024,-0.008246437646448612,-0.008399149402976036
1772650332843848000,6.582847900390625,-0.014202198944985867,0.0015271181473508477,-0.01832541823387146
1772650332853725200,6.59272509765625,-0.007024743594229221,0.007024743594229221,-0.023212196305394173
1772650332863602200,6.602602294921875,-0.003970507066696882,0.014965757727622986,-0.018936265259981155
1772650332873479400,6.6124794921875,-0.005803049076348543,0.016340164467692375,-0.014049487188458443
1772650332883356700,6.622356689453125,-0.005803049076348543,0.014507622458040714,-0.010995250195264816
1772650332893233700,6.632233642578125,-0.008093725889921188,0.012675080448389053,-0.010995250195264816
1772650332903111000,6.64211083984375,-0.00992626789957285,0.008246437646448612,-0.014049487188458443
1772650332912988200,6.65198828125,-0.01175880990922451,0.008857285603880882,-0.017714571207761765
1772650332922865200,6.661865234375,-0.00992626789957285,0.004581354558467865,-0.021379653364419937
1772650332932742400,6.671742431640625,-0.010078979656100273,0.008246437646448612,-0.021990500390529633
1772650332942619600,6.68161962890625,-0.026571854948997498,0.018019994720816612,-0.016492875292897224
1772650332952496600,6.69149658203125,-0.03008422814309597,0.018783552572131157,-0.006108472589403391
1772650332962374000,6.701373779296875,-0.03436015918850899,0.015271181240677834,0.0038177953101694584
1772650332972251000,6.7112509765625,-0.04337015375494957,0.014049487188458443,0.0068720318377017975
1772650332982128000,6.721128173828125,-0.046577103435993195,0.026877280324697495,0.0038177953101694584
1772650332992005400,6.73100537109375,-0.0393996499478817,0.038483377546072006,0.004275931045413017
1772650333001882400,6.74088232421875,-0.03268032893538475,0.03420744836330414,0.004275931045413017
1772650333011759600,6.750759521484375,-0.03497100621461868,0.026877280324697495,0.004275931045413017
1772650333021636900,6.760636962890625,-0.04352286830544472,0.013896775431931019,0.0032069480512291193
1772650333031513900,6.770513916015625,-0.05008947476744652,-0.0007635590736754239,0.0021379655227065086
1772650333041391000,6.78039111328125,-0.050547610968351364,-0.007482878863811493,0.0015271181473508477
1772650333051268400,6.790268310546875,-0.05543438717722893,-0.008093725889921188,0.00519220158457756
1772650333061145300,6.800145263671875,-0.05665608495473862,-0.008704573847353458,0.009468132629990578
1772650333071022600,6.810022705078125,-0.05344913527369499,-0.013591351918876171,0.013133215717971325
1772650333080899600,6.819899658203125,-0.04840964451432228,-0.017714571207761765,0.018019994720816612
1772650333090776800,6.82977685546875,-0.045355409383773804,-0.01710372418165207,0.021685076877474785
1772650333100654000,6.839654052734375,-0.0325276181101799,-0.023212196305394173,0.01817270554602146
1772650333110531000,6.849531005859375,-0.011300674639642239,-0.024586603045463562,0.007024743594229221
1772650333120408300,6.859408203125,0.006261184345930815,-0.013591351918876171,0.00015271181473508477
1772650333130285600,6.86928564453125,0.00916270911693573,-0.0038177953101694584,-0.005955760832875967
1772650333140162600,6.87916259765625,0.004275931045413017,-0.005803049076348543,-0.010231691412627697
1772650333150039800,6.889039794921875,-0.0018325417768210173,-0.007635590620338917,-0.016340164467692375
1772650333159916800,6.898916748046875,-0.004428642801940441,-0.0065666078589856625,-0.028098974376916885
1772650333169794000,6.9087939453125,-0.008246437646448612,-0.004275931045413017,-0.04153761267662048
1772650333179671300,6.91867138671875,-0.008246437646448612,-0.0018325417768210173,-0.04581354558467865
1772650333189548500,6.928548583984375,-0.009468132629990578,0,-0.04337015375494957
1772650333199425500,6.938425537109375,-0.014965757727622986,-0.004275931045413017,-0.03176405653357506
1772650333209302800,6.948302734375,-0.021379653364419937,-0.013285927474498749,-0.01695101149380207
1772650333219179800,6.9581796875,-0.02733541466295719,-0.015576604753732681,-0.004581354558467865
1772650333229057000,6.96805712890625,-0.029778804630041122,-0.013591351918876171,0.004581354558467865
1772650333238934300,6.977934326171875,-0.02733541466295719,-0.007330167107284069,0.011300674639642239
1772650333248811300,6.987811279296875,-0.02076880633831024,0.0030542362947016954,0.010537114925682545
1772650333258688500,6.9976884765625,-0.010995250195264816,0.007330167107284069,0.005650337319821119
1772650333268565500,7.0075654296875,-0.00259610079228878,0.010842538438737392,-0.004886778071522713
1772650333278442800,7.01744287109375,0.0016798300202935934,0.009468132629990578,-0.016492875292897224
1772650333288320000,7.027320068359375,0.00030542362947016954,0.007635590620338917,-0.02626643143594265
1772650333298197000,7.037197021484375,-0.0021379655227065086,0.009315420873463154,-0.028098974376916885
1772650333308074200,7.04707421875,-0.005803049076348543,0.013744063675403595,-0.02504473738372326
1772650333317951500,7.056951416015625,-0.007024743594229221,0.0198525357991457,-0.01954711228609085
1772650333327828500,7.066828369140625,-0.008857285603880882,0.028557108715176582,-0.01038440316915512
1772650333337705700,7.076705810546875,-0.013133215717971325,0.026877280324697495,0
1772650333347583000,7.0865830078125,-0.023364907130599022,0.022754060104489326,0.016034740954637527
1772650333357460000,7.0964599609375,-0.032222192734479904,0.022906772792339325,0.03497100621461868
1772650333367337200,7.106337158203125,-0.037108972668647766,0.024281177669763565,0.049173206090927124
1772650333377214200,7.116214111328125,-0.04062134400010109,0.023212196305394173,0.05772506445646286
1772650333387091500,7.126091552734375,-0.04718795046210289,0.01832541823387146,0.05894676223397255
1772650333396968700,7.13596875,-0.055892523378133774,0.01572931744158268,0.0528382882475853
1772650333406845700,7.145845703125,-0.05467082932591438,0.020616095513105392,0.04734066128730774
1772650333416723000,7.155722900390625,-0.04810422286391258,0.018019994720816612,0.04062134400010109
1772650333426600200,7.16560009765625,-0.043828289955854416,0.0198525357991457,0.038788799196481705
1772650333436477200,7.175477294921875,-0.04321744292974472,0.018630841746926308,0.0393996499478817
1772650333446354400,7.1853544921875,-0.04550812020897865,0.018019994720816612,0.04184303805232048
1772650333456231700,7.195231689453125,-0.0522274412214756,0.014507622458040714,0.04550812020897865
1772650333466108700,7.205108642578125,-0.05757235363125801,0.009468132629990578,0.04489727318286896
1772650333475986000,7.21498583984375,-0.059557609260082245,0.009468132629990578,0.04367557913064957
1772650333485863000,7.22486279296875,-0.05650337040424347,0.003970507066696882,0.03573456406593323
1772650333495740200,7.234740234375,-0.05100574716925621,-0.0004581354442052543,0.025961007922887802
1772650333505617400,7.244617431640625,-0.0462716780602932,0.004886778071522713,0.016798298805952072
1772650333515494400,7.254494384765625,-0.036039989441633224,0.007330167107284069,0.007482878863811493
1772650333525371600,7.26437158203125,-0.031153209507465363,0.008551862090826035,0.0050394898280501366
1772650333535248600,7.27424853515625,-0.03176405653357506,0.01038440316915512,0.009315420873463154
1772650333545126000,7.2841259765625,-0.033443886786699295,0.007330167107284069,0.017867282032966614
1772650333555003100,7.294003173828125,-0.032222192734479904,0.0012216945178806782,0.018630841746926308
1772650333564880100,7.303880126953125,-0.025961007922887802,-0.006108472589403391,0.011911521665751934
1772650333574757400,7.31375732421875,-0.021837789565324783,-0.013591351918876171,0.002748812548816204
1772650333584634400,7.32363427734375,-0.02107422985136509,-0.024128466844558716,-0.004581354558467865
1772650333594511600,7.33351171875,-0.020463382825255394,-0.03145863488316536,-0.010689826682209969
1772650333604388900,7.343388916015625,-0.01817270554602146,-0.032222192734479904,-0.017409147694706917
1772650333614265900,7.353265869140625,-0.017561858519911766,-0.031000498682260513,-0.020463382825255394
1772650333624143000,7.36314306640625,-0.020616095513105392,-0.030389651656150818,-0.02473931387066841
1772650333634020400,7.373020263671875,-0.024281177669763565,-0.03237490355968475,-0.025961007922887802
1772650333643897300,7.3828974609375,-0.02367033064365387,-0.03665083646774292,-0.027182703837752342
1772650333653774600,7.392774658203125,-0.02107422985136509,-0.04031591862440109,-0.027182703837752342
1772650333663651800,7.40265185546875,-0.01695101149380207,-0.0397050715982914,-0.026571854948997498
1772650333673528800,7.41252880859375,-0.013285927474498749,-0.03771981969475746,-0.02351761981844902
1772650333683406000,7.422406005859375,-0.010689826682209969,-0.03588727489113808,-0.014965757727622986
1772650333693283000,7.432282958984375,-0.015576604753732681,-0.03145863488316536,-0.004581354558467865
1772650333703160300,7.442160400390625,-0.022754060104489326,-0.03374931216239929,0.008399149402976036
1772650333713037600,7.45203759765625,-0.028098974376916885,-0.03420744836330414,0.01817270554602146
1772650333722914600,7.46191455078125,-0.02641914412379265,-0.02748812735080719,0.020616095513105392
1772650333732791800,7.471791748046875,-0.020463382825255394,-0.016492875292897224,0.016187451779842377
1772650333742668800,7.481668701171875,-0.013896775431931019,-0.006719320081174374,0.009468132629990578
1772650333752546000,7.491546142578125,-0.008551862090826035,-0.004428642801940441,0.00015271181473508477
1772650333762423300,7.50142333984375,-0.007330167107284069,-0.002748812548816204,-0.009009997360408306
1772650333772300300,7.51130029296875,-0.006261184345930815,-0.00030542362947016954,-0.012675080448389053
1772650333782177500,7.521177490234375,-0.006261184345930815,-0.0021379655227065086,-0.01511846948415041
1772650333792054500,7.531054443359375,-0.00916270911693573,-0.011911521665751934,-0.014507622458040714
1772650333801931800,7.540931884765625,-0.014660334214568138,-0.009468132629990578,-0.010231691412627697
1772650333811809000,7.55080908203125,-0.014049487188458443,-0.0050394898280501366,-0.004734066314995289
1772650333821686000,7.56068603515625,-0.013438640162348747,-0.0032069480512291193,-0.0004581354442052543
1772650333831563300,7.570563232421875,-0.013285927474498749,-0.00015271181473508477,0.004428642801940441
1772650333841440300,7.580440185546875,-0.015271181240677834,0.004886778071522713,0.008704573847353458
1772650333851317500,7.5903173828125,-0.01710372418165207,0.010995250195264816,0.011147962883114815
1772650333861194800,7.60019482421875,-0.014049487188458443,0.014049487188458443,0.012369656935334206
1772650333871071700,7.61007177734375,-0.010537114925682545,0.02076880633831024,0.010537114925682545
1772650333880949000,7.619948974609375,-0.009315420873463154,0.027029991149902344,0.012216945178806782
1772650333890826000,7.629825927734375,-0.013591351918876171,0.031916771084070206,0.018936265259981155
1772650333900703200,7.639703125,-0.017867282032966614,0.03497100621461868,0.021379653364419937
1772650333910580500,7.64958056640625,-0.013744063675403595,0.04291202127933502,0.01832541823387146
1772650333920457500,7.65945751953125,-0.007635590620338917,0.06032116711139679,0.026877280324697495
1772650333930334700,7.669334716796875,-0.022754060104489326,0.0847550556063652,0.0794101431965828
1772650333940212000,7.6792119140625,-0.03023693896830082,0.0456608310341835,0.08582404255867004
1772650333950089000,7.6890888671875,-0.020005248486995697,0.04291202127933502,0.06184828653931618
1772650333959966200,7.69896630859375,-0.012827792204916477,0.04459185153245926,0.04352286830544472
1772650333969843200,7.70884326171875,-0.011606098152697086,0.020463382825255394,0.021532366052269936
1772650333979720400,7.718720458984375,-0.015271181240677834,0.009773556143045425,0.012369656935334206
1772650333989597700,7.72859765625,-0.01572931744158268,0.004275931045413017,0.011147962883114815
1772650333999474700,7.738474609375,-0.009009997360408306,-0.0030542362947016954,0.008704573847353458
1772650334009352000,7.74835205078125,0.001374406274408102,-0.00992626789957285,-0.0004581354442052543
1772650334019229000,7.75822900390625,0.01038440316915512,-0.020157959312200546,-0.029167955741286278
1772650334029106200,7.768106201171875,0.0065666078589856625,-0.02886253222823143,-0.05360184609889984
1772650334038983400,7.7779833984375,-0.011147962883114815,-0.028251685202121735,-0.04932591691613197
1772650334048860400,7.7878603515625,-0.017714571207761765,-0.02870982140302658,-0.02244863659143448
1772650334058737700,7.797737548828125,-0.025350160896778107,-0.04367557913064957,-0.008246437646448612
