time,seconds_elapsed,z,y,x
1772650326261822700,0.00082275390625,4.027718544006348,-8.965906143188477,-0.5982056856155396
1772650326271700000,0.010699951171875,4.694717884063721,-7.677371501922607,-0.32303106784820557
1772650326281577200,0.0205771484375,4.573880672454834,-8.129016876220703,-0.5946164131164551
1772650326291454200,0.0304541015625,4.22512674331665,-8.675776481628418,-0.534795880317688
1772650326301331500,0.04033154296875,4.161118507385254,-8.797212600708008,-0.4737788736820221
1772650326311208700,0.050208740234375,4.305285930633545,-8.901300430297852,-0.4707878530025482
1772650326321086000,0.0600859375,4.435096740722656,-8.618349075317383,-0.3888336718082428
1772650326330963200,0.069963134765625,4.429712772369385,-8.387441635131836,-0.41515472531318665
1772650326340840400,0.07984033203125,4.6402812004089355,-8.376673698425293,-0.3326023519039154
1772650326350717700,0.0897177734375,4.848456859588623,-8.492127418518066,-0.28654050827026367
1772650326360595000,0.099594970703125,4.881956577301025,-8.575876235961914,-0.3290131092071533
1772650326375410700,0.11441064453125,4.881956577301025,-8.575876235961914,-0.3290131092071533
1772650326405042400,0.14404248046875,4.636094093322754,-8.596813201904297,-0.42293140292167664
1772650326414919700,0.153919677734375,4.645665168762207,-8.582456588745117,-0.45643091201782227
1772650326434674200,0.173674072265625,4.556532382965088,-8.619544982910156,-0.5419743061065674
1772650326444551400,0.183551513671875,4.52781867980957,-8.6243314743042,-0.529412031173706
1772650326454428400,0.193428466796875,4.546961307525635,-8.595617294311523,-0.50129634141922
1772650326464305700,0.2033056640625,4.573282241821289,-8.58066177368164,-0.4588237404823303
1772650326474183000,0.213182861328125,4.5828537940979,-8.565707206726074,-0.4163511395454407
1772650326484060200,0.22306005859375,4.614558696746826,-8.589634895324707,-0.40677985548973083
1772650326493937400,0.2329375,4.64805793762207,-8.612964630126953,-0.389431893825531
1772650326503814700,0.242814697265625,4.624129772186279,-8.660821914672852,-0.40797626972198486
1772650326513692000,0.25269189453125,4.59003210067749,-8.663812637329102,-0.4366901218891144
1772650326523569200,0.262569091796875,4.578067779541016,-8.651848793029785,-0.41515472531318665
1772650326533446400,0.2724462890625,4.604987144470215,-8.641678810119629,-0.3774677813053131
1772650326543323600,0.28232373046875,4.636094093322754,-8.617152214050293,-0.33439695835113525
1772650326553201000,0.292200927734375,4.6648077964782715,-8.60758113861084,-0.33738797903060913
1772650326563078000,0.302077880859375,4.643272399902344,-8.624929428100586,-0.3846462368965149
1772650326572955100,0.311955078125,4.633700847625732,-8.642276763916016,-0.43908295035362244
1772650326582832400,0.321832275390625,4.619344234466553,-8.609375953674316,-0.494716078042984
1772650326592709600,0.331709716796875,4.621737003326416,-8.614161491394043,-0.4827519655227661
1772650326602587000,0.3415869140625,4.691128730773926,-8.624929428100586,-0.44446679949760437
1772650326612464000,0.351464111328125,4.686343193054199,-8.62014389038086,-0.4181457459926605
1772650326622341400,0.36134130859375,4.6648077964782715,-8.634500503540039,-0.4013960063457489
1772650326632218600,0.371218505859375,4.662415027618408,-8.636893272399902,-0.41096729040145874
1772650326642095600,0.381095703125,4.638486862182617,-8.625527381896973,-0.43968117237091064
1772650326651972900,0.390972900390625,4.580460548400879,-8.62612533569336,-0.50129634141922
1772650326661850000,0.40085009765625,4.53499698638916,-8.598010063171387,-0.5491527915000916
1772650326671727400,0.410727294921875,4.501497745513916,-8.572287559509277,-0.5635097622871399
1772650326681604600,0.4206044921875,4.597808837890625,-8.597412109375,-0.49651068449020386
1772650326691481900,0.43048193359375,4.609772682189941,-8.596813201904297,-0.4588237404823303
1772650326701359000,0.440359130859375,4.5828537940979,-8.554341316223145,-0.4707878530025482
1772650326711236400,0.450236328125,4.664209365844727,-8.572885513305664,-0.45942193269729614
1772650326721113600,0.460113525390625,4.657629489898682,-8.606385231018066,-0.46839502453804016
1772650326730990800,0.469990966796875,4.636094093322754,-8.642276763916016,-0.4582255482673645
1772650326740867800,0.479867919921875,4.594817638397217,-8.654839515686035,-0.49172505736351013
1772650326750745000,0.4897451171875,4.551746845245361,-8.636295318603516,-0.5389832854270935
1772650326760622300,0.499622314453125,4.546961307525635,-8.636295318603516,-0.5581258535385132
1772650326770499600,0.50949951171875,4.580460548400879,-8.59322452545166,-0.5491527915000916
1772650326780376800,0.519376953125,4.681557655334473,-8.62313461303711,-0.5018945336341858
1772650326790254000,0.529254150390625,4.628317356109619,-8.606983184814453,-0.5042873620986938
1772650326800131300,0.53913134765625,4.628915309906006,-8.606983184814453,-0.48035913705825806
1772650326810008300,0.54900830078125,4.71445894241333,-8.613563537597656,-0.49232324957847595
1772650326819885600,0.558885498046875,4.695316314697266,-8.580063819885254,-0.4666004180908203
1772650326829762800,0.5687626953125,4.660022258758545,-8.589634895324707,-0.4612165689468384
1772650326839640000,0.57864013671875,4.657031059265137,-8.585447311401367,-0.48035913705825806
1772650326849517300,0.588517333984375,4.609772682189941,-8.616554260253906,-0.5300102233886719
1772650326859394600,0.59839453125,4.597808837890625,-8.6243314743042,-0.5778666734695435
1772650326869271800,0.608271728515625,4.618745803833008,-8.619544982910156,-0.5802595019340515
1772650326879149000,0.618149169921875,4.630710124969482,-8.564510345458984,-0.5808576941490173
1772650326889026300,0.6280263671875,4.637888431549072,-8.540582656860352,-0.5569294691085815
1772650326898903300,0.6379033203125,4.628317356109619,-8.533403396606445,-0.5521438121795654
1772650326908780500,0.647780517578125,4.591826438903809,-8.574081420898438,-0.5587241053581238
1772650326918657800,0.65765771484375,4.5828537940979,-8.602795600891113,-0.5587241053581238
1772650326928535000,0.66753515625,4.589433670043945,-8.598010063171387,-0.5659025311470032
1772650326938412300,0.677412353515625,4.59721040725708,-8.590831756591797,-0.5778666734695435
1772650326948289500,0.68728955078125,4.606781959533691,-8.583653450012207,-0.5186443328857422
1772650326958166800,0.697166748046875,4.664209365844727,-8.583054542541504,-0.5138586759567261
1772650326968044000,0.7070439453125,4.654638290405273,-8.590232849121094,-0.5306084156036377
1772650326977921000,0.716921142578125,4.65224552154541,-8.599804878234863,-0.5539384484291077
1772650326987798300,0.72679833984375,4.630710124969482,-8.588438987731934,-0.5730810165405273
1772650326997675500,0.736675537109375,4.630710124969482,-8.59322452545166,-0.5659025311470032
1772650327007552800,0.746552734375,4.601995944976807,-8.60040283203125,-0.5611169338226318
1772650327017430000,0.756429931640625,4.6163530349731445,-8.60758113861084,-0.5515456199645996
1772650327027307300,0.766307373046875,4.585246562957764,-8.602795600891113,-0.537188708782196
1772650327037184300,0.776184326171875,4.579862594604492,-8.595019340515137,-0.5252245664596558
1772650327047061500,0.7860615234375,4.558925151824951,-8.605188369750977,-0.534795880317688
1772650327056938800,0.795938720703125,4.556532382965088,-8.628518104553223,-0.5228317379951477
1772650327066816000,0.80581591796875,4.549354076385498,-8.628518104553223,-0.5180460810661316
1772650327076693200,0.815693359375,4.532604217529297,-8.642875671386719,-0.5126622319221497
1772650327086570500,0.825570556640625,4.542175769805908,-8.671588897705078,-0.5078766345977783
1772650327096447700,0.83544775390625,4.578067779541016,-8.691329956054688,-0.5150550603866577
1772650327106325000,0.845324951171875,4.5828537940979,-8.678768157958984,-0.5078766345977783
1772650327116202000,0.855201904296875,4.594817638397217,-8.650053977966309,-0.5318048596382141
1772650327126079200,0.865079345703125,4.585246562957764,-8.633902549743652,-0.5653043389320374
1772650327135956500,0.87495654296875,4.573282241821289,-8.6243314743042,-0.5539384484291077
1772650327145833700,0.884833740234375,4.59003210067749,-8.631509780883789,-0.534795880317688
1772650327155711000,0.8947109375,4.602594375610352,-8.63330364227295,-0.4989035129547119
1772650327165588200,0.904588134765625,4.612165451049805,-8.620741844177246,-0.4701896607875824
1772650327175465500,0.914465576171875,4.578067779541016,-8.651848793029785,-0.47676992416381836
1772650327185342500,0.924342529296875,4.523033142089844,-8.659625053405762,-0.5102694034576416
1772650327195219700,0.9342197265625,4.52781867980957,-8.6243314743042,-0.5413761138916016
1772650327205097000,0.944096923828125,4.563711166381836,-8.571688652038574,-0.5611169338226318
1772650327214974200,0.95397412109375,4.611567497253418,-8.535796165466309,-0.5401797294616699
1772650327224851500,0.9638515625,4.659423828125,-8.516056060791016,-0.519242525100708
1772650327234728700,0.973728759765625,4.697709083557129,-8.518448829650879,-0.5288137793540955
1772650327244606000,0.98360595703125,4.657031059265137,-8.545368194580078,-0.5545366406440735
1772650327254483000,0.99348291015625,4.6402812004089355,-8.571688652038574,-0.5784648656845093
1772650327264360200,1.003360107421875,4.659423828125,-8.590831756591797,-0.5970092415809631
1772650327274237400,1.013237548828125,4.633102893829346,-8.612366676330566,-0.5874379873275757
1772650327284114700,1.02311474609375,4.671388149261475,-8.60758113861084,-0.5754738450050354
1772650327293992000,1.032991943359375,4.65224552154541,-8.60459041595459,-0.5491527915000916
1772650327303869200,1.042869140625,4.599603176116943,-8.6243314743042,-0.5563312768936157
1772650327313746200,1.05274609375,4.558925151824951,-8.636295318603516,-0.5461617708206177
1772650327323623400,1.06262353515625,4.537389755249023,-8.638090133666992,-0.5246263742446899
1772650327333500700,1.072500732421875,4.5445685386657715,-8.645268440246582,-0.4983053207397461
1772650327343378000,1.0823779296875,4.587639331817627,-8.625527381896973,-0.4582255482673645
1772650327353255200,1.092255126953125,4.600201606750488,-8.596813201904297,-0.4301098585128784
1772650327363132400,1.10213232421875,4.5924248695373535,-8.582456588745117,-0.43968117237091064
1772650327373009400,1.112009521484375,4.558925151824951,-8.597412109375,-0.486939400434494
1772650327382886700,1.12188671875,4.554139614105225,-8.628518104553223,-0.5180460810661316
1772650327392764000,1.131763916015625,4.532604217529297,-8.642875671386719,-0.527019202709198
1772650327402641200,1.14164111328125,4.561318397521973,-8.645268440246582,-0.5150550603866577
1772650327412518400,1.151518310546875,4.573282241821289,-8.621339797973633,-0.5084748268127441
1772650327422395600,1.161395751953125,4.549354076385498,-8.606983184814453,-0.5132604837417603
1772650327432272600,1.171272705078125,4.542175769805908,-8.638090133666992,-0.5222335457801819
1772650327442150000,1.18114990234375,4.542175769805908,-8.667402267456055,-0.5437689423561096
1772650327452027100,1.191027099609375,4.530211448669434,-8.672187805175781,-0.5413761138916016
1772650327461904400,1.200904296875,4.511068820953369,-8.659625053405762,-0.5030909776687622
1772650327471781600,1.21078173828125,4.52781867980957,-8.664410591125488,-0.47198426723480225
1772650327481659000,1.220658935546875,4.525425910949707,-8.656634330749512,-0.4630111753940582
1772650327491536000,1.230535888671875,4.53499698638916,-8.637491226196289,-0.4630111753940582
1772650327501413000,1.2404130859375,4.546961307525635,-8.638090133666992,-0.4893322288990021
1772650327511290400,1.250290283203125,4.5445685386657715,-8.628518104553223,-0.49651068449020386
1772650327521167600,1.260167724609375,4.546961307525635,-8.592626571655273,-0.4989035129547119
1772650327531044900,1.270044921875,4.575077056884766,-8.57348346710205,-0.49232324957847595
1772650327540922000,1.279922119140625,4.611567497253418,-8.575876235961914,-0.49710890650749207
1772650327550799000,1.289799072265625,4.579862594604492,-8.578269004821777,-0.5042873620986938
1772650327560676400,1.29967626953125,4.563711166381836,-8.609375953674316,-0.50129634141922
1772650327570553600,1.3095537109375,4.580460548400879,-8.664410591125488,-0.5030909776687622
1772650327580430800,1.319430908203125,4.561318397521973,-8.676374435424805,-0.527019202709198
1772650327590308000,1.32930810546875,4.551746845245361,-8.645866394042969,-0.5509474277496338
1772650327600185300,1.339185302734375,4.539782524108887,-8.62014389038086,-0.5796613097190857
1772650327610062300,1.349062255859375,4.527220249176025,-8.62014389038086,-0.6251249313354492
1772650327619939600,1.358939697265625,4.522434711456299,-8.601598739624023,-0.6394818425178528
1772650327629816800,1.36881689453125,4.551148891448975,-8.598608016967773,-0.5940182209014893
1772650327639694000,1.378694091796875,4.613960266113281,-8.606983184814453,-0.5108676552772522
1772650327649571300,1.3885712890625,4.649852752685547,-8.596813201904297,-0.4372883439064026
1772650327659448600,1.398448486328125,4.645066738128662,-8.601000785827637,-0.4163511395454407
1772650327669325600,1.40832568359375,4.635495662689209,-8.620741844177246,-0.4588237404823303
1772650327679202800,1.418202880859375,4.6169514656066895,-8.642875671386719,-0.5180460810661316
1772650327689080000,1.428080078125,4.600201606750488,-8.660223007202148,-0.5629115104675293
1772650327698957300,1.437957275390625,4.623531341552734,-8.62193775177002,-0.5539384484291077
1772650327708834600,1.44783447265625,4.659423828125,-8.571090698242188,-0.5330012440681458
1772650327718711800,1.4577119140625,4.633102893829346,-8.57348346710205,-0.5186443328857422
1772650327728588800,1.4675888671875,4.599603176116943,-8.595617294311523,-0.5395814776420593
1772650327738466000,1.477466064453125,4.573282241821289,-8.619544982910156,-0.5796613097190857
1772650327748343300,1.48734326171875,4.556532382965088,-8.595617294311523,-0.5778666734695435
1772650327758220500,1.497220458984375,4.572684288024902,-8.590831756591797,-0.5659025311470032
1772650327768097800,1.507097900390625,4.563711166381836,-8.605188369750977,-0.5515456199645996
1772650327777975000,1.51697509765625,4.549354076385498,-8.617152214050293,-0.5557330846786499
1772650327787852000,1.52685205078125,4.53499698638916,-8.662615776062012,-0.5581258535385132
1772650327797729300,1.536729248046875,4.549354076385498,-8.681758880615234,-0.5509474277496338
1772650327807606500,1.5466064453125,4.578067779541016,-8.654839515686035,-0.5198407173156738
1772650327817483800,1.55648388671875,4.607379913330078,-8.628518104553223,-0.49172505736351013
1772650327827361000,1.566361083984375,4.619344234466553,-8.618349075317383,-0.46839502453804016
1772650327837238000,1.576238037109375,4.594817638397217,-8.638090133666992,-0.486939400434494
1772650327847115300,1.586115234375,4.580460548400879,-8.62612533569336,-0.4749752879142761
1772650327856992500,1.595992431640625,4.600201606750488,-8.613563537597656,-0.47557350993156433
1772650327866869800,1.605869873046875,4.59003210067749,-8.616554260253906,-0.48454657196998596
1772650327876747000,1.6157470703125,4.558925151824951,-8.62193775177002,-0.5228317379951477
1772650327886624000,1.6256240234375,4.554139614105225,-8.641080856323242,-0.5629115104675293
1772650327896501200,1.635501220703125,4.530211448669434,-8.656036376953125,-0.605384111404419
1772650327906378500,1.64537841796875,4.52781867980957,-8.648259162902832,-0.5605186820030212
1772650327916255700,1.655255859375,4.548755645751953,-8.584251403808594,-0.625723123550415
1772650327926133000,1.665133056640625,4.482355117797852,-8.584251403808594,-0.5635097622871399
1772650327936010200,1.67501025390625,4.501497745513916,-8.6243314743042,-0.5676971673965454
1772650327945887200,1.68488720703125,4.501497745513916,-8.657830238342285,-0.5509474277496338
1772650327955764500,1.694764404296875,4.523033142089844,-8.686544418334961,-0.5359922647476196
1772650327965641700,1.704641845703125,4.5445685386657715,-8.660223007202148,-0.5509474277496338
1772650327975519000,1.71451904296875,4.556532382965088,-8.666803359985352,-0.5318048596382141
1772650327985396200,1.724396240234375,4.5445685386657715,-8.70090103149414,-0.5288137793540955
1772650327995273200,1.734273193359375,4.549354076385498,-8.7176513671875,-0.5599204897880554
1772650328005150500,1.744150390625,4.561318397521973,-8.723034858703613,-0.5958128571510315
1772650328015027700,1.75402783203125,4.5684967041015625,-8.73499870300293,-0.5880361795425415
1772650328024905000,1.763905029296875,4.575675010681152,-8.72064208984375,-0.5982056856155396
1772650328034782200,1.7737822265625,4.587639331817627,-8.665008544921875,-0.5748756527900696
1772650328044659200,1.7836591796875,4.604389190673828,-8.597412109375,-0.5324030518531799
1772650328054536400,1.793536376953125,4.575077056884766,-8.547760963439941,-0.5330012440681458
1772650328064413700,1.80341357421875,4.577469825744629,-8.519644737243652,-0.5665007829666138
1772650328074291000,1.813291015625,4.572684288024902,-8.514261245727539,-0.5359922647476196
1772650328084168200,1.823168212890625,4.588835716247559,-8.509475708007812,-0.5288137793540955
1772650328094045200,1.833045166015625,4.551148891448975,-8.540582656860352,-0.5521438121795654
1772650328103922400,1.84292236328125,4.491328239440918,-8.565108299255371,-0.5682953596115112
1772650328113799700,1.852799560546875,4.479363918304443,-8.608179092407227,-0.5916253924369812
1772650328123677000,1.862677001953125,4.491926193237305,-8.660821914672852,-0.5982056856155396
1772650328133554200,1.87255419921875,4.494318962097168,-8.689535140991211,-0.5838487148284912
1772650328143431400,1.882431396484375,4.530211448669434,-8.694320678710938,-0.5742774605751038
1772650328153308400,1.892308349609375,4.561318397521973,-8.683553695678711,-0.5455635786056519
1772650328163185700,1.902185546875,4.573282241821289,-8.678768157958984,-0.5389832854270935
1772650328173063000,1.91206298828125,4.587040901184082,-8.657232284545898,-0.5509474277496338
1772650328182940200,1.921940185546875,4.589433670043945,-8.648259162902832,-0.5676971673965454
1772650328192817400,1.9318173828125,4.5822553634643555,-8.645866394042969,-0.582054078578949
1772650328202694400,1.9416943359375,4.560719966888428,-8.612366676330566,-0.5754738450050354
1772650328212571600,1.951571533203125,4.54636287689209,-8.612366676330566,-0.5772684812545776
1772650328222449000,1.961448974609375,4.522434711456299,-8.644071578979492,-0.5964110493659973
1772650328232326100,1.971326171875,4.500899314880371,-8.641678810119629,-0.6107679605484009
1772650328242203400,1.981203369140625,4.456034183502197,-8.632107734680176,-0.605384111404419
1772650328252080400,1.991080322265625,4.4344987869262695,-8.648857116699219,-0.5982056856155396
1772650328261957600,2.00095751953125,4.444069862365723,-8.660821914672852,-0.6029912829399109
1772650328271835000,2.0108349609375,4.4584269523620605,-8.663214683532715,-0.5862415432929993
1772650328281712000,2.020712158203125,4.479962348937988,-8.672785758972168,-0.5814558863639832
1772650328291589400,2.03058935546875,4.5206403732299805,-8.672187805175781,-0.5694918036460876
1772650328301466400,2.04046630859375,4.542175769805908,-8.684151649475098,-0.550349235534668
1772650328311343600,2.050343505859375,4.542175769805908,-8.691329956054688,-0.550349235534668
1772650328321220900,2.060220947265625,4.551746845245361,-8.669196128845215,-0.5365904569625854
1772650328331098000,2.07009814453125,4.546961307525635,-8.673981666564941,-0.5341976284980774
1772650328340975400,2.079975341796875,4.537389755249023,-8.683553695678711,-0.5431707501411438
1772650328350852400,2.089852294921875,4.508676052093506,-8.689535140991211,-0.5551348328590393
1772650328360729600,2.0997294921875,4.496711730957031,-8.675178527832031,-0.6029912829399109
1772650328370606800,2.10960693359375,4.46560525894165,-8.647063255310059,-0.6580262184143066
1772650328380484000,2.119484130859375,4.439284324645996,-8.645268440246582,-0.6915257573127747
1772650328390361000,2.129361083984375,4.441677093505859,-8.650053977966309,-0.6747759580612183
1772650328400238300,2.13923828125,4.4751763343811035,-8.661419868469238,-0.6340979933738708
1772650328410115600,2.149115478515625,4.499104976654053,-8.675178527832031,-0.5910272002220154
1772650328419992800,2.158992919921875,4.513461589813232,-8.688937187194824,-0.5527420043945312
1772650328429870000,2.1688701171875,4.530211448669434,-8.698508262634277,-0.5359922647476196
1772650328439747000,2.1787470703125,4.515854358673096,-8.691927909851074,-0.5647061467170715
1772650328449624300,2.188624267578125,4.523033142089844,-8.662615776062012,-0.5694918036460876
1772650328459501600,2.19850146484375,4.537389755249023,-8.636295318603516,-0.5581258535385132
1772650328469378800,2.20837890625,4.530211448669434,-8.609973907470703,-0.5443671345710754
1772650328479256000,2.218256103515625,4.532604217529297,-8.60758113861084,-0.5515456199645996
1772650328489133000,2.228133056640625,4.532604217529297,-8.643473625183105,-0.5629115104675293
1772650328499010300,2.23801025390625,4.515854358673096,-8.663214683532715,-0.6005984544754028
1772650328508887600,2.247887451171875,4.4584269523620605,-8.656634330749512,-0.6484549641609192
1772650328518764800,2.257764892578125,4.446462631225586,-8.645268440246582,-0.6795616149902344
1772650328528642000,2.26764208984375,4.4344987869262695,-8.676374435424805,-0.7076773047447205
1772650328538519000,2.27751904296875,4.444069862365723,-8.676374435424805,-0.7028916478157043
1772650328548396300,2.287396240234375,4.456034183502197,-8.673383712768555,-0.6526423692703247
1772650328558273500,2.2972734375,4.4751763343811035,-8.658429145812988,-0.5958128571510315
1772650328568150800,2.30715087890625,4.503890514373779,-8.645866394042969,-0.5509474277496338
1772650328578028000,2.317028076171875,4.523033142089844,-8.672187805175781,-0.5551348328590393
1772650328587905000,2.326905029296875,4.503890514373779,-8.681758880615234,-0.5670989751815796
1772650328597782300,2.3367822265625,4.482355117797852,-8.701499938964844,-0.576670229434967
1772650328607659500,2.346659423828125,4.470989227294922,-8.711071014404297,-0.5808576941490173
1772650328617536800,2.356536865234375,4.470390796661377,-8.684749603271484,-0.5928218364715576
1772650328627413800,2.366413818359375,4.487140655517578,-8.668000221252441,-0.607776939868927
1772650328637291000,2.376291015625,4.484747886657715,-8.653642654418945,-0.605384111404419
1772650328647168300,2.386168212890625,4.479962348937988,-8.656036376953125,-0.6269195079803467
1772650328657045500,2.39604541015625,4.4751763343811035,-8.663812637329102,-0.6460621356964111
1772650328666922800,2.4059228515625,4.482355117797852,-8.680562019348145,-0.6622136831283569
1772650328676799700,2.4157998046875,4.496711730957031,-8.668598175048828,-0.6622136831283569
1772650328686677000,2.425677001953125,4.501497745513916,-8.639883995056152,-0.6508477330207825
1772650328696554200,2.43555419921875,4.515256404876709,-8.62732219696045,-0.6275177597999573
1772650328706431500,2.445431396484375,4.534399032592773,-8.612964630126953,-0.5940182209014893
1772650328716308500,2.45530859375,4.5391845703125,-8.601000785827637,-0.6017948985099792
1772650328726185700,2.465185791015625,4.511068820953369,-8.615358352661133,-0.6035895347595215
1772650328736063000,2.47506298828125,4.5206403732299805,-8.638688087463379,-0.5533402562141418
1772650328745940200,2.484940185546875,4.513461589813232,-8.639286041259766,-0.6107679605484009
1772650328755817200,2.494817138671875,4.496711730957031,-8.646464347839355,-0.6197410821914673
1772650328765694500,2.504694580078125,4.501497745513916,-8.653642654418945,-0.6269195079803467
1772650328775571700,2.51457177734375,4.536791801452637,-8.646464347839355,-0.6245267391204834
1772650328785449000,2.524448974609375,4.577469825744629,-8.632107734680176,-0.6131607890129089
1772650328795326200,2.534326171875,4.565505504608154,-8.641080856323242,-0.5868397355079651
1772650328805203500,2.544203369140625,4.584648132324219,-8.657830238342285,-0.5916253924369812
1772650328815080400,2.55408056640625,4.573282241821289,-8.674580574035645,-0.6149554252624512
1772650328824957700,2.563957763671875,4.591826438903809,-8.665008544921875,-0.6083751320838928
1772650328834835000,2.5738349609375,4.589433670043945,-8.662615776062012,-0.5892325639724731
1772650328844712200,2.583712158203125,4.601995944976807,-8.669196128845215,-0.5653043389320374
1772650328854589200,2.593589111328125,4.623531341552734,-8.662615776062012,-0.5868397355079651
1772650328864466400,2.603466552734375,4.577469825744629,-8.617152214050293,-0.5892325639724731
1772650328874343700,2.61334375,4.5200419425964355,-8.611170768737793,-0.6299105882644653
1772650328884221000,2.623220947265625,4.498506546020508,-8.611170768737793,-0.6346961855888367
1772650328894098000,2.633097900390625,4.491328239440918,-8.582456588745117,-0.646660327911377
1772650328903975200,2.64297509765625,4.4961137771606445,-8.587242126464844,-0.6275177597999573
1772650328913852400,2.652852294921875,4.491328239440918,-8.594420433044434,-0.6227321028709412
1772650328923729700,2.662729736328125,4.487140655517578,-8.641678810119629,-0.6197410821914673
1772650328933606700,2.672606689453125,4.503890514373779,-8.653642654418945,-0.6005984544754028
1772650328943484000,2.68248388671875,4.525425910949707,-8.653044700622559,-0.5892325639724731
1772650328953361200,2.692361083984375,4.5583271980285645,-8.638688087463379,-0.5605186820030212
1772650328963238400,2.70223828125,4.584648132324219,-8.6243314743042,-0.5611169338226318
1772650328973115600,2.71211572265625,4.59421968460083,-8.6243314743042,-0.5467599630355835
1772650328982992600,2.72199267578125,4.579862594604492,-8.648259162902832,-0.5605186820030212
1772650328992870000,2.731869873046875,4.566103935241699,-8.681758880615234,-0.6005984544754028
1772650329002747100,2.7417470703125,4.551746845245361,-8.71346378326416,-0.6167500615119934
1772650329012624400,2.751624267578125,4.525425910949707,-8.72064208984375,-0.6287141442298889
1772650329022501600,2.761501708984375,4.501497745513916,-8.718249320983887,-0.6095715761184692
1772650329032378600,2.771378662109375,4.460819721221924,-8.689535140991211,-0.600000262260437
1772650329042256000,2.781255859375,4.467998027801514,-8.670392990112305,-0.6029912829399109
1772650329052133000,2.791133056640625,4.515854358673096,-8.643473625183105,-0.576670229434967
1772650329062010400,2.80101025390625,4.541577339172363,-8.598010063171387,-0.5300102233886719
1772650329071887400,2.810887451171875,4.543970108032227,-8.575876235961914,-0.49710890650749207
1772650329081764600,2.8207646484375,4.522434711456299,-8.581260681152344,-0.5060819983482361
1772650329091641900,2.830641845703125,4.511068820953369,-8.583653450012207,-0.5300102233886719
1772650329101519000,2.84051904296875,4.536791801452637,-8.605188369750977,-0.5611169338226318
1772650329111396000,2.85039599609375,4.53200626373291,-8.605786323547363,-0.5988038778305054
1772650329121273300,2.8602734375,4.52781867980957,-8.622536659240723,-0.6083751320838928
1772650329131150600,2.870150634765625,4.522434711456299,-8.634500503540039,-0.641276478767395
1772650329141027800,2.88002783203125,4.494318962097168,-8.70209789276123,-0.631106972694397
1772650329150904800,2.88990478515625,4.5445685386657715,-8.703892707824707,-0.6263213157653809
1772650329160782000,2.899781982421875,4.578067779541016,-8.691927909851074,-0.6029912829399109
1772650329170659300,2.909659423828125,4.601995944976807,-8.645866394042969,-0.584446907043457
1772650329180536600,2.91953662109375,4.579862594604492,-8.605188369750977,-0.5802595019340515
1772650329190413800,2.929413818359375,4.59421968460083,-8.602795600891113,-0.5826523303985596
1772650329200290800,2.939290771484375,4.5822553634643555,-8.593822479248047,-0.6017948985099792
1772650329210168000,2.94916796875,4.589433670043945,-8.578866958618164,-0.589830756187439
1772650329220045300,2.95904541015625,4.579862594604492,-8.61475944519043,-0.5706881880760193
1772650329229922600,2.968922607421875,4.584648132324219,-8.638688087463379,-0.5724828243255615
1772650329239799600,2.978799560546875,4.591826438903809,-8.631509780883789,-0.5748756527900696
1772650329249676800,2.9886767578125,4.59421968460083,-8.61475944519043,-0.592223584651947
1772650329259554000,2.998553955078125,4.584648132324219,-8.609973907470703,-0.592223584651947
1772650329269431300,3.008431396484375,4.575077056884766,-8.58604621887207,-0.5802595019340515
1772650329279308300,3.018308349609375,4.5822553634643555,-8.588438987731934,-0.5874379873275757
1772650329289185500,3.028185546875,4.5822553634643555,-8.595617294311523,-0.5970092415809631
1772650329299062800,3.038062744140625,4.579862594604492,-8.605786323547363,-0.6137589812278748
1772650329308940000,3.04793994140625,4.577469825744629,-8.634500503540039,-0.6059823632240295
1772650329318817000,3.057817138671875,4.565505504608154,-8.634500503540039,-0.6131607890129089
1772650329328694300,3.0676943359375,4.579862594604492,-8.629714965820312,-0.617946445941925
1772650329338571500,3.077571533203125,4.609174728393555,-8.612964630126953,-0.6137589812278748
1772650329348448800,3.08744873046875,4.6163530349731445,-8.615358352661133,-0.6275177597999573
1772650329358325800,3.09732568359375,4.609174728393555,-8.615358352661133,-0.6161518096923828
1772650329368203000,3.107203125,4.609174728393555,-8.608179092407227,-0.6161518096923828
1772650329378080300,3.117080322265625,4.599603176116943,-8.598608016967773,-0.6089733839035034
1772650329387957500,3.12695751953125,4.584648132324219,-8.586644172668457,-0.6017948985099792
1772650329397834800,3.136834716796875,4.589433670043945,-8.578866958618164,-0.592223584651947
1772650329407711700,3.146711669921875,4.611567497253418,-8.588438987731934,-0.5802595019340515
1772650329417589000,3.156589111328125,4.633102893829346,-8.6243314743042,-0.5940182209014893
1772650329427466200,3.16646630859375,4.584648132324219,-8.646464347839355,-0.6394818425178528
1772650329437343500,3.176343505859375,4.577469825744629,-8.636893272399902,-0.6370890140533447
1772650329447220500,3.186220458984375,4.560719966888428,-8.636893272399902,-0.6323033571243286
1772650329457097700,3.19609765625,4.554139614105225,-8.648857116699219,-0.6275177597999573
1772650329466975000,3.20597509765625,4.543970108032227,-8.62014389038086,-0.6035895347595215
1772650329476852200,3.215852294921875,4.572684288024902,-8.612366676330566,-0.589830756187439
1772650329486729200,3.225729248046875,4.541577339172363,-8.617751121520996,-0.6323033571243286
1772650329496606500,3.2356064453125,4.529613494873047,-8.639286041259766,-0.6340979933738708
1772650329506483700,3.245483642578125,4.5200419425964355,-8.641678810119629,-0.641276478767395
1772650329516361000,3.25536083984375,4.5200419425964355,-8.632107734680176,-0.607776939868927
1772650329526238000,3.265238037109375,4.505684852600098,-8.6033935546875,-0.5916253924369812
1772650329536115200,3.275115234375,4.499104976654053,-8.62014389038086,-0.6011967062950134
1772650329545992400,3.284992431640625,4.506283283233643,-8.632107734680176,-0.6131607890129089
1772650329555869700,3.29486962890625,4.5391845703125,-8.641678810119629,-0.6508477330207825
1772650329565746700,3.30474658203125,4.553541660308838,-8.629714965820312,-0.6346961855888367
1772650329575624000,3.3146240234375,4.5822553634643555,-8.6033935546875,-0.6017948985099792
1772650329585501200,3.324501220703125,4.611567497253418,-8.58604621887207,-0.5778666734695435
1772650329595378400,3.33437841796875,4.628317356109619,-8.571688652038574,-0.5641079545021057
1772650329605255400,3.34425537109375,4.621138572692871,-8.584251403808594,-0.6041877269744873
1772650329615132700,3.354132568359375,4.613960266113281,-8.593822479248047,-0.6448656916618347
1772650329625010000,3.364010009765625,4.628317356109619,-8.608179092407227,-0.6705885529518127
1772650329634887200,3.37388720703125,4.606781959533691,-8.61057186126709,-0.6586244106292725
1772650329644764200,3.38376416015625,4.579862594604492,-8.622536659240723,-0.6538388133049011
1772650329654641400,3.393641357421875,4.567898273468018,-8.624929428100586,-0.6514459848403931
1772650329664518700,3.4035185546875,4.601995944976807,-8.634500503540039,-0.6275177597999573
1772650329674396000,3.41339599609375,4.628317356109619,-8.62014389038086,-0.6329016089439392
1772650329684273000,3.42327294921875,4.6402812004089355,-8.6033935546875,-0.6352944374084473
1772650329694150100,3.433150146484375,4.656432628631592,-8.567501068115234,-0.6400800347328186
1772650329704027400,3.44302734375,4.658825874328613,-8.572287559509277,-0.6687939167022705
1772650329713904600,3.452904541015625,4.644468784332275,-8.560921669006348,-0.6855437159538269
1772650329723781600,3.46278173828125,4.649254322052002,-8.565707206726074,-0.6903293132781982
1772650329733659000,3.472658935546875,4.637888431549072,-8.608179092407227,-0.6658028960227966
1772650329743536000,3.4825361328125,4.654638290405273,-8.624929428100586,-0.6586244106292725
1772650329753413400,3.492413330078125,4.654638290405273,-8.629714965820312,-0.6299105882644653
1772650329763290400,3.502290283203125,4.628317356109619,-8.6243314743042,-0.6161518096923828
1772650329773167600,3.512167724609375,4.591826438903809,-8.6243314743042,-0.5964110493659973
1772650329783044900,3.522044921875,4.59721040725708,-8.612366676330566,-0.5826523303985596
1772650329792922000,3.531922119140625,4.584648132324219,-8.584251403808594,-0.5970092415809631
1772650329802799000,3.541799072265625,4.503292083740234,-8.606385231018066,-0.6604190468788147
1772650329812676400,3.55167626953125,4.481756687164307,-8.62313461303711,-0.6604190468788147
1772650329822553600,3.5615537109375,4.543970108032227,-8.603992462158203,-0.6514459848403931
1772650329832430800,3.571430908203125,4.529613494873047,-8.606385231018066,-0.646660327911377
1772650329842307800,3.581307861328125,4.579862594604492,-8.560322761535645,-0.6185446381568909
1772650329852185000,3.59118505859375,4.5583271980285645,-8.546564102172852,-0.625723123550415
1772650329862062300,3.601062255859375,4.563112735748291,-8.572287559509277,-0.6185446381568909
1772650329871939600,3.610939697265625,4.621138572692871,-8.598010063171387,-0.6017948985099792
1772650329881816600,3.620816650390625,4.623531341552734,-8.636295318603516,-0.615553617477417
1772650329891693800,3.63069384765625,4.6163530349731445,-8.655437469482422,-0.6107679605484009
1772650329901571000,3.640571044921875,4.685744762420654,-8.645866394042969,-0.592223584651947
1772650329911448300,3.6504482421875,4.700101852416992,-8.642875671386719,-0.592223584651947
1772650329921325300,3.6603251953125,4.688137531280518,-8.638688087463379,-0.6346961855888367
1772650329931202600,3.67020263671875,4.661218643188477,-8.615358352661133,-0.6735795736312866
1772650329941079800,3.680079833984375,4.642673969268799,-8.61057186126709,-0.6658028960227966
1772650329950956800,3.689956787109375,4.628317356109619,-8.601000785827637,-0.6664010882377625
1772650329960834000,3.699833984375,4.658825874328613,-8.601000785827637,-0.6544370055198669
1772650329970711300,3.709711181640625,4.692325115203857,-8.571688652038574,-0.6143572330474854
1772650329980588500,3.719588623046875,4.692325115203857,-8.538188934326172,-0.6023930907249451
1772650329990465800,3.7294658203125,4.697110652923584,-8.547760963439941,-0.6215356588363647
1772650330000342800,3.7393427734375,4.682754039764404,-8.572287559509277,-0.6430711150169373
1772650330010220000,3.749219970703125,4.66361141204834,-8.577073097229004,-0.6520441770553589
1772650330020097300,3.75909716796875,4.6301116943359375,-8.58903694152832,-0.6735795736312866
1772650330029974300,3.768974365234375,4.6163530349731445,-8.624929428100586,-0.6801598072052002
1772650330039851500,3.7788515625,4.604389190673828,-8.622536659240723,-0.6562315821647644
1772650330049728800,3.788728759765625,4.609174728393555,-8.617751121520996,-0.6562315821647644
1772650330059606000,3.79860595703125,4.604389190673828,-8.584251403808594,-0.6496513485908508
1772650330069483000,3.80848291015625,4.60857629776001,-8.558527946472168,-0.6616154313087463
1772650330079360300,3.8183603515625,4.615755081176758,-8.553742408752441,-0.6735795736312866
1772650330089237500,3.828237548828125,4.639683246612549,-8.546564102172852,-0.6813562512397766
1772650330099114800,3.83811474609375,4.6301116943359375,-8.541778564453125,-0.6765705943107605
1772650330108992000,3.847991943359375,4.6061835289001465,-8.544171333312988,-0.6496513485908508
1772650330118869000,3.857868896484375,4.59421968460083,-8.565108299255371,-0.6400800347328186
1772650330128746200,3.867746337890625,4.59721040725708,-8.598608016967773,-0.6562315821647644
1772650330138623500,3.87762353515625,4.59421968460083,-8.62014389038086,-0.6705885529518127
1772650330148500500,3.88750048828125,4.587040901184082,-8.625527381896973,-0.6873382925987244
1772650330158377700,3.897377685546875,4.618745803833008,-8.615358352661133,-0.6801598072052002
1772650330168255000,3.9072548828125,4.630710124969482,-8.591429710388184,-0.6687939167022705
1772650330178132200,3.91713232421875,4.656432628631592,-8.59621524810791,-0.6711867451667786
1772650330188009200,3.92700927734375,4.675575256347656,-8.572287559509277,-0.6640082597732544
1772650330197886500,3.936886474609375,4.668396949768066,-8.577073097229004,-0.6640082597732544
1772650330207763700,3.946763671875,4.67078971862793,-8.593822479248047,-0.6424728631973267
1772650330217640700,3.956640625,4.659423828125,-8.58604621887207,-0.6041877269744873
1772650330227518000,3.96651806640625,4.621138572692871,-8.584251403808594,-0.6305087804794312
1772650330237395200,3.976395263671875,4.5822553634643555,-8.59202766418457,-0.646660327911377
1772650330247272400,3.9862724609375,4.5200419425964355,-8.587242126464844,-0.6825526356697083
1772650330257149700,3.996149658203125,4.508078098297119,-8.60877799987793,-0.7016952633857727
1772650330267026700,4.006026611328125,4.527220249176025,-8.59920597076416,-0.6801598072052002
1772650330276904000,4.015904052734375,4.551148891448975,-8.6303129196167,-0.6867401003837585
1772650330286781200,4.02578125,4.555934429168701,-8.62732219696045,-0.6299105882644653
1772650330296658200,4.035658203125,4.565505504608154,-8.609973907470703,-0.5802595019340515
1772650330306535400,4.045535400390625,4.609174728393555,-8.60040283203125,-0.5395814776420593
1772650330316412700,4.05541259765625,4.654638290405273,-8.583054542541504,-0.50907301902771
1772650330326290000,4.0652900390625,4.664209365844727,-8.58066177368164,-0.5162515044212341
1772650330336167000,4.0751669921875,4.635495662689209,-8.58604621887207,-0.5569294691085815
1772650330346044200,4.085044189453125,4.587040901184082,-8.619544982910156,-0.5988038778305054
1772650330355921400,4.09492138671875,4.541577339172363,-8.646464347839355,-0.6436693072319031
1772650330365798700,4.104798583984375,4.553541660308838,-8.663214683532715,-0.6556333899497986
1772650330375675600,4.114675537109375,4.606781959533691,-8.646464347839355,-0.6442674994468689
1772650330385553000,4.124552978515625,4.577469825744629,-8.643473625183105,-0.5964110493659973
1772650330395430100,4.13443017578125,4.649852752685547,-8.636295318603516,-0.6011967062950134
1772650330405307100,4.14430712890625,4.589433670043945,-8.60758113861084,-0.5850451588630676
1772650330415184400,4.154184326171875,4.613960266113281,-8.6243314743042,-0.5994020700454712
1772650330425061600,4.1640615234375,4.579862594604492,-8.60758113861084,-0.5802595019340515
1772650330434939000,4.17393896484375,4.59721040725708,-8.605188369750977,-0.5587241053581238
1772650330444816000,4.18381591796875,4.625924587249756,-8.61894702911377,-0.5563312768936157
1772650330454693000,4.193693115234375,4.635495662689209,-8.598010063171387,-0.5539384484291077
1772650330464570400,4.2035703125,4.625924587249756,-8.569893836975098,-0.5928218364715576
1772650330474447600,4.213447509765625,4.599603176116943,-8.591429710388184,-0.6472585201263428
1772650330484324600,4.22332470703125,4.613960266113281,-8.6033935546875,-0.6681957244873047
1772650330494201900,4.233201904296875,4.632504463195801,-8.598608016967773,-0.6616154313087463
1772650330504079000,4.2430791015625,4.60857629776001,-8.591429710388184,-0.6544370055198669
1772650330513956400,4.252956298828125,4.59421968460083,-8.608179092407227,-0.6562315821647644
1772650330523833300,4.262833251953125,4.5822553634643555,-8.6303129196167,-0.6777670383453369
1772650330533710600,4.272710693359375,4.591826438903809,-8.6303129196167,-0.6897311210632324
1772650330543587800,4.282587890625,4.627718925476074,-8.598608016967773,-0.6586244106292725
1772650330553464800,4.29246484375,4.658825874328613,-8.57468032836914,-0.6089733839035034
1772650330563342000,4.302342041015625,4.661218643188477,-8.566903114318848,-0.597607433795929
1772650330573219300,4.31221923828125,4.6372904777526855,-8.577073097229004,-0.6089733839035034
1772650330583096600,4.3220966796875,4.618745803833008,-8.584251403808594,-0.6041877269744873
1772650330592973600,4.3319736328125,4.601995944976807,-8.57468032836914,-0.6065805554389954
1772650330602850800,4.341850830078125,4.606781959533691,-8.58903694152832,-0.6137589812278748
1772650330612728000,4.35172802734375,4.601995944976807,-8.591429710388184,-0.6065805554389954
1772650330622605000,4.36160498046875,4.609174728393555,-8.612366676330566,-0.6041877269744873
1772650330632482300,4.371482421875,4.606781959533691,-8.60758113861084,-0.5946164131164551
1772650330642359600,4.381359619140625,4.611567497253418,-8.605786323547363,-0.6161518096923828
1772650330652236800,4.39123681640625,4.609174728393555,-8.6033935546875,-0.6329016089439392
1772650330662113800,4.40111376953125,4.5822553634643555,-8.61057186126709,-0.6418746709823608
1772650330671991000,4.410990966796875,4.555934429168701,-8.636893272399902,-0.6514459848403931
1772650330681868300,4.420868408203125,4.579862594604492,-8.651249885559082,-0.6251249313354492
1772650330691745500,4.43074560546875,4.606781959533691,-8.645866394042969,-0.5916253924369812
1772650330701622500,4.44062255859375,4.613960266113281,-8.629117012023926,-0.5826523303985596
1772650330711499800,4.450499755859375,4.628317356109619,-8.60758113861084,-0.5802595019340515
1772650330721377000,4.460376953125,4.591826438903809,-8.58604621887207,-0.5802595019340515
1772650330731254000,4.47025390625,4.5583271980285645,-8.58185863494873,-0.5970092415809631
1772650330741131300,4.48013134765625,4.508078098297119,-8.59621524810791,-0.5826523303985596
1772650330751008500,4.490008544921875,4.565505504608154,-8.629117012023926,-0.5605186820030212
1772650330760885800,4.4998857421875,4.577469825744629,-8.590831756591797,-0.5515456199645996
1772650330770762800,4.5097626953125,4.635495662689209,-8.590232849121094,-0.5353940725326538
1772650330780640000,4.519639892578125,4.630710124969482,-8.585447311401367,-0.5401797294616699
1772650330790517200,4.529517333984375,4.623531341552734,-8.59322452545166,-0.5635097622871399
1772650330800394500,4.53939453125,4.609174728393555,-8.60758113861084,-0.5706881880760193
1772650330810271500,4.549271484375,4.611567497253418,-8.602795600891113,-0.5730810165405273
1772650330820148700,4.559148681640625,4.618745803833008,-8.61475944519043,-0.6041877269744873
1772650330830026000,4.56902587890625,4.642673969268799,-8.61057186126709,-0.625723123550415
1772650330839903000,4.578903076171875,4.661816596984863,-8.626724243164062,-0.6329016089439392
1772650330849780200,4.5887802734375,4.673182487487793,-8.617152214050293,-0.6161518096923828
1772650330859657500,4.598657470703125,4.6785664558410645,-8.60758113861084,-0.5682953596115112
1772650330869534500,4.608534423828125,4.642673969268799,-8.61176872253418,-0.5324030518531799
1772650330879411700,4.61841162109375,4.601995944976807,-8.60459041595459,-0.4995017349720001
1772650330889289000,4.6282890625,4.54636287689209,-8.63330364227295,-0.5198407173156738
1772650330899166200,4.638166259765625,4.505684852600098,-8.622536659240723,-0.582054078578949
1772650330909043200,4.648043212890625,4.491328239440918,-8.62014389038086,-0.617946445941925
1772650330918920400,4.65792041015625,4.498506546020508,-8.62732219696045,-0.6083751320838928
1772650330928797700,4.667797607421875,4.512863636016846,-8.598010063171387,-0.5611169338226318
1772650330938674700,4.6776748046875,4.548755645751953,-8.59322452545166,-0.5324030518531799
1772650330948552000,4.687552001953125,4.589433670043945,-8.58784008026123,-0.4612165689468384
1772650330958429200,4.69742919921875,4.633102893829346,-8.613563537597656,-0.4612165689468384
1772650330968306400,4.707306396484375,4.628317356109619,-8.637491226196289,-0.4821537733078003
1772650330978183400,4.717183349609375,4.645066738128662,-8.638090133666992,-0.5204389095306396
1772650330988060700,4.727060791015625,4.661816596984863,-8.61894702911377,-0.5132604837417603
1772650330997938000,4.73693798828125,4.666004180908203,-8.571090698242188,-0.5186443328857422
1772650331007815200,4.746815185546875,4.634897232055664,-8.552546501159668,-0.5401797294616699
1772650331017692200,4.756692138671875,4.584648132324219,-8.58903694152832,-0.6113662123680115
1772650331027569400,4.7665693359375,4.534399032592773,-8.6303129196167,-0.6604190468788147
1772650331037446700,4.77644677734375,4.515256404876709,-8.625527381896973,-0.6771687865257263
1772650331047323600,4.78632373046875,4.536791801452637,-8.618349075317383,-0.6610172390937805
1772650331057201000,4.796200927734375,4.587040901184082,-8.612964630126953,-0.6083751320838928
1772650331067078100,4.806078125,4.628317356109619,-8.621339797973633,-0.5563312768936157
1772650331076955100,4.815955078125,4.649852752685547,-8.597412109375,-0.511465847492218
1772650331086832400,4.825832275390625,4.654638290405273,-8.611170768737793,-0.47796630859375
1772650331096709600,4.835709716796875,4.637888431549072,-8.61595630645752,-0.47557350993156433
1772650331106587000,4.8455869140625,4.628317356109619,-8.630910873413086,-0.4989035129547119
1772650331116463900,4.8554638671875,4.599603176116943,-8.623732566833496,-0.5324030518531799
1772650331126341000,4.865341064453125,4.579862594604492,-8.612366676330566,-0.5443671345710754
1772650331136218400,4.87521826171875,4.5822553634643555,-8.61475944519043,-0.5635097622871399
1772650331146095400,4.885095458984375,4.5822553634643555,-8.602795600891113,-0.5730810165405273
1772650331155972600,4.89497265625,4.553541660308838,-8.602795600891113,-0.5659025311470032
1772650331165849900,4.904849853515625,4.555934429168701,-8.595617294311523,-0.5682953596115112
1772650331175727000,4.91472705078125,4.551148891448975,-8.609973907470703,-0.5587241053581238
1772650331185604000,4.92460400390625,4.54636287689209,-8.617152214050293,-0.5611169338226318
1772650331195481300,4.9344814453125,4.565505504608154,-8.629117012023926,-0.5587241053581238
1772650331205358600,4.944358642578125,4.577469825744629,-8.62612533569336,-0.5395814776420593
1772650331215235600,4.954235595703125,4.565505504608154,-8.605188369750977,-0.537188708782196
1772650331225112800,4.96411279296875,4.54636287689209,-8.60758113861084,-0.5491527915000916
1772650331234990000,4.973989990234375,4.536791801452637,-8.598010063171387,-0.5467599630355835
1772650331244867000,4.9838671875,4.560719966888428,-8.58604621887207,-0.5515456199645996
1772650331254744300,4.993744384765625,4.587040901184082,-8.602795600891113,-0.5659025311470032
1772650331264621600,5.00362158203125,4.5822553634643555,-8.60040283203125,-0.5635097622871399
1772650331274498800,5.013498779296875,4.599603176116943,-8.578866958618164,-0.5521438121795654
1772650331284375800,5.023375732421875,4.618745803833008,-8.645268440246582,-0.5557330846786499
1772650331294253000,5.033253173828125,4.601995944976807,-8.626724243164062,-0.5659025311470032
1772650331304130300,5.04313037109375,4.618745803833008,-8.617152214050293,-0.5611169338226318
1772650331314007300,5.05300732421875,4.6372904777526855,-8.592626571655273,-0.5545366406440735
1772650331323884500,5.062884521484375,4.635495662689209,-8.599804878234863,-0.544965386390686
1772650331333761800,5.07276171875,4.630710124969482,-8.602197647094727,-0.5353940725326538
1772650331343638800,5.082638671875,4.609174728393555,-8.60758113861084,-0.5515456199645996
1772650331353516000,5.09251611328125,4.589433670043945,-8.629117012023926,-0.5563312768936157
1772650331363393300,5.102393310546875,4.6163530349731445,-8.6243314743042,-0.5611169338226318
1772650331373270500,5.1122705078125,4.630710124969482,-8.590831756591797,-0.5659025311470032
1772650331383147500,5.1221474609375,4.649254322052002,-8.571090698242188,-0.544965386390686
1772650331393024800,5.132024658203125,4.644468784332275,-8.585447311401367,-0.5330012440681458
1772650331402902000,5.141902099609375,4.623531341552734,-8.602197647094727,-0.5395814776420593
1772650331412779000,5.151779052734375,4.587040901184082,-8.626724243164062,-0.5491527915000916
1772650331422656300,5.16165625,4.579862594604492,-8.642875671386719,-0.5419743061065674
1772650331432533500,5.171533447265625,4.59721040725708,-8.642875671386719,-0.5324030518531799
1772650331442410500,5.181410400390625,4.606781959533691,-8.621339797973633,-0.5252245664596558
1772650331452287700,5.191287841796875,4.584648132324219,-8.595019340515137,-0.5132604837417603
1772650331462165000,5.2011650390625,4.567898273468018,-8.588438987731934,-0.5635097622871399
1772650331472042200,5.211042236328125,4.54636287689209,-8.62732219696045,-0.6299105882644653
1772650331481919200,5.220919189453125,4.615755081176758,-8.562715530395508,-0.5874379873275757
1772650331491796500,5.23079638671875,4.625924587249756,-8.657232284545898,-0.5318048596382141
1772650331501673700,5.240673828125,4.611567497253418,-8.597412109375,-0.5018945336341858
1772650331511550700,5.25055078125,4.604389190673828,-8.640482902526855,-0.5228317379951477
1772650331521428000,5.260427978515625,4.575675010681152,-8.684151649475098,-0.5790630578994751
1772650331531305200,5.27030517578125,4.555934429168701,-8.6243314743042,-0.5533402562141418
1772650331541182500,5.280182373046875,4.553541660308838,-8.6243314743042,-0.584446907043457
1772650331551059500,5.2900595703125,4.5391845703125,-8.617152214050293,-0.5724828243255615
1772650331560936700,5.299936767578125,4.536791801452637,-8.61057186126709,-0.584446907043457
1772650331570814000,5.30981396484375,4.496711730957031,-8.639286041259766,-0.6221339106559753
1772650331580691000,5.31969091796875,4.494318962097168,-8.668000221252441,-0.6029912829399109
1772650331590568200,5.329568115234375,4.523033142089844,-8.674580574035645,-0.5647061467170715
1772650331600445400,5.339445556640625,4.542175769805908,-8.669196128845215,-0.5150550603866577
1772650331610322400,5.349322509765625,4.546961307525635,-8.657232284545898,-0.49591249227523804
1772650331620199700,5.35919970703125,4.563711166381836,-8.635697364807129,-0.50129634141922
1772650331630077000,5.369076904296875,4.587040901184082,-8.609375953674316,-0.4899304509162903
1772650331639954000,5.378953857421875,4.577469825744629,-8.596813201904297,-0.4660021960735321
1772650331649831200,5.3888310546875,4.565505504608154,-8.599804878234863,-0.48514479398727417
1772650331659708400,5.39870849609375,4.5391845703125,-8.60758113861084,-0.5228317379951477
1772650331669585400,5.40858544921875,4.543970108032227,-8.650651931762695,-0.582054078578949
1772650331679462700,5.418462646484375,4.515256404876709,-8.668000221252441,-0.6221339106559753
1772650331689340000,5.42833984375,4.510470867156982,-8.665607452392578,-0.6197410821914673
1772650331699217200,5.438217041015625,4.48414945602417,-8.648857116699219,-0.6221339106559753
1772650331709094100,5.44809423828125,4.479363918304443,-8.641678810119629,-0.607776939868927
1772650331718971400,5.457971435546875,4.536791801452637,-8.650651931762695,-0.5700899958610535
1772650331728848600,5.4678486328125,4.5391845703125,-8.653044700622559,-0.5653043389320374
1772650331738725600,5.4777255859375,4.532604217529297,-8.669196128845215,-0.5389832854270935
1772650331748603000,5.487602783203125,4.542175769805908,-8.678768157958984,-0.5198407173156738
1772650331758480100,5.497480224609375,4.539782524108887,-8.669196128845215,-0.5078766345977783
1772650331768357000,5.507357177734375,4.553541660308838,-8.63330364227295,-0.5060819983482361
1772650331778234400,5.517234375,4.575077056884766,-8.606983184814453,-0.50129634141922
1772650331788111600,5.527111572265625,4.572684288024902,-8.60758113861084,-0.5300102233886719
1772650331797988600,5.536988525390625,4.560719966888428,-8.609973907470703,-0.5324030518531799
1772650331807865900,5.546865966796875,4.548755645751953,-8.626724243164062,-0.5509474277496338
1772650331817743000,5.5567431640625,4.553541660308838,-8.629117012023926,-0.5868397355079651
1772650331827620000,5.5666201171875,4.5822553634643555,-8.641080856323242,-0.5772684812545776
1772650331837497300,5.576497314453125,4.563112735748291,-8.645866394042969,-0.5700899958610535
1772650331847374600,5.58637451171875,4.563112735748291,-8.636295318603516,-0.5467599630355835
1772650331857251800,5.596251953125,4.5583271980285645,-8.636295318603516,-0.534795880317688
1772650331867128800,5.60612890625,4.5583271980285645,-8.652446746826172,-0.5341976284980774
1772650331877006000,5.616006103515625,4.584648132324219,-8.664410591125488,-0.527019202709198
1772650331886883300,5.62588330078125,4.609174728393555,-8.638090133666992,-0.5276173949241638
1772650331896760300,5.63576025390625,4.628317356109619,-8.614161491394043,-0.5228317379951477
1772650331906637600,5.645637451171875,4.633102893829346,-8.585447311401367,-0.511465847492218
1772650331916514800,5.655514892578125,4.632504463195801,-8.563912391662598,-0.4953143000602722
1772650331926391800,5.665391845703125,4.632504463195801,-8.571090698242188,-0.5234299302101135
1772650331936269000,5.67526904296875,4.611567497253418,-8.59322452545166,-0.5563312768936157
1772650331946146300,5.685146240234375,4.584648132324219,-8.60758113861084,-0.5706881880760193
1772650331956023300,5.695023193359375,4.577469825744629,-8.62193775177002,-0.5916253924369812
1772650331965900500,5.704900634765625,4.589433670043945,-8.617152214050293,-0.592223584651947
1772650331975777800,5.71477783203125,4.618745803833008,-8.595617294311523,-0.5802595019340515
1772650331985654800,5.72465478515625,4.6061835289001465,-8.59322452545166,-0.5826523303985596
1772650331995532000,5.734531982421875,4.601995944976807,-8.619544982910156,-0.5754738450050354
1772650332005409300,5.7444091796875,4.59721040725708,-8.636295318603516,-0.5748756527900696
1772650332015286300,5.754286376953125,4.587040901184082,-8.631509780883789,-0.5611169338226318
1772650332025163500,5.76416357421875,4.584648132324219,-8.61176872253418,-0.5300102233886719
1772650332035040800,5.774040771484375,4.589433670043945,-8.614161491394043,-0.5300102233886719
1772650332044917800,5.783917724609375,4.601995944976807,-8.595019340515137,-0.5419743061065674
1772650332054795000,5.793794921875,4.613960266113281,-8.58784008026123,-0.5377869009971619
1772650332064680700,5.8036806640625,4.599603176116943,-8.595019340515137,-0.5401797294616699
1772650332074549200,5.81354931640625,4.584648132324219,-8.60040283203125,-0.5515456199645996
1772650332084426500,5.823426513671875,4.567898273468018,-8.60758113861084,-0.5467599630355835
1772650332094303700,5.8333037109375,4.560719966888428,-8.619544982910156,-0.5324030518531799
1772650332104180700,5.8431806640625,4.570291042327881,-8.641080856323242,-0.5509474277496338
1772650332114058000,5.85305810546875,4.572684288024902,-8.641080856323242,-0.5557330846786499
1772650332123935200,5.862935302734375,4.589433670043945,-8.62612533569336,-0.537188708782196
1772650332133812200,5.872812255859375,4.6163530349731445,-8.616554260253906,-0.5180460810661316
1772650332143689500,5.882689453125,4.621138572692871,-8.628518104553223,-0.5060819983482361
1772650332153566700,5.892566650390625,4.591826438903809,-8.638090133666992,-0.49172505736351013
1772650332163444000,5.90244384765625,4.551148891448975,-8.650053977966309,-0.5126622319221497
1772650332173321000,5.912321044921875,4.5200419425964355,-8.653044700622559,-0.5318048596382141
1772650332183198200,5.9221982421875,4.53200626373291,-8.653044700622559,-0.5437689423561096
1772650332193075200,5.9320751953125,4.555934429168701,-8.629117012023926,-0.5724828243255615
1772650332202952400,5.941952392578125,4.543970108032227,-8.598010063171387,-0.5659025311470032
1772650332212829700,5.95182958984375,4.54636287689209,-8.602795600891113,-0.5539384484291077
1772650332222707000,5.96170703125,4.534399032592773,-8.609973907470703,-0.5276173949241638
1772650332232584000,5.971583984375,4.529613494873047,-8.630910873413086,-0.5084748268127441
1772650332242461200,5.981461181640625,4.534399032592773,-8.642875671386719,-0.49172505736351013
1772650332252338400,5.99133837890625,4.554139614105225,-8.668598175048828,-0.47676992416381836
1772650332262215400,6.00121533203125,4.546961307525635,-8.676374435424805,-0.5054838061332703
1772650332272092700,6.0110927734375,4.5206403732299805,-8.681758880615234,-0.5383850932121277
1772650332281969700,6.0209697265625,4.501497745513916,-8.674580574035645,-0.550349235534668
1772650332291847000,6.030846923828125,4.489533424377441,-8.653044700622559,-0.5389832854270935
1772650332301724200,6.04072412109375,4.484747886657715,-8.653044700622559,-0.5413761138916016
1772650332311601400,6.050601318359375,4.523033142089844,-8.638688087463379,-0.529412031173706
1772650332321478400,6.060478515625,4.579862594604492,-8.630910873413086,-0.5060819983482361
1772650332331355600,6.070355712890625,4.563112735748291,-8.62612533569336,-0.503689169883728
1772650332341232600,6.080232666015625,4.587040901184082,-8.602197647094727,-0.4899304509162903
1772650332351110000,6.09010986328125,4.606781959533691,-8.601598739624023,-0.48035913705825806
1772650332360987100,6.099987060546875,4.565505504608154,-8.58784008026123,-0.4875376224517822
1772650332370864400,6.109864501953125,4.579862594604492,-8.616554260253906,-0.5228317379951477
1772650332380741400,6.119741455078125,4.577469825744629,-8.652446746826172,-0.5198407173156738
1772650332390618600,6.12961865234375,4.573282241821289,-8.669196128845215,-0.5102694034576416
1772650332400495600,6.13949560546875,4.537389755249023,-8.681160926818848,-0.5174478888511658
1772650332410372900,6.149372802734375,4.563711166381836,-8.640482902526855,-0.47976094484329224
1772650332420250000,6.15925,4.565505504608154,-8.61595630645752,-0.47258245944976807
1772650332430127400,6.16912744140625,4.549354076385498,-8.6303129196167,-0.4462614357471466
1772650332440004400,6.17900439453125,4.525425910949707,-8.661419868469238,-0.43908295035362244
1772650332449881600,6.188881591796875,4.537389755249023,-8.668598175048828,-0.46480581164360046
1772650332459758600,6.198758544921875,4.5206403732299805,-8.695517539978027,-0.47198426723480225
1772650332469635800,6.2086357421875,4.511068820953369,-8.6907320022583,-0.43609192967414856
1772650332479513000,6.21851318359375,4.518247127532959,-8.654241561889648,-0.42711883783340454
1772650332489390000,6.22839013671875,4.555934429168701,-8.616554260253906,-0.46061834692955017
1772650332499267300,6.238267333984375,4.517649173736572,-8.614161491394043,-0.503689169883728
1772650332509144600,6.24814453125,4.505684852600098,-8.633902549743652,-0.5653043389320374
1772650332519021600,6.258021484375,4.48414945602417,-8.605188369750977,-0.5653043389320374
1772650332528898800,6.26789892578125,4.4961137771606445,-8.583653450012207,-0.5252245664596558
1772650332538776000,6.277776123046875,4.543970108032227,-8.606983184814453,-0.4707878530025482
1772650332548653000,6.287653076171875,4.560719966888428,-8.632705688476562,-0.43190449476242065
1772650332558530300,6.2975302734375,4.570291042327881,-8.61057186126709,-0.3966103494167328
1772650332568407600,6.307407470703125,4.572684288024902,-8.594420433044434,-0.4013960063457489
1772650332578284500,6.317284423828125,4.563112735748291,-8.613563537597656,-0.4534398913383484
1772650332588161800,6.327161865234375,4.5391845703125,-8.642875671386719,-0.50129634141922
1772650332598039000,6.3370390625,4.542175769805908,-8.654839515686035,-0.4893322288990021
1772650332607916000,6.346916015625,4.551746845245361,-8.666803359985352,-0.48394837975502014
1772650332617793300,6.356793212890625,4.558925151824951,-8.654241561889648,-0.45104706287384033
1772650332627670500,6.36667041015625,4.573282241821289,-8.625527381896973,-0.41096729040145874
1772650332637547500,6.376547607421875,4.618745803833008,-8.586644172668457,-0.4163511395454407
1772650332647424800,6.3864248046875,4.601995944976807,-8.620741844177246,-0.42771705985069275
1772650332657302000,6.396302001953125,4.5822553634643555,-8.637491226196289,-0.43908295035362244
1772650332667179000,6.406178955078125,4.539782524108887,-8.639883995056152,-0.45104706287384033
1772650332677056300,6.41605615234375,4.551148891448975,-8.61595630645752,-0.45583271980285645
1772650332686933500,6.42593359375,4.529613494873047,-8.614161491394043,-0.4749752879142761
1772650332696810500,6.435810546875,4.537389755249023,-8.629714965820312,-0.3678964674472809
1772650332706687700,6.445687744140625,4.556532382965088,-8.648857116699219,-0.39122650027275085
1772650332716565000,6.45556494140625,4.561318397521973,-8.629714965820312,-0.4061816334724426
1772650332726442000,6.46544189453125,4.554139614105225,-8.627920150756836,-0.4223332107067108
1772650332736319200,6.4753193359375,4.503292083740234,-8.620741844177246,-0.6675975322723389
1772650332746196500,6.485196533203125,4.295714855194092,-8.629714965820312,-0.5240281820297241
1772650332756073500,6.495073486328125,4.428516387939453,-8.772088050842285,-0.1824527233839035
1772650332765950700,6.50495068359375,4.54337215423584,-8.827122688293457,-0.28953152894973755
1772650332775827700,6.51482763671875,4.602594375610352,-8.746963500976562,-0.37866419553756714
1772650332785705000,6.524705078125,4.563711166381836,-8.692526817321777,-0.3930211067199707
1772650332795582200,6.534582275390625,4.591826438903809,-8.61057186126709,-0.355932354927063
1772650332805459200,6.544459228515625,4.523033142089844,-8.61475944519043,-0.2967100143432617
1772650332815336400,6.55433642578125,4.482355117797852,-8.660821914672852,-0.3409772217273712
1772650332825213700,6.564213623046875,4.454239368438721,-8.74038314819336,-0.4211367964744568
1772650332835090700,6.574090576171875,4.449453830718994,-8.769695281982422,-0.48035913705825806
1772650332844968000,6.583968017578125,4.448855400085449,-8.712865829467773,-0.48813581466674805
1772650332854845200,6.59384521484375,4.479962348937988,-8.668598175048828,-0.44327038526535034
1772650332864722200,6.60372216796875,4.484747886657715,-8.6303129196167,-0.3936193287372589
1772650332874599400,6.613599365234375,4.4751763343811035,-8.649456024169922,-0.4055834412574768
1772650332884476700,6.6234765625,4.47278356552124,-8.678169250488281,-0.44327038526535034
1772650332894353700,6.633353759765625,4.463212490081787,-8.729615211486816,-0.5018945336341858
1772650332904231000,6.64323095703125,4.468596458435059,-8.775078773498535,-0.5282155871391296
1772650332914108200,6.653108154296875,4.515854358673096,-8.73619556427002,-0.50907301902771
1772650332923985200,6.662985107421875,4.494917392730713,-8.81396198272705,-0.389431893825531
1772650332933862400,6.6728623046875,4.611567497253418,-8.58784008026123,-0.46839502453804016
1772650332943739600,6.68273974609375,4.511068820953369,-8.606983184814453,-0.4701896607875824
1772650332953616600,6.69261669921875,4.460819721221924,-8.580063819885254,-0.4013960063457489
1772650332963494000,6.702493896484375,4.467998027801514,-8.659625053405762,-0.4911268353462219
1772650332973371000,6.712370849609375,4.479962348937988,-8.715856552124023,-0.5479564070701599
1772650332983248100,6.722248046875,4.460819721221924,-8.715258598327637,-0.5479564070701599
1772650332993125400,6.73212548828125,4.448855400085449,-8.71047306060791,-0.49292147159576416
1772650333003002400,6.74200244140625,4.499104976654053,-8.661419868469238,-0.4169493317604065
1772650333012879600,6.751879638671875,4.542175769805908,-8.632705688476562,-0.4127618968486786
1772650333022756900,6.7617568359375,4.52781867980957,-8.654241561889648,-0.44805604219436646
1772650333032633900,6.7716337890625,4.53499698638916,-8.700303077697754,-0.47676992416381836
1772650333042511000,6.781510986328125,4.558925151824951,-8.731410026550293,-0.48095735907554626
1772650333052388400,6.791388427734375,4.558925151824951,-8.74038314819336,-0.47617170214653015
1772650333062265300,6.801265380859375,4.532604217529297,-8.657232284545898,-0.48394837975502014
1772650333072142600,6.811142578125,4.470390796661377,-8.655437469482422,-0.5246263742446899
1772650333082019600,6.82101953125,4.453640937805176,-8.681758880615234,-0.5120640397071838
1772650333091896800,6.830896728515625,4.415356159210205,-8.701499938964844,-0.5521438121795654
1772650333101774000,6.840774169921875,4.398606300354004,-8.646464347839355,-0.5886343717575073
1772650333111651000,6.850651123046875,4.398007869720459,-8.591429710388184,-0.5772684812545776
1772650333121528300,6.8605283203125,4.41057014465332,-8.59621524810791,-0.5365904569625854
1772650333131405600,6.870405517578125,4.329214572906494,-8.638090133666992,-0.4217349886894226
1772650333141282600,6.880282470703125,4.3657050132751465,-8.700303077697754,-0.4163511395454407
1772650333151159800,6.890159912109375,4.3752760887146,-8.707481384277344,-0.4091726839542389
1772650333161036800,6.900036865234375,4.403990268707275,-8.72183895111084,-0.4163511395454407
1772650333170914000,6.9099140625,4.425525665283203,-8.718847274780273,-0.3924229145050049
1772650333180791300,6.919791259765625,4.442275047302246,-8.735597610473633,-0.38285163044929504
1772650333190668500,6.92966845703125,4.449453830718994,-8.70927619934082,-0.38344982266426086
1772650333200545500,6.939545654296875,4.460819721221924,-8.670990943908691,-0.3978067636489868
1772650333210422800,6.9494228515625,4.482355117797852,-8.656634330749512,-0.41994038224220276
1772650333220299800,6.9592998046875,4.482355117797852,-8.680562019348145,-0.4384847581386566
1772650333230177000,6.969177001953125,4.460819721221924,-8.709874153137207,-0.45224347710609436
1772650333240054300,6.97905419921875,4.441677093505859,-8.719446182250977,-0.4618147611618042
1772650333249931300,6.98893115234375,4.396811485290527,-8.73200798034668,-0.46839502453804016
1772650333259808500,6.99880859375,4.370490550994873,-8.703293800354004,-0.4833501875400543
1772650333269685500,7.008685546875,4.389034748077393,-8.676374435424805,-0.4833501875400543
1772650333279562800,7.018562744140625,4.41057014465332,-8.640482902526855,-0.45523449778556824
1772650333289440000,7.02843994140625,4.448855400085449,-8.649456024169922,-0.4336991012096405
1772650333299317000,7.03831689453125,4.453640937805176,-8.693124771118164,-0.4097708761692047
1772650333309194200,7.0481943359375,4.497310161590576,-8.732605934143066,-0.3762713670730591
1772650333319071500,7.058071533203125,4.53499698638916,-8.723034858703613,-0.3475574851036072
1772650333328948500,7.067948486328125,4.551746845245361,-8.694320678710938,-0.3433700501918793
1772650333338825700,7.07782568359375,4.5206403732299805,-8.68774127960205,-0.364905446767807
1772650333348703000,7.087702880859375,4.513461589813232,-8.714061737060547,-0.3978067636489868
1772650333358580000,7.097580078125,4.47278356552124,-8.719446182250977,-0.4498506486415863
1772650333368457200,7.107457275390625,4.425525665283203,-8.72901725769043,-0.45942193269729614
1772650333378334200,7.117334228515625,4.425525665283203,-8.729615211486816,-0.4666004180908203
1772650333388211500,7.12721142578125,4.448855400085449,-8.71226692199707,-0.4546363055706024
1772650333398088700,7.137088623046875,4.453640937805176,-8.724231719970703,-0.4307080805301666
1772650333407965700,7.146965576171875,4.439284324645996,-8.71226692199707,-0.4163511395454407
1772650333417843000,7.156843017578125,4.432703971862793,-8.704490661621094,-0.4001995921134949
1772650333427720200,7.16672021484375,4.482355117797852,-8.708678245544434,-0.3595215976238251
1772650333437597200,7.17659716796875,4.479962348937988,-8.682356834411621,-0.3529413342475891
1772650333447474400,7.186474365234375,4.518247127532959,-8.656036376953125,-0.34636107087135315
1772650333457351700,7.1963515625,4.511068820953369,-8.658429145812988,-0.3529413342475891
1772650333467228700,7.206228759765625,4.506283283233643,-8.670392990112305,-0.3888336718082428
1772650333477106000,7.21610595703125,4.487140655517578,-8.711668968200684,-0.41934216022491455
1772650333486983000,7.22598291015625,4.4273200035095215,-8.733802795410156,-0.46420758962631226
1772650333496860200,7.235860107421875,4.432105541229248,-8.73200798034668,-0.50907301902771
1772650333506737400,7.2457373046875,4.4512481689453125,-8.703293800354004,-0.5240281820297241
1772650333516614400,7.255614501953125,4.491328239440918,-8.662017822265625,-0.5054838061332703
1772650333526491600,7.26549169921875,4.536791801452637,-8.63330364227295,-0.45104706287384033
1772650333536368600,7.27536865234375,4.534399032592773,-8.639883995056152,-0.4223332107067108
1772650333546246000,7.285245849609375,4.5200419425964355,-8.649456024169922,-0.4223332107067108
1772650333556123100,7.295123046875,4.53200626373291,-8.656634330749512,-0.4342973232269287
1772650333566000000,7.305000244140625,4.524827480316162,-8.656634330749512,-0.42711883783340454
1772650333575877400,7.31487744140625,4.48414945602417,-8.656634330749512,-0.4247260093688965
1772650333585754400,7.32475439453125,4.462614059448242,-8.644669532775879,-0.43190449476242065
1772650333595631600,7.334631591796875,4.4512481689453125,-8.657232284545898,-0.44327038526535034
1772650333605508900,7.3445087890625,4.4584269523620605,-8.654241561889648,-0.42711883783340454
1772650333615385900,7.3543857421875,4.444069862365723,-8.673383712768555,-0.4217349886894226
1772650333625263000,7.36426318359375,4.456034183502197,-8.68774127960205,-0.39062830805778503
1772650333635140400,7.374140380859375,4.463212490081787,-8.69491958618164,-0.3810569941997528
1772650333645017300,7.384017333984375,4.4584269523620605,-8.690134048461914,-0.37148571014404297
1772650333654894600,7.39389453125,4.456034183502197,-8.699705123901367,-0.357128769159317
1772650333664771800,7.403771728515625,4.46560525894165,-8.69491958618164,-0.36670008301734924
1772650333674648800,7.41364892578125,4.484747886657715,-8.684749603271484,-0.3720839321613312
1772650333684526000,7.423526123046875,4.499104976654053,-8.670392990112305,-0.3768695592880249
1772650333694403000,7.433403076171875,4.496711730957031,-8.679964065551758,-0.364905446767807
1772650333704280300,7.4432802734375,4.4584269523620605,-8.682356834411621,-0.36729827523231506
1772650333714157600,7.453157470703125,4.4273200035095215,-8.670990943908691,-0.3930211067199707
1772650333724034600,7.46303466796875,4.41057014465332,-8.671588897705078,-0.4289134442806244
1772650333733911800,7.472911865234375,4.393820762634277,-8.676374435424805,-0.45523449778556824
1772650333743788800,7.482788818359375,4.393820762634277,-8.676374435424805,-0.4336991012096405
1772650333753666000,7.492666015625,4.405784606933594,-8.695517539978027,-0.4145565330982208
1772650333763543300,7.502543212890625,4.4344987869262695,-8.718847274780273,-0.4019941985607147
1772650333773420300,7.512420166015625,4.463212490081787,-8.721240043640137,-0.36670008301734924
1772650333783297500,7.522297607421875,4.448855400085449,-8.69491958618164,-0.357128769159317
1772650333793174500,7.532174560546875,4.489533424377441,-8.660223007202148,-0.32662028074264526
1772650333803051800,7.5420517578125,4.511068820953369,-8.645866394042969,-0.3128615617752075
1772650333812929000,7.551928955078125,4.499104976654053,-8.651249885559082,-0.32721850275993347
1772650333822806000,7.561805908203125,4.489533424377441,-8.644071578979492,-0.364905446767807
1772650333832683300,7.571683349609375,4.506283283233643,-8.653642654418945,-0.3840480446815491
1772650333842560300,7.581560302734375,4.506283283233643,-8.69491958618164,-0.39062830805778503
1772650333852437500,7.5914375,4.484747886657715,-8.711668968200684,-0.4217349886894226
1772650333862314800,7.601314697265625,4.47278356552124,-8.717052459716797,-0.44027936458587646
1772650333872191700,7.611191650390625,4.4751763343811035,-8.700303077697754,-0.4408775866031647
1772650333882069000,7.621069091796875,4.479962348937988,-8.668598175048828,-0.4175475537776947
1772650333891946000,7.630946044921875,4.484747886657715,-8.649456024169922,-0.39601215720176697
1772650333901823200,7.6408232421875,4.506283283233643,-8.646464347839355,-0.37926238775253296
1772650333911700500,7.650700439453125,4.523033142089844,-8.677571296691895,-0.3840480446815491
1772650333921577500,7.660577392578125,4.561318397521973,-8.641678810119629,-0.3798605799674988
1772650333931454700,7.670454833984375,4.30588436126709,-8.632705688476562,-0.36670008301734924
1772650333941332000,7.68033203125,4.516452789306641,-8.756534576416016,-0.3852444589138031
1772650333951209000,7.690208984375,4.6408796310424805,-8.720044136047363,-0.3290131092071533
1772650333961086200,7.700086181640625,4.563711166381836,-8.641080856323242,-0.32721850275993347
1772650333970963200,7.709963134765625,4.6163530349731445,-8.598010063171387,-0.31345975399017334
1772650333980840400,7.71984033203125,4.589433670043945,-8.584251403808594,-0.33738797903060913
1772650333990717700,7.7297177734375,4.522434711456299,-8.594420433044434,-0.40378883481025696
1772650334000594700,7.7395947265625,4.488935470581055,-8.580063819885254,-0.4181457459926605
1772650334010472000,7.749471923828125,4.5200419425964355,-8.568099975585938,-0.41874396800994873
1772650334020349000,7.759348876953125,4.570291042327881,-8.613563537597656,-0.39900317788124084
1772650334030226200,7.76922607421875,4.564309120178223,-8.885746955871582,-0.40319061279296875
1772650334040103400,7.779103515625,4.4614176750183105,-8.83071231842041,-0.40319061279296875
1772650334049980400,7.78898046875,4.478167533874512,-8.737391471862793,-0.3523431420326233
1772650334059857700,7.798857666015625,4.573282241821289,-8.643473625183105,-0.3152543902397156
