time,seconds_elapsed,z,y,x
1772651015030887700,-0.0051123046875,10.51107120513916,-1.083350419998169,0.8937192559242249
1772651015040765200,0.00476513671875,9.89551830291748,-0.760917603969574,0.9469595551490784
1772651015050642400,0.014642333984375,9.18843936920166,-0.6927221417427063,0.849452018737793
1772651015060519700,0.024519775390625,8.619544982910156,-0.6041877269744873,0.8691928386688232
1772651015070397200,0.034397216796875,8.430512428283691,-0.4342973232269287,0.9996016621589661
1772651015080274400,0.0442744140625,8.499305725097656,-0.23270200192928314,1.113858938217163
1772651015090152000,0.05415185546875,8.654241561889648,-0.1417747437953949,1.353141188621521
1772651015100029200,0.064029296875,8.8648099899292,-0.12023933976888657,1.5236297845840454
1772651015109906700,0.07390673828125,9.034700393676758,-0.15493527054786682,1.568495273590088
1772651015119784000,0.083783935546875,9.215956687927246,-0.1585244983434677,1.6133606433868408
1772651015129661400,0.093661376953125,9.397810935974121,-0.15972091257572174,1.6815561056137085
1772651015139538400,0.103538330078125,9.500103950500488,-0.18484555184841156,1.6983058452606201
1772651015169171000,0.1331708984375,9.577272415161133,-0.2183450609445572,1.6983058452606201
1772651015218557700,0.1825576171875,9.861420631408691,-0.12263216078281403,1.8915263414382935
1772651015228435000,0.19243505859375,10.03549861907959,-0.08793623000383377,1.9405791759490967
1772651015238312400,0.2023125,10.145567893981934,-0.11844471842050552,1.97407865524292
1772651015248189700,0.212189697265625,10.133604049682617,-0.137587308883667,1.9674984216690063
1772651015258067200,0.222067138671875,10.073782920837402,-0.11844471842050552,1.978864312171936
1772651015267944700,0.23194482421875,10.030712127685547,-0.06640082597732544,1.9405791759490967
1772651015277822000,0.241822021484375,10.04267692565918,-0.031106693670153618,1.9046868085861206
1772651015287699500,0.251699462890625,10.088140487670898,-0.004785645287483931,1.8753747940063477
1772651015297576700,0.26157666015625,10.144969940185547,0.019142581149935722,1.8843477964401245
1772651015307454000,0.271453857421875,10.16171932220459,0.05742774158716202,1.8795621395111084
1772651015317331500,0.28133154296875,10.14736270904541,0.10049854964017868,1.866999864578247
1772651015327209000,0.291208984375,10.099506378173828,0.14057832956314087,1.8454644680023193
1772651015337086200,0.301086181640625,10.003793716430664,0.14656038582324982,1.7958134412765503
1772651015346963700,0.310963623046875,9.89133071899414,0.12442677468061447,1.7365909814834595
1772651015356841000,0.320841064453125,9.769296646118164,0.12083754688501358,1.6701902151107788
1772651015366718500,0.330718505859375,9.642477035522461,0.16510476171970367,1.5846468210220337
1772651015376595700,0.340595703125,9.489336013793945,0.22133609652519226,1.5391831398010254
1772651015386473200,0.35047314453125,9.317052841186523,0.26560330390930176,1.5086746215820312
1772651015396350500,0.3603505859375,9.178269386291504,0.3242274820804596,1.4416756629943848
1772651015406228000,0.37022802734375,9.068199157714844,0.363709032535553,1.3818551301956177
1772651015416105200,0.380105224609375,9.001200675964355,0.42711883783340454,1.3459627628326416
1772651015425982700,0.389982666015625,8.947959899902344,0.4863412082195282,1.3196417093276978
1772651015435860000,0.39985986328125,8.919246673583984,0.5527420043945312,1.2687941789627075
1772651015445737500,0.409737548828125,8.930612564086914,0.6047859191894531,1.1874382495880127
1772651015455614700,0.41961474609375,8.897112846374512,0.6149554252624512,1.0654042959213257
1772651015465492200,0.4294921875,8.858229637145996,0.6448656916618347,0.9583254456520081
1772651015475369500,0.439369384765625,8.831908226013184,0.6945167779922485,0.8817551732063293
1772651015485247000,0.4492470703125,8.84805965423584,0.7752745151519775,0.8428717851638794
1772651015495124200,0.459124267578125,8.880961418151855,0.8656035661697388,0.8201399445533752
1772651015505001700,0.469001708984375,8.918647766113281,0.9613165259361267,0.8141579031944275
1772651015514879200,0.478879150390625,8.985647201538086,1.0205388069152832,0.7800601720809937
1772651015524756500,0.488756591796875,9.043074607849121,1.022931694984436,0.7226324677467346
1772651015534634000,0.498634033203125,9.147761344909668,0.9984052777290344,0.6299105882644653
1772651015544511200,0.50851123046875,9.269794464111328,0.9577272534370422,0.5485545992851257
1772651015554388700,0.518388671875,9.369695663452148,0.924227774143219,0.5006981492042542
1772651015564266000,0.528265869140625,9.472586631774902,0.890728235244751,0.45284169912338257
1772651015574143500,0.5381435546875,9.561120986938477,0.8763712644577026,0.39541393518447876
1772651015584020700,0.548020751953125,9.625727653503418,0.8614161610603333,0.3290131092071533
1772651015593898200,0.557898193359375,9.66640567779541,0.8422735929489136,0.2602194547653198
1772651015603775700,0.567775634765625,9.616155624389648,0.8321040868759155,0.22911277413368225
1772651015613653000,0.577653076171875,9.496515274047852,0.8530412912368774,0.2273181527853012
1772651015623530500,0.587530517578125,9.388837814331055,0.9218349456787109,0.2554338276386261
1772651015633407700,0.59740771484375,9.359525680541992,0.9625129103660583,0.2763710021972656
1772651015643285200,0.60728515625,9.348159790039062,0.9266205430030823,0.28654050827026367
1772651015653162500,0.61716259765625,9.326624870300293,0.8871390223503113,0.3678964674472809
1772651015663040000,0.6270400390625,9.336793899536133,0.849452018737793,0.43968117237091064
1772651015672917200,0.636917236328125,9.382257461547852,0.802193820476532,0.49232324957847595
1772651015682794800,0.646794677734375,9.473184585571289,0.7770691514015198,0.5712863802909851
1772651015692672300,0.65667236328125,9.648459434509277,0.7668996453285217,0.6370890140533447
1772651015702549500,0.666549560546875,9.872786521911621,0.7369893789291382,0.6891329288482666
1772651015712427000,0.676427001953125,10.100104331970215,0.6885347366333008,0.7651050686836243
1772651015722304300,0.68630419921875,10.370492935180664,0.6717849373817444,0.8715856671333313
1772651015732181800,0.696181640625,10.657033920288086,0.6999006271362305,1.0037890672683716
1772651015742059000,0.70605908203125,10.814960479736328,0.7567301392555237,1.1431710720062256
1772651015751936500,0.7159365234375,10.807183265686035,0.8991031050682068,1.3489537239074707
1772651015761814000,0.72581396484375,10.680363655090332,1.0707881450653076,1.6378871202468872
1772651015771691300,0.735691162109375,10.4823579788208,1.1359925270080566,2.0099709033966064
1772651015781568800,0.74556884765625,10.38066291809082,1.0432707071304321,2.400001049041748
1772651015791446000,0.755446044921875,10.494321823120117,0.8057830333709717,2.7116663455963135
1772651015801323500,0.765323486328125,10.990234375,0.4911268353462219,2.82951283454895
1772651015811201000,0.775200927734375,11.770893096923828,0.010169495828449726,2.8103702068328857
1772651015821078300,0.785078369140625,12.749557495117188,-0.503689169883728,2.568695068359375
1772651015830955800,0.794955810546875,13.654044151306152,-1.0887342691421509,2.1517457962036133
1772651015840819500,0.8048193359375,14.336596488952637,-1.6630117893218994,1.659422516822815
1772651015850710500,0.81471044921875,14.710474967956543,-2.139183521270752,1.1485549211502075
1772651015860588000,0.824588134765625,14.834901809692383,-2.383849620819092,0.6502495408058167
1772651015870465300,0.83446533203125,14.676377296447754,-2.3880369663238525,0.24825534224510193
1772651015880342800,0.8443427734375,14.197813034057617,-2.1774685382843018,0.04307080805301666
1772651015890220000,0.854219970703125,13.438690185546875,-1.8317056894302368,0.10887342691421509
1772651015900083700,0.864083740234375,12.43968677520752,-1.469791293144226,0.3852444589138031
1772651015909974800,0.873974853515625,11.179865837097168,-1.0648061037063599,0.8386843204498291
1772651015919852300,0.883852294921875,9.66819953918457,-1.0432707071304321,0.9655039310455322
1772651015929716000,0.893716064453125,8.502297401428223,-0.9397810697555542,0.9852447509765625
1772651015939607000,0.90360693359375,7.612166881561279,-0.6323033571243286,1.1186445951461792
1772651015949484500,0.913484619140625,6.792625427246094,-0.41874396800994873,1.2795618772506714
1772651015959348200,0.92334814453125,6.216553211212158,-0.2021935135126114,1.4482558965682983
1772651015969239300,0.9332392578125,6.072385787963867,0.07357929646968842,1.672582983970642
1772651015979116800,0.94311669921875,6.365506649017334,0.24825534224510193,1.8269200325012207
1772651015988994000,0.952994140625,7.331010341644287,0.21954147517681122,1.9764715433120728
1772651015998871600,0.96287158203125,8.353941917419434,0.03888336941599846,2.1242282390594482
1772651016008748800,0.972748779296875,9.181859016418457,-0.21714866161346436,2.0141584873199463
1772651016018612700,0.98261279296875,9.974481582641602,-0.41216370463371277,1.7611174583435059
1772651016028503800,0.99250390625,10.600802421569824,-0.5814558863639832,1.5170495510101318
1772651016038381000,1.002381103515625,10.947163581848145,-0.7232306599617004,1.2628121376037598
1772651016048244700,1.01224462890625,11.088339805603027,-0.833898663520813,1.093519926071167
1772651016058136000,1.022135986328125,10.909476280212402,-0.900897741317749,1.1042876243591309
1772651016068013300,1.032013427734375,10.505687713623047,-0.7968099117279053,1.2029916048049927
1772651016077890800,1.041890869140625,10.022337913513184,-0.5665007829666138,1.2885349988937378
1772651016087768000,1.05176806640625,9.482157707214355,-0.35054850578308105,1.3663017749786377
1772651016097645600,1.0616455078125,8.924630165100098,-0.23270200192928314,1.420140266418457
1772651016107509200,1.07150927734375,8.394619941711426,-0.18424734473228455,1.4925230741500854
1772651016117400300,1.081400390625,7.886145114898682,-0.1333998590707779,1.5607185363769531
1772651016127277800,1.09127783203125,7.462615489959717,-0.050847481936216354,1.5828521251678467
1772651016137141500,1.1011416015625,7.1611199378967285,0.046061836183071136,1.5708880424499512
1772651016147032600,1.111032470703125,6.988836765289307,0.1740778535604477,1.5828521251678467
1772651016156910000,1.12091015625,6.912266254425049,0.3122633695602417,1.6145570278167725
1772651016166787600,1.13078759765625,7.009175777435303,0.4827519655227661,1.6648063659667969
1772651016176664800,1.140664794921875,7.2430739402771,0.6586244106292725,1.755733609199524
1772651016186542300,1.150542236328125,7.445865631103516,0.7339983582496643,1.825723648071289
1772651016196419600,1.160419677734375,7.455437183380127,0.7094719409942627,1.7754744291305542
1772651016206297000,1.170297119140625,7.414759159088135,0.6460621356964111,1.6474584341049194
1772651016216174600,1.180174560546875,7.421937465667725,0.589830756187439,1.5050854682922363
1772651016226051800,1.1900517578125,7.467401027679443,0.5389832854270935,1.3962119817733765
1772651016235929300,1.199929443359375,7.548757076263428,0.48095735907554626,1.2795618772506714
1772651016245806800,1.209806884765625,7.65583610534668,0.41096729040145874,1.1324033737182617
1772651016255684000,1.21968408203125,7.808976650238037,0.34995031356811523,0.9391828775405884
1772651016265561600,1.2295615234375,8.002197265625,0.30568310618400574,0.719641387462616
1772651016275438800,1.23943896484375,8.188239097595215,0.30209386348724365,0.5401797294616699
1772651016285316400,1.24931640625,8.350353240966797,0.3206382393836975,0.4133601188659668
1772651016295193900,1.25919384765625,8.481359481811523,0.355932354927063,0.3290131092071533
1772651016305071000,1.269071044921875,8.5764741897583,0.4181457459926605,0.29730820655822754
1772651016314948600,1.278948486328125,8.683553695678711,0.542572557926178,0.3026920557022095
1772651016324826000,1.288826171875,8.737990379333496,0.6532405614852905,0.3200400173664093
1772651016334703400,1.298703369140625,8.692526817321777,0.7657032608985901,0.3595215976238251
1772651016344580900,1.308580810546875,8.660821914672852,0.9038887619972229,0.3774677813053131
1772651016354458000,1.3184580078125,8.741579055786133,1.0037890672683716,0.3643072545528412
1772651016364335600,1.328335693359375,8.941978454589844,1.0474581718444824,0.38703906536102295
1772651016374213000,1.338213134765625,9.151947975158691,1.0558329820632935,0.4169493317604065
1772651016384090400,1.34809033203125,9.384052276611328,1.0689935684204102,0.4325026869773865
1772651016393967900,1.3579677734375,9.663414001464844,1.079761266708374,0.47676992416381836
1772651016403845400,1.367845458984375,9.954740524291992,1.0456634759902954,0.544965386390686
1772651016413722600,1.37772265625,10.25623607635498,0.9804590940475464,0.5784648656845093
1772651016423600000,1.38760009765625,10.51944637298584,0.8715856671333313,0.5784648656845093
1772651016433477600,1.3974775390625,10.908878326416016,0.8045865893363953,0.5748756527900696
1772651016443355100,1.407355224609375,11.34676456451416,0.6993024349212646,0.6604190468788147
1772651016453232400,1.417232421875,11.743973731994629,0.5515456199645996,0.7627122402191162
1772651016463096000,1.427095947265625,12.103495597839355,0.3798605799674988,0.9014959335327148
1772651016472987100,1.436987060546875,12.436097145080566,0.2805584669113159,1.0845468044281006
1772651016482864600,1.44686474609375,12.696316719055176,0.3355933725833893,1.2424731254577637
1772651016492742100,1.4567421875,12.707682609558105,0.49710890650749207,1.445863127708435
1772651016502619400,1.466619384765625,12.359527587890625,0.5712863802909851,1.8729819059371948
1772651016512497000,1.476496826171875,11.650653839111328,0.5653043389320374,2.297708034515381
1772651016522374400,1.48637451171875,11.2247314453125,0.5341976284980774,2.6973092555999756
1772651016532251600,1.496251708984375,11.304292678833008,0.49651068449020386,3.1998021602630615
1772651016542129200,1.506129150390625,11.70150089263916,0.35533416271209717,3.559921979904175
1772651016552006700,1.516006591796875,12.32363510131836,0.03349951654672623,3.551547050476074
1772651016561884000,1.5258837890625,13.096516609191895,-0.37028929591178894,3.163909673690796
1772651016571761400,1.535761474609375,13.754542350769043,-0.8189435601234436,2.6398816108703613
1772651016581639000,1.545638916015625,13.944173812866211,-1.3100703954696655,2.1056840419769287
1772651016591516200,1.55551611328125,13.718650817871094,-1.7617156505584717,1.6271194219589233
1772651016601393700,1.5653935546875,13.207782745361328,-2.0644078254699707,1.2867404222488403
1772651016611271200,1.575271240234375,12.632308959960938,-2.1589243412017822,1.1108678579330444
1772651016621148400,1.5851484375,12.096915245056152,-2.087737798690796,1.0480563640594482
1772651016631026000,1.59502587890625,11.781062126159668,-2.0207388401031494,0.9505487680435181
1772651016640903400,1.6049033203125,11.788240432739258,-2.0410776138305664,0.7770691514015198
1772651016650780700,1.61478076171875,11.798410415649414,-2.1954147815704346,0.5760720372200012
1772651016660658200,1.624658203125,11.59561824798584,-2.362314224243164,0.4666004180908203
1772651016670535700,1.63453564453125,11.051251411437988,-2.420340061187744,0.5838487148284912
1772651016680413000,1.644412841796875,10.016355514526367,-2.228316068649292,0.6281159520149231
1772651016690290400,1.65429052734375,8.988637924194336,-1.9334007501602173,0.7100701332092285
1772651016700154000,1.664154052734375,8.190033912658691,-1.6510475873947144,1.0845468044281006
1772651016710045200,1.674045166015625,7.568498134613037,-1.3244273662567139,1.607378602027893
1772651016719922700,1.683922607421875,7.106683254241943,-1.0103694200515747,1.9399809837341309
1772651016729786400,1.693786376953125,6.836294174194336,-0.7597211599349976,2.0691933631896973
1772651016739677400,1.703677490234375,6.845267295837402,-0.6143572330474854,2.0889341831207275
1772651016749555000,1.713554931640625,7.081558704376221,-0.5659025311470032,2.0207388401031494
1772651016759432400,1.723432373046875,7.415955543518066,-0.6161518096923828,1.8915263414382935
1772651016769309700,1.733309814453125,7.749754428863525,-0.722034215927124,1.6671991348266602
1772651016779187200,1.743187255859375,8.101499557495117,-0.8207381963729858,1.4171491861343384
1772651016789064700,1.753064697265625,8.406583786010742,-0.8739784955978394,1.197009563446045
1772651016798942000,1.76294189453125,8.597412109375,-0.8584251403808594,1.0079765319824219
1772651016808819500,1.7728193359375,8.654241561889648,-0.7621139883995056,0.8422735929489136
1772651016818697000,1.782697021484375,8.608179092407227,-0.605384111404419,0.7645068168640137
1772651016828574200,1.79257421875,8.526225090026855,-0.4217349886894226,0.7872386574745178
1772651016838451700,1.80245166015625,8.417949676513672,-0.2111666053533554,0.8662018179893494
1772651016848329200,1.8123291015625,8.338388442993164,0.008973085321485996,0.9906286001205444
1772651016858206500,1.82220654296875,8.249256134033203,0.20578274130821228,1.1581261157989502
1772651016868084000,1.832083984375,8.074580192565918,0.4259224236011505,1.31365966796875
1772651016877961500,1.84196142578125,7.844270706176758,0.631106972694397,1.4297115802764893
1772651016887839000,1.8518388671875,7.590631484985352,0.7950153350830078,1.4691931009292603
1772651016897716200,1.86171630859375,7.424928665161133,0.9756734371185303,1.4799607992172241
1772651016907593700,1.87159375,7.438687324523926,1.1335997581481934,1.454237937927246
1772651016917471200,1.88147119140625,7.572087287902832,1.210170030593872,1.4386845827102661
1772651016927348500,1.891348388671875,7.682157039642334,1.205384373664856,1.4165509939193726
1772651016937226000,1.90122607421875,7.744370460510254,1.179063320159912,1.3956137895584106
1772651016947103500,1.911103515625,7.827520847320557,1.1868400573730469,1.4021940231323242
1772651016956980700,1.920980712890625,8.014161109924316,1.1826525926589966,1.3968101739883423
1772651016966858200,1.930858154296875,8.358129501342773,1.109073281288147,1.296311616897583
1772651016976735700,1.94073583984375,8.809774398803711,0.9571290612220764,1.1892328262329102
1772651016986613000,1.950613037109375,9.145966529846191,0.6059823632240295,0.9649057388305664
1772651016996490500,1.960490478515625,9.401998519897461,0.2709871530532837,0.8123632669448853
1772651017006368000,1.970367919921875,9.799206733703613,0.019142581149935722,0.4247260093688965
1772651017016245200,1.980245361328125,10.193424224853516,-0.19980068504810333,0.12801600992679596
1772651017026109000,1.99010888671875,10.604990005493164,-0.5126622319221497,-0.10648060590028763
1772651017036000300,2.000000244140625,11.019546508789062,-0.7800601720809937,-0.2787638306617737
1772651017045877500,2.00987744140625,11.306685447692871,-0.8769695162773132,-0.2913261651992798
1772651017055755000,2.019755126953125,11.33958625793457,-0.771087110042572,-0.17288143932819366
1772651017065632500,2.029632568359375,11.169097900390625,-0.49710890650749207,0.058624155819416046
1772651017075510000,2.039510009765625,10.853245735168457,-0.10588239878416061,0.4342973232269287
1772651017085387300,2.04938720703125,10.073184967041016,0.2727817893028259,0.7316055297851562
1772651017095264800,2.0592646484375,9.160323143005371,0.5353940725326538,0.8392825126647949
1772651017105142300,2.069142333984375,8.3898344039917,0.7435696125030518,0.9493523836135864
1772651017115006000,2.079005859375,7.99083137512207,0.8997012972831726,1.0307083129882812
1772651017124897000,2.08889697265625,7.770691394805908,0.9517452120780945,1.0307083129882812
1772651017134774500,2.0987744140625,7.739584922790527,0.9272187948226929,0.9451649188995361
1772651017144651800,2.10865185546875,7.945367813110352,0.7692924737930298,0.8129615187644958
1772651017154529300,2.118529296875,8.242077827453613,0.5712863802909851,0.7136593461036682
1772651017164406800,2.12840673828125,8.636893272399902,0.47676992416381836,0.6771687865257263
1772651017174284300,2.1382841796875,9.134002685546875,0.46719861030578613,0.6993024349212646
1772651017184161500,2.14816162109375,9.70229721069336,0.4983053207397461,0.7519445419311523
1772651017194039000,2.1580390625,10.28734302520752,0.605384111404419,0.9702895879745483
1772651017203916500,2.16791650390625,10.654641151428223,0.6801598072052002,1.2065808773040771
1772651017213793800,2.177793701171875,10.584053039550781,0.5030909776687622,1.1635099649429321
1772651017223671300,2.18767138671875,10.325029373168945,0.24526432156562805,0.9978070259094238
1772651017233548800,2.197548828125,10.248459815979004,0.09272187948226929,0.7776673436164856
1772651017243426000,2.207426025390625,10.121041297912598,-0.16510476171970367,0.776470959186554
1772651017253303600,2.217303466796875,10.04447078704834,-0.2997010350227356,0.7112665176391602
1772651017263181000,2.22718115234375,10.101301193237305,-0.27038896083831787,0.5222335457801819
1772651017273058600,2.23705859375,10.518848419189453,-0.14117653667926788,0.6604190468788147
1772651017282935800,2.246935791015625,10.405787467956543,-0.42771705985069275,0.6514459848403931
1772651017292813300,2.256813232421875,10.192228317260742,-0.7896314859390259,0.5916253924369812
1772651017302690800,2.26669091796875,10.087542533874512,-0.9272187948226929,0.7148557901382446
1772651017312568000,2.276568115234375,10.128219604492188,-0.7998009920120239,1.0277173519134521
1772651017322445600,2.286445556640625,10.034899711608887,-0.6269195079803467,1.469791293144226
1772651017332323000,2.296322998046875,9.728020668029785,-0.6323033571243286,2.004587173461914
1772651017342200300,2.306200439453125,9.570094108581543,-0.9248259663581848,2.441875457763672
1772651017352077800,2.316077880859375,9.627521514892578,-1.428515076637268,2.627917528152466
1772651017361955300,2.325955322265625,9.57487964630127,-1.9806588888168335,2.5459632873535156
1772651017371832800,2.335832763671875,9.440881729125977,-2.7870402336120605,2.0446670055389404
1772651017381696300,2.3456962890625,9.464211463928223,-3.597608804702759,1.3214362859725952
1772651017391587600,2.355587646484375,9.81236743927002,-4.273581027984619,0.5928218364715576
1772651017401465000,2.365465087890625,10.381260871887207,-4.594817638397217,-0.03290131315588951
1772651017411328800,2.375328857421875,11.355737686157227,-4.691128730773926,-0.3002992272377014
1772651017421219800,2.3852197265625,11.893525123596191,-4.741377830505371,-0.24885354936122894
1772651017431097300,2.395097412109375,12.384053230285645,-4.217947959899902,0.4013960063457489
1772651017440961000,2.4049609375,13.114462852478027,-3.468994617462158,1.9016958475112915
1772651017450852000,2.41485205078125,11.81157112121582,-3.187239646911621,1.92741858959198
1772651017460729600,2.4247294921875,10.53081226348877,-3.3708889484405518,1.181456208229065
1772651017470593300,2.43459326171875,9.9140625,-3.483351469039917,0.6227321028709412
1772651017480484400,2.444484375,9.672985076904297,-3.6747772693634033,0.13220344483852386
1772651017490361900,2.45436181640625,9.31047248840332,-4.0319061279296875,-0.39900317788124084
1772651017500225500,2.4642255859375,8.329415321350098,-4.456034183502197,-0.9846464991569519
1772651017510116600,2.47411669921875,7.052844524383545,-4.810171604156494,-1.3525429964065552
1772651017519994000,2.483994140625,6.08614444732666,-5.064409255981445,-1.3992030620574951
1772651017529857800,2.49385791015625,5.582455158233643,-5.073980331420898,-1.1922239065170288
1772651017539748900,2.503748779296875,5.567500114440918,-4.9124650955200195,-1.0145567655563354
1772651017549626400,2.51362646484375,6.037689685821533,-4.7365922927856445,-1.0277173519134521
1772651017559504000,2.52350390625,6.9684977531433105,-4.595416069030762,-1.046859860420227
1772651017569381400,2.53338134765625,7.985447406768799,-4.439284324645996,-1.1216355562210083
1772651017579258600,2.543258544921875,8.870193481445312,-4.203591346740723,-1.2699905633926392
1772651017589122300,2.553122314453125,9.358927726745605,-3.9284164905548096,-1.3651052713394165
1772651017599013600,2.563013671875,9.252447128295898,-3.7387852668762207,-1.4261223077774048
1772651017608891000,2.572890869140625,8.595617294311523,-3.61435866355896,-1.4015958309173584
1772651017618768400,2.582768310546875,7.818548202514648,-3.476771354675293,-1.1665010452270508
1772651017628646000,2.59264599609375,7.109674453735352,-3.3134610652923584,-0.7794619798660278
1772651017638523400,2.6025234375,6.531209468841553,-3.1316065788269043,-0.4743770956993103
1772651017648400600,2.612400634765625,6.275177478790283,-2.956930637359619,-0.26979073882102966
1772651017658278100,2.622278076171875,6.3391852378845215,-2.822932481765747,-0.23629122972488403
1772651017668155600,2.63215576171875,6.605985164642334,-2.768495798110962,-0.47557350993156433
1772651017678033200,2.642033203125,6.799205780029297,-2.80558443069458,-0.9457631707191467
1772651017687910400,2.651910400390625,6.955935478210449,-2.8552355766296387,-1.4243277311325073
1772651017697788000,2.661787841796875,7.158727169036865,-2.9772696495056152,-1.836491346359253
1772651017707665400,2.67166552734375,7.4362945556640625,-3.1818559169769287,-2.1571295261383057
1772651017717542700,2.681542724609375,7.852047443389893,-3.3690943717956543,-2.3784656524658203
1772651017727420200,2.691420166015625,8.270791053771973,-3.5994033813476562,-2.482553482055664
1772651017737297700,2.701297607421875,8.685347557067871,-3.8697924613952637,-2.455035924911499
1772651017747175000,2.7111748046875,9.22134017944336,-4.05703067779541,-2.292922258377075
1772651017757052400,2.721052490234375,9.91705322265625,-4.109673023223877,-2.0991036891937256
1772651017766916000,2.730916015625,10.664810180664062,-4.0319061279296875,-1.9507486820220947
1772651017776807400,2.740807373046875,11.457432746887207,-3.9248273372650146,-1.8167506456375122
1772651017786684700,2.7506845703125,12.09212875366211,-3.820739507675171,-1.6983058452606201
1772651017796548400,2.76054833984375,12.242877006530762,-3.762713670730591,-1.6444673538208008
1772651017806439700,2.770439697265625,12.072986602783203,-3.7328033447265625,-1.6971094608306885
1772651017816317000,2.78031689453125,11.84865951538086,-3.786641836166382,-1.714457392692566
1772651017826194400,2.7901943359375,11.523834228515625,-3.799204111099243,-1.6917256116867065
1772651017836072000,2.800072021484375,11.120044708251953,-3.7292141914367676,-1.705484390258789
1772651017845949400,2.809949462890625,10.555936813354492,-3.6167514324188232,-1.685145378112793
1772651017855826700,2.81982666015625,9.872187614440918,-3.4947173595428467,-1.6145570278167725
1772651017865704200,2.8297041015625,9.157930374145508,-3.4061830043792725,-1.5535401105880737
1772651017875581700,2.839581787109375,8.59920597076416,-3.3074791431427,-1.461416482925415
1772651017885445400,2.8494453125,8.25703239440918,-3.208775281906128,-1.2729816436767578
1772651017895336400,2.85933642578125,7.990232944488525,-3.1716864109039307,-1.0414760112762451
1772651017905214000,2.8692138671875,7.7940216064453125,-3.0717861652374268,-0.7130611538887024
1772651017915091500,2.879091552734375,7.631907939910889,-2.8809585571289062,-0.3332005441188812
1772651017924968700,2.88896875,7.490731239318848,-2.778067111968994,-0.038285162299871445
1772651017934846200,2.89884619140625,7.280761241912842,-2.7535407543182373,0.12203395366668701
1772651017944723700,2.9087236328125,7.106683254241943,-2.717050075531006,0.24646073579788208
1772651017954601200,2.918601318359375,7.10429048538208,-2.6602206230163574,0.4576273262500763
1772651017964478500,2.928478515625,7.341179847717285,-2.5944180488586426,0.8111668825149536
1772651017974356000,2.93835595703125,7.451249599456787,-2.5740790367126465,1.1300104856491089
1772651017984233500,2.9482333984375,7.404589653015137,-2.7044878005981445,1.217348575592041
1772651017994110700,2.95811083984375,7.448258876800537,-2.9485557079315186,1.1216355562210083
1772651018003988200,2.96798828125,7.620542049407959,-3.040679454803467,1.1910275220870972
1772651018013865700,2.97786572265625,8.054839134216309,-2.8761727809906006,1.4979069232940674
1772651018023743000,2.987742919921875,8.70628547668457,-2.6117658615112305,1.7240287065505981
1772651018033606700,2.997606689453125,9.492327690124512,-2.5938198566436768,1.7635103464126587
1772651018043498000,3.007498046875,10.134202003479004,-3.050848960876465,1.6606189012527466
1772651018053375500,3.01737548828125,10.237691879272461,-3.872185230255127,1.5092729330062866
1772651018063239200,3.0272392578125,10.04686450958252,-4.554139614105225,1.3860424757003784
1772651018073130200,3.037130126953125,9.847063064575195,-4.859224796295166,1.4422738552093506
1772651018083007700,3.0470078125,9.477970123291016,-4.9501519203186035,1.8041882514953613
1772651018092885000,3.056885009765625,9.41037368774414,-4.752145767211914,2.1505494117736816
1772651018102762500,3.066762451171875,9.604191780090332,-4.500301361083984,2.459223508834839
1772651018112640000,3.076639892578125,10.316056251525879,-4.11625337600708,2.423929452896118
1772651018122517500,3.086517578125,11.027322769165039,-4.133601188659668,1.7784653902053833
1772651018132394800,3.096394775390625,13.569099426269531,-4.004388809204102,0.8237292170524597
1772651018142272300,3.106272216796875,16.283157348632812,-4.869992256164551,0.5461617708206177
1772651018152136000,3.116135986328125,16.305889129638672,-5.755336761474609,-0.753140926361084
1772651018162027300,3.12602734375,15.837494850158691,-6.324230194091797,-2.2851455211639404
1772651018171904500,3.135904541015625,14.375480651855469,-6.668796539306641,-3.119642496109009
1772651018181768200,3.145768310546875,12.20219898223877,-6.782455921173096,-3.352942705154419
1772651018191659500,3.155659423828125,10.259825706481934,-6.589235305786133,-3.1621150970458984
1772651018201536800,3.165536865234375,8.968897819519043,-6.075376510620117,-2.499901533126831
1772651018211400400,3.175400390625,8.208578109741211,-5.457430362701416,-1.683350682258606
1772651018221291800,3.185291748046875,7.710870742797852,-5.002195835113525,-0.9786644577980042
1772651018231169300,3.195169189453125,7.347760200500488,-4.657031059265137,-0.4091726839542389
1772651018241032700,3.20503271484375,7.146164894104004,-4.398606300354004,0.003589233849197626
1772651018250924000,3.214924072265625,7.050451755523682,-4.246063709259033,0.3194418251514435
1772651018260801500,3.224801513671875,7.0169525146484375,-4.122235298156738,0.5300102233886719
1772651018270679000,3.234678955078125,7.05763053894043,-4.103092670440674,0.5365904569625854
1772651018280556300,3.244556396484375,7.246663570404053,-4.131208419799805,0.5222335457801819
1772651018290433800,3.254433837890625,7.654639720916748,-4.1078782081604,0.5754738450050354
1772651018300311300,3.264311279296875,8.115856170654297,-4.0558342933654785,0.5850451588630676
1772651018310188500,3.2741884765625,8.846264839172363,-4.026522159576416,0.6340979933738708
1772651018320066000,3.284066162109375,9.570094108581543,-3.9738802909851074,0.836291491985321
1772651018329929700,3.2939296875,10.04566764831543,-3.8428730964660645,1.0995019674301147
1772651018339821000,3.303821044921875,10.12881851196289,-3.652045488357544,1.3573286533355713
1772651018349698300,3.3136982421875,10.028319358825684,-3.4785659313201904,1.5798611640930176
1772651018359575800,3.323575927734375,10.001399993896484,-3.294318675994873,1.9214365482330322
1772651018369453300,3.333453369140625,10.04686450958252,-3.1956145763397217,2.263011932373047
1772651018379330600,3.34333056640625,9.969097137451172,-3.1680972576141357,2.6847469806671143
1772651018389208000,3.3532080078125,9.729815483093262,-3.0412776470184326,2.8325037956237793
1772651018399085600,3.36308544921875,9.475577354431152,-2.8492536544799805,2.8073792457580566
1772651018408963000,3.372963134765625,9.22433090209961,-2.7361927032470703,2.7284159660339355
1772651018418840300,3.38284033203125,9.080761909484863,-2.7116663455963135,2.569293260574341
1772651018428717800,3.3927177734375,8.941978454589844,-2.717050075531006,2.338984251022339
1772651018438595300,3.40259521484375,8.588438987731934,-2.770888566970825,2.0380866527557373
1772651018448472800,3.412472900390625,8.065009117126465,-2.868396043777466,1.5547364950180054
1772651018458350000,3.42235009765625,7.503891944885254,-3.105883836746216,1.1234302520751953
1772651018468227600,3.4322275390625,7.047461032867432,-3.279961585998535,0.8195417523384094
1772651018478091300,3.44209130859375,6.689733982086182,-3.5222349166870117,0.5467599630355835
1772651018487982300,3.451982421875,6.2775702476501465,-3.66520619392395,0.7471588850021362
1772651018497859800,3.46185986328125,6.240481376647949,-3.4911282062530518,0.4983053207397461
1772651018507737300,3.4717373046875,6.5318074226379395,-3.5294134616851807,0.3284149169921875
1772651018517614800,3.48161474609375,6.8171515464782715,-3.6197423934936523,0.511465847492218
1772651018527492000,3.4914921875,7.17069149017334,-3.6436707973480225,0.6604190468788147
1772651018537369600,3.50136962890625,7.583453178405762,-3.4755749702453613,0.8428717851638794
1772651018547247000,3.5112470703125,8.084749221801758,-3.2937204837799072,0.9846464991569519
1772651018557124600,3.52112451171875,8.70508861541748,-3.108276605606079,1.1306086778640747
1772651018566988000,3.530988037109375,9.280562400817871,-2.960519790649414,1.1940184831619263
1772651018576879400,3.54087939453125,9.697511672973633,-2.9138598442077637,1.1395817995071411
1772651018586756900,3.5507568359375,9.988838195800781,-2.9102704524993896,0.9116654396057129
1772651018596634000,3.560634033203125,9.996016502380371,-2.9892337322235107,0.6340979933738708
1772651018606511600,3.57051171875,9.704689979553223,-3.1268210411071777,0.2883351147174835
1772651018616389000,3.58038916015625,9.284749984741211,-3.3415768146514893,-0.08673982322216034
1772651018626266600,3.5902666015625,8.837890625,-3.477369546890259,-0.3696911036968231
1772651018636143900,3.600143798828125,8.328817367553711,-3.4378879070281982,-0.503689169883728
1772651018646021400,3.610021484375,7.9250288009643555,-3.311666488647461,-0.42293140292167664
1772651018655899000,3.61989892578125,7.814360618591309,-3.1663026809692383,-0.1333998590707779
1772651018665776000,3.629776123046875,7.998608112335205,-2.964707374572754,0.23330020904541016
1772651018675653600,3.639653564453125,8.367700576782227,-2.7020950317382812,0.584446907043457
1772651018685531100,3.64953125,8.737990379333496,-2.5429723262786865,0.8745766878128052
1772651018695408600,3.65940869140625,9.053244590759277,-2.496910333633423,1.1042876243591309
1772651018705286000,3.669285888671875,9.414560317993164,-2.4717857837677,1.3668999671936035
1772651018715163400,3.679163330078125,9.81117057800293,-2.4011974334716797,1.5840486288070679
1772651018725041000,3.689041015625,10.250852584838867,-2.3018953800201416,1.848455548286438
1772651018734918100,3.698918212890625,10.663614273071289,-2.1445672512054443,2.159522533416748
1772651018744795600,3.708795654296875,10.971092224121094,-1.9782661199569702,2.459223508834839
1772651018754673200,3.718673095703125,11.209775924682617,-1.815554141998291,2.733201742172241
1772651018764550700,3.728550537109375,11.272587776184082,-1.7365909814834595,2.985046148300171
1772651018774428000,3.738427978515625,11.248659133911133,-1.6462619304656982,3.200998544692993
1772651018784305400,3.748305419921875,11.252846717834473,-1.3914263248443604,3.3649067878723145
1772651018794183000,3.758182861328125,11.287542343139648,-1.073180913925171,3.4570305347442627
1772651018804060400,3.768060302734375,11.307881355285645,-0.9613165259361267,3.43190598487854
1772651018813937700,3.777937744140625,11.309078216552734,-1.3830515146255493,2.9976086616516113
1772651018823815200,3.787815185546875,11.304890632629395,-2.4059832096099854,2.2480568885803223
1772651018833678800,3.797678955078125,11.688340187072754,-3.5712878704071045,1.7078771591186523
1772651018843570000,3.80756982421875,12.297313690185547,-4.148556232452393,1.4733805656433105
1772651018853447400,3.817447509765625,12.116655349731445,-4.6271209716796875,0.9092726111412048
1772651018863311000,3.82731103515625,12.197413444519043,-4.636692047119141,0.623330295085907
1772651018873202400,3.837202392578125,11.598011016845703,-4.672584533691406,0.32542386651039124
1772651018883079700,3.84707958984375,10.923234939575195,-5.106881618499756,-0.19142581522464752
1772651018892943400,3.856943359375,10.759326934814453,-5.6344990730285645,-0.9601200819015503
1772651018902834700,3.866834716796875,10.89153003692627,-5.734399318695068,-2.217548370361328
1772651018912712000,3.8767119140625,10.943573951721191,-5.758327484130859,-3.8117663860321045
1772651018922575600,3.88657568359375,10.790433883666992,-6.184848308563232,-4.981258392333984
1772651018932467000,3.896467041015625,10.164710998535156,-6.872186660766602,-5.522634506225586
1772651018942344400,3.906344482421875,9.250652313232422,-6.946363925933838,-5.168497085571289
1772651018952208100,3.9162080078125,8.487939834594727,-6.251847267150879,-4.076173305511475
1772651018962099200,3.92609912109375,8.117053031921387,-5.08355188369751,-2.6901309490203857
1772651018971976700,3.935976806640625,8.172087669372559,-3.9667017459869385,-1.3914263248443604
1772651018981840400,3.94584033203125,8.15234661102295,-3.5635111331939697,-0.6329016089439392
1772651018991731500,3.9557314453125,7.625925540924072,-3.6993038654327393,-0.3768695592880249
1772651019001609000,3.96560888671875,6.896114826202393,-4.039682865142822,-0.5419743061065674
1772651019011472600,3.97547265625,6.199803352355957,-4.416552543640137,-0.7812566161155701
1772651019021363700,3.98536376953125,5.67756986618042,-4.799404144287109,-0.9397810697555542
1772651019031241200,3.9952412109375,5.413761138916016,-5.01715087890625,-0.898504912853241
1772651019041118700,4.00511865234375,5.44008207321167,-5.027918815612793,-0.7914260625839233
1772651019050996200,4.014996337890625,5.695516109466553,-4.905884742736816,-0.6197410821914673
1772651019060873500,4.02487353515625,6.192026615142822,-4.758726119995117,-0.3535395562648773
1772651019070751000,4.0347509765625,6.829115867614746,-4.572085857391357,-0.04366901144385338
1772651019080628500,4.04462841796875,7.435696601867676,-4.326223373413086,0.22552353143692017
1772651019090505700,4.054505615234375,7.919644832611084,-4.1419758796691895,0.38644084334373474
1772651019100383200,4.06438330078125,8.310871124267578,-4.051646709442139,0.4223332107067108
1772651019110260700,4.0742607421875,8.652446746826172,-4.063611030578613,0.2991028428077698
1772651019120138200,4.08413818359375,8.891729354858398,-4.1593241691589355,0.1423729509115219
1772651019130015500,4.094015380859375,8.97787094116211,-4.354339122772217,-0.06819544732570648
1772651019139893000,4.10389306640625,8.985647201538086,-4.442873477935791,-0.10049854964017868
1772651019149770500,4.1137705078125,8.708678245544434,-4.431507587432861,-0.035892341285943985
1772651019159648000,4.12364794921875,8.423932075500488,-4.336392879486084,0.0077766734175384045
1772651019169525200,4.133525146484375,8.184051513671875,-4.147958278656006,0.09990034252405167
1772651019179402800,4.14340283203125,7.911269664764404,-3.8566319942474365,0.22133609652519226
1772651019189280300,4.1532802734375,7.749754428863525,-3.500699520111084,0.4205385744571686
1772651019199157500,4.163157470703125,7.631309509277344,-3.108276605606079,0.5772684812545776
1772651019209035000,4.173034912109375,7.63310432434082,-2.950948476791382,0.5778666734695435
1772651019218912500,4.18291259765625,7.867600917816162,-2.916252613067627,0.6005984544754028
1772651019228790000,4.1927900390625,8.275577545166016,-2.9694929122924805,0.6472585201263428
1772651019238667300,4.202667236328125,8.551349639892578,-3.053839921951294,0.6873382925987244
1772651019248544800,4.212544677734375,8.783453941345215,-3.1555347442626953,0.6903293132781982
1772651019258422300,4.22242236328125,8.900103569030762,-3.191427230834961,0.6281159520149231
1772651019268299500,4.232299560546875,8.95513916015625,-3.1657042503356934,0.5318048596382141
1772651019278177000,4.242177001953125,8.935996055603027,-3.1932218074798584,0.4085744619369507
1772651019288054500,4.252054443359375,8.857032775878906,-3.2476584911346436,0.20458634197711945
1772651019297932000,4.26193212890625,8.73320484161377,-3.487539052963257,-0.11904292553663254
1772651019307809300,4.271809326171875,8.714659690856934,-3.8021950721740723,-0.33738797903060913
1772651019317686800,4.281686767578125,8.82532787322998,-3.9762730598449707,-0.4097708761692047
1772651019327564300,4.291564208984375,9.031110763549805,-3.9146578311920166,-0.2991028428077698
1772651019337441800,4.30144189453125,9.211769104003906,-3.8015968799591064,-0.1986042857170105
1772651019347319000,4.311319091796875,9.221938133239746,-3.8297126293182373,-0.2027917206287384
1772651019357196500,4.321196533203125,9.028717994689941,-4.033102512359619,-0.3930211067199707
1772651019367074000,4.331073974609375,8.751749038696289,-4.24785852432251,-0.6047859191894531
1772651019376951300,4.340951416015625,8.547162055969238,-4.452444553375244,-0.7040880918502808
1772651019386828800,4.350828857421875,8.505288124084473,-4.6995038986206055,-0.7896314859390259
1772651019396706300,4.360706298828125,8.568099975585938,-4.771886348724365,-0.7082754969596863
1772651019406583800,4.370583740234375,8.8109712600708,-4.610969066619873,-0.40797626972198486
1772651019416461000,4.3804609375,9.069396018981934,-4.47278356552124,-0.04366901144385338
1772651019426338600,4.390338623046875,9.20578670501709,-4.500899314880371,0.2350948303937912
1772651019436216000,4.400216064453125,9.319445610046387,-4.686941146850586,0.4223332107067108
1772651019446093600,4.410093505859375,9.320642471313477,-4.995017051696777,0.4133601188659668
1772651019455970800,4.419970703125,9.250054359436035,-5.304289817810059,0.28115665912628174
1772651019465848300,4.429848388671875,9.33440113067627,-5.470590591430664,0.27816563844680786
1772651019475725800,4.439725830078125,9.752547264099121,-5.381458282470703,0.45643091201782227
1772651019485603000,4.44960302734375,10.296316146850586,-5.167300701141357,0.7501499056816101
1772651019495480600,4.45948046875,10.72403335571289,-4.983651161193848,1.0803594589233398
1772651019505358000,4.469358154296875,11.172687530517578,-4.8329033851623535,1.456032633781433
1772651019515235600,4.479235595703125,11.500503540039062,-4.763511657714844,1.8472590446472168
1772651019525112800,4.48911279296875,11.481959342956543,-4.790431022644043,2.0620148181915283
1772651019534990300,4.498990234375,11.059626579284668,-4.938187599182129,1.9627127647399902
1772651019544867800,4.508867919921875,10.448260307312012,-5.203192710876465,1.6600207090377808
1772651019554745000,4.5187451171875,10.03848934173584,-5.565107345581055,1.4081761837005615
1772651019564622600,4.52862255859375,9.973284721374512,-5.944369792938232,1.1766705513000488
1772651019574500000,4.5385,10.28195858001709,-6.200401782989502,0.9726824164390564
1772651019584377300,4.54837744140625,10.841280937194824,-6.323033809661865,0.8859425783157349
1772651019594254800,4.5582548828125,11.553146362304688,-6.368497371673584,0.8721838593482971
1772651019604118500,4.568118408203125,12.40140151977539,-6.391827583312988,0.8476574420928955
1772651019614009900,4.578009765625,13.213166236877441,-6.4701924324035645,0.7884350419044495
1772651019623887000,4.58788720703125,13.856237411499023,-6.628716945648193,0.6424728631973267
1772651019633750800,4.597750732421875,14.222339630126953,-6.837490558624268,0.4091726839542389
1772651019643642000,4.60764208984375,14.10568904876709,-7.062416076660156,0.064606212079525
1772651019653519600,4.61751953125,13.410574913024902,-7.241279602050781,-0.3768695592880249
1772651019663396900,4.62739697265625,12.282358169555664,-7.261020183563232,-0.7920243144035339
1772651019673274400,4.6372744140625,10.947163581848145,-7.163512706756592,-1.0378868579864502
1772651019683152000,4.64715185546875,9.558130264282227,-6.8997039794921875,-1.0755738019943237
1772651019693015600,4.657015625,8.508278846740723,-6.478567123413086,-0.8093722462654114
1772651019702906600,4.66690673828125,8.01057243347168,-6.182455539703369,-0.5389832854270935
1772651019712784100,4.6767841796875,7.960322856903076,-6.060421466827393,-0.19980068504810333
1772651019722647800,4.686647705078125,7.920242786407471,-5.977869033813477,0.19800607860088348
1772651019732539000,4.696538818359375,7.939385414123535,-5.84865665435791,0.5084748268127441
1772651019742416400,4.70641650390625,7.944170951843262,-5.699703693389893,0.8883354067802429
1772651019752294000,4.7162939453125,7.76470947265625,-5.585446357727051,1.1479566097259521
1772651019762171100,4.726171142578125,7.4949188232421875,-5.459224700927734,1.2400803565979004
1772651019772048600,4.736048583984375,7.190432071685791,-5.251049518585205,1.4344971179962158
1772651019781926100,4.745926025390625,6.946363925933838,-5.076373100280762,1.5882359743118286
1772651019791803600,4.7558037109375,6.833901405334473,-4.960321426391602,1.8215361833572388
1772651019801681000,4.765680908203125,6.955935478210449,-4.8161540031433105,2.1122641563415527
1772651019811558400,4.775558349609375,7.3160552978515625,-4.561318397521973,2.444866418838501
1772651019821436000,4.785435791015625,7.816753387451172,-4.269991874694824,2.7517459392547607
1772651019831313200,4.795313232421875,8.291130065917969,-3.961916208267212,2.899502754211426
1772651019841190700,4.805190673828125,8.70090103149414,-3.675973892211914,2.947359323501587
1772651019851068200,4.815068115234375,8.900103569030762,-3.4002010822296143,2.803191661834717
1772651019860945400,4.8249453125,8.798408508300781,-3.1345977783203125,2.6362924575805664
1772651019870823000,4.834822998046875,8.796614646911621,-2.819941520690918,2.3784656524658203
1772651019880700400,4.844700439453125,8.61057186126709,-2.423929452896118,2.1744775772094727
1772651019890578000,4.854577880859375,8.12662410736084,-2.0955145359039307,2.0518453121185303
1772651019900455200,4.864455078125,7.549953460693359,-1.8861424922943115,1.9537396430969238
1772651019910332700,4.874332763671875,7.076174736022949,-1.7611174583435059,1.9854445457458496
1772651019920210200,4.884210205078125,6.829713821411133,-1.594218134880066,2.0895323753356934
1772651019930087700,4.894087646484375,6.674180507659912,-1.4279168844223022,2.1026928424835205
1772651019939965000,4.90396484375,6.506682872772217,-1.3334003686904907,2.018944025039673
1772651019949842400,4.913842529296875,6.393621921539307,-1.3076776266098022,1.80717933177948
1772651019959720000,4.923719970703125,6.369095802307129,-1.2957134246826172,1.5332010984420776
1772651019969597200,4.93359716796875,6.316453456878662,-1.3435698747634888,1.2999008893966675
1772651019979474700,4.943474609375,6.247660160064697,-1.4895321130752563,1.042074203491211
1772651019989352200,4.953352294921875,6.183651924133301,-1.685145378112793,0.8015955686569214
1772651019999229700,4.963229736328125,6.069394588470459,-1.9334007501602173,0.5617151260375977
1772651020009107000,4.97310693359375,5.9264235496521,-2.1170499324798584,0.36610186100006104
1772651020018984400,4.982984375,5.826523303985596,-2.186441659927368,0.3433700501918793
1772651020028862000,4.992862060546875,5.776273727416992,-2.1882362365722656,0.4815555512905121
1772651020038739200,5.0027392578125,5.796014785766602,-2.193620204925537,0.672383189201355
1772651020048616700,5.01261669921875,5.849255084991455,-2.282752752304077,0.8111668825149536
1772651020058494200,5.022494140625,5.9784674644470215,-2.42512583732605,0.8476574420928955
1772651020068371500,5.032371337890625,6.158527374267578,-2.579462766647339,0.8225327730178833
1772651020078249000,5.0422490234375,6.4289164543151855,-2.659024238586426,0.8721838593482971
1772651020088126500,5.05212646484375,6.946962356567383,-2.5740790367126465,1.0815558433532715
1772651020098004000,5.06200390625,7.682157039642334,-2.3467607498168945,1.384247899055481
1772651020107867600,5.07186767578125,8.405387878417969,-2.1684954166412354,1.5152549743652344
1772651020117758700,5.0817587890625,9.009575843811035,-2.1032910346984863,1.40279221534729
1772651020127636200,5.09163623046875,9.518050193786621,-2.108076810836792,1.191625714302063
1772651020137500000,5.1015,9.80219841003418,-2.155334949493408,1.095314621925354
1772651020147391000,5.111390869140625,10.115059852600098,-2.1122641563415527,0.9553344249725342
1772651020157268500,5.1212685546875,10.204790115356445,-2.029113531112671,0.9116654396057129
1772651020167146000,5.13114599609375,10.123434066772461,-1.9591234922409058,1.0516455173492432
1772651020177023200,5.141023193359375,10.220941543579102,-1.7084753513336182,1.2586246728897095
1772651020186900700,5.150900634765625,10.466206550598145,-1.44945228099823,1.576271891593933
1772651020196778200,5.1607783203125,10.76949691772461,-1.316650629043579,1.8837496042251587
1772651020206655500,5.170655517578125,10.858031272888184,-1.3148560523986816,2.0476579666137695
1772651020216533000,5.180532958984375,10.593624114990234,-1.4273186922073364,2.1308085918426514
1772651020226410500,5.190410400390625,10.536794662475586,-1.350150227546692,2.764308452606201
1772651020236288000,5.2002880859375,10.066006660461426,-1.5343974828720093,3.325425386428833
1772651020246165200,5.210165283203125,8.788837432861328,-2.504088878631592,2.7535407543182373
1772651020256029000,5.22002880859375,8.187042236328125,-3.355933666229248,2.1786649227142334
1772651020265920300,5.229920166015625,8.389236450195312,-3.775874137878418,2.0985054969787598
1772651020275797500,5.239797607421875,8.74038314819336,-3.8189449310302734,1.911865234375
1772651020285675000,5.249675048828125,9.374481201171875,-3.6299118995666504,1.521835207939148
1772651020295552500,5.259552490234375,10.187442779541016,-3.556332588195801,1.1198409795761108
1772651020305429800,5.2694296875,10.959127426147461,-3.6532418727874756,0.649053156375885
1772651020315293400,5.27929345703125,11.684751510620117,-3.899104595184326,0.050847481936216354
1772651020325184800,5.289184814453125,12.29671573638916,-4.265206336975098,-0.5312066078186035
1772651020335062300,5.299062255859375,12.713067054748535,-4.503292083740234,-0.8715856671333313
1772651020344926000,5.308926025390625,12.978072166442871,-4.638486862182617,-1.2023934125900269
1772651020354817000,5.318817138671875,13.197613716125488,-4.709074974060059,-1.430907964706421
1772651020364694500,5.328694580078125,13.14975643157959,-4.6408796310424805,-1.5433706045150757
1772651020374571800,5.33857177734375,12.881162643432617,-4.511667251586914,-1.6037893295288086
1772651020384449300,5.34844921875,12.128021240234375,-4.23649263381958,-1.4656038284301758
1772651020394326800,5.358326904296875,10.892128944396973,-3.838087558746338,-1.2502498626708984
1772651020404190500,5.3681904296875,9.485747337341309,-3.3954153060913086,-1.0492527484893799
1772651020414081500,5.37808154296875,8.063214302062988,-3.0005996227264404,-0.836291491985321
1772651020423959000,5.387958984375,6.722635269165039,-2.654836654663086,-0.6035895347595215
1772651020433822700,5.39782275390625,5.647061347961426,-2.270190477371216,-0.3535395562648773
1772651020443713800,5.4077138671875,4.852046012878418,-1.8747764825820923,-0.09930214285850525
1772651020453591300,5.41759130859375,4.357329845428467,-1.5954145193099976,0.16151553392410278
1772651020463455000,5.427455078125,4.179663181304932,-1.333998680114746,0.3930211067199707
1772651020473346000,5.437345947265625,4.100101470947266,-1.090528964996338,0.6484549641609192
1772651020483223600,5.4472236328125,4.240679740905762,-0.8895317912101746,0.9146564602851868
1772651020493101000,5.45710107421875,4.618147850036621,-0.8207381963729858,0.9625129103660583
1772651020502978600,5.466978515625,5.1840500831604,-0.9367900490760803,0.8691928386688232
1772651020512855800,5.476855712890625,5.985047817230225,-1.1521440744400024,0.737587571144104
1772651020522719500,5.486719482421875,6.893722057342529,-1.414756417274475,0.605384111404419
1772651020532610600,5.496610595703125,7.874181270599365,-1.7126628160476685,0.5042873620986938
1772651020542488000,5.506488037109375,8.622536659240723,-2.026122570037842,0.3595215976238251
1772651020552351700,5.516351806640625,9.094520568847656,-2.3330020904541016,0.2470589429140091
1772651020562243000,5.5262431640625,9.340981483459473,-2.5118656158447266,0.13579268753528595
1772651020572120300,5.536120361328125,9.443872451782227,-2.6147570610046387,0.05563312768936157
1772651020581997800,5.545997802734375,9.510871887207031,-2.641077995300293,0.046061836183071136
1772651020591875300,5.555875244140625,9.649057388305664,-2.5465614795684814,0.14715859293937683
1772651020601752800,5.5657529296875,9.89432144165039,-2.355733871459961,0.32961133122444153
1772651020611630000,5.575630126953125,10.261619567871094,-2.121237277984619,0.49710890650749207
1772651020621507600,5.585507568359375,10.686346054077148,-1.9399809837341309,0.5730810165405273
1772651020631384800,5.595384765625,11.142178535461426,-1.862214207649231,0.5365904569625854
1772651020641248800,5.605248779296875,11.569297790527344,-1.7778671979904175,0.48454657196998596
1772651020651139800,5.615139892578125,11.843276023864746,-1.6552350521087646,0.40797626972198486
1772651020661017300,5.625017333984375,11.9192476272583,-1.6085749864578247,0.3074777126312256
1772651020670894600,5.63489453125,11.790035247802734,-1.547558069229126,0.2476571500301361
1772651020680772000,5.644772216796875,11.328819274902344,-1.4033905267715454,0.26440688967704773
1772651020690649600,5.654649658203125,10.62532901763916,-1.2023934125900269,0.3535395562648773
1772651020700527000,5.664527099609375,9.832108497619629,-0.9966106414794922,0.4827519655227661
1772651020710404400,5.674404296875,9.125029563903809,-0.8093722462654114,0.6885347366333008
1772651020720281900,5.68428173828125,8.577073097229004,-0.6807580590248108,0.8919246196746826
1772651020730145500,5.6941455078125,8.211568832397461,-0.5581258535385132,1.0636097192764282
1772651020740036600,5.70403662109375,8.077570915222168,-0.3978067636489868,1.217348575592041
1772651020749914000,5.7139140625,8.165507316589355,-0.3206382393836975,1.2999008893966675
1772651020759791600,5.72379150390625,8.297112464904785,-0.3487538993358612,1.2969099283218384
1772651020769668900,5.7336689453125,8.465208053588867,-0.4486542344093323,1.2735798358917236
1772651020779546400,5.74354638671875,8.768498420715332,-0.5593222975730896,1.2592228651046753
1772651020789423900,5.753423828125,9.125029563903809,-0.6825526356697083,1.2329018115997314
1772651020799301000,5.763301025390625,9.507282257080078,-0.8051848411560059,1.1850453615188599
1772651020809178600,5.7731787109375,9.954142570495605,-0.9260223507881165,1.103689432144165
1772651020819056000,5.78305615234375,10.487741470336914,-1.043868899345398,1.038485050201416
1772651020828933400,5.792933349609375,10.960922241210938,-1.1377872228622437,1.0396814346313477
1772651020838811000,5.802810791015625,11.283953666687012,-1.179063320159912,1.1060823202133179
1772651020848688400,5.8126884765625,11.525030136108398,-1.2556337118148804,1.2179467678070068
1772651020858566000,5.82256591796875,11.60519027709961,-1.3854442834854126,1.3525429964065552
1772651020868443100,5.832443115234375,11.605788230895996,-1.5517455339431763,1.3920245170593262
1772651020878320600,5.842320556640625,11.587244033813477,-1.7288143634796143,1.358525037765503
1772651020888198100,5.8521982421875,11.507083892822266,-1.9250258207321167,1.3202399015426636
1772651020898075400,5.862075439453125,11.290534019470215,-2.1714866161346436,1.287936806678772
1772651020907953000,5.871952880859375,10.907682418823242,-2.610569477081299,1.2029916048049927
1772651020917830400,5.881830322265625,10.477572441101074,-3.2093734741210938,1.098903775215149
1772651020927707600,5.891707763671875,10.298110008239746,-3.841078519821167,0.9511470198631287
1772651020937571300,5.9015712890625,10.474580764770508,-4.304089546203613,0.8482556343078613
1772651020947462700,5.911462646484375,10.819147109985352,-4.481756687164307,0.8297112584114075
1772651020957340000,5.92133984375,11.010573387145996,-4.483551502227783,0.828514814376831
1772651020967217400,5.931217529296875,10.962119102478027,-4.405186653137207,0.8638089895248413
1772651020977095000,5.941094970703125,10.7826566696167,-4.278367042541504,0.9391828775405884
1772651020986972400,5.950972412109375,10.569097518920898,-4.133601188659668,0.9960124492645264
1772651020996849700,5.960849609375,10.311270713806152,-4.067200183868408,1.0151549577713013
1772651021006727200,5.97072705078125,10.098908424377441,-4.073182582855225,0.9942178130149841
1772651021016604400,5.9806044921875,10.034899711608887,-4.235296249389648,1.0606186389923096
1772651021026482000,5.99048193359375,10.095916748046875,-4.597808837890625,0.9954141974449158
1772651021036359400,6.000359375,10.15872859954834,-4.5098724365234375,1.2131611108779907
1772651021046237000,6.01023681640625,10.298110008239746,-4.168895244598389,1.3878371715545654
1772651021056114200,6.0201142578125,10.660623550415039,-3.9116668701171875,1.6821542978286743
1772651021065991700,6.02999169921875,10.793424606323242,-3.5910286903381348,2.0141584873199463
1772651021075869200,6.039869140625,10.7826566696167,-3.205185890197754,2.1672990322113037
1772651021085746400,6.049746337890625,10.679167747497559,-2.9150562286376953,2.169692039489746
1772651021095624000,6.0596240234375,10.238887786865234,-2.8289146423339844,2.1296122074127197
1772651021105501400,6.06950146484375,9.562915802001953,-2.909074068069458,1.9950158596038818
1772651021115365000,6.079365234375,8.643473625183105,-2.905484914779663,1.9411773681640625
1772651021125256200,6.089256103515625,7.582854747772217,-2.84087872505188,1.9256240129470825
1772651021135133700,6.0991337890625,6.595815658569336,-2.7553353309631348,1.9663020372390747
1772651021144997400,6.108997314453125,5.924030780792236,-2.6602206230163574,2.008774518966675
1772651021154888400,6.118888427734375,5.656632900238037,-2.578864574432373,2.070389747619629
1772651021164766000,6.128765869140625,5.842674732208252,-2.479562520980835,2.181057929992676
1772651021174643500,6.1386435546875,6.496513366699219,-2.2366909980773926,2.421536445617676
1772651021184520700,6.148520751953125,7.377072334289551,-1.944766640663147,2.6937201023101807
1772651021194398200,6.158398193359375,8.276773452758789,-1.7341982126235962,2.864806890487671
1772651021204262000,6.168261962890625,9.08674430847168,-1.6564314365386963,2.9066812992095947
1772651021214153000,6.178153076171875,9.543174743652344,-1.734796404838562,2.8049862384796143
1772651021224030500,6.188030517578125,9.55753231048584,-1.9160526990890503,2.544766902923584
1772651021233908000,6.197907958984375,9.349954605102539,-2.108675003051758,2.1786649227142334
1772651021243785200,6.20778515625,9.003593444824219,-2.2755744457244873,1.8502501249313354
1772651021253662700,6.217662841796875,8.685946464538574,-2.352144718170166,1.6588243246078491
1772651021263540200,6.227540283203125,8.473583221435547,-2.2983062267303467,1.628315806388855
1772651021273417500,6.23741748046875,8.38145923614502,-2.1517457962036133,1.7419748306274414
1772651021283295000,6.247294921875,8.391031265258789,-2.0309081077575684,1.9597218036651611
1772651021293172500,6.25717236328125,8.441878318786621,-2.0003998279571533,2.1092731952667236
1772651021303049700,6.2670498046875,8.534600257873535,-1.9878374338150024,2.1613171100616455
1772651021312927200,6.27692724609375,8.606385231018066,-1.9710876941680908,2.1535403728485107
1772651021322804700,6.2868046875,8.661419868469238,-1.9854445457458496,2.122433662414551
1772651021332682000,6.296681884765625,8.70927619934082,-2.014756679534912,2.05603289604187
1772651021342559500,6.3065595703125,8.749356269836426,-2.032104730606079,1.9465612173080444
1772651021352437000,6.31643701171875,8.766105651855469,-2.0237298011779785,1.82273268699646
1772651021362314200,6.326314208984375,8.767900466918945,-2.0033907890319824,1.6911274194717407
1772651021372191700,6.336191650390625,8.684151649475098,-1.9519450664520264,1.5978072881698608
1772651021382069200,6.3460693359375,8.574081420898438,-1.9100706577301025,1.5451651811599731
1772651021391946800,6.35594677734375,8.480761528015137,-1.8508483171463013,1.5308083295822144
1772651021401824000,6.365823974609375,8.468199729919434,-1.7533408403396606,1.5200406312942505
1772651021411701500,6.375701416015625,8.536993026733398,-1.5876377820968628,1.5493526458740234
1772651021421578800,6.385578857421875,8.567501068115234,-1.4344971179962158,1.6049858331680298
1772651021431456300,6.395456298828125,8.660223007202148,-1.3381860256195068,1.6941183805465698
1772651021441333800,6.405333740234375,8.73200798034668,-1.2915260791778564,1.8077775239944458
1772651021451211300,6.415211181640625,8.764909744262695,-1.2215359210968018,1.911865234375
1772651021461088500,6.425088623046875,8.791230201721191,-1.103689432144165,1.9722840785980225
1772651021470966000,6.434966064453125,8.73619556427002,-1.017547845840454,2.0243279933929443
1772651021480843500,6.444843505859375,8.657232284545898,-0.9409775137901306,2.090130567550659
1772651021490720800,6.454720703125,8.651848793029785,-0.851844847202301,2.1918256282806396
1772651021500598300,6.464598388671875,8.637491226196289,-0.755533754825592,2.2815563678741455
1772651021510475800,6.474475830078125,8.58484935760498,-0.666999340057373,2.347957134246826
1772651021520353000,6.48435302734375,8.553742408752441,-0.633499801158905,2.3736801147460938
1772651021530230500,6.49423046875,8.503493309020996,-0.638883650302887,2.3575284481048584
1772651021540108000,6.50410791015625,8.555537223815918,-0.6340979933738708,2.3120648860931396
1772651021549985300,6.5139853515625,8.748757362365723,-0.5730810165405273,2.3461625576019287
1772651021559862800,6.52386279296875,9.128618240356445,-0.4707878530025482,2.441277265548706
1772651021569740300,6.533740234375,9.58205795288086,-0.39421752095222473,2.5292134284973145
1772651021579617500,6.543617431640625,9.988240242004395,-0.43130627274513245,2.513660192489624
1772651021589495000,6.5534951171875,10.3016996383667,-0.5724828243255615,2.376072883605957
1772651021599372500,6.56337255859375,10.526026725769043,-0.7256234884262085,2.166700839996338
1772651021609249800,6.573249755859375,10.63370418548584,-0.8153542876243591,1.984248161315918
1772651021619127300,6.583127197265625,10.661819458007812,-0.794417142868042,1.9004993438720703
1772651021629004800,6.5930048828125,10.585248947143555,-0.6927221417427063,1.8711873292922974
1772651021638882000,6.602882080078125,10.505687713623047,-0.5365904569625854,1.9363917112350464
1772651021648759600,6.612759521484375,10.462616920471191,-0.41216370463371277,2.0135602951049805
1772651021658637000,6.622636962890625,10.348360061645508,-0.4336991012096405,2.0554347038269043
1772651021668514300,6.632514404296875,10.279565811157227,-0.6137589812278748,2.014756679534912
1772651021678391800,6.642391845703125,10.182656288146973,-0.9535398483276367,1.9010975360870361
1772651021688269300,6.652269287109375,10.086943626403809,-1.5176477432250977,1.8454644680023193
1772651021698146600,6.662146484375,10.225129127502441,-1.9124635457992554,1.937588095664978
1772651021708024000,6.672024169921875,10.758728981018066,-2.008774518966675,2.324627161026001
1772651021717901600,6.681901611328125,11.6123685836792,-2.0159530639648438,2.812762975692749
1772651021727778800,6.69177880859375,12.455838203430176,-2.0159530639648438,2.9449665546417236
1772651021737642500,6.701642578125,13.036097526550293,-2.245664119720459,2.3880369663238525
1772651021747533800,6.711533935546875,13.382458686828613,-2.729612350463867,1.490728497505188
1772651021757411000,6.7214111328125,13.776078224182129,-3.3649067878723145,0.771087110042572
1772651021767274800,6.731274658203125,13.915459632873535,-3.899702787399292,0.13040883839130402
1772651021777166000,6.741166015625,13.352548599243164,-4.31306266784668,-0.4995017349720001
1772651021787043300,6.751043212890625,12.342179298400879,-4.322035789489746,-0.7483552694320679
1772651021796907000,6.760906982421875,11.034502029418945,-4.052245140075684,-0.6915257573127747
1772651021806798300,6.77079833984375,9.7669038772583,-3.5611183643341064,-0.46779683232307434
1772651021816675600,6.780675537109375,8.773882865905762,-2.8899314403533936,-0.0011964113218709826
1772651021826539300,6.790539306640625,7.9244303703308105,-2.4029922485351562,0.3355933725833893
1772651021836430600,6.8004306640625,7.149754047393799,-2.173879384994507,0.43130627274513245
1772651021846307800,6.810307861328125,6.399005889892578,-1.9962122440338135,0.36311084032058716
1772651021856171500,6.820171630859375,5.712863922119141,-1.95852530002594,0.10289137065410614
1772651021866062800,6.830062744140625,5.234897613525391,-2.0578274726867676,-0.1824527233839035
1772651021875940000,6.839940185546875,4.962714195251465,-2.196611166000366,-0.3655036687850952
1772651021885803800,6.8498037109375,5.00578498840332,-2.2809581756591797,-0.43908295035362244
1772651021895695000,6.859695068359375,5.453242778778076,-2.3359930515289307,-0.3924229145050049
1772651021905572400,6.869572265625,6.158527374267578,-2.431705951690674,-0.20578274130821228
1772651021915449900,6.879449951171875,6.854838848114014,-2.5196423530578613,0.08793623000383377
1772651021925327400,6.889327392578125,7.607381343841553,-2.495713949203491,0.4875376224517822
1772651021935204600,6.89920458984375,8.329415321350098,-2.424527645111084,0.9655039310455322
1772651021945068300,6.909068359375,9.053244590759277,-2.259422779083252,1.4829518795013428
1772651021954959600,6.918959716796875,9.821938514709473,-2.0093727111816406,1.9112670421600342
1772651021964836900,6.9288369140625,10.573883056640625,-1.8131613731384277,2.1541385650634766
1772651021974700500,6.938700439453125,11.182258605957031,-1.7964116334915161,2.1774685382843018
1772651021984591600,6.948591552734375,11.655439376831055,-1.8897316455841064,1.9722840785980225
1772651021994469000,6.95846923828125,11.792428016662598,-2.059622049331665,1.5708880424499512
1772651022004346600,6.9683466796875,11.594422340393066,-2.420340061187744,1.0959128141403198
1772651022014224100,6.97822412109375,11.10329532623291,-2.8151557445526123,0.6873382925987244
1772651022024101400,6.988101318359375,10.439885139465332,-3.10109806060791,0.4426721930503845
1772651022033979000,6.997978759765625,9.70229721069336,-3.1136605739593506,0.41934216022491455
1772651022043856400,7.0078564453125,9.040083885192871,-2.847458839416504,0.6239284873008728
1772651022053733600,7.017733642578125,8.544769287109375,-2.486142635345459,0.9343972206115723
1772651022063602400,7.0276025390625,8.166105270385742,-2.1984057426452637,1.2161520719528198
1772651022073493800,7.03749365234375,7.9244303703308105,-2.026122570037842,1.3561322689056396
1772651022083371300,7.047371337890625,7.804789066314697,-1.9938194751739502,1.3184453248977661
1772651022093248800,7.057248779296875,7.788039684295654,-2.080559253692627,1.1856436729431152
1772651022103126000,7.0671259765625,7.910073280334473,-2.225325107574463,1.0055837631225586
1772651022113003500,7.07700341796875,8.170890808105469,-2.3641088008880615,0.8745766878128052
1772651022122881000,7.086881103515625,8.486743927001953,-2.465803623199463,0.8344969153404236
1772651022132758300,7.09675830078125,8.754739761352539,-2.5334010124206543,0.8626125454902649
1772651022142635800,7.1066357421875,8.979066848754883,-2.558525562286377,0.9308080077171326
1772651022152513300,7.11651318359375,9.091529846191406,-2.554338216781616,1.0492527484893799
1772651022162390500,7.126390625,9.151350021362305,-2.50289249420166,1.2065808773040771
1772651022172268000,7.13626806640625,9.163313865661621,-2.4083759784698486,1.3603196144104004
1772651022182145500,7.1461455078125,9.091529846191406,-2.324028968811035,1.490728497505188
1772651022192022800,7.156022705078125,8.959924697875977,-2.249253273010254,1.5780665874481201
1772651022201900300,7.165900390625,8.809176445007324,-2.1774685382843018,1.6420745849609375
1772651022211777500,7.175777587890625,8.649456024169922,-2.1308085918426514,1.657029628753662
1772651022221655000,7.185655029296875,8.529814720153809,-2.084746837615967,1.7312071323394775
1772651022231532500,7.195532470703125,8.469993591308594,-2.046461582183838,1.8095721006393433
1772651022241409800,7.205409912109375,8.431708335876465,-2.0243279933929443,1.8975083827972412
1772651022251287300,7.215287353515625,8.448458671569824,-1.9974087476730347,1.973480463027954
1772651022261164800,7.225164794921875,8.522636413574219,-1.9465612173080444,1.984248161315918
1772651022271042300,7.235042236328125,8.677571296691895,-1.9561325311660767,1.9579271078109741
1772651022280919600,7.24491943359375,8.85224723815918,-2.043470621109009,1.9411773681640625
1772651022290797000,7.254797119140625,9.022735595703125,-2.159522533416748,1.9848463535308838
1772651022300674300,7.26467431640625,9.247661590576172,-2.2510478496551514,2.072782516479492
1772651022310551800,7.2745517578125,9.474979400634766,-2.3635106086730957,2.1613171100616455
1772651022320429300,7.28442919921875,9.678967475891113,-2.4915266036987305,2.2097716331481934
1772651022330306600,7.294306640625,9.865608215332031,-2.6291139125823975,2.2265214920043945
1772651022340184000,7.30418408203125,9.971489906311035,-2.871387243270874,2.283949136734009
1772651022350061600,7.3140615234375,9.89970588684082,-3.303889751434326,2.431705951690674
1772651022359938800,7.323938720703125,9.634700775146484,-3.8183467388153076,2.6733810901641846
1772651022369816300,7.33381640625,9.367302894592285,-4.304089546203613,2.8797619342803955
1772651022379693600,7.343693603515625,9.525827407836914,-4.4614176750183105,3.080759048461914
1772651022389571000,7.353571044921875,10.530214309692383,-4.005585193634033,3.4779677391052246
1772651022399448600,7.363448486328125,11.944971084594727,-3.4570305347442627,3.9122650623321533
1772651022409325800,7.373325927734375,12.976277351379395,-3.2727832794189453,4.021138668060303
1772651022419189500,7.383189453125,13.64746379852295,-3.4378879070281982,3.4911282062530518
1772651022429080800,7.393080810546875,14.059029579162598,-3.867997884750366,2.7122645378112793
1772651022438958000,7.4029580078125,14.252847671508789,-4.390231132507324,2.1308085918426514
1772651022448835600,7.412835693359375,13.917853355407715,-4.844867706298828,1.8580267429351807
1772651022458713000,7.422713134765625,13.326227188110352,-4.992624282836914,1.8646070957183838
1772651022468590300,7.43259033203125,12.742379188537598,-4.712066173553467,2.258824586868286
1772651022478467800,7.4424677734375,11.876774787902832,-4.122235298156738,2.675175666809082
1772651022488345300,7.452345458984375,11.055438995361328,-3.6197423934936523,2.943171739578247
1772651022498222600,7.46222265625,10.342975616455078,-3.329014539718628,3.1334011554718018
1772651022508086300,7.472086181640625,9.828518867492676,-3.171088218688965,3.2171499729156494
1772651022517977600,7.4819775390625,9.357132911682129,-3.005983352661133,3.1381869316101074
1772651022527854800,7.491854736328125,8.763712882995605,-2.850450038909912,2.9413771629333496
1772651022537718500,7.501718505859375,8.09970474243164,-2.819941520690918,2.695514678955078
1772651022547609900,7.51160986328125,7.409375190734863,-2.8935208320617676,2.4771697521209717
1772651022557487000,7.521487060546875,6.7310099601745605,-3.014956474304199,2.2570300102233887
1772651022567350800,7.531350830078125,6.1603217124938965,-3.111865758895874,2.066800594329834
1772651022577241900,7.541241943359375,5.733202934265137,-3.1956145763397217,1.9507486820220947
1772651022587119400,7.551119384765625,5.481956481933594,-3.256033420562744,1.9184455871582031
1772651022596983000,7.560983154296875,5.427519798278809,-3.315854072570801,1.950150489807129
1772651022606874000,7.5708740234375,5.652445316314697,-3.3122646808624268,1.9806588888168335
1772651022616751600,7.580751708984375,6.101099491119385,-3.2608189582824707,1.968694806098938
1772651022626629000,7.590629150390625,6.698108673095703,-3.2584261894226074,1.9645073413848877
1772651022636506400,7.60050634765625,7.275975227355957,-3.263211965560913,2.0003998279571533
1772651022646383900,7.6103837890625,7.753942012786865,-3.256033420562744,2.0171494483947754
1772651022656261000,7.62026123046875,8.069195747375488,-3.2482566833496094,2.0207388401031494
1772651022666138600,7.630138671875,8.24566650390625,-3.2452657222747803,2.0105693340301514
1772651022676016000,7.64001611328125,8.293522834777832,-3.2452657222747803,1.9938194751739502
1772651022685893400,7.649893310546875,8.188239097595215,-3.2004003524780273,1.9698911905288696
1772651022695771000,7.65977099609375,7.987840175628662,-3.1579277515411377,1.9657038450241089
1772651022705648400,7.6696484375,7.7222371101379395,-3.1375887393951416,1.9663020372390747
1772651022715525600,7.679525634765625,7.517052173614502,-3.135794162750244,2.0003998279571533
1772651022725403100,7.689403076171875,7.354938507080078,-3.126222848892212,2.0721843242645264
1772651022735280600,7.69928076171875,7.284948348999023,-3.050848960876465,2.2193429470062256
1772651022745158000,7.709157958984375,7.356733322143555,-2.963510751724243,2.3994028568267822
1772651022755035400,7.719035400390625,7.58644437789917,-2.8965117931365967,2.578864574432373
1772651022764912600,7.72891259765625,7.937591075897217,-2.843869686126709,2.736790895462036
1772651022774790100,7.7387900390625,8.37428092956543,-2.8247270584106445,2.8354947566986084
1772651022784667600,7.748667724609375,8.806783676147461,-2.827120065689087,2.9288148880004883
1772651022794545000,7.758544921875,9.220144271850586,-2.8247270584106445,3.005983352661133
1772651022804422400,7.76842236328125,9.595218658447266,-2.772084951400757,3.053839921951294
1772651022814300000,7.7782998046875,9.885947227478027,-2.6967110633850098,3.0687949657440186
1772651022824177200,7.78817724609375,10.06002426147461,-2.589632272720337,3.040679454803467
1772651022834054700,7.7980546875,10.090533256530762,-2.499901533126831,2.9449665546417236
1772651022843932000,7.807931884765625,9.973284721374512,-2.4705893993377686,2.7966115474700928
1772651022853809400,7.817809326171875,9.741181373596191,-2.489732027053833,2.6285157203674316
1772651022863687000,7.82768701171875,9.44447135925293,-2.4634108543395996,2.455634355545044
1772651022873564200,7.837564208984375,9.123832702636719,-2.3605196475982666,2.358126640319824
1772651022883441700,7.847441650390625,8.893523216247559,-2.1643080711364746,2.3096721172332764
1772651022893319200,7.857319091796875,8.737990379333496,-1.9836499691009521,2.2749760150909424
1772651022903196400,7.867196533203125,8.555537223815918,-1.8705891370773315,2.197807550430298
1772651022913074000,7.877073974609375,8.373085021972656,-1.7988044023513794,2.052443504333496
1772651022922951400,7.886951416015625,8.24147891998291,-1.7222341299057007,1.9184455871582031
1772651022932828700,7.89682861328125,8.152944564819336,-1.7018951177597046,1.8335003852844238
1772651022942706200,7.9067060546875,8.176275253295898,-1.5912270545959473,1.8795621395111084
1772651022952583400,7.91658349609375,8.176275253295898,-1.51166570186615,1.9286150932312012
1772651022962461000,7.9264609375,8.164310455322266,-1.4901303052902222,1.9860427379608154
1772651022972338400,7.93633837890625,8.183453559875488,-1.4967105388641357,1.9836499691009521
1772651022982215700,7.946215576171875,8.204988479614258,-1.5278172492980957,1.9764715433120728
1772651022992093200,7.95609326171875,8.250452041625977,-1.568495273590088,1.9555343389511108
1772651023001970700,7.965970703125,8.367700576782227,-1.6660027503967285,1.9680966138839722
1772651023011848000,7.975847900390625,8.516654014587402,-1.7102699279785156,1.9938194751739502
1772651023021725400,7.985725341796875,8.693124771118164,-1.7288143634796143,2.0338993072509766
1772651023031602700,7.995602783203125,8.898907661437988,-1.734796404838562,2.042872428894043
1772651023041480200,8.005480224609375,9.163912773132324,-1.7820546627044678,1.9992033243179321
1772651023051357700,8.015357666015625,9.604191780090332,-1.8861424922943115,1.9369899034500122
1772651023061235000,8.02523486328125,10.125228881835938,-2.062613010406494,1.9657038450241089
1772651023071098600,8.0350986328125,10.591829299926758,-2.2654049396514893,2.032702922821045
1772651023080990000,8.044989990234376,10.927422523498535,-2.4017956256866455,2.0895323753356934
1772651023090867200,8.0548671875,11.170892715454102,-2.462812662124634,2.0967109203338623
1772651023100744700,8.06474462890625,11.462218284606934,-2.4472594261169434,2.1379871368408203
1772651023110622200,8.074622314453125,11.593225479125977,-2.3910279273986816,2.1918256282806396
1772651023120499500,8.08449951171875,11.36949634552002,-2.3575284481048584,2.300100803375244
1772651023130377000,8.094376953125,10.849656105041504,-2.4915266036987305,2.4604198932647705
1772651023140254200,8.104254150390625,10.296914100646973,-2.746960401535034,2.6626133918762207
1772651023150131700,8.114131591796875,9.847063064575195,-3.102294445037842,2.870789051055908
1772651023160009000,8.124009033203125,9.845867156982422,-3.418147087097168,3.0311081409454346
1772651023169886500,8.133886474609374,10.39920711517334,-3.7190446853637695,3.2608189582824707
1772651023179764000,8.143763916015626,11.171490669250488,-3.865604877471924,3.3236305713653564
1772651023189627600,8.153627685546875,12.003594398498535,-4.063013076782227,3.0867412090301514
1772651023199518700,8.163518798828125,12.963714599609375,-4.284946918487549,2.713460922241211
1772651023209396200,8.173396240234375,13.759926795959473,-4.560719966888428,2.270190477371216
1772651023219260000,8.183260009765625,14.070395469665527,-4.8161540031433105,1.811964988708496
1772651023229151000,8.19315087890625,13.781461715698242,-4.981258392333984,1.347757339477539
1772651023239028200,8.2030283203125,12.978072166442871,-4.916652202606201,0.9349954724311829
1772651023248905700,8.21290576171875,11.800803184509277,-4.585246562957764,0.6813562512397766
1772651023258783200,8.222783203125,10.449456214904785,-4.173680782318115,0.5365904569625854
1772651023268660500,8.232660400390625,9.096315383911133,-3.8362929821014404,0.43130627274513245
1772651023278524200,8.242524169921875,7.77607536315918,-3.544966697692871,0.2476571500301361
1772651023288415500,8.25241552734375,6.540182590484619,-3.363112211227417,0.038285162299871445
1772651023298292700,8.262292724609376,5.598008632659912,-3.2243285179138184,-0.06939185410737991
1772651023308156400,8.272156494140624,4.946562767028809,-2.702693223953247,0.1256231814622879
1772651023318047500,8.282047607421875,4.429114818572998,-3.0000014305114746,-0.08434699475765228
1772651023327925000,8.291925048828125,4.276572227478027,-3.4749767780303955,0.21415762603282928
1772651023337802500,8.301802490234374,4.694717884063721,-3.425325632095337,0.2721835672855377
1772651023347679700,8.3116796875,5.319244861602783,-3.2099716663360596,0.3032902777194977
1772651023357557200,8.32155712890625,5.900102615356445,-3.125624656677246,0.6574280261993408
1772651023367434500,8.3314345703125,6.567101955413818,-3.136990547180176,0.9888339638710022
1772651023377312000,8.34131201171875,7.501499176025391,-3.1316065788269043,1.168893814086914
1772651023387189500,8.351189453125,8.444869041442871,-3.177668571472168,1.2490534782409668
1772651023397053200,8.36105322265625,9.22433090209961,-3.355933666229248,1.231107234954834
1772651023406944300,8.3709443359375,9.914660453796387,-3.538386583328247,1.113858938217163
1772651023416821500,8.380821533203125,10.426724433898926,-3.638286828994751,0.9439685344696045
1772651023426685200,8.390685302734376,10.619945526123047,-3.720241069793701,0.7914260625839233
1772651023436576500,8.400576416015625,10.493125915527344,-3.7645082473754883,0.6993024349212646
1772651023446453800,8.410453857421874,10.156335830688477,-3.751347780227661,0.6813562512397766
1772651023456331300,8.420331298828126,9.632905960083008,-3.6029927730560303,0.6843472719192505
1772651023466208800,8.430208740234375,9.022735595703125,-3.363710403442383,0.7292127013206482
1772651023476086000,8.4400859375,8.425128936767578,-3.1555347442626953,0.7986045479774475
1772651023485949700,8.44994970703125,7.805387496948242,-3.0071799755096436,0.8638089895248413
1772651023495840800,8.4598408203125,7.234699249267578,-2.8677978515625,0.9505487680435181
1772651023505718300,8.46971826171875,6.839883327484131,-2.736790895462036,1.0600204467773438
1772651023515595800,8.479595703125,6.644270420074463,-2.6368906497955322,1.1312068700790405
1772651023525473000,8.48947314453125,6.715456962585449,-2.6530420780181885,1.1383854150772095
1772651023535350500,8.4993505859375,7.000202655792236,-2.788834810256958,1.0666006803512573
1772651023545227800,8.509227783203125,7.416553974151611,-2.923431158065796,1.0145567655563354
1772651023555105300,8.519105224609374,7.796414375305176,-2.957528829574585,1.0893324613571167
1772651023564982500,8.528982421875,8.135597229003906,-2.9306094646453857,1.2502498626708984
1772651023574860000,8.538860107421876,8.346165657043457,-2.9210381507873535,1.4207384586334229
1772651023584737500,8.548737548828125,8.468199729919434,-2.861815929412842,1.5792629718780518
1772651023594614800,8.55861474609375,8.754141807556152,-2.7499513626098633,1.7084753513336182
1772651023604492300,8.5684921875,9.17707347869873,-2.630310297012329,1.8077775239944458
1772651023614369800,8.578369873046874,9.611370086669922,-2.5393829345703125,1.9363917112350464
1772651023624247000,8.5882470703125,9.974481582641602,-2.5232315063476562,1.9824535846710205
1772651023634124500,8.59812451171875,10.220343589782715,-2.524427890777588,2.0099709033966064
1772651023644001800,8.608001708984375,10.196415901184082,-2.447857618331909,2.066800594329834
1772651023653879300,8.61787939453125,9.966704368591309,-2.33180570602417,2.11405873298645
1772651023663756500,8.627756591796874,9.65085220336914,-2.1816561222076416,2.14935302734375
1772651023673634000,8.637634033203126,9.320642471313477,-2.063211441040039,2.173281192779541
1772651023683511600,8.647511474609376,9.031110763549805,-1.9836499691009521,2.1756739616394043
1772651023693388800,8.657388916015625,8.911469459533691,-1.8909281492233276,2.1990039348602295
1772651023703266300,8.667266357421875,8.86361312866211,-1.8574285507202148,2.2444677352905273
1772651023713143800,8.677143798828125,8.84506893157959,-1.8789639472961426,2.256431818008423
1772651023723021000,8.68702099609375,8.935996055603027,-1.9160526990890503,2.280359983444214
1772651023732898600,8.696898681640626,9.18425178527832,-1.9573289155960083,2.3611178398132324
1772651023742775800,8.70677587890625,9.55513858795166,-1.9836499691009521,2.4813570976257324
1772651023752653300,8.7166533203125,10.001998901367188,-2.0476579666137695,2.6045875549316406
1772651023762530600,8.726530517578125,10.325029373168945,-2.169692039489746,2.668595552444458
1772651023772408000,8.736407958984374,10.521241188049316,-2.3030917644500732,2.640479803085327
1772651023782285600,8.74628564453125,10.694122314453125,-2.424527645111084,2.5842485427856445
1772651023792162800,8.756162841796876,10.86161994934082,-2.531606435775757,2.489133834838867
1772651023802040300,8.766040283203125,10.99322509765625,-2.620738983154297,2.3682961463928223
1772651023811917800,8.775917724609375,11.062019348144531,-2.671586513519287,2.258824586868286
1772651023821795000,8.785795166015625,10.945368766784668,-2.7661030292510986,2.138585329055786
1772651023831672600,8.795672607421874,10.63250732421875,-2.8660032749176025,2.03629207611084
1772651023841549800,8.8055498046875,10.191629409790039,-2.9892337322235107,2.0793628692626953
1772651023851427300,8.81542724609375,9.736394882202148,-3.1920254230499268,2.252244234085083
1772651023861304600,8.8253046875,9.407979965209961,-3.4989049434661865,2.485544443130493
1772651023871182000,8.83518212890625,9.429515838623047,-3.8159539699554443,2.748156785964966
1772651023881059600,8.8450595703125,9.824331283569336,-3.9601213932037354,2.9868409633636475
1772651023890936800,8.854936767578126,10.345368385314941,-4.009174346923828,3.1375887393951416
1772651023900814300,8.864814453125,10.823334693908691,-3.995415687561035,3.174079179763794
1772651023910691600,8.874691650390625,11.396415710449219,-3.972683906555176,3.047259569168091
1772651023920569000,8.884569091796875,11.966506004333496,-3.991826295852661,2.7834508419036865
1772651023930446300,8.8944462890625,12.267403602600098,-4.099503517150879,2.430509567260742
1772651023940323800,8.90432373046875,12.142976760864258,-4.179663181304932,2.045863389968872
1772651023950201300,8.914201416015626,11.583654403686523,-4.197608947753906,1.6313068866729736
1772651023960078600,8.92407861328125,10.73001480102539,-4.192225456237793,1.2699905633926392
1772651023969956000,8.9339560546875,9.7669038772583,-4.121038913726807,1.072582721710205
1772651023979833300,8.943833251953125,8.96829891204834,-3.9385859966278076,1.0187442302703857
1772651023989697000,8.953697021484375,8.449654579162598,-3.768695592880249,1.0737791061401367
1772651023999588400,8.96358837890625,8.188837051391602,-3.6705899238586426,1.2023934125900269
1772651024009465600,8.973465576171876,8.031509399414062,-3.638286828994751,1.4057832956314087
1772651024019343000,8.983343017578125,8.007580757141113,-3.5270206928253174,1.597209095954895
1772651024029220400,8.993220458984375,8.131409645080566,-3.384049415588379,1.781456470489502
1772651024039097900,9.003097900390625,8.26241683959961,-3.269792079925537,1.9250258207321167
1772651024048975400,9.012975341796874,8.295317649841309,-3.19441819190979,2.0380866527557373
1772651024058852600,9.0228525390625,8.236095428466797,-3.111865758895874,2.2019951343536377
1772651024068730000,9.032730224609375,8.185248374938965,-2.974876642227173,2.3676979541778564
1772651024078607400,9.042607421875,8.148757934570312,-2.799602508544922,2.4951157569885254
1772651024088484900,9.05248486328125,8.105687141418457,-2.691925525665283,2.562713146209717
1772651024098362000,9.062362060546874,8.336593627929688,-2.5190439224243164,2.59621262550354
1772651024108239600,9.072239501953124,7.709076404571533,-2.2342982292175293,2.369492530822754
1772651024118117000,9.0821171875,6.821339130401611,-2.468794822692871,1.9507486820220947
1772651024127994400,9.091994384765625,6.025127410888672,-3.0233314037323,1.6372889280319214
1772651024137858000,9.101858154296876,5.675775527954102,-3.3720853328704834,1.4470595121383667
1772651024147749000,9.1117490234375,6.14835786819458,-3.438486099243164,1.552941918373108
1772651024157626600,9.121626708984374,6.890730857849121,-3.197409152984619,1.7886348962783813
1772651024167504100,9.131504150390626,7.857431411743164,-2.861217737197876,2.132004976272583
1772651024177381400,9.14138134765625,9.238688468933105,-2.974278450012207,2.2229323387145996
1772651024187259000,9.1512587890625,10.559526443481445,-3.1130621433258057,2.1672990322113037
1772651024197122300,9.161122314453126,10.985448837280273,-3.2410783767700195,2.090728759765625
