time,seconds_elapsed,z,y,x
1772650357310731500,0.2677314453125,-0.054595947265625,0.026659011840820312,0.015679478645324707
1772650357330485800,0.28748583984375,0.012311935424804688,0.02374267578125,0.07130658626556396
1772650357350240000,0.307239990234375,-0.03213214874267578,-0.041413307189941406,0.057839930057525635
1772650357369994200,0.326994140625,-0.006455421447753906,0.020029067993164062,0.03586763143539429
1772650357389748200,0.346748291015625,-0.001965045928955078,0.032077789306640625,0.052378296852111816
1772650357409502500,0.36650244140625,-0.0005908012390136719,0.041663169860839844,0.08103585243225098
1772650357429256700,0.386256591796875,-0.07190179824829102,0.017029762268066406,0.027715206146240234
1772650357449011000,0.406010986328125,-0.06536245346069336,0.022260665893554688,0.020918726921081543
1772650357468765000,0.425764892578125,0.00999307632446289,0.0171051025390625,0.0752953290939331
1772650357488519200,0.445519287109375,0.03659772872924805,0.007050514221191406,0.11633837223052979
1772650357508273400,0.4652734375,-0.017072200775146484,-0.019023895263671875,0.05608445405960083
1772650357528027600,0.485027587890625,-0.032677650451660156,0.037520408630371094,0.004991710186004639
1772650357547782000,0.504781982421875,-0.05333757400512695,0.051982879638671875,0.007801353931427002
1772650357567535900,0.524535888671875,-0.014858245849609375,0.06194496154785156,0.06683653593063354
1772650357587290000,0.5442900390625,-0.024553298950195312,0.025129318237304688,0.030318081378936768
1772650357607044400,0.56404443359375,0.012102127075195312,0.016002655029296875,0.0181390643119812
1772650357626798600,0.583798583984375,-0.0017414093017578125,0.07837200164794922,0.007879436016082764
1772650357646552600,0.603552490234375,-0.007707118988037109,0.039017677307128906,0.005414783954620361
1772650357666306800,0.623306884765625,-0.032659053802490234,0.024372100830078125,-0.0337795615196228
1772650357686061000,0.64306103515625,-0.01845836639404297,-0.012087821960449219,-0.01985311508178711
1772650357705815000,0.66281494140625,0.019265174865722656,0.035269737243652344,0.02086031436920166
1772650357725569300,0.6825693359375,0.029275894165039062,0.0742340087890625,0.027986586093902588
1772650357745323500,0.702323486328125,0.04654502868652344,0.07341289520263672,0.021779954433441162
1772650357765077800,0.722077880859375,0.01700735092163086,0.06686019897460938,0.03071504831314087
1772650357784832000,0.74183203125,0.023116588592529297,0.07352256774902344,0.016974687576293945
1772650357804586000,0.7615859375,0.03206825256347656,0.02873706817626953,-0.0095939040184021
1772650357824340200,0.78134033203125,0.026784896850585938,0.0015869140625,-0.004534363746643066
1772650357844094500,0.801094482421875,0.045673370361328125,-0.0020112991333007812,0.07144045829772949
1772650357863848700,0.8208486328125,0.03164196014404297,0.012475013732910156,0.12529486417770386
1772650357883602700,0.840602783203125,0.0006103515625,0.032311439514160156,0.06872862577438354
1772650357903357000,0.86035693359375,-0.025208473205566406,0.04589366912841797,0.045313119888305664
1772650357923111200,0.880111083984375,-0.032505035400390625,0.025909423828125,0.029043197631835938
1772650357942865400,0.899865478515625,0.02272319793701172,0.00768280029296875,0.0281674861907959
1772650357962619600,0.91961962890625,-0.013075828552246094,-0.0005025863647460938,0.04426020383834839
1772650357982373600,0.93937353515625,-0.022068023681640625,0.0046482086181640625,0.06216663122177124
1772650358002128000,0.9591279296875,-0.010666847229003906,0.0009212493896484375,0.05811309814453125
1772650358021882000,0.978882080078125,-0.03252363204956055,0.018365859985351562,0.04370850324630737
1772650358041636400,0.99863623046875,-0.05489969253540039,0.000095367431640625,0.05146956443786621
1772650358061390300,1.018390380859375,-0.05055856704711914,0.010038375854492188,0.05422157049179077
1772650358081144600,1.03814453125,-0.12968897819519043,-0.06227302551269531,0.05872189998626709
1772650358100898800,1.05789892578125,-0.053366661071777344,0.032586097717285156,0.07324451208114624
1772650358120652800,1.07765283203125,0.004578590393066406,0.04807758331298828,0.06771540641784668
1772650358140407000,1.097406982421875,0.05051708221435547,0.02237224578857422,0.09088867902755737
1772650358160161300,1.117161376953125,-0.06570625305175781,0.036339759826660156,0.04044991731643677
1772650358179915500,1.13691552734375,0.016876697540283203,0.024969100952148438,0.030862808227539062
1772650358199669800,1.156669677734375,0.011813163757324219,0.05243396759033203,0.01122671365737915
1772650358219423700,1.176423828125,-0.03404045104980469,0.018668174743652344,-0.011403560638427734
1772650358239178000,1.196177978515625,-0.013727664947509766,0.02779388427734375,-0.05335110425949097
1772650358258932200,1.21593212890625,-0.030173301696777344,0.05122566223144531,-0.05940002202987671
1772650358278686500,1.2356865234375,0.038071632385253906,0.10346698760986328,0.010762631893157959
1772650358298440400,1.2554404296875,0.024868011474609375,0.06525993347167969,0.009472846984863281
1772650358318194700,1.275194580078125,-0.022108078002929688,0.015398979187011719,-0.020127058029174805
1772650358337949000,1.294948974609375,0.026240825653076172,0.04343700408935547,-0.010886132717132568
1772650358357703200,1.314703125,0.04645681381225586,0.0406341552734375,0.022459983825683594
1772650358377457400,1.33445751953125,0.016305923461914062,0.03574085235595703,0.023836195468902588
1772650358397211400,1.35421142578125,-0.03959512710571289,0.02932262420654297,-0.0340503454208374
1772650358416965600,1.373965576171875,-0.0032987594604492188,0.05461692810058594,-0.024824142456054688
1772650358436719900,1.393719970703125,0.020247936248779297,0.039849281311035156,0.043395936489105225
1772650358456474000,1.41347412109375,-0.003570556640625,0.006100654602050781,0.024198710918426514
1772650358476228400,1.433228271484375,0.008238792419433594,0.05066394805908203,0.02448737621307373
1772650358495982300,1.452982421875,0.018627643585205078,0.052333831787109375,0.03461402654647827
1772650358515736600,1.472736572265625,0.030309677124023438,0.05283927917480469,0.05590784549713135
1772650358535490800,1.49249072265625,0.013217926025390625,0.02465057373046875,0.018651962280273438
1772650358555245000,1.5122451171875,0.05632305145263672,0.045841217041015625,0.035470783710479736
1772650358574999000,1.5319990234375,-0.004456043243408203,0.005385398864746094,-0.014984607696533203
1772650358594753300,1.551753173828125,-0.031466007232666016,0.026467323303222656,-0.0030466318130493164
1772650358614507500,1.571507568359375,-0.039476871490478516,0.031363487243652344,0.023286879062652588
1772650358634261800,1.59126171875,0.003972053527832031,0.036396026611328125,0.035476744174957275
1772650358654015700,1.611015625,0.014748096466064453,0.05364036560058594,0.030292749404907227
1772650358673770000,1.63077001953125,-0.04357194900512695,-0.006016731262207031,0.03891068696975708
1772650358693524200,1.650524169921875,-0.09355545043945312,-0.029169082641601562,0.045295774936676025
1772650358713278500,1.670278564453125,-0.056746482849121094,0.007416725158691406,0.04371488094329834
1772650358733032700,1.69003271484375,-0.004043102264404297,0.024170875549316406,0.042179763317108154
1772650358752786700,1.70978662109375,-0.008966922760009766,0.013349533081054688,0.05752652883529663
1772650358772541000,1.729541015625,-0.03058147430419922,0.008934974670410156,0.015094637870788574
1772650358792295200,1.749295166015625,-0.017905712127685547,0.06853389739990234,-0.028587639331817627
1772650358812049400,1.76904931640625,0.004021167755126953,0.043229103088378906,0.03555196523666382
1772650358831803600,1.7888037109375,-0.02211475372314453,0.0015344619750976562,0.04055100679397583
1772650358851557600,1.8085576171875,-0.038434505462646484,-0.0417327880859375,0.01845484972000122
1772650358871312000,1.828311767578125,0.03921651840209961,0.022138595581054688,0.054273366928100586
1772650358891066000,1.848066162109375,0.03121185302734375,0.06474971771240234,0.08402502536773682
1772650358910820400,1.8678203125,0.03963422775268555,0.038364410400390625,0.08368456363677979
1772650358930574600,1.88757470703125,0.07776975631713867,0.010166168212890625,0.09643876552581787
1772650358950328600,1.90732861328125,0.05666208267211914,0.04797554016113281,0.05929297208786011
1772650358970082800,1.927082763671875,0.019693374633789062,0.060932159423828125,0.04728901386260986
1772650358989837000,1.946837158203125,-0.049424171447753906,0.010159492492675781,-0.028369784355163574
1772650359009591300,1.96659130859375,-0.025762081146240234,-0.0033283233642578125,-0.0352480411529541
1772650359029345500,1.986345458984375,0.0464329719543457,0.033476829528808594,0.03996396064758301
1772650359049099500,2.006099609375,0.04354667663574219,0.0452880859375,0.0638999342918396
1772650359068853800,2.025853759765625,-0.013884544372558594,0.03528022766113281,0.01895153522491455
1772650359088608000,2.04560791015625,-0.01031351089477539,0.05754280090332031,0.01590043306350708
1772650359108362200,2.0653623046875,-0.06607580184936523,-0.022663116455078125,-0.03632432222366333
1772650359128116200,2.0851162109375,-0.0438079833984375,0.03148841857910156,-0.029608547687530518
1772650359147870500,2.104870361328125,-0.06189107894897461,0.04680919647216797,-0.02496582269668579
1772650359167624700,2.124624755859375,-0.15096211433410645,0.011255264282226562,-0.09929978847503662
1772650359187379000,2.14437890625,0.03977823257446289,0.096435546875,0.06497400999069214
1772650359207133200,2.16413330078125,-0.04040813446044922,0.0120849609375,0.0630267858505249
1772650359226887200,2.18388720703125,-0.046254634857177734,-0.007121086120605469,0.035605013370513916
1772650359246641400,2.203641357421875,-0.026418685913085938,0.03632640838623047,0.0009838342666625977
1772650359266395600,2.223395751953125,0.022018909454345703,0.046830177307128906,-0.0007236599922180176
1772650359286150000,2.24314990234375,0.12200021743774414,0.05563163757324219,0.11112934350967407
1772650359305904000,2.262904052734375,0.002438068389892578,-0.01851177215576172,0.016839206218719482
1772650359325658000,2.282658203125,-0.007686138153076172,0.023598670959472656,-0.04980301856994629
1772650359345412400,2.302412353515625,0.05844688415527344,0.07931327819824219,0.027947545051574707
1772650359365166600,2.32216650390625,0.054744720458984375,0.0006694793701171875,0.08254045248031616
1772650359384920800,2.3419208984375,0.0009031295776367188,0.024954795837402344,0.057257235050201416
1772650359404675000,2.361675048828125,-0.035416603088378906,0.07366466522216797,0.0000024437904357910156
1772650359424429300,2.38142919921875,-0.01878643035888672,0.04949760437011719,0.0010328292846679688
1772650359444183300,2.401183349609375,-0.05356168746948242,-0.019296646118164062,0.03413546085357666
1772650359463937500,2.4209375,-0.043807029724121094,-0.0431060791015625,0.0359954833984375
1772650359483691800,2.44069189453125,0.006993293762207031,0.04460430145263672,-0.013063669204711914
1772650359503446000,2.460446044921875,0.02933502197265625,0.05834484100341797,0.03527796268463135
1772650359523200300,2.4802001953125,0.03107166290283203,0.026248931884765625,0.06582856178283691
1772650359542954500,2.49995458984375,-0.004076480865478516,0.021040916442871094,0.017581045627593994
1772650359562708500,2.51970849609375,-0.04278278350830078,0.021355628967285156,-0.0234072208404541
1772650359582462700,2.539462646484375,-0.01660299301147461,0.038849830627441406,0.05851632356643677
1772650359602217000,2.559217041015625,-0.08240795135498047,0.029172897338867188,0.030375242233276367
1772650359621971200,2.57897119140625,-0.09159207344055176,0.013098716735839844,-0.028176546096801758
1772650359641725200,2.59872509765625,-0.02365255355834961,0.050215721130371094,-0.013374805450439453
1772650359661479400,2.6184794921875,0.11452722549438477,0.05280590057373047,0.07861608266830444
1772650359681233700,2.638233642578125,0.10695981979370117,0.009375572204589844,0.10051155090332031
1772650359700988000,2.65798779296875,0.019134044647216797,-0.006680488586425781,0.013023793697357178
1772650359720742100,2.6777421875,-0.04180288314819336,0.06052970886230469,-0.0164792537689209
1772650359740496400,2.697496337890625,-0.028933048248291016,0.08861064910888672,0.02481400966644287
1772650359760250400,2.71725048828125,-0.059265851974487305,0.029712677001953125,0.031826674938201904
1772650359780004600,2.737004638671875,-0.06377935409545898,0.0026378631591796875,-0.017428457736968994
1772650359799758800,2.7567587890625,0.027181625366210938,0.048636436462402344,0.07086145877838135
1772650359819513000,2.77651318359375,0.06404924392700195,0.04816246032714844,0.102306067943573
1772650359839267300,2.796267333984375,0.016428470611572266,-0.029107093811035156,0.07920783758163452
1772650359859021600,2.816021484375,-0.0136260986328125,0.004184722900390625,0.01821237802505493
1772650359878775600,2.835775634765625,-0.012812137603759766,0.05191802978515625,-0.0001448988914489746
1772650359898529800,2.85552978515625,-0.0006070137023925781,0.06820869445800781,0.041204631328582764
1772650359918284000,2.875283935546875,0.00799560546875,0.037446022033691406,0.08683532476425171
1772650359938038300,2.895038330078125,0.017548561096191406,-0.012727737426757812,0.07929575443267822
1772650359957792500,2.91479248046875,0.011951446533203125,-0.0032501220703125,0.07560718059539795
1772650359977546800,2.934546630859375,0.08948564529418945,-0.004454612731933594,0.09988224506378174
1772650359997300700,2.95430078125,0.0072574615478515625,0.06034374237060547,0.04562407732009888
1772650360017055000,2.974054931640625,-0.04458284378051758,0.07416534423828125,-0.0237959623336792
1772650360036809200,2.993809326171875,-0.010208606719970703,0.051059722900390625,-0.03414797782897949
1772650360056563500,3.0135634765625,0.043675899505615234,-0.0040912628173828125,0.04180264472961426
1772650360076317700,3.033317626953125,0.030451297760009766,-0.027822494506835938,0.061158061027526855
1772650360096072000,3.053072021484375,-0.03342628479003906,0.014811515808105469,0.014864146709442139
1772650360115826000,3.072825927734375,-0.010027885437011719,0.09329700469970703,0.04071664810180664
1772650360135580200,3.092580078125,0.036009788513183594,0.07342052459716797,0.04258841276168823
1772650360155334400,3.11233447265625,0.01292276382446289,0.02940082550048828,-0.02730005979537964
1772650360175088600,3.132088623046875,0.013396263122558594,0.05466938018798828,-0.0038520097732543945
1772650360194843000,3.1518427734375,0.014142513275146484,0.023839950561523438,-0.014620542526245117
1772650360214597000,3.17159716796875,0.04523754119873047,0.021608352661132812,0.06637787818908691
1772650360234351400,3.191351318359375,0.027974605560302734,0.019056320190429688,0.08721005916595459
1772650360254105300,3.211105224609375,-0.06167721748352051,0.026720046997070312,0.009461700916290283
1772650360273859600,3.230859619140625,-0.1084439754486084,0.02957630157470703,-0.03708380460739136
1772650360293613800,3.25061376953125,-0.048655033111572266,0.02128887176513672,-0.010247588157653809
1772650360313368000,3.2703681640625,-0.027753591537475586,0.027345657348632812,0.056780219078063965
1772650360333122300,3.290122314453125,-0.031644344329833984,0.038558006286621094,0.026428163051605225
1772650360352876500,3.30987646484375,0.004132270812988281,0.039963722229003906,0.046041667461395264
1772650360372630500,3.329630615234375,-0.0025005340576171875,-0.011728286743164062,0.05112159252166748
1772650360392384800,3.349384765625,-0.025924205780029297,-0.010351181030273438,0.023771226406097412
1772650360412139000,3.369138916015625,-0.016440868377685547,0.036563873291015625,-0.011914551258087158
1772650360431893200,3.388893310546875,-0.004989147186279297,0.0722808837890625,0.003913164138793945
1772650360451647500,3.4086474609375,-0.013522148132324219,0.045638084411621094,-0.012614965438842773
1772650360471401700,3.428401611328125,-0.0031337738037109375,0.02000904083251953,-0.006814062595367432
1772650360491155700,3.44815576171875,0.04030656814575195,0.04852581024169922,0.05816447734832764
1772650360510910000,3.467909912109375,0.022950172424316406,0.025409698486328125,0.06023150682449341
1772650360530664200,3.487664306640625,0.022970199584960938,0.0026445388793945312,0.03971588611602783
1772650360550418400,3.50741845703125,-0.023078441619873047,-0.001171112060546875,0.022004544734954834
1772650360570172700,3.527172607421875,-0.03157782554626465,0.00519561767578125,-0.006593048572540283
1772650360589927000,3.546927001953125,-0.051206350326538086,0.029346466064453125,-0.008079767227172852
1772650360609681200,3.56668115234375,-0.04636740684509277,0.008989334106445312,-0.001086413860321045
1772650360629435100,3.58643505859375,-0.07053303718566895,0.03552532196044922,0.0007598400115966797
1772650360649189400,3.606189453125,-0.035004377365112305,-0.030862808227539062,0.02713555097579956
1772650360668943600,3.625943603515625,-0.0251004695892334,0.03844642639160156,0.03696650266647339
1772650360688697900,3.64569775390625,0.014316558837890625,0.06252861022949219,0.057815611362457275
1772650360708452000,3.6654521484375,-0.015210151672363281,0.05621528625488281,0.003457009792327881
1772650360728206300,3.685206298828125,-0.048619747161865234,0.0006103515625,-0.011859416961669922
1772650360747960600,3.704960693359375,-0.07420039176940918,-0.008083343505859375,-0.06317389011383057
1772650360767714600,3.724714599609375,-0.004961967468261719,0.013799667358398438,-0.005829155445098877
1772650360787468800,3.74446875,0.017644882202148438,0.053689002990722656,0.09182417392730713
1772650360807223000,3.76422314453125,-0.04479241371154785,0.02744293212890625,0.02065509557723999
1772650360826977300,3.783977294921875,-0.03408002853393555,0.03216361999511719,0.03750377893447876
1772650360846731500,3.8037314453125,-0.0012960433959960938,0.023596763610839844,-0.011705219745635986
1772650360866485800,3.82348583984375,-0.03688454627990723,0.023469924926757812,-0.04151952266693115
1772650360886240000,3.843239990234375,-0.027069568634033203,0.042827606201171875,0.00424504280090332
1772650360905994200,3.862994140625,-0.006415843963623047,0.01526641845703125,0.03246098756790161
1772650360925748200,3.882748291015625,0.023543357849121094,0.0012750625610351562,0.06707477569580078
1772650360945502500,3.90250244140625,0.03991842269897461,0.02658843994140625,0.09272575378417969
1772650360965256700,3.922256591796875,-0.043073177337646484,0.04545116424560547,-0.018018782138824463
1772650360985011000,3.942010986328125,-0.04346632957458496,0.02794933319091797,0.007846176624298096
1772650361004765200,3.96176513671875,0.012835979461669922,0.03316974639892578,0.04481637477874756
1772650361024519400,3.98151953125,0.026311397552490234,0.0029964447021484375,0.03697943687438965
1772650361044273700,4.001273681640625,-0.0022478103637695312,0.03196525573730469,0.008892238140106201
1772650361064027600,4.021027587890625,-0.00001430511474609375,0.04947185516357422,0.030286073684692383
1772650361083782000,4.040781982421875,0.02900981903076172,0.027729034423828125,0.06999534368515015
1772650361103536000,4.0605361328125,0.009096145629882812,0.0029420852661132812,0.06035149097442627
1772650361123290400,4.080290283203125,-0.02910757064819336,-0.0018434524536132812,0.007483243942260742
1772650361143044600,4.100044677734375,-0.007306575775146484,0.011600494384765625,0.01419609785079956
1772650361162798800,4.119798828125,0.018817424774169922,0.034725189208984375,0.037173330783843994
1772650361182553000,4.139552978515625,0.0015077590942382812,0.04115009307861328,0.03790527582168579
1772650361202307300,4.159307373046875,-0.01613140106201172,0.04781150817871094,0.010418415069580078
1772650361222061300,4.179061279296875,-0.03277921676635742,0.029695510864257812,-0.010139524936676025
1772650361241815600,4.198815673828125,-0.036504268646240234,0.010519027709960938,-0.0040596723556518555
1772650361261569800,4.21856982421875,-0.04668116569519043,0.02641010284423828,-0.009312272071838379
1772650361281324000,4.238323974609375,-0.03457212448120117,0.023560523986816406,0.01871854066848755
1772650361301078300,4.258078369140625,-0.039623260498046875,0.0049114227294921875,0.025957584381103516
1772650361320832500,4.27783251953125,-0.04958844184875488,-0.00173187255859375,-0.004963696002960205
1772650361340586800,4.297586669921875,-0.018951892852783203,0.000225067138671875,0.015455365180969238
1772650361360341000,4.317341064453125,0.01176309585571289,0.04925537109375,0.0531768798828125
1772650361380095000,4.337094970703125,0.02064371109008789,0.06452655792236328,0.0548054575920105
1772650361399849200,4.35684912109375,-0.022383689880371094,0.046507835388183594,0.0023013949394226074
1772650361419603500,4.376603515625,-0.012743949890136719,0.009142875671386719,0.004798412322998047
1772650361439357700,4.396357666015625,0.028348445892333984,0.007989883422851562,0.021752357482910156
1772650361459112000,4.41611181640625,-0.004431724548339844,0.009089469909667969,0.03720051050186157
1772650361478866200,4.4358662109375,-0.043149471282958984,0.02015972137451172,0.003363192081451416
1772650361498620400,4.455620361328125,-0.025003433227539062,0.04904365539550781,0.009953141212463379
1772650361518374700,4.475374755859375,0.016045093536376953,0.04990100860595703,0.03354072570800781
1772650361538128600,4.495128662109375,-0.05805087089538574,0.026373863220214844,-0.03160220384597778
1772650361557883000,4.5148828125,-0.07639741897583008,0.03859138488769531,-0.07449132204055786
1772650361577637000,4.53463720703125,-0.007084846496582031,0.07946300506591797,-0.0075051188468933105
1772650361597391400,4.554391357421875,0.023325443267822266,0.02993488311767578,0.052416205406188965
1772650361617145600,4.5741455078125,0.03343820571899414,-0.023682594299316406,0.06691569089889526
1772650361636899800,4.59389990234375,0.04667043685913086,-0.014112472534179688,0.08104068040847778
1772650361656654000,4.613654052734375,0.03337717056274414,0.05430316925048828,0.0363692045211792
1772650361676408000,4.633407958984375,0.014347553253173828,0.05827522277832031,0.00921630859375
1772650361696162300,4.653162353515625,0.009356021881103516,0.03868293762207031,0.053077638149261475
1772650361715916500,4.67291650390625,-0.007522106170654297,0.00429534912109375,0.07003706693649292
1772650361735670800,4.6926708984375,-0.046332359313964844,-0.023145675659179688,0.01641714572906494
1772650361755425000,4.712425048828125,-0.021233558654785156,0.01882171630859375,0.028557896614074707
1772650361775179300,4.73217919921875,-0.008275985717773438,0.03816986083984375,0.06068974733352661
1772650361794933500,4.75193359375,-0.010880470275878906,0.008938789367675781,0.05171048641204834
1772650361814687500,4.7716875,0.0016007423400878906,0.010388374328613281,0.0491023063659668
1772650361834441700,4.791441650390625,-0.012221813201904297,0.039862632751464844,0.037339091300964355
1772650361854196000,4.811196044921875,-0.056545257568359375,0.016333580017089844,0.0050598978996276855
1772650361873950200,4.8309501953125,-0.0329279899597168,0.010600090026855469,0.03219962120056152
1772650361893704400,4.850704345703125,-0.013951778411865234,0.0525970458984375,0.028748393058776855
1772650361913458700,4.870458740234375,-0.044144630432128906,0.05698204040527344,-0.03337651491165161
1772650361933213000,4.890212890625,0.004739284515380859,0.034667015075683594,-0.0025205016136169434
1772650361952967200,4.90996728515625,0.06345891952514648,-0.00029850006103515625,0.06249433755874634
1772650361972721200,4.92972119140625,-0.004398822784423828,-0.017972946166992188,0.01998692750930786
1772650361992475400,4.949475341796875,-0.06111288070678711,0.0471343994140625,-0.03623849153518677
1772650362012229600,4.969229736328125,-0.09763836860656738,0.056418418884277344,-0.0551527738571167
1772650362031983900,4.98898388671875,0.004323005676269531,0.03243064880371094,0.02514094114303589
1772650362051738000,5.008738037109375,0.03341388702392578,0.011739730834960938,0.07633644342422485
1772650362071492400,5.028492431640625,0.03172588348388672,0.02854633331298828,0.06356793642044067
1772650362091246600,5.04824658203125,0.0425562858581543,0.06859493255615234,0.005502462387084961
1772650362111000800,5.068000732421875,0.040001869201660156,0.046295166015625,0.002927541732788086
1772650362130762800,5.0877626953125,0.024147987365722656,0.030706405639648438,0.005415380001068115
1772650362150517000,5.10751708984375,-0.018390178680419922,0.005881309509277344,-0.0037255287170410156
1772650362170271200,5.127271240234375,-0.0808110237121582,0.005442619323730469,-0.009543240070343018
1772650362190025500,5.147025390625,-0.0637655258178711,0.03175544738769531,-0.015480637550354004
1772650362209779700,5.16677978515625,0.050113677978515625,0.07509899139404297,0.06835901737213135
1772650362229534000,5.186533935546875,0.07204723358154297,0.062485694885253906,0.09547656774520874
1772650362249288200,5.2062880859375,0.004886150360107422,-0.02150249481201172,0.06180304288864136
1772650362269042400,5.22604248046875,-0.058042049407958984,-0.04035472869873047,-0.04260087013244629
1772650362288796700,5.245796630859375,-0.04520130157470703,0.015439987182617188,-0.04009526968002319
1772650362308550700,5.265550537109375,0.0072479248046875,0.05047035217285156,0.05447494983673096
1772650362328305000,5.285304931640625,0.00897979736328125,0.03497600555419922,0.09081488847732544
1772650362348059100,5.30505908203125,-0.05054473876953125,0.041629791259765625,0.02707362174987793
1772650362367813400,5.3248134765625,-0.009932518005371094,0.0255584716796875,0.005271255970001221
1772650362387567600,5.344567626953125,-0.03431987762451172,0.021927833557128906,0.06721365451812744
1772650362407321900,5.36432177734375,-0.056758880615234375,-0.05616188049316406,0.06298154592514038
1772650362427076000,5.384076171875,-0.04535055160522461,-0.046774864196777344,0.06565850973129272
1772650362446830000,5.403830078125,-0.01629781723022461,0.023082733154296875,0.04465770721435547
1772650362466584300,5.423584228515625,-0.03014993667602539,0.033355712890625,-0.005856156349182129
1772650362486338600,5.443338623046875,-0.04665040969848633,0.0431365966796875,-0.015018343925476074
1772650362506092800,5.4630927734375,-0.04863309860229492,0.041045188903808594,-0.010183572769165039
1772650362525847000,5.482846923828125,-0.08075547218322754,0.03224754333496094,-0.04238075017929077
1772650362545601300,5.502601318359375,0.0036368370056152344,0.040877342224121094,0.034444212913513184
1772650362565355500,5.52235546875,0.06764793395996094,0.03758716583251953,0.08015894889831543
1772650362585109500,5.542109619140625,0.039112091064453125,0.0036258697509765625,0.0264509916305542
1772650362604863700,5.56186376953125,-0.013268470764160156,0.027495384216308594,-0.041175127029418945
1772650362624618000,5.581617919921875,-0.003708362579345703,0.08229446411132812,-0.056556761264801025
1772650362644372200,5.601372314453125,0.028324127197265625,0.07976150512695312,-0.009932875633239746
1772650362664126500,5.62112646484375,0.019509315490722656,0.05858612060546875,0.027038276195526123
1772650362683880700,5.640880615234375,-0.02623271942138672,0.02019786834716797,0.02257019281387329
1772650362703635000,5.660635009765625,-0.01048135757446289,-0.0014486312866210938,0.012275099754333496
1772650362723389000,5.680388916015625,-0.010751724243164062,-0.0025501251220703125,0.02641075849533081
1772650362743143200,5.70014306640625,0.014124393463134766,0.01707744598388672,0.04869532585144043
1772650362762897400,5.7198974609375,0.004081249237060547,0.0487060546875,0.0341031551361084
1772650362782651600,5.739651611328125,0.004885196685791016,0.06939697265625,0.03756815195083618
1772650362802406000,5.759406005859375,0.00376129150390625,0.07167339324951172,0.053856611251831055
1772650362822160100,5.77916015625,-0.007727622985839844,0.0411376953125,0.053769707679748535
1772650362841914400,5.798914306640625,-0.045926570892333984,-0.007334709167480469,0.009810328483581543
1772650362861668400,5.81866845703125,-0.06995654106140137,-0.029425621032714844,-0.01971203088760376
1772650362881422600,5.838422607421875,-0.01631021499633789,0.0020961761474609375,0.052451372146606445
1772650362901176800,5.8581767578125,0.016717910766601562,0.053170204162597656,0.08690279722213745
1772650362920931000,5.87793115234375,-0.010907173156738281,0.03487873077392578,0.07881671190261841
1772650362940685300,5.897685302734375,-0.01203775405883789,0.0479278564453125,0.06063103675842285
1772650362960439600,5.917439453125,-0.04958200454711914,0.026103973388671875,0.0058637261390686035
1772650362980193500,5.937193603515625,-0.07423853874206543,-0.01898193359375,-0.03114449977874756
1772650362999947800,5.95694775390625,-0.042929649353027344,-0.006596565246582031,-0.007343471050262451
1772650363019702000,5.976701904296875,0.029417991638183594,0.02161121368408203,0.07948631048202515
1772650363039456300,5.996456298828125,0.055048465728759766,0.0529327392578125,0.09847074747085571
1772650363059210500,6.01621044921875,-0.04209756851196289,0.04781532287597656,0.035247623920440674
1772650363078964700,6.03596484375,-0.08490347862243652,0.02312469482421875,-0.0371817946434021
1772650363098718700,6.05571875,-0.017010211944580078,0.02033710479736328,-0.013335824012756348
1772650363118473000,6.075472900390625,0.033003807067871094,0.016587257385253906,0.04413020610809326
1772650363138227200,6.095227294921875,0.020806312561035156,0.024295806884765625,0.056682288646698
1772650363157981400,6.1149814453125,-0.007169246673583984,0.01871490478515625,0.028819143772125244
1772650363177735700,6.134735595703125,-0.016968727111816406,0.049927711486816406,0.02284979820251465
1772650363197490000,6.154489990234375,-0.0009975433349609375,0.037140846252441406,0.0272405743598938
1772650363217244200,6.174244140625,-0.02060079574584961,0.01699542999267578,0.02425175905227661
1772650363236998100,6.193998046875,-0.019482135772705078,-0.0034456253051757812,-0.006742358207702637
1772650363256752400,6.21375244140625,0.019517898559570312,0.045317649841308594,0.027501404285430908
1772650363276506600,6.233506591796875,0.01630115509033203,0.07335853576660156,0.03695422410964966
1772650363296260900,6.2532607421875,-0.02907419204711914,0.033806800842285156,0.007012844085693359
1772650363316015000,6.27301513671875,-0.03522634506225586,0.013936042785644531,0.010358929634094238
1772650363335769300,6.292769287109375,0.01225137710571289,0.026590347290039062,0.021123230457305908
1772650363355523600,6.312523681640625,-0.004574775695800781,0.04731464385986328,0.02940988540649414
1772650363375277600,6.332277587890625,0.006249427795410156,0.037139892578125,0.010464251041412354
1772650363395031800,6.35203173828125,0.02080059051513672,0.052369117736816406,0.05703437328338623
1772650363414786000,6.3717861328125,-0.07969975471496582,-0.00021457672119140625,0.013257920742034912
1772650363434540300,6.391540283203125,-0.10648846626281738,-0.04480552673339844,-0.012962102890014648
1772650363454294500,6.41129443359375,-0.06653070449829102,-0.021862030029296875,0.010240554809570312
1772650363474048500,6.431048583984375,0.01741313934326172,0.06459617614746094,0.0822303295135498
1772650363493802800,6.450802734375,0.028300762176513672,0.09477519989013672,0.07328087091445923
1772650363513557000,6.470556884765625,-0.0008072853088378906,0.009648323059082031,-0.0267866849899292
1772650363533311200,6.490311279296875,-0.0016961097717285156,-0.011644363403320312,-0.04011112451553345
1772650363553065500,6.5100654296875,-0.0010123252868652344,-0.014268875122070312,-0.02502065896987915
1772650363572819700,6.52981982421875,-0.011063098907470703,0.00563812255859375,-0.026057541370391846
1772650363592574000,6.549573974609375,0.02108287811279297,0.05025672912597656,0.08529520034790039
1772650363612328000,6.569327880859375,-0.008812904357910156,0.02939605712890625,0.05082070827484131
1772650363632082200,6.589082275390625,0.019614696502685547,0.05941581726074219,0.06379026174545288
1772650363651836400,6.60883642578125,-0.02125692367553711,0.01624011993408203,-0.0011160969734191895
1772650363671590700,6.628590576171875,-0.01514291763305664,0.014168739318847656,-0.013132214546203613
1772650363691345000,6.648344970703125,-0.027437210083007812,0.030292510986328125,-0.001269519329071045
1772650363711099000,6.668098876953125,0.00002288818359375,0.02085113525390625,-0.004583537578582764
1772650363730853000,6.68785302734375,0.014378547668457031,0.008754730224609375,0.03207683563232422
1772650363750607400,6.707607421875,0.02042388916015625,0.005240440368652344,0.05886030197143555
1772650363770361600,6.727361572265625,-0.04708576202392578,0.04324817657470703,0.013060808181762695
1772650363790115800,6.74711572265625,-0.0620579719543457,0.06867122650146484,-0.020020663738250732
1772650363809870000,6.7668701171875,-0.014574050903320312,0.045001983642578125,0.002227783203125
1772650363829624000,6.7866240234375,0.009534358978271484,0.0005207061767578125,0.02595651149749756
1772650363849378300,6.80637841796875,0.002796649932861328,-0.0023088455200195312,0.03308814764022827
1772650363869132500,6.826132568359375,-0.024325847625732422,0.029745101928710938,0.006843626499176025
1772650363888886800,6.84588671875,-0.03959846496582031,0.03232002258300781,0.01698148250579834
1772650363908641000,6.86564111328125,-0.005631923675537109,0.02061176300048828,0.04559314250946045
1772650363928395300,6.885395263671875,-0.014961719512939453,-0.00023937225341796875,0.042828142642974854
1772650363948149200,6.905149169921875,-0.014532089233398438,0.03004169464111328,0.027805089950561523
1772650363967903500,6.924903564453125,-0.02543926239013672,0.049701690673828125,0.0028856396675109863
1772650363987657700,6.94465771484375,-0.05463838577270508,0.009692192077636719,-0.01954042911529541
1772650364007412000,6.964411865234375,-0.06002187728881836,0.019110679626464844,-0.0274772047996521
1772650364027166000,6.984166015625,-0.028762340545654297,0.01670074462890625,0.012913882732391357
1772650364046920200,7.003920166015625,0.027390480041503906,0.027269363403320312,0.06533902883529663
1772650364066674400,7.02367431640625,0.011695384979248047,-0.010941505432128906,0.029329895973205566
1772650364086428700,7.0434287109375,-0.03328418731689453,0.04258537292480469,0.0013538002967834473
1772650364106183000,7.063182861328125,-0.07247543334960938,0.059963226318359375,-0.015137255191802979
1772650364125937000,7.08293701171875,-0.04732465744018555,0.012922286987304688,0.0028790831565856934
1772650364145691100,7.102691162109375,-0.005649566650390625,-0.029725074768066406,0.026396632194519043
1772650364165445400,7.1224453125,0.020961761474609375,0.008220672607421875,0.0524556040763855
1772650364185199600,7.14219970703125,0.014819145202636719,0.04136848449707031,0.02846735715866089
1772650364204953900,7.161953857421875,0.005692005157470703,0.07127189636230469,0.04508262872695923
1772650364224708000,7.1817080078125,-0.008227348327636719,0.034923553466796875,0.015576422214508057
1772650364244462000,7.201462158203125,-0.018985748291015625,0.011408805847167969,0.023569107055664062
1772650364264216300,7.22121630859375,0.002285480499267578,0.05099296569824219,-0.005938231945037842
1772650364283970600,7.240970458984375,-0.007185935974121094,0.010320663452148438,-0.023193061351776123
1772650364303724800,7.260724853515625,-0.0030612945556640625,0.009016036987304688,0.005349695682525635
1772650364323479000,7.28047900390625,-0.00008630752563476562,-0.008939743041992188,0.04607188701629639
1772650364343233000,7.30023291015625,-0.0006556510925292969,0.023767471313476562,0.05991023778915405
1772650364362987300,7.3199873046875,0.004450321197509766,0.052018165588378906,0.04309093952178955
1772650364382741500,7.339741455078125,-0.032482147216796875,0.026699066162109375,0.005069911479949951
1772650364402495700,7.359495849609375,-0.03450918197631836,0.03734302520751953,-0.027953624725341797
1772650364422250000,7.37925,-0.03561115264892578,0.009805679321289062,-0.005469679832458496
1772650364442004000,7.39900390625,-0.03088998794555664,0.027419090270996094,0.001279294490814209
1772650364461758200,7.41875830078125,0.08619260787963867,-0.028558731079101562,0.0830112099647522
1772650364481512400,7.438512451171875,-0.009832382202148438,0.07368755340576172,0.04583078622817993
1772650364501266700,7.4582666015625,-0.00231170654296875,0.04201030731201172,-0.02292698621749878
1772650364521021000,7.47802099609375,-0.1025996208190918,0.030744552612304688,-0.04879266023635864
1772650364540775000,7.49777490234375,-0.022205829620361328,-0.015261650085449219,-0.008310079574584961
1772650364560529200,7.517529052734375,0.00623321533203125,0.026071548461914062,0.07222223281860352
1772650364580283400,7.537283447265625,0.011240482330322266,0.02359294891357422,0.05794990062713623
1772650364600037600,7.55703759765625,0.0006990432739257812,0.00057220458984375,0.0456080436706543
1772650364619792000,7.5767919921875,-0.0024013519287109375,0.04376220703125,0.004071593284606934
1772650364639545900,7.5965458984375,-0.043933868408203125,0.056900978088378906,-0.03495210409164429
1772650364659300000,7.616300048828125,-0.13339972496032715,0.0070781707763671875,-0.04638713598251343
1772650364679054300,7.636054443359375,-0.003696918487548828,0.02060413360595703,0.02210026979446411
1772650364698808600,7.65580859375,-0.06564092636108398,0.07205581665039062,-0.007867157459259033
1772650364718562600,7.6755625,-0.03610849380493164,0.06147193908691406,-0.02642035484313965
1772650364738316800,7.69531689453125,-0.006897449493408203,0.014082908630371094,0.030957520008087158
1772650364758071000,7.715071044921875,-0.01570415496826172,-0.009327888488769531,0.006822526454925537
1772650364777825300,7.7348251953125,-0.0728158950805664,-0.014270782470703125,-0.05015289783477783
1772650364797579500,7.75457958984375,0.03098773956298828,0.05962371826171875,0.020220577716827393
1772650364817333500,7.77433349609375,0.044150352478027344,0.04236412048339844,0.0807952880859375
1772650364837087700,7.794087646484375,0.01976156234741211,0.024184226989746094,0.05567657947540283
1772650364856842000,7.813842041015625,-0.05748271942138672,0.030609130859375,-0.036177635192871094
1772650364876596200,7.83359619140625,-0.09907150268554688,-0.028830528259277344,-0.036887407302856445
1772650364896350200,7.85335009765625,-0.039511680603027344,-0.0141754150390625,0.007401764392852783
1772650364916104400,7.8731044921875,0.03923225402832031,0.0031890869140625,0.10168874263763428
1772650364935858700,7.892858642578125,0.04138803482055664,0.03495979309082031,0.1067589521408081
1772650364955613000,7.912613037109375,0.025411605834960938,0.03655052185058594,0.06830590963363647
1772650364975367200,7.9323671875,-0.027595996856689453,0.005908012390136719,-0.008764326572418213
1772650364995121200,7.95212109375,-0.027980804443359375,0.050909996032714844,-0.022853076457977295
1772650365014875400,7.97187548828125,-0.032689571380615234,0.06835746765136719,0.014817893505096436
1772650365034629600,7.991629638671875,-0.04389047622680664,0.027523040771484375,-0.0009506344795227051
1772650365054383900,8.0113837890625,-0.04769468307495117,-0.000476837158203125,0.015100955963134766
1772650365074137900,8.031137939453124,0.018298625946044922,0.04813957214355469,0.0771491527557373
1772650365093892000,8.05089208984375,0.0005908012390136719,0.054665565490722656,0.05721867084503174
1772650365113646300,8.070646240234375,-0.02838754653930664,0.01971435546875,-0.017154574394226074
1772650365133400600,8.090400634765626,-0.04627227783203125,0.024442672729492188,-0.029038310050964355
1772650365153154600,8.110154541015625,-0.054886817932128906,0.03732490539550781,-0.016151130199432373
1772650365172908800,8.12990869140625,-0.04297018051147461,0.05500602722167969,0.0023869872093200684
1772650365192663000,8.1496630859375,-0.01905059814453125,0.05270099639892578,0.03305017948150635
1772650365212417300,8.169417236328124,0.021806716918945312,0.06244945526123047,0.0667615532875061
1772650365232171300,8.189171142578125,-0.04282712936401367,0.013306617736816406,0.04469233751296997
1772650365251925500,8.208925537109375,-0.0804738998413086,-0.04476642608642578,0.01981586217880249
1772650365271679700,8.2286796875,-0.05668449401855469,-0.08135700225830078,0.04801297187805176
1772650365291434000,8.24843408203125,-0.028728961944580078,-0.031991004943847656,0.09099137783050537
1772650365311188200,8.268188232421876,0.0066852569580078125,0.01335906982421875,0.07878267765045166
1772650365330942200,8.287942138671875,0.015847206115722656,0.042728424072265625,0.043437957763671875
1772650365350696400,8.307696533203124,0.020213603973388672,0.057498931884765625,0.043030619621276855
1772650365370450700,8.32745068359375,-0.02852487564086914,0.049704551696777344,0.009324431419372559
1772650365390205000,8.347204833984375,-0.039168357849121094,0.058322906494140625,0.01145017147064209
1772650365409959000,8.366958984375,-0.06490945816040039,0.023258209228515625,0.020318269729614258
1772650365429713200,8.386713134765625,-0.007360935211181641,0.009271621704101562,0.0342869758605957
1772650365449467400,8.40646728515625,0.05853891372680664,0.03511619567871094,0.030065476894378662
1772650365469221400,8.426221435546875,0.05493640899658203,0.08890438079833984,-0.017616868019104004
1772650365488975600,8.4459755859375,0.07413196563720703,0.09053897857666016,-0.00164031982421875
1772650365508729900,8.465729736328125,0.051601409912109375,0.030689239501953125,0.006683409214019775
1772650365528484000,8.485484130859374,0.02072763442993164,0.0020055770874023438,0.02111297845840454
1772650365548238300,8.50523828125,0.039521217346191406,0.037776947021484375,0.03228813409805298
1772650365567992300,8.524992431640625,0.0004544258117675781,0.052898406982421875,0.029073357582092285
1772650365587746600,8.54474658203125,-0.045346736907958984,0.025821685791015625,-0.004300296306610107
1772650365607500800,8.564500732421875,0.0044708251953125,0.05571937561035156,0.017756760120391846
1772650365627255000,8.584255126953124,0.010723114013671875,0.04874610900878906,0.019809603691101074
1772650365647009000,8.604009033203125,0.01016378402709961,-0.028553009033203125,0.059140682220458984
1772650365666763300,8.62376318359375,0.0350193977355957,-0.006119728088378906,0.071513831615448
1772650365686517500,8.643517578125,0.0054645538330078125,0.06572723388671875,0.04615288972854614
1772650365706271500,8.663271484375,-0.006501674652099609,0.09808921813964844,0.016002535820007324
1772650365726025700,8.683025634765626,0.005360603332519531,0.06339073181152344,0.012665510177612305
1772650365745780000,8.702780029296875,-0.03695964813232422,-0.006945610046386719,-0.029169559478759766
1772650365765534200,8.7225341796875,-0.048064231872558594,-0.009863853454589844,0.008373022079467773
1772650365785288200,8.7422880859375,0.011248588562011719,0.004462242126464844,0.0968438982963562
1772650365805042400,8.76204248046875,0.015533924102783203,0.02319622039794922,0.06041485071182251
1772650365824796700,8.781796630859375,0.012050151824951172,0.0753774642944336,0.024313628673553467
1772650365844551000,8.801551025390625,-0.05264997482299805,0.07198905944824219,-0.006668150424957275
1772650365864305000,8.821304931640626,-0.12533974647521973,-0.014216423034667969,-0.055964648723602295
1772650365884059100,8.84105908203125,-0.12108182907104492,-0.008844375610351562,-0.02544170618057251
1772650365903813400,8.8608134765625,-0.009908199310302734,0.06219482421875,0.03897106647491455
1772650365923567400,8.8805673828125,0.06847429275512695,0.03931427001953125,0.10393553972244263
1772650365943321600,8.900321533203124,0.06328487396240234,-0.015445709228515625,0.09361547231674194
1772650365963075800,8.920075927734375,-0.006437778472900391,-0.030295372009277344,0.00035703182220458984
1772650365982830000,8.939830078125,-0.0453038215637207,0.04925251007080078,-0.048229098320007324
1772650366002584300,8.959584228515626,-0.0011034011840820312,0.0834808349609375,0.009172499179840088
1772650366022338300,8.97933837890625,-0.012538909912109375,0.020051002502441406,0.06941604614257812
1772650366042092500,8.999092529296876,0.001605987548828125,0.018036842346191406,0.09503680467605591
1772650366061846800,9.0188466796875,0.018386363983154297,0.04097270965576172,0.04606407880783081
1772650366081600800,9.038600830078124,0.02166271209716797,0.04698944091796875,0.02007603645324707
1772650366101355000,9.05835498046875,0.05517435073852539,0.04233741760253906,0.005201280117034912
1772650366121109200,9.078109130859374,0.03909158706665039,0.006770133972167969,0.011561930179595947
1772650366140863500,9.097863525390625,-0.03394126892089844,0.000591278076171875,-0.05213695764541626
1772650366160617500,9.117617431640625,0.0003638267517089844,0.02599811553955078,-0.0017911791801452637
1772650366180371700,9.137371826171876,0.011852264404296875,0.060280799865722656,0.05875885486602783
1772650366200126000,9.1571259765625,0.07964181900024414,-0.0029382705688476562,0.11075049638748169
1772650366219880000,9.1768798828125,0.02473306655883789,0.03311443328857422,0.07390427589416504
1772650366239634200,9.19663427734375,-0.15129494667053223,0.14472293853759766,-0.07181340456008911
1772650366259388400,9.216388427734374,-0.00014019012451171875,-0.014565467834472656,-0.020924031734466553
1772650366279142700,9.236142578125,0.043383121490478516,0.042433738708496094,0.02631402015686035
1772650366298896600,9.255896728515625,0.15979433059692383,0.1441793441772461,0.15212583541870117
1772650366318651000,9.27565087890625,0.006893157958984375,-0.18793106079101562,0.030095577239990234
1772650366338405000,9.295405029296875,-0.208052396774292,-0.09610462188720703,0.03508412837982178
