time,seconds_elapsed,z,y,x
1772650357265033700,0.22203369140625,-0.013285927474498749,-0.028557108715176582,-0.015576604753732681
1772650357274911000,0.231910888671875,-0.015271181240677834,-0.017409147694706917,-0.009468132629990578
1772650357284788000,0.2417880859375,-0.009773556143045425,-0.01252236869186163,-0.007177455350756645
1772650357294665200,0.251665283203125,-0.006108472589403391,-0.014202198944985867,-0.004581354558467865
1772650357304542200,0.261542236328125,0.0016798300202935934,0.0010689827613532543,-0.010231691412627697
1772650357314419200,0.271419189453125,0.004123218823224306,0.0015271181473508477,-0.01695101149380207
1772650357324296400,0.28129638671875,-0.00015271181473508477,0.00519220158457756,-0.013896775431931019
1772650357334173400,0.29117333984375,-0.007024743594229221,0.005803049076348543,-0.012675080448389053
1772650357344050700,0.30105078125,-0.008246437646448612,0.012064233422279358,-0.009620844386518002
1772650357353927700,0.310927734375,-0.006413896102458239,0.016340164467692375,-0.008551862090826035
1772650357363804700,0.3208046875,-0.008246437646448612,0.009620844386518002,-0.005497625097632408
1772650357373682000,0.330681884765625,-0.011147962883114815,0.0035123717971146107,-0.004734066314995289
1772650357383559000,0.340558837890625,-0.009315420873463154,0.008399149402976036,0.00015271181473508477
1772650357393436200,0.350436279296875,-0.010537114925682545,0.014049487188458443,0.0050394898280501366
1772650357403313200,0.360313232421875,-0.010995250195264816,0.006108472589403391,0.0050394898280501366
1772650357413190100,0.370190185546875,-0.012980503961443901,0.010995250195264816,0.006261184345930815
1772650357423067400,0.3800673828125,-0.014813045971095562,0.014660334214568138,0.0038177953101694584
1772650357432944400,0.3899443359375,-0.012980503961443901,0.01511846948415041,-0.0004581354442052543
1772650357442821400,0.3998212890625,-0.010078979656100273,0.016340164467692375,-0.0022906772792339325
1772650357452698600,0.40969873046875,-0.01252236869186163,0.016340164467692375,-0.004886778071522713
1772650357462575600,0.41957568359375,-0.014813045971095562,0.013285927474498749,-0.0010689827613532543
1772650357472452900,0.429452880859375,-0.01725643500685692,0.017561858519911766,0.0007635590736754239
1772650357482329900,0.439329833984375,-0.016645587980747223,0.016340164467692375,0.0007635590736754239
1772650357492206800,0.449206787109375,-0.01725643500685692,0.014507622458040714,0.001985253533348441
1772650357502084000,0.459083984375,-0.019088976085186005,0.012216945178806782,0.005650337319821119
1772650357511961000,0.468961181640625,-0.020157959312200546,0.011606098152697086,0.009315420873463154
1772650357521838000,0.478838134765625,-0.020310672000050545,0.013438640162348747,0.007482878863811493
1772650357531715300,0.48871533203125,-0.022754060104489326,0.01588202826678753,0.0038177953101694584
1772650357541592300,0.49859228515625,-0.023975754156708717,0.014660334214568138,0.004428642801940441
1772650357551469600,0.508469482421875,-0.025197450071573257,0.013896775431931019,0.001374406274408102
1772650357561346600,0.5183466796875,-0.024128466844558716,0.01695101149380207,-0.004123218823224306
1772650357571223600,0.5282236328125,-0.02473931387066841,0.021226942539215088,-0.008551862090826035
1772650357581100800,0.538100830078125,-0.02229592576622963,0.023059483617544174,-0.005497625097632408
1772650357590977800,0.547977783203125,-0.02351761981844902,0.021226942539215088,-0.0016798300202935934
1772650357600854800,0.557854736328125,-0.01435491070151329,0.028557108715176582,-0.0012216945178806782
1772650357610732000,0.56773193359375,-0.01252236869186163,0.021226942539215088,-0.0018325417768210173
1772650357620609000,0.577609130859375,-0.016034740954637527,0.022601349279284477,0.006261184345930815
1772650357630486300,0.587486328125,-0.017867282032966614,0.01954711228609085,0.014813045971095562
1772650357640363300,0.59736328125,-0.016034740954637527,0.01847812905907631,0.015423892997205257
1772650357650240300,0.607240234375,-0.009315420873463154,0.023975754156708717,0.014813045971095562
1772650357660117500,0.617117431640625,-0.00259610079228878,0.03130592033267021,0.014660334214568138
1772650357669994500,0.626994384765625,-0.0007635590736754239,0.031916771084070206,0.015271181240677834
1772650357679871500,0.63687158203125,0.0015271181473508477,0.03558185324072838,0.012216945178806782
1772650357689748700,0.646748779296875,0.0009162708884105086,0.03374931216239929,0.008551862090826035
1772650357699625700,0.656625732421875,-0.003970507066696882,0.026877280324697495,0.0012216945178806782
1772650357709503000,0.6665029296875,-0.007635590620338917,0.017561858519911766,-0.004886778071522713
1772650357719380000,0.6763798828125,-0.008704573847353458,0.010231691412627697,-0.009009997360408306
1772650357729257000,0.686257080078125,-0.007482878863811493,0.005344913341104984,-0.008399149402976036
1772650357739134200,0.69613427734375,-0.005650337319821119,0.004734066314995289,-0.0065666078589856625
1772650357749011200,0.70601123046875,-0.001374406274408102,0.009009997360408306,-0.0016798300202935934
1772650357758888400,0.715888427734375,0.005955760832875967,0.017714571207761765,0.0038177953101694584
1772650357768765400,0.725765380859375,0.007788302376866341,0.02214321307837963,0.01175880990922451
1772650357778642400,0.735642333984375,0.007788302376866341,0.021532366052269936,0.014813045971095562
1772650357788519700,0.745519775390625,0.007177455350756645,0.02092151902616024,0.014202198944985867
1772650357798396700,0.755396728515625,0.007788302376866341,0.01954711228609085,0.008704573847353458
1772650357808274000,0.76527392578125,0.0065666078589856625,0.017714571207761765,0.0012216945178806782
1772650357818151000,0.77515087890625,0.004123218823224306,0.012675080448389053,-0.0016798300202935934
1772650357828028000,0.78502783203125,-0.00015271181473508477,0.007788302376866341,-0.004734066314995289
1772650357837905200,0.7949052734375,-0.001374406274408102,0.004734066314995289,-0.0065666078589856625
1772650357847782100,0.8047822265625,-0.0038177953101694584,0.0022906772792339325,-0.0035123717971146107
1772650357857659100,0.8146591796875,-0.005497625097632408,0.0010689827613532543,0.001985253533348441
1772650357867536400,0.824536376953125,-0.006108472589403391,0.0024433890357613564,0.008093725889921188
1772650357877413400,0.834413330078125,-0.0024433890357613564,0.007330167107284069,0.012369656935334206
1772650357887290600,0.84429052734375,0.0018325417768210173,0.012980503961443901,0.015423892997205257
1772650357897167600,0.854167724609375,0.0024433890357613564,0.014202198944985867,0.017867282032966614
1772650357907044600,0.864044677734375,0.0006108472589403391,0.01847812905907631,0.01969982497394085
1772650357916921900,0.873921875,-0.0018325417768210173,0.014813045971095562,0.02214321307837963
1772650357926798800,0.883798828125,-0.006108472589403391,0.011147962883114815,0.02214321307837963
1772650357936675800,0.89367578125,-0.011606098152697086,0.005650337319821119,0.016645587980747223
1772650357946553000,0.903552978515625,-0.015271181240677834,0.0018325417768210173,0.009315420873463154
1772650357956430000,0.91343017578125,-0.014049487188458443,0.0022906772792339325,0.001985253533348441
1772650357966307300,0.923307373046875,-0.008551862090826035,0.0010689827613532543,-0.0029015245381742716
1772650357976184300,0.933184326171875,-0.004886778071522713,-0.0038177953101694584,-0.005344913341104984
1772650357986061300,0.943061279296875,-0.006108472589403391,-0.00259610079228878,-0.0016798300202935934
1772650357995938600,0.9529384765625,-0.007941014133393764,-0.001985253533348441,0.001985253533348441
1772650358005815600,0.962815673828125,-0.009773556143045425,0,0.004428642801940441
1772650358015692500,0.972692626953125,-0.014049487188458443,0.0006108472589403391,0.008704573847353458
1772650358025569800,0.98256982421875,-0.014049487188458443,0.0006108472589403391,0.008704573847353458
1772650358035446800,0.99244677734375,-0.013438640162348747,0.0030542362947016954,0.006261184345930815
1772650358045324000,1.002323974609375,-0.01038440316915512,0.004275931045413017,0.005650337319821119
1772650358055201000,1.012200927734375,-0.007941014133393764,0.0024433890357613564,0.006261184345930815
1772650358065078000,1.022078125,-0.0016798300202935934,-0.005497625097632408,0.012369656935334206
1772650358074955300,1.031955322265625,-0.009620844386518002,-0.009773556143045425,0.016187451779842377
1772650358084832300,1.041832275390625,-0.009773556143045425,-0.006719320081174374,0.0032069480512291193
1772650358094709200,1.051709228515625,-0.016492875292897224,-0.003970507066696882,-0.008399149402976036
1772650358104586500,1.06158642578125,-0.019241688773036003,0.0009162708884105086,-0.02244863659143448
1772650358114463500,1.07146337890625,-0.020463382825255394,0.00015271181473508477,-0.029167955741286278
1772650358124340700,1.0813408203125,-0.023364907130599022,-0.003970507066696882,-0.017561858519911766
1772650358134217700,1.0912177734375,-0.024586603045463562,-0.002748812548816204,-0.010842538438737392
1772650358144094700,1.1010947265625,-0.03008422814309597,0.014507622458040714,-0.007177455350756645
1772650358153972000,1.110971923828125,-0.02901524491608143,0.02733541466295719,-0.0030542362947016954
1772650358163849000,1.120848876953125,-0.02901524491608143,0.02489202655851841,-0.0036650835536420345
1772650358173726200,1.130726318359375,-0.02886253222823143,0.021837789565324783,0.0007635590736754239
1772650358183603200,1.140603271484375,-0.03145863488316536,0.028098974376916885,0.0012216945178806782
1772650358193480200,1.150480224609375,-0.03145863488316536,0.03298575058579445,0.004275931045413017
1772650358203357400,1.160357421875,-0.032069481909275055,0.03420744836330414,0.0036650835536420345
1772650358223111700,1.180111572265625,-0.030847785994410515,0.03420744836330414,0.004886778071522713
1772650358232988700,1.18998876953125,-0.02901524491608143,0.031153209507465363,0.0024433890357613564
1772650358242865700,1.19986572265625,-0.025350160896778107,0.02993151545524597,0.0024433890357613564
1772650358252743000,1.209742919921875,-0.013744063675403595,0.024281177669763565,-0.005497625097632408
1772650358262620000,1.219619873046875,-0.009009997360408306,0.026724567636847496,-0.007941014133393764
1772650358272497200,1.2294970703125,-0.007635590620338917,0.02367033064365387,-0.0024433890357613564
1772650358282374100,1.2393740234375,-0.005803049076348543,0.020157959312200546,0
1772650358292251100,1.249251220703125,-0.004581354558467865,0.02076880633831024,0.0024433890357613564
1772650358302128400,1.25912841796875,-0.0050394898280501366,0.016492875292897224,0.0038177953101694584
1772650358312005400,1.26900537109375,-0.006261184345930815,0.01038440316915512,0.0038177953101694584
1772650358321882400,1.27888232421875,-0.0050394898280501366,0.007330167107284069,0.00259610079228878
1772650358331759600,1.288759521484375,-0.00259610079228878,0.004734066314995289,0.00015271181473508477
1772650358341636600,1.29863671875,-0.001374406274408102,0.0065666078589856625,-0.004734066314995289
1772650358351513900,1.308513916015625,-0.00259610079228878,0.007177455350756645,-0.005955760832875967
1772650358361390800,1.318390869140625,-0.0038177953101694584,0.0065666078589856625,-0.005344913341104984
1772650358371267800,1.328267822265625,-0.0032069480512291193,0.0065666078589856625,-0.0010689827613532543
1772650358381145000,1.33814501953125,-0.0018325417768210173,0.005497625097632408,0.004428642801940441
1772650358391022000,1.34802197265625,0.0024433890357613564,0.005497625097632408,0.011147962883114815
1772650358400899000,1.357899169921875,0.007941014133393764,0.005497625097632408,0.012980503961443901
1772650358410776300,1.3677763671875,0.013438640162348747,0.009773556143045425,0.012369656935334206
1772650358420653300,1.3776533203125,0.016340164467692375,0.016645587980747223,0.012369656935334206
1772650358430530600,1.387530517578125,0.01511846948415041,0.01847812905907631,0.010537114925682545
1772650358440407600,1.397407470703125,0.012064233422279358,0.015423892997205257,0.00992626789957285
1772650358450284500,1.407284423828125,0.009620844386518002,0.007330167107284069,0.0032069480512291193
1772650358460161800,1.417161865234375,0.009773556143045425,-0.001985253533348441,-0.004123218823224306
1772650358470038800,1.427038818359375,0.012827792204916477,-0.012980503961443901,-0.007788302376866341
1772650358479916000,1.436916015625,0.010995250195264816,-0.020310672000050545,-0.0065666078589856625
1772650358489793000,1.44679296875,0.006719320081174374,-0.01175880990922451,-0.007788302376866341
1772650358499670000,1.456669921875,0.009773556143045425,-0.006261184345930815,-0.0029015245381742716
1772650358509547300,1.46654736328125,0.010995250195264816,-0.0024433890357613564,0.005650337319821119
1772650358519424300,1.47642431640625,0.013438640162348747,0.0030542362947016954,0.011147962883114815
1772650358529301200,1.48630126953125,0.016492875292897224,0.001374406274408102,0.015423892997205257
1772650358539178500,1.496178466796875,0.018936265259981155,-0.0004581354442052543,0.01725643500685692
1772650358549055500,1.506055419921875,0.01832541823387146,0.015576604753732681,0.019088976085186005
1772650358558932700,1.5159326171875,0.004275931045413017,0.0038177953101694584,0.022754060104489326
1772650358568809700,1.525809814453125,0.00519220158457756,-0.013896775431931019,0.02351761981844902
1772650358578686700,1.535686767578125,0.006108472589403391,-0.004275931045413017,0.012980503961443901
1772650358588564000,1.54556396484375,0.006108472589403391,-0.004275931045413017,0.006261184345930815
1772650358598441000,1.55544091796875,0.014660334214568138,-0.012369656935334206,0.001985253533348441
1772650358608318200,1.565318115234375,0.01710372418165207,-0.0050394898280501366,-0.004123218823224306
1772650358618195200,1.5751953125,0.018936265259981155,-0.006261184345930815,-0.004123218823224306
1772650358628072200,1.585072265625,0.021990500390529633,-0.009315420873463154,-0.004734066314995289
1772650358637949400,1.594949462890625,0.01832541823387146,-0.005650337319821119,-0.0004581354442052543
1772650358647826400,1.604826416015625,0.01710372418165207,-0.006719320081174374,0.0032069480512291193
1772650358657703400,1.614703369140625,0.013438640162348747,-0.006108472589403391,0.009315420873463154
1772650358667580700,1.62458056640625,0.010537114925682545,-0.004275931045413017,0.013744063675403595
1772650358677457700,1.634457763671875,0.012827792204916477,-0.0030542362947016954,0.011147962883114815
1772650358687335000,1.6443349609375,0.016492875292897224,-0.004275931045413017,0.0032069480512291193
1772650358697212000,1.6542119140625,0.017714571207761765,-0.007482878863811493,-0.0016798300202935934
1772650358707089000,1.6640888671875,0.016492875292897224,-0.014202198944985867,-0.0065666078589856625
1772650358716966100,1.673966064453125,0.012827792204916477,-0.017409147694706917,-0.010842538438737392
1772650358726843100,1.683843017578125,0.008551862090826035,-0.01435491070151329,-0.01511846948415041
1772650358736720400,1.693720458984375,0.004275931045413017,-0.013744063675403595,-0.016340164467692375
1772650358746597400,1.703597412109375,0.0006108472589403391,-0.01435491070151329,-0.01511846948415041
1772650358756474400,1.713474365234375,-0.0030542362947016954,-0.01435491070151329,-0.012675080448389053
1772650358766351600,1.7233515625,-0.005497625097632408,-0.014965757727622986,-0.008399149402976036
1772650358776228600,1.733228515625,-0.004275931045413017,-0.013744063675403595,-0.0065666078589856625
1772650358786105900,1.74310595703125,-0.0030542362947016954,-0.014202198944985867,-0.00519220158457756
1772650358795982800,1.75298291015625,0,-0.01252236869186163,-0.0065666078589856625
1772650358805859800,1.76285986328125,0.0024433890357613564,-0.010537114925682545,-0.004123218823224306
1772650358815737000,1.772737060546875,0.0018325417768210173,-0.0068720318377017975,0.00015271181473508477
1772650358825614000,1.782614013671875,0.0024433890357613564,-0.007482878863811493,0.001374406274408102
1772650358835491300,1.7924912109375,0.0006108472589403391,-0.008093725889921188,-0.0029015245381742716
1772650358845368300,1.802368408203125,-0.0006108472589403391,-0.014965757727622986,-0.009009997360408306
1772650358855245300,1.812245361328125,0.0029015245381742716,-0.01435491070151329,-0.020005248486995697
1772650358865122600,1.82212255859375,-0.0007635590736754239,-0.012064233422279358,-0.030389651656150818
1772650358874999600,1.83199951171875,-0.0032069480512291193,-0.017714571207761765,-0.03161134570837021
1772650358884876800,1.841876708984375,0.00259610079228878,-0.006108472589403391,-0.038483377546072006
1772650358894753800,1.85175390625,0.0068720318377017975,-0.0029015245381742716,-0.03665083646774292
1772650358904630800,1.861630859375,-0.0009162708884105086,-0.007177455350756645,-0.029778804630041122
1772650358914508000,1.871508056640625,0.0010689827613532543,-0.007788302376866341,-0.02489202655851841
1772650358924385000,1.881385009765625,0.008246437646448612,-0.0009162708884105086,-0.021379653364419937
1772650358934262300,1.89126220703125,0.011300674639642239,0.00519220158457756,-0.017714571207761765
1772650358944139300,1.90113916015625,0.007788302376866341,0.005955760832875967,-0.008399149402976036
1772650358954016300,1.911016357421875,0.0022906772792339325,0.005497625097632408,0.0038177953101694584
1772650358963893500,1.9208935546875,0.0012216945178806782,0.009773556143045425,0.010537114925682545
1772650358973770500,1.9307705078125,0,0.013591351918876171,0.016645587980747223
1772650358983647700,1.940647705078125,-0.0036650835536420345,0.009315420873463154,0.016034740954637527
1772650358993524700,1.950524658203125,-0.005497625097632408,0.007941014133393764,0.009315420873463154
1772650359003401700,1.960401611328125,-0.0009162708884105086,0.012675080448389053,-0.005497625097632408
1772650359013279000,1.970279052734375,0.002748812548816204,0.01252236869186163,-0.016492875292897224
1772650359023156000,1.980156005859375,0.004581354558467865,0.008246437646448612,-0.018936265259981155
1772650359033033200,1.990033203125,0.0022906772792339325,0.0022906772792339325,-0.012064233422279358
1772650359042910200,1.99991015625,0,-0.005650337319821119,-0.0022906772792339325
1772650359052787200,2.009787109375,-0.0029015245381742716,-0.00916270911693573,0.006413896102458239
1772650359062664400,2.01966455078125,-0.0036650835536420345,-0.004275931045413017,0.0050394898280501366
1772650359072541400,2.02954150390625,0.0029015245381742716,0.004734066314995289,-0.005344913341104984
1772650359082418700,2.039418701171875,0.009468132629990578,0.016340164467692375,-0.012827792204916477
1772650359092295700,2.049295654296875,0.008246437646448612,0.01817270554602146,-0.011606098152697086
1772650359102172700,2.059172607421875,0.007177455350756645,0.0004581354442052543,-0.007177455350756645
1772650359112050000,2.0690498046875,0.012064233422279358,-0.00259610079228878,-0.0065666078589856625
1772650359121927000,2.078927001953125,0.009620844386518002,0.0010689827613532543,-0.0065666078589856625
1772650359131804200,2.08880419921875,0.005955760832875967,-0.00259610079228878,-0.0065666078589856625
1772650359141681200,2.09868115234375,0.0029015245381742716,-0.0021379655227065086,-0.012675080448389053
1772650359151558100,2.10855810546875,0.0010689827613532543,-0.003359660040587187,-0.011453386396169662
1772650359161435400,2.118435302734375,0.005955760832875967,-0.0015271181473508477,-0.010842538438737392
1772650359171312400,2.1283125,0.016798298805952072,0.006413896102458239,-0.01954711228609085
1772650359181189600,2.138189697265625,0.020005248486995697,-0.012675080448389053,-0.028557108715176582
1772650359191066600,2.148066650390625,0.016187451779842377,-0.002748812548816204,-0.023823043331503868
1772650359200943600,2.157943603515625,0.009620844386518002,-0.013133215717971325,-0.013285927474498749
1772650359210820900,2.16782080078125,0.0032069480512291193,-0.02901524491608143,-0.011911521665751934
1772650359220697900,2.17769775390625,0.00015271181473508477,-0.032222192734479904,-0.014965757727622986
1772650359230575000,2.1875751953125,-0.0004581354442052543,-0.034665580838918686,-0.016798298805952072
1772650359240452000,2.1974521484375,0.00015271181473508477,-0.03588727489113808,-0.02107422985136509
1772650359250329000,2.2073291015625,0.0030542362947016954,-0.02489202655851841,-0.021837789565324783
1772650359260206300,2.217206298828125,0.007177455350756645,-0.011300674639642239,-0.01695101149380207
1772650359270083300,2.227083251953125,0.008399149402976036,0.005344913341104984,-0.005344913341104984
1772650359279960600,2.236960693359375,0.005497625097632408,-0.004886778071522713,0.0032069480512291193
1772650359289837600,2.246837646484375,0.0012216945178806782,0.005650337319821119,0.014202198944985867
1772650359299714600,2.256714599609375,-0.0022906772792339325,0.00259610079228878,0.01847812905907631
1772650359309591800,2.266591796875,0.00015271181473508477,-0.005497625097632408,0.013744063675403595
1772650359319468800,2.27646875,0.004886778071522713,-0.007941014133393764,0.0032069480512291193
1772650359329346000,2.286345947265625,0.009773556143045425,-0.01175880990922451,-0.0035123717971146107
1772650359339223000,2.29622314453125,0.006261184345930815,-0.01847812905907631,-0.0009162708884105086
1772650359349100000,2.30610009765625,0.0015271181473508477,-0.029473381116986275,0.00519220158457756
1772650359358977300,2.315977294921875,-0.002748812548816204,-0.03374931216239929,0.007635590620338917
1772650359368854300,2.325854248046875,-0.0038177953101694584,-0.03680354729294777,0.0065666078589856625
1772650359378731500,2.3357314453125,-0.0032069480512291193,-0.04046862944960594,0.0035123717971146107
1772650359388608500,2.3456083984375,-0.0007635590736754239,-0.04291202127933502,0.0035123717971146107
1772650359398485500,2.355485595703125,-0.001985253533348441,-0.04169032722711563,0.007177455350756645
1772650359408362800,2.36536279296875,-0.001374406274408102,-0.03542914241552353,0.013896775431931019
1772650359418239700,2.37523974609375,-0.001374406274408102,-0.030542362481355667,0.018783552572131157
1772650359428117000,2.385116943359375,-0.002748812548816204,-0.024433890357613564,0.02107422985136509
1772650359437994000,2.394993896484375,-0.004581354558467865,-0.02076880633831024,0.018019994720816612
1772650359447871000,2.40487109375,-0.0015271181473508477,-0.020157959312200546,0.01252236869186163
1772650359457748200,2.414748291015625,0.004428642801940441,-0.02214321307837963,0.002748812548816204
1772650359467625200,2.424625244140625,0.009315420873463154,-0.024128466844558716,-0.007635590620338917
1772650359477502500,2.43450244140625,0.015271181240677834,-0.016187451779842377,-0.013285927474498749
1772650359487379500,2.44437939453125,0.01695101149380207,-0.009468132629990578,-0.01511846948415041
1772650359497256400,2.45425634765625,0.014660334214568138,-0.00992626789957285,-0.009620844386518002
1772650359507133700,2.4641337890625,0.01038440316915512,-0.014202198944985867,-0.0016798300202935934
1772650359517010700,2.4740107421875,0.005650337319821119,-0.01725643500685692,0.0015271181473508477
1772650359526888000,2.483887939453125,0.001374406274408102,-0.02214321307837963,0.002748812548816204
1772650359536765000,2.493764892578125,-0.002748812548816204,-0.027029991149902344,0.0021379655227065086
1772650359546642200,2.50364208984375,-0.00519220158457756,-0.03130592033267021,-0.0015271181473508477
1772650359556519200,2.513519287109375,-0.008857285603880882,-0.03573456406593323,-0.005803049076348543
1772650359566396200,2.523396240234375,-0.008246437646448612,-0.03512371703982353,-0.006413896102458239
1772650359576273400,2.5332734375,-0.008246437646448612,-0.03451287001371384,-0.00519220158457756
1772650359586150400,2.543150390625,-0.013133215717971325,-0.03497100621461868,0.005344913341104984
1772650359596027600,2.553027587890625,-0.009468132629990578,-0.031916771084070206,0.0015271181473508477
1772650359605904600,2.562904541015625,-0.0022906772792339325,-0.027793550863862038,-0.003970507066696882
1772650359615781600,2.57278173828125,0,-0.015576604753732681,-0.012675080448389053
1772650359625659000,2.582658935546875,0.008399149402976036,-0.008246437646448612,-0.020005248486995697
1772650359635536000,2.592535888671875,0.01252236869186163,-0.005344913341104984,-0.02748812735080719
1772650359645413000,2.6024130859375,0.014965757727622986,-0.0035123717971146107,-0.029320668429136276
1772650359655290000,2.6122900390625,0.01435491070151329,0.002748812548816204,-0.023212196305394173
1772650359665167400,2.62216748046875,0.009620844386518002,-0.001985253533348441,-0.012675080448389053
1772650359675044400,2.63204443359375,0.0024433890357613564,-0.007941014133393764,0.00259610079228878
1772650359684921300,2.64192138671875,-0.002748812548816204,-0.017714571207761765,0.01252236869186163
1772650359694798600,2.651798583984375,-0.002748812548816204,-0.024433890357613564,0.01252236869186163
1772650359704675600,2.661675537109375,-0.00030542362947016954,-0.027029991149902344,0.003970507066696882
1772650359714552800,2.671552734375,0.0038177953101694584,-0.02901524491608143,-0.007024743594229221
1772650359724429800,2.681429931640625,0.006261184345930815,-0.03145863488316536,-0.013744063675403595
1772650359734306800,2.691306884765625,0.005650337319821119,-0.030389651656150818,-0.019241688773036003
1772650359744184000,2.70118408203125,0.005497625097632408,-0.02733541466295719,-0.02244863659143448
1772650359754061000,2.71106103515625,0.0036650835536420345,-0.023059483617544174,-0.02367033064365387
1772650359763938000,2.72093798828125,0.006108472589403391,-0.020616095513105392,-0.02367033064365387
1772650359773815300,2.730815185546875,0.012064233422279358,-0.01572931744158268,-0.02733541466295719
1772650359783692300,2.7406923828125,0.016798298805952072,-0.004123218823224306,-0.029320668429136276
1772650359793569500,2.750569580078125,0.016798298805952072,-0.0016798300202935934,-0.02993151545524597
1772650359803446500,2.760446533203125,0.012675080448389053,-0.012675080448389053,-0.029167955741286278
1772650359813323800,2.77032373046875,0.006413896102458239,-0.00030542362947016954,-0.022601349279284477
1772650359823200800,2.78020068359375,0.0022906772792339325,-0.0009162708884105086,-0.016340164467692375
1772650359833077800,2.790077880859375,-0.00015271181473508477,-0.0038177953101694584,-0.009620844386518002
1772650359842955000,2.799955078125,0.0024433890357613564,-0.004428642801940441,-0.004123218823224306
1772650359852832000,2.80983203125,0.0024433890357613564,-0.006108472589403391,0.0032069480512291193
1772650359862709200,2.819709228515625,0.001985253533348441,-0.005497625097632408,0.009468132629990578
1772650359872586200,2.829586181640625,0.0007635590736754239,-0.004275931045413017,0.011911521665751934
1772650359882463500,2.83946337890625,-0.0006108472589403391,0.0012216945178806782,0.014202198944985867
1772650359892340500,2.849340576171875,-0.0006108472589403391,0.011147962883114815,0.014202198944985867
1772650359902217500,2.859217529296875,0.0010689827613532543,0.020310672000050545,0.012369656935334206
1772650359912094700,2.8690947265625,-0.00015271181473508477,0.023364907130599022,0.014813045971095562
1772650359921971700,2.8789716796875,-0.0032069480512291193,0.01969982497394085,0.017867282032966614
1772650359931849000,2.888848876953125,-0.007330167107284069,0.016034740954637527,0.016034740954637527
1772650359941726000,2.898725830078125,-0.013438640162348747,0.007941014133393764,0.014813045971095562
1772650359951603000,2.90860302734375,-0.017714571207761765,-0.0006108472589403391,0.008857285603880882
1772650359961480200,2.918480224609375,-0.01954711228609085,-0.007482878863811493,-0.00030542362947016954
1772650359971357200,2.928357177734375,-0.017867282032966614,-0.001985253533348441,-0.005344913341104984
1772650359981234400,2.938234375,-0.007177455350756645,0.023059483617544174,-0.006108472589403391
1772650359991111400,2.948111328125,-0.004123218823224306,0.033596597611904144,-0.0036650835536420345
1772650360000988400,2.957988525390625,-0.002748812548816204,0.03298575058579445,0.0006108472589403391
1772650360010865700,2.96786572265625,0.001374406274408102,0.034818295389413834,-0.0006108472589403391
1772650360020742700,2.97774267578125,0.005650337319821119,0.03176405653357506,-0.005497625097632408
1772650360030620000,2.987619873046875,0.00259610079228878,0.02244863659143448,-0.009773556143045425
1772650360040497000,2.997496826171875,-0.004581354558467865,0.013896775431931019,-0.010995250195264816
1772650360050374100,3.0073740234375,-0.014813045971095562,0.00519220158457756,-0.011453386396169662
1772650360060251100,3.017251220703125,-0.021532366052269936,-0.00030542362947016954,-0.010842538438737392
1772650360070128000,3.027128173828125,-0.021532366052269936,-0.0009162708884105086,-0.011453386396169662
1772650360080005400,3.03700537109375,-0.02092151902616024,0.003970507066696882,-0.013285927474498749
1772650360089882400,3.04688232421875,-0.013744063675403595,0.011300674639642239,-0.01710372418165207
1772650360099759600,3.056759521484375,-0.007635590620338917,0.016187451779842377,-0.016492875292897224
1772650360109636600,3.06663671875,-0.00519220158457756,0.020005248486995697,-0.011606098152697086
1772650360119513900,3.076513916015625,-0.006413896102458239,0.02076880633831024,0
1772650360129390800,3.086390869140625,-0.0068720318377017975,0.01954711228609085,0.009315420873463154
1772650360139267800,3.096267822265625,-0.0068720318377017975,0.025197450071573257,0.014202198944985867
1772650360149145000,3.10614501953125,-0.002748812548816204,0.03436015918850899,0.007941014133393764
1772650360159022000,3.11602197265625,-0.0009162708884105086,0.03298575058579445,0.0006108472589403391
1772650360168899300,3.1258994140625,-0.0009162708884105086,0.021379653364419937,-0.0012216945178806782
1772650360178776300,3.1357763671875,0.0004581354442052543,0.008399149402976036,-0.0022906772792339325
1772650360188653300,3.1456533203125,0.0030542362947016954,-0.00015271181473508477,-0.0029015245381742716
1772650360198530600,3.155530517578125,0.004886778071522713,-0.00259610079228878,-0.005955760832875967
1772650360208407600,3.165407470703125,0.005497625097632408,-0.0032069480512291193,-0.005344913341104984
1772650360218284800,3.175284912109375,0.0024433890357613564,-0.007482878863811493,-0.004123218823224306
1772650360228161800,3.185161865234375,-0.0036650835536420345,-0.01175880990922451,0.0015271181473508477
1772650360238039000,3.1950390625,-0.007177455350756645,-0.00992626789957285,0.003970507066696882
1772650360247916000,3.204916015625,-0.00916270911693573,-0.001374406274408102,0.0032069480512291193
1772650360257793300,3.214793212890625,-0.006108472589403391,-0.008093725889921188,-0.004734066314995289
1772650360267670300,3.224670166015625,0.0010689827613532543,-0.002748812548816204,-0.012064233422279358
1772650360277547300,3.23454736328125,0.009009997360408306,-0.0021379655227065086,-0.01511846948415041
1772650360287424500,3.244424560546875,0.009009997360408306,0.004123218823224306,-0.012064233422279358
1772650360297301500,3.254301513671875,0.009009997360408306,0.005955760832875967,-0.011453386396169662
1772650360307178800,3.2641787109375,0.007177455350756645,0.005344913341104984,-0.010231691412627697
1772650360317055700,3.2740556640625,0.005955760832875967,0.008399149402976036,-0.008399149402976036
1772650360326932700,3.2839326171875,0.0029015245381742716,0.005955760832875967,-0.009620844386518002
1772650360336810000,3.29381005859375,0.0022906772792339325,0.002748812548816204,-0.013285927474498749
1772650360346687000,3.30368701171875,-0.0007635590736754239,0.003359660040587187,-0.013896775431931019
1772650360356564200,3.313564208984375,-0.0038177953101694584,0.0009162708884105086,-0.013285927474498749
1772650360366441200,3.323441162109375,-0.007482878863811493,-0.00030542362947016954,-0.010842538438737392
1772650360376318200,3.333318115234375,-0.008704573847353458,-0.00015271181473508477,-0.007177455350756645
1772650360386195500,3.343195556640625,-0.006719320081174374,-0.001985253533348441,-0.0035123717971146107
1772650360396072400,3.353072509765625,-0.005497625097632408,-0.0032069480512291193,-0.0022906772792339325
1772650360405949700,3.36294970703125,-0.0030542362947016954,-0.00259610079228878,-0.005955760832875967
1772650360415826700,3.37282666015625,-0.00259610079228878,-0.0021379655227065086,-0.010231691412627697
1772650360425704000,3.382703857421875,-0.001374406274408102,0.00030542362947016954,-0.012675080448389053
1772650360435581000,3.392580810546875,-0.0032069480512291193,0.0015271181473508477,-0.012064233422279358
1772650360445458200,3.402458251953125,-0.00259610079228878,0.0015271181473508477,-0.011453386396169662
1772650360455335200,3.412335205078125,-0.001985253533348441,0.002748812548816204,-0.010231691412627697
1772650360465212200,3.422212158203125,0.0022906772792339325,0.0035123717971146107,-0.009620844386518002
1772650360475089400,3.43208935546875,0.0029015245381742716,0.0065666078589856625,-0.009009997360408306
1772650360484966400,3.44196630859375,0.004734066314995289,0.005344913341104984,-0.0035123717971146107
1772650360494843600,3.45184375,0.0029015245381742716,0.0029015245381742716,-0.0004581354442052543
1772650360504720600,3.461720703125,-0.0006108472589403391,0.0004581354442052543,0.0032069480512291193
1772650360514597600,3.47159765625,-0.005497625097632408,-0.0007635590736754239,0.0032069480512291193
1772650360524475000,3.481474853515625,-0.007330167107284069,0.0010689827613532543,0.0007635590736754239
1772650360534352000,3.491351806640625,-0.011606098152697086,0.0004581354442052543,-0.0010689827613532543
1772650360544229000,3.50122900390625,-0.012827792204916477,-0.001374406274408102,0.001374406274408102
1772650360554106000,3.511106201171875,-0.012827792204916477,-0.00259610079228878,0.0050394898280501366
1772650360563983400,3.5209833984375,-0.009773556143045425,-0.0006108472589403391,0.008093725889921188
1772650360573860400,3.5308603515625,-0.004275931045413017,0.004886778071522713,0.007482878863811493
1772650360583737600,3.540737548828125,0.0006108472589403391,0.00916270911693573,0.009315420873463154
1772650360593614600,3.550614501953125,0.0030542362947016954,0.012827792204916477,0.01175880990922451
1772650360603491600,3.56049169921875,0.004275931045413017,0.015423892997205257,0.014813045971095562
1772650360613368800,3.570368896484375,0.0035123717971146107,0.019088976085186005,0.014813045971095562
1772650360623245800,3.580245849609375,0.0004581354442052543,0.01725643500685692,0.012369656935334206
1772650360633123000,3.590123046875,-0.0024433890357613564,0.007330167107284069,0.006261184345930815
1772650360643000000,3.6,-0.006261184345930815,0.0029015245381742716,-0.005344913341104984
1772650360652877300,3.609877197265625,-0.002748812548816204,0.003970507066696882,-0.016340164467692375
1772650360662754300,3.61975439453125,0.0015271181473508477,0.0021379655227065086,-0.01817270554602146
1772650360672631300,3.62963134765625,-0.0007635590736754239,-0.003970507066696882,-0.012675080448389053
1772650360682508500,3.639508544921875,-0.0030542362947016954,-0.0007635590736754239,-0.0035123717971146107
1772650360692385500,3.649385498046875,-0.0030542362947016954,0.006108472589403391,0.004428642801940441
1772650360702262800,3.6592626953125,-0.0038177953101694584,0.012827792204916477,0.010537114925682545
1772650360712139800,3.669139892578125,-0.0050394898280501366,0.01725643500685692,0.014202198944985867
1772650360722016800,3.679016845703125,-0.0050394898280501366,0.01832541823387146,0.00992626789957285
1772650360731894000,3.68889404296875,-0.0032069480512291193,0.01710372418165207,0.005650337319821119
1772650360741771000,3.69877099609375,-0.001374406274408102,0.010995250195264816,-0.0004581354442052543
1772650360751648300,3.708648193359375,0.0022906772792339325,0.004123218823224306,-0.005955760832875967
1772650360761525200,3.718525146484375,0.0035123717971146107,0.003970507066696882,-0.012064233422279358
1772650360771402500,3.728402587890625,0.00030542362947016954,0.007024743594229221,-0.012064233422279358
1772650360781279500,3.738279541015625,-0.0038177953101694584,0.0065666078589856625,-0.009009997360408306
1772650360791156700,3.74815673828125,-0.007482878863811493,0.0010689827613532543,-0.0029015245381742716
1772650360801033700,3.75803369140625,-0.01038440316915512,0.0010689827613532543,0.001374406274408102
1772650360810910700,3.76791064453125,-0.005497625097632408,0.0022906772792339325,0.0032069480512291193
1772650360820788000,3.7777880859375,0,-0.0038177953101694584,0.004428642801940441
1772650360830665000,3.7876650390625,0.005497625097632408,-0.0012216945178806782,0.008093725889921188
1772650360840542200,3.797542236328125,0.0024433890357613564,0.0024433890357613564,0.010537114925682545
1772650360850419200,3.807419189453125,0.0012216945178806782,0.012216945178806782,0.012369656935334206
1772650360860296200,3.817296142578125,0.0004581354442052543,0.01710372418165207,0.012980503961443901
1772650360870173400,3.82717333984375,0.0015271181473508477,0.03268032893538475,0.012827792204916477
1772650360880050400,3.837050537109375,0.0004581354442052543,0.01588202826678753,0.004428642801940441
1772650360889927700,3.846927734375,-0.001985253533348441,0.005955760832875967,-0.005344913341104984
1772650360899804700,3.8568046875,-0.0007635590736754239,0.0065666078589856625,-0.007177455350756645
1772650360909682000,3.866681884765625,0.0016798300202935934,0.005955760832875967,-0.007177455350756645
1772650360919559000,3.876558837890625,0.005344913341104984,0.005955760832875967,-0.0035123717971146107
1772650360929436200,3.886436279296875,0.004123218823224306,0.006719320081174374,0.0038177953101694584
1772650360939313200,3.896313232421875,0.0018325417768210173,0.009315420873463154,0.012980503961443901
1772650360949190100,3.906190185546875,-0.0006108472589403391,0.015423892997205257,0.01969982497394085
1772650360959067400,3.9160673828125,-0.005497625097632408,0.00992626789957285,0.01969982497394085
1772650360968944400,3.9259443359375,-0.005650337319821119,0.013591351918876171,0.012369656935334206
1772650360978821600,3.935821533203125,0.0009162708884105086,0.01710372418165207,0.0006108472589403391
1772650360988698600,3.94569873046875,0.003970507066696882,0.020616095513105392,-0.004886778071522713
1772650360998575900,3.955575927734375,-0.0007635590736754239,0.013896775431931019,-0.0024433890357613564
1772650361008452900,3.965452880859375,-0.0032069480512291193,0.007941014133393764,0.0032069480512291193
1772650361018329900,3.975329833984375,-0.0050394898280501366,0.008551862090826035,0.005650337319821119
1772650361028207000,3.98520703125,-0.004428642801940441,0.012216945178806782,0.005650337319821119
1772650361038084000,3.995083984375,-0.0032069480512291193,0.014049487188458443,0.007482878863811493
1772650361047961300,4.00496142578125,-0.00259610079228878,0.015271181240677834,0.006261184345930815
1772650361057838300,4.01483837890625,0.0004581354442052543,0.016492875292897224,0.007482878863811493
1772650361067715600,4.024715576171875,0.0029015245381742716,0.01832541823387146,0.0068720318377017975
1772650361077592600,4.034592529296875,0.0029015245381742716,0.017714571207761765,0.0068720318377017975
1772650361087469600,4.044469482421875,-0.0007635590736754239,0.015271181240677834,0.008704573847353458
1772650361097346800,4.054346923828125,-0.005497625097632408,0.01038440316915512,0.011147962883114815
1772650361107223800,4.064223876953125,-0.007941014133393764,0.008551862090826035,0.012369656935334206
1772650361117101000,4.07410107421875,-0.007941014133393764,0.00916270911693573,0.009315420873463154
1772650361126978000,4.08397802734375,-0.008093725889921188,0.01038440316915512,0.0050394898280501366
1772650361136855300,4.093855224609375,-0.006261184345930815,0.012064233422279358,0.0007635590736754239
1772650361146732300,4.103732177734375,-0.0068720318377017975,0.013285927474498749,-0.0016798300202935934
1772650361156609500,4.113609619140625,-0.007482878863811493,0.013285927474498749,0.0007635590736754239
1772650361166486500,4.123486572265625,-0.008093725889921188,0.013438640162348747,0.0032069480512291193
1772650361176363500,4.133363525390625,-0.0068720318377017975,0.010995250195264816,0.008704573847353458
1772650361186240800,4.14324072265625,-0.006719320081174374,0.008551862090826035,0.012369656935334206
1772650361196117800,4.15311767578125,-0.006108472589403391,0.010537114925682545,0.016034740954637527
1772650361205995000,4.1629951171875,-0.006108472589403391,0.014202198944985867,0.017867282032966614
1772650361215872000,4.1728720703125,-0.0068720318377017975,0.01847812905907631,0.01725643500685692
1772650361225749000,4.1827490234375,-0.005650337319821119,0.02214321307837963,0.015423892997205257
1772650361235626200,4.192626220703125,-0.006261184345930815,0.017867282032966614,0.017867282032966614
1772650361245503200,4.202503173828125,-0.007330167107284069,0.014202198944985867,0.015423892997205257
1772650361255380500,4.21238037109375,-0.004275931045413017,0.014049487188458443,0.012980503961443901
1772650361265257500,4.222257568359375,0.0004581354442052543,0.012216945178806782,0.00992626789957285
1772650361275134700,4.232134765625,0.0029015245381742716,0.012827792204916477,0.007482878863811493
1772650361285011700,4.24201171875,0.004734066314995289,0.013438640162348747,0.0068720318377017975
1772650361294889000,4.251888916015625,0.005955760832875967,0.016492875292897224,0.00992626789957285
1772650361304766000,4.261765869140625,0.005955760832875967,0.01954711228609085,0.00992626789957285
1772650361314643000,4.271642822265625,0.005344913341104984,0.020157959312200546,0.008093725889921188
1772650361324520200,4.281520263671875,0.004581354558467865,0.018936265259981155,0
1772650361334397200,4.291397216796875,0.003359660040587187,0.01572931744158268,-0.007330167107284069
1772650361344274400,4.3012744140625,0.0015271181473508477,0.009620844386518002,-0.012216945178806782
1772650361354151400,4.3111513671875,-0.00015271181473508477,0.0065666078589856625,-0.010231691412627697
1772650361364028700,4.321028564453125,-0.001374406274408102,0.0029015245381742716,-0.0035123717971146107
1772650361373905700,4.33090576171875,0.0010689827613532543,0.004123218823224306,0.0007635590736754239
1772650361383782700,4.34078271484375,0.0010689827613532543,0.007330167107284069,0.005650337319821119
1772650361393660000,4.350659912109375,0.004734066314995289,0.012216945178806782,0.007482878863811493
1772650361403537000,4.360536865234375,0.005344913341104984,0.014660334214568138,0.007482878863811493
1772650361413414100,4.3704140625,0.007177455350756645,0.014660334214568138,0.004428642801940441
1772650361423291100,4.380291015625,0.005955760832875967,0.011606098152697086,0.0038177953101694584
1772650361433168400,4.39016845703125,0.0010689827613532543,0.009773556143045425,0.0032069480512291193
1772650361443045400,4.40004541015625,-0.0030542362947016954,0.004275931045413017,0.0032069480512291193
1772650361452922600,4.409922607421875,-0.005497625097632408,-0.0007635590736754239,0.0032069480512291193
1772650361462799600,4.419799560546875,-0.006108472589403391,-0.0050394898280501366,0.0050394898280501366
1772650361472676600,4.429676513671875,-0.0030542362947016954,-0.005650337319821119,0.0038177953101694584
1772650361482553900,4.439553955078125,0.0012216945178806782,-0.001985253533348441,0.0007635590736754239
1772650361492430800,4.449430908203125,0.004123218823224306,0.0010689827613532543,-0.004123218823224306
1772650361502308000,4.45930810546875,0.004734066314995289,0.0022906772792339325,-0.0010689827613532543
1772650361512185000,4.46918505859375,-0.0012216945178806782,0.006108472589403391,0.007482878863811493
1772650361522062300,4.479062255859375,-0.005497625097632408,0.008551862090826035,0.012980503961443901
1772650361531939300,4.488939208984375,-0.006719320081174374,0.011147962883114815,0.017867282032966614
1772650361541816300,4.49881640625,-0.004275931045413017,0.010537114925682545,0.015423892997205257
1772650361551693600,4.508693603515625,-0.0007635590736754239,0.009773556143045425,0.0068720318377017975
1772650361561570600,4.518570556640625,0.004734066314995289,0.009620844386518002,-0.0016798300202935934
1772650361571447800,4.52844775390625,0.007788302376866341,0.007788302376866341,-0.007177455350756645
1772650361581324800,4.53832470703125,0.009009997360408306,0.005955760832875967,-0.007788302376866341
1772650361591202000,4.5482021484375,0.007788302376866341,-0.0007635590736754239,-0.0035123717971146107
1772650361601079000,4.5580791015625,0.006719320081174374,-0.001374406274408102,0.0007635590736754239
1772650361610956000,4.5679560546875,0.010231691412627697,0.0016798300202935934,-0.0004581354442052543
1772650361620833300,4.577833251953125,0.013285927474498749,0.0010689827613532543,-0.0022906772792339325
1772650361630710300,4.587710205078125,0.014507622458040714,0.0029015245381742716,-0.0010689827613532543
1772650361640587500,4.59758740234375,0.012675080448389053,0.0016798300202935934,0.00015271181473508477
1772650361650464500,4.607464599609375,0.007941014133393764,0.0012216945178806782,0.00259610079228878
1772650361660341800,4.617341796875,0.004275931045413017,0.0012216945178806782,0.0050394898280501366
1772650361670218800,4.62721875,0.0024433890357613564,0.0018325417768210173,0.005650337319821119
1772650361680096000,4.637095947265625,0.0006108472589403391,0.0012216945178806782,0.006261184345930815
1772650361689973000,4.646972900390625,-0.0006108472589403391,-0.0006108472589403391,0.007482878863811493
1772650361699850000,4.65685009765625,-0.0016798300202935934,-0.0030542362947016954,0.011147962883114815
1772650361709727200,4.666727294921875,-0.0016798300202935934,-0.007941014133393764,0.014965757727622986
1772650361719604200,4.676604248046875,-0.004123218823224306,-0.012827792204916477,0.015576604753732681
1772650361729481500,4.6864814453125,-0.0035123717971146107,-0.013438640162348747,0.01252236869186163
1772650361739358500,4.6963583984375,-0.0022906772792339325,-0.01175880990922451,0.005803049076348543
1772650361749235700,4.706235595703125,0,-0.0068720318377017975,0.0007635590736754239
1772650361759112700,4.71611279296875,0.0004581354442052543,-0.00015271181473508477,-0.0022906772792339325
1772650361768989700,4.72598974609375,-0.0007635590736754239,0.004123218823224306,0.00015271181473508477
1772650361778867000,4.735866943359375,-0.0032069480512291193,0.009773556143045425,0.0032069480512291193
1772650361788744000,4.745743896484375,-0.004275931045413017,0.007330167107284069,0.008093725889921188
1772650361798621200,4.75562109375,-0.0006108472589403391,0.00916270911693573,0.009315420873463154
1772650361808498200,4.765498291015625,0.0016798300202935934,0.014049487188458443,0.00992626789957285
1772650361818375400,4.77537548828125,-0.0007635590736754239,0.014049487188458443,0.013591351918876171
1772650361828252400,4.78525244140625,-0.006108472589403391,0.010537114925682545,0.016034740954637527
1772650361838129400,4.79512939453125,-0.009773556143045425,0.008551862090826035,0.016645587980747223
1772650361848006700,4.805006591796875,-0.012827792204916477,0.005497625097632408,0.014202198944985867
1772650361857883600,4.814883544921875,-0.01038440316915512,0.0018325417768210173,0.006261184345930815
1772650361867761000,4.824760986328125,-0.006719320081174374,-0.00015271181473508477,0.00259610079228878
1772650361877638000,4.834637939453125,-0.006108472589403391,-0.00259610079228878,0.001374406274408102
1772650361887515100,4.84451513671875,-0.006108472589403391,-0.0007635590736754239,-0.0010689827613532543
1772650361897392000,4.85439208984375,-0.0038177953101694584,0.004734066314995289,-0.0035123717971146107
1772650361907269400,4.864269287109375,-0.0007635590736754239,0.010842538438737392,-0.0035123717971146107
1772650361917146400,4.874146484375,0.00030542362947016954,0.013896775431931019,-0.004886778071522713
1772650361927023400,4.8840234375,0.0010689827613532543,0.014507622458040714,-0.0010689827613532543
1772650361936900600,4.893900634765625,-0.0007635590736754239,0.011606098152697086,0.0050394898280501366
1772650361946777600,4.903777587890625,-0.004275931045413017,0.00916270911693573,0.01175880990922451
1772650361956654800,4.91365478515625,-0.009773556143045425,0.007482878863811493,0.01847812905907631
1772650361966531800,4.92353173828125,-0.009009997360408306,0.00259610079228878,0.020463382825255394
1772650361976408800,4.933408935546875,-0.004734066314995289,-0.0016798300202935934,0.0198525357991457
1772650361986286000,4.9432861328125,-0.0016798300202935934,-0.0018325417768210173,0.016187451779842377
1772650361996163000,4.9531630859375,0.0024433890357613564,-0.0006108472589403391,0.00992626789957285
1772650362006040300,4.963040283203125,0.006719320081174374,0.0012216945178806782,0.001985253533348441
1772650362015917300,4.972917236328125,0.007177455350756645,0.0016798300202935934,-0.007177455350756645
1772650362025794600,4.982794677734375,0.004734066314995289,0.002748812548816204,-0.013896775431931019
1772650362035671600,4.992671630859375,0.0004581354442052543,0.00030542362947016954,-0.01572931744158268
1772650362045548800,5.002548828125,-0.0032069480512291193,-0.003970507066696882,-0.01572931744158268
1772650362055425800,5.01242578125,-0.004275931045413017,-0.009468132629990578,-0.012064233422279358
1772650362065303000,5.022302978515625,-0.0012216945178806782,-0.009315420873463154,-0.007177455350756645
1772650362075180000,5.032179931640625,0.0030542362947016954,-0.004428642801940441,-0.005955760832875967
1772650362085057000,5.04205712890625,0.008399149402976036,0.0022906772792339325,-0.0035123717971146107
1772650362094934300,5.051934326171875,0.009620844386518002,0.006719320081174374,0.0007635590736754239
1772650362104811300,5.061811279296875,0.009009997360408306,0.006719320081174374,0.004428642801940441
1772650362114688500,5.0716884765625,0.004886778071522713,0.006719320081174374,0.011147962883114815
1772650362124565500,5.0815654296875,0,0.0036650835536420345,0.014813045971095562
1772650362134448600,5.09144873046875,-0.0022906772792339325,0,0.015423892997205257
1772650362144327700,5.10132763671875,-0.0029015245381742716,-0.007330167107284069,0.01252236869186163
1772650362154204700,5.11120458984375,-0.0022906772792339325,-0.011606098152697086,0.010689826682209969
1772650362164082000,5.12108203125,-0.0022906772792339325,-0.012216945178806782,0.006413896102458239
1772650362173959000,5.130958984375,0.0018325417768210173,-0.012980503961443901,-0.0016798300202935934
1772650362183836200,5.140836181640625,0.007788302376866341,-0.008857285603880882,-0.012675080448389053
1772650362193713200,5.150713134765625,0.013744063675403595,-0.004581354558467865,-0.023059483617544174
1772650362203590400,5.16059033203125,0.015576604753732681,-0.0029015245381742716,-0.025655584409832954
1772650362213467400,5.17046728515625,0.01435491070151329,0.0009162708884105086,-0.020157959312200546
1772650362223344600,5.1803447265625,0.008399149402976036,0.0029015245381742716,-0.009009997360408306
1772650362233221600,5.1902216796875,0.0030542362947016954,-0.0006108472589403391,0.0032069480512291193
1772650362243098600,5.2000986328125,-0.0029015245381742716,-0.004275931045413017,0.013591351918876171
1772650362252975900,5.209975830078125,-0.007177455350756645,-0.008551862090826035,0.019241688773036003
1772650362262852900,5.219852783203125,-0.007635590620338917,-0.014049487188458443,0.016187451779842377
1772650362272730000,5.229730224609375,-0.005344913341104984,-0.017867282032966614,0.005803049076348543
1772650362282607000,5.239607177734375,-0.0030542362947016954,-0.017867282032966614,-0.005803049076348543
1772650362292484400,5.249484375,0,-0.019241688773036003,-0.011300674639642239
1772650362302361300,5.259361328125,0,-0.016798298805952072,-0.010231691412627697
1772650362312238300,5.26923828125,-0.0006108472589403391,-0.012980503961443901,-0.005344913341104984
1772650362322115600,5.279115478515625,-0.0006108472589403391,-0.010537114925682545,0.0015271181473508477
1772650362331992600,5.28899267578125,0.001985253533348441,-0.007941014133393764,0.007635590620338917
1772650362341869800,5.298869873046875,0.0024433890357613564,-0.004275931045413017,0.010537114925682545
1772650362351746800,5.308746826171875,0.005497625097632408,-0.0012216945178806782,0.012980503961443901
1772650362361624000,5.3186240234375,0.004428642801940441,-0.006719320081174374,0.010078979656100273
1772650362371501000,5.3285009765625,0.007177455350756645,0.0010689827613532543,0.0007635590736754239
1772650362381378000,5.3383779296875,0.007177455350756645,0.011606098152697086,0.00259610079228878
1772650362391255300,5.34825537109375,-0.0018325417768210173,0.005497625097632408,0.009315420873463154
1772650362401132300,5.35813232421875,-0.011606098152697086,-0.0030542362947016954,0.008857285603880882
1772650362411009500,5.368009521484375,-0.013438640162348747,-0.0038177953101694584,0.0038177953101694584
1772650362420886500,5.377886474609375,-0.014660334214568138,-0.0038177953101694584,-0.004734066314995289
1772650362430763800,5.387763671875,-0.016034740954637527,-0.004581354558467865,-0.013896775431931019
1772650362440640800,5.397640869140625,-0.01725643500685692,-0.003359660040587187,-0.018783552572131157
1772650362450518000,5.40751806640625,-0.017867282032966614,-0.004734066314995289,-0.019394399598240852
1772650362460395000,5.41739501953125,-0.01969982497394085,-0.008246437646448612,-0.014507622458040714
1772650362470272000,5.42727197265625,-0.01710372418165207,-0.010689826682209969,-0.007788302376866341
1772650362480149200,5.437149169921875,-0.013438640162348747,-0.013591351918876171,-0.002748812548816204
1772650362490026200,5.447026123046875,-0.011606098152697086,-0.01175880990922451,-0.0015271181473508477
1772650362499903500,5.456903564453125,-0.012216945178806782,-0.007482878863811493,-0.0004581354442052543
1772650362509780500,5.466780517578125,-0.010995250195264816,-0.004428642801940441,-0.0029015245381742716
1772650362519657500,5.476657470703125,-0.010537114925682545,-0.00015271181473508477,-0.008399149402976036
1772650362529534700,5.48653466796875,-0.007482878863811493,0.003359660040587187,-0.014507622458040714
1772650362539411700,5.49641162109375,-0.005803049076348543,0.007635590620338917,-0.020157959312200546
1772650362549289000,5.5062890625,-0.007635590620338917,0.013744063675403595,-0.017714571207761765
1772650362559166000,5.516166015625,-0.007635590620338917,0.01695101149380207,-0.014049487188458443
1772650362569043200,5.526043212890625,-0.010078979656100273,0.016340164467692375,-0.006719320081174374
1772650362578920200,5.535920166015625,-0.00992626789957285,0.012675080448389053,-0.0004581354442052543
1772650362588797200,5.545797119140625,-0.007482878863811493,0.008399149402976036,0.00259610079228878
1772650362598674400,5.55567431640625,-0.005497625097632408,0.0024433890357613564,0.004428642801940441
1772650362608551400,5.565551513671875,-0.0036650835536420345,-0.00259610079228878,0.00259610079228878
1772650362618428700,5.5754287109375,-0.0030542362947016954,-0.004428642801940441,0.001985253533348441
1772650362628305700,5.5853056640625,-0.0006108472589403391,-0.004428642801940441,-0.0029015245381742716
1772650362638183000,5.595182861328125,-0.0024433890357613564,-0.00259610079228878,-0.005955760832875967
1772650362648060000,5.605059814453125,-0.0018325417768210173,-0.0050394898280501366,-0.005955760832875967
1772650362657937000,5.61493701171875,-0.0036650835536420345,-0.011147962883114815,-0.0010689827613532543
1772650362667814100,5.624814208984375,-0.0029015245381742716,-0.014202198944985867,0.003359660040587187
1772650362677691100,5.634691162109375,0.001374406274408102,-0.013591351918876171,0.002748812548816204
1772650362687568400,5.644568359375,0.007482878863811493,-0.01175880990922451,0.001985253533348441
1772650362697445400,5.6544453125,0.014049487188458443,-0.005650337319821119,-0.0004581354442052543
1772650362707322600,5.664322509765625,0.01695101149380207,0.0022906772792339325,-0.0016798300202935934
1772650362717199600,5.67419970703125,0.01695101149380207,0.009620844386518002,-0.0022906772792339325
1772650362727076600,5.68407666015625,0.014507622458040714,0.010231691412627697,-0.004886778071522713
1772650362736953900,5.693953857421875,0.009009997360408306,0.007788302376866341,-0.007177455350756645
1772650362746830800,5.703830810546875,0.0016798300202935934,0.0004581354442052543,-0.0065666078589856625
1772650362756708000,5.7137080078125,-0.0036650835536420345,-0.008093725889921188,-0.005344913341104984
1772650362766585000,5.723585205078125,-0.0024433890357613564,-0.01252236869186163,-0.0065666078589856625
1772650362776462300,5.73346240234375,0.0030542362947016954,-0.009315420873463154,-0.005344913341104984
1772650362786339300,5.74333935546875,0.007330167107284069,-0.0038177953101694584,-0.005344913341104984
1772650362796216300,5.75321630859375,0.009620844386518002,0.0010689827613532543,-0.0029015245381742716
1772650362806093600,5.763093505859375,0.012064233422279358,0.005497625097632408,0.001985253533348441
1772650362815970600,5.772970458984375,0.01511846948415041,0.007941014133393764,0.0050394898280501366
1772650362825847800,5.782847900390625,0.012827792204916477,0.005497625097632408,0.005650337319821119
1772650362835724800,5.792724853515625,0.01038440316915512,0.0030542362947016954,0.0068720318377017975
1772650362845602000,5.80260205078125,0.008399149402976036,0.0016798300202935934,-0.0016798300202935934
1772650362855479000,5.81247900390625,0.008399149402976036,0.0004581354442052543,-0.009620844386518002
1772650362865356000,5.82235595703125,0.0065666078589856625,-0.0015271181473508477,-0.01511846948415041
1772650362875233300,5.8322333984375,0.0035123717971146107,-0.003359660040587187,-0.013896775431931019
1772650362885110300,5.8421103515625,-0.001374406274408102,-0.0015271181473508477,-0.010842538438737392
1772650362894987500,5.851987548828125,-0.0038177953101694584,-0.0007635590736754239,-0.007177455350756645
1772650362904864500,5.861864501953125,-0.001985253533348441,0.0035123717971146107,-0.004734066314995289
1772650362914741800,5.87174169921875,0.0016798300202935934,0.0065666078589856625,-0.0010689827613532543
1772650362924618800,5.88161865234375,0.004123218823224306,0.01038440316915512,0.0050394898280501366
1772650362934495700,5.891495849609375,0.007177455350756645,0.012827792204916477,0.00992626789957285
1772650362944373000,5.901373046875,0.004734066314995289,0.017867282032966614,0.013591351918876171
1772650362954250000,5.91125,0.0016798300202935934,0.01725643500685692,0.013591351918876171
1772650362964127200,5.921127197265625,-0.0030542362947016954,0.012216945178806782,0.012980503961443901
1772650362974004200,5.931004150390625,-0.004886778071522713,0.004886778071522713,0.00992626789957285
1772650362983881200,5.940881103515625,-0.006108472589403391,0.0016798300202935934,0.001985253533348441
1772650362993758500,5.950758544921875,-0.0032069480512291193,0.0022906772792339325,-0.010231691412627697
1772650363003635500,5.960635498046875,0.0015271181473508477,0.00519220158457756,-0.017714571207761765
1772650363013512700,5.9705126953125,0.0015271181473508477,0.005803049076348543,-0.01588202826678753
1772650363023389700,5.9803896484375,-0.0007635590736754239,0.004734066314995289,-0.005344913341104984
1772650363033267000,5.990266845703125,-0.004275931045413017,0.004886778071522713,0.009315420873463154
1772650363043144000,6.00014404296875,-0.007941014133393764,0.007482878863811493,0.020310672000050545
1772650363053021200,6.010021240234375,-0.007941014133393764,0.011147962883114815,0.023975754156708717
1772650363062898200,6.019898193359375,-0.006719320081174374,0.012980503961443901,0.024586603045463562
1772650363072775200,6.029775146484375,-0.0012216945178806782,0.011147962883114815,0.019088976085186005
1772650363082652400,6.03965234375,0.0029015245381742716,0.012827792204916477,0.008093725889921188
1772650363092529400,6.049529296875,0.00519220158457756,0.01572931744158268,-0.0024433890357613564
1772650363102406700,6.05940673828125,0.004581354558467865,0.019394399598240852,-0.007941014133393764
1772650363112283600,6.06928369140625,0.003359660040587187,0.020616095513105392,-0.006719320081174374
1772650363122160600,6.07916064453125,0.0009162708884105086,0.01710372418165207,-0.0018325417768210173
1772650363132038000,6.089037841796875,-0.0050394898280501366,0.010995250195264816,0.007482878863811493
1772650363141915000,6.098914794921875,-0.008551862090826035,0.006108472589403391,0.011147962883114815
1772650363151792000,6.108792236328125,-0.006108472589403391,0.0030542362947016954,0.008704573847353458
1772650363161669000,6.118669189453125,-0.0012216945178806782,0.0024433890357613564,0.008704573847353458
1772650363171546400,6.12854638671875,0,0.0036650835536420345,0.008093725889921188
1772650363181423400,6.13842333984375,-0.0018325417768210173,0.005497625097632408,0.008704573847353458
1772650363191300400,6.14830029296875,0.0012216945178806782,0.007330167107284069,0.01175880990922451
1772650363201177600,6.158177490234375,0.0012216945178806782,0.008551862090826035,0.01175880990922451
1772650363211054600,6.1680546875,-0.0006108472589403391,0.012216945178806782,0.011147962883114815
1772650363220931800,6.177931884765625,-0.004886778071522713,0.008551862090826035,0.011147962883114815
1772650363230808800,6.187808837890625,-0.004428642801940441,0.007330167107284069,0.005650337319821119
1772650363240686000,6.19768603515625,-0.0032069480512291193,0.004734066314995289,-0.0016798300202935934
1772650363250563000,6.20756298828125,-0.00015271181473508477,0.005344913341104984,-0.0065666078589856625
1772650363260440300,6.2174404296875,-0.00015271181473508477,0.0035123717971146107,-0.004734066314995289
1772650363270317300,6.2273173828125,-0.0006108472589403391,0.0029015245381742716,0.001985253533348441
1772650363280194300,6.2371943359375,0.0012216945178806782,0.0018325417768210173,0.0068720318377017975
1772650363290071600,6.247071533203125,0.0030542362947016954,0.0018325417768210173,0.012369656935334206
1772650363299948500,6.256948486328125,0.0036650835536420345,0.0018325417768210173,0.014202198944985867
1772650363309825500,6.266825439453125,0.0012216945178806782,0,0.012369656935334206
1772650363319702800,6.276702880859375,0.0018325417768210173,0.0024433890357613564,0.005650337319821119
1772650363329579800,6.286579833984375,0.0010689827613532543,0.005955760832875967,-0.0022906772792339325
1772650363339457000,6.29645703125,-0.00015271181473508477,0.007788302376866341,-0.007788302376866341
1772650363349334000,6.306333984375,-0.0015271181473508477,0.012675080448389053,-0.006719320081174374
1772650363359211300,6.316211181640625,-0.001985253533348441,-0.006261184345930815,-0.005955760832875967
1772650363369088300,6.326088134765625,-0.0022906772792339325,-0.01175880990922451,0.0015271181473508477
1772650363378965200,6.33596533203125,0.001374406274408102,-0.01038440316915512,0.009468132629990578
1772650363388842500,6.345842529296875,0.0068720318377017975,-0.012064233422279358,0.0198525357991457
1772650363398719500,6.355719482421875,0.0032069480512291193,0.0009162708884105086,0.030847785994410515
1772650363408596700,6.3655966796875,0.001985253533348441,0.00519220158457756,0.03695625811815262
1772650363418473700,6.3754736328125,0.0007635590736754239,0.005803049076348543,0.03634541109204292
1772650363428351000,6.38535107421875,0.001985253533348441,0.00519220158457756,0.027182703837752342
1772650363438228000,6.39522802734375,0.0018325417768210173,0.0038177953101694584,0.01175880990922451
1772650363448105000,6.40510498046875,0.0010689827613532543,-0.0007635590736754239,-0.008399149402976036
1772650363457982200,6.414982177734375,-0.00015271181473508477,-0.007788302376866341,-0.02489202655851841
1772650363467859200,6.424859130859375,-0.001985253533348441,-0.010842538438737392,-0.028557108715176582
1772650363477736400,6.434736328125,-0.0068720318377017975,-0.013896775431931019,-0.021837789565324783
1772650363487613400,6.444613525390625,-0.009773556143045425,-0.01435491070151329,-0.009009997360408306
1772650363497490400,6.454490478515625,-0.008399149402976036,-0.008704573847353458,0.004581354558467865
1772650363507367700,6.46436767578125,-0.004275931045413017,-0.004275931045413017,0.008704573847353458
1772650363517244700,6.47424462890625,0.004886778071522713,0.006108472589403391,0.009315420873463154
1772650363527122000,6.484121826171875,0.010231691412627697,0.014049487188458443,0.007482878863811493
1772650363536999000,6.4939990234375,0.011453386396169662,0.014660334214568138,0.0050394898280501366
1772650363546876000,6.5038759765625,0.007788302376866341,0.012827792204916477,0.0050394898280501366
1772650363556753200,6.513753173828125,0.004123218823224306,0.007941014133393764,0.00259610079228878
1772650363566630100,6.523630126953125,0.00519220158457756,0.010231691412627697,-0.006719320081174374
1772650363576507400,6.53350732421875,0.003970507066696882,0.009620844386518002,-0.013438640162348747
1772650363586384400,6.54338427734375,-0.00015271181473508477,0.004734066314995289,-0.009009997360408306
1772650363596261600,6.55326171875,-0.00259610079228878,0.0022906772792339325,-0.0029015245381742716
1772650363606138600,6.563138671875,0.0035123717971146107,0.005344913341104984,-0.0016798300202935934
1772650363616015600,6.573015625,0.004734066314995289,0.0036650835536420345,0.001985253533348441
1772650363625892900,6.582892822265625,0.0024433890357613564,0.0006108472589403391,0.011147962883114815
1772650363635769900,6.592769775390625,0.001985253533348441,-0.0010689827613532543,0.018630841746926308
1772650363645647000,6.602647216796875,0.001985253533348441,-0.0022906772792339325,0.02229592576622963
1772650363655524000,6.612524169921875,0.0007635590736754239,-0.0029015245381742716,0.020463382825255394
1772650363665401300,6.6224013671875,0.001985253533348441,-0.004275931045413017,0.01435491070151329
1772650363675278300,6.6322783203125,0.001374406274408102,-0.008551862090826035,0.010689826682209969
1772650363685155300,6.6421552734375,0.001985253533348441,-0.013438640162348747,0.007635590620338917
1772650363695032600,6.652032470703125,0.00259610079228878,-0.017867282032966614,0.007635590620338917
1772650363704909600,6.66190966796875,0.001374406274408102,-0.016492875292897224,0.011911521665751934
1772650363714786800,6.671786865234375,0.001985253533348441,-0.014049487188458443,0.013744063675403595
1772650363724663800,6.681663818359375,0.0038177953101694584,-0.010995250195264816,0.018630841746926308
1772650363734540800,6.691540771484375,0.0015271181473508477,-0.010231691412627697,0.020463382825255394
1772650363744418000,6.70141796875,0.00015271181473508477,-0.010231691412627697,0.020463382825255394
1772650363754295000,6.711294921875,0.0007635590736754239,-0.007330167107284069,0.018019994720816612
1772650363764172300,6.72117236328125,0.001374406274408102,-0.005497625097632408,0.011911521665751934
1772650363774049300,6.73104931640625,0,-0.004886778071522713,0.0068720318377017975
1772650363783926300,6.74092626953125,0.0006108472589403391,-0.0024433890357613564,0.0050394898280501366
1772650363793803500,6.750803466796875,0.0035123717971146107,0.0029015245381742716,0.00259610079228878
1772650363803680500,6.760680419921875,0.004734066314995289,0.009773556143045425,0.001985253533348441
1772650363813557800,6.770557861328125,0.005344913341104984,0.015271181240677834,0.004428642801940441
1772650363823434800,6.780434814453125,0.005344913341104984,0.01588202826678753,0.007482878863811493
1772650363833311700,6.790311767578125,0.007177455350756645,0.012216945178806782,0.006261184345930815
1772650363843189000,6.80018896484375,0.006719320081174374,0.004886778071522713,0.0050394898280501366
1772650363853066000,6.81006591796875,0.005497625097632408,-0.0012216945178806782,0.0038177953101694584
1772650363862943200,6.819943115234375,0.004275931045413017,-0.004428642801940441,-0.0010689827613532543
1772650363872820200,6.8298203125,0.0018325417768210173,-0.006261184345930815,-0.004123218823224306
1772650363882697200,6.839697265625,0.0012216945178806782,-0.0068720318377017975,-0.0035123717971146107
1772650363892574500,6.849574462890625,-0.0006108472589403391,-0.009315420873463154,-0.0004581354442052543
1772650363902451500,6.859451416015625,0.0006108472589403391,-0.0050394898280501366,0.00259610079228878
1772650363912328700,6.86932861328125,0.0006108472589403391,0.0018325417768210173,0.005650337319821119
1772650363922205700,6.879205810546875,0.0012216945178806782,0.006108472589403391,0.0068720318377017975
1772650363932083000,6.8890830078125,0.0010689827613532543,0.011606098152697086,0.005650337319821119
1772650363941960000,6.8989599609375,-0.00015271181473508477,0.014660334214568138,0.004428642801940441
1772650363951837000,6.9088369140625,-0.004428642801940441,0.009773556143045425,0.006261184345930815
1772650363961714200,6.918714111328125,-0.006108472589403391,0.004275931045413017,0.008093725889921188
1772650363971591200,6.928591064453125,-0.006719320081174374,-0.0006108472589403391,0.007482878863811493
1772650363981468400,6.938468505859375,-0.0030542362947016954,-0.001374406274408102,0.004428642801940441
1772650363991345400,6.948345458984375,0.0012216945178806782,0.0010689827613532543,0.001985253533348441
1772650364001222400,6.958222412109375,0.005344913341104984,0.007177455350756645,-0.0010689827613532543
1772650364011099600,6.968099609375,0.007177455350756645,0.008399149402976036,-0.0035123717971146107
1772650364020976600,6.9779765625,0.010231691412627697,0.0065666078589856625,-0.005955760832875967
1772650364030854000,6.98785400390625,0.011453386396169662,0.005955760832875967,-0.007788302376866341
1772650364040731000,6.99773095703125,0.009620844386518002,0.004734066314995289,-0.0065666078589856625
1772650364050608000,7.007608154296875,0.004123218823224306,0.0035123717971146107,-0.005955760832875967
1772650364060485000,7.017485107421875,-0.001374406274408102,0.0035123717971146107,-0.004123218823224306
1772650364070362000,7.027362060546875,-0.003359660040587187,0.01695101149380207,-0.004886778071522713
1772650364080239400,7.0372392578125,-0.004428642801940441,-0.00015271181473508477,-0.005955760832875967
1772650364090116400,7.047116455078125,-0.007941014133393764,-0.006261184345930815,-0.0016798300202935934
1772650364099993600,7.05699365234375,-0.005497625097632408,0.0036650835536420345,0.004428642801940441
1772650364109870600,7.06687060546875,0.0030542362947016954,0.007330167107284069,0.007482878863811493
1772650364119747600,7.07674755859375,0.009009997360408306,0.015271181240677834,0.010537114925682545
1772650364129624800,7.086624755859375,0.012064233422279358,0.021990500390529633,0.006719320081174374
1772650364139501800,7.096501708984375,0.013744063675403595,0.023823043331503868,0.0012216945178806782
1772650364149378800,7.10637890625,0.011911521665751934,0.022601349279284477,-0.004886778071522713
1772650364159256000,7.116256103515625,0.008246437646448612,0.016340164467692375,-0.007941014133393764
1772650364169133000,7.126133056640625,0.0009162708884105086,0.007788302376866341,-0.010842538438737392
1772650364179010300,7.13601025390625,-0.0050394898280501366,-0.00030542362947016954,-0.014507622458040714
1772650364188887300,7.14588720703125,-0.005650337319821119,-0.005803049076348543,-0.012064233422279358
1772650364198764300,7.155764404296875,-0.0050394898280501366,-0.001374406274408102,-0.005955760832875967
1772650364208641500,7.1656416015625,-0.004275931045413017,0.0016798300202935934,0.00015271181473508477
1772650364218518500,7.1755185546875,-0.001985253533348441,0.008551862090826035,0.0050394898280501366
1772650364228395800,7.185395751953125,0.0029015245381742716,0.018936265259981155,0.005497625097632408
1772650364238272800,7.195272705078125,0.0065666078589856625,0.021990500390529633,0.007330167107284069
1772650364248149800,7.205149658203125,0.0065666078589856625,0.022601349279284477,0.009773556143045425
1772650364258027000,7.215027099609375,0.004123218823224306,0.017714571207761765,0.010537114925682545
1772650364267904000,7.224904052734375,0.0022906772792339325,0.011606098152697086,0.008093725889921188
1772650364277781200,7.23478125,-0.00015271181473508477,0.005497625097632408,0.00259610079228878
1772650364287658200,7.244658203125,-0.001985253533348441,0.004123218823224306,-0.0029015245381742716
1772650364297535200,7.25453515625,-0.0038177953101694584,0.007177455350756645,-0.010231691412627697
1772650364307412500,7.26441259765625,-0.0007635590736754239,0.005955760832875967,-0.008399149402976036
1772650364317289500,7.27428955078125,0.0010689827613532543,0.0010689827613532543,-0.010231691412627697
1772650364327166700,7.284166748046875,-0.001985253533348441,0.004123218823224306,-0.007788302376866341
1772650364337043700,7.294043701171875,-0.001374406274408102,0.0010689827613532543,-0.005955760832875967
1772650364346920700,7.303920654296875,-0.0024433890357613564,0.0010689827613532543,-0.0029015245381742716
1772650364356798000,7.3137978515625,-0.0018325417768210173,-0.0038177953101694584,0.001374406274408102
1772650364366675000,7.323675048828125,-0.004886778071522713,-0.0030542362947016954,0.007482878863811493
1772650364376552200,7.33355224609375,-0.006719320081174374,-0.0006108472589403391,0.01175880990922451
1772650364386429200,7.34342919921875,-0.005955760832875967,-0.0018325417768210173,0.013744063675403595
1772650364396306200,7.35330615234375,-0.005344913341104984,-0.0006108472589403391,0.014202198944985867
1772650364406183400,7.363183349609375,-0.0036650835536420345,0.0012216945178806782,0.009315420873463154
1772650364416060400,7.373060302734375,-0.0036650835536420345,0.0012216945178806782,0.0068720318377017975
1772650364425937700,7.382937744140625,-0.0036650835536420345,-0.0030542362947016954,0.006261184345930815
1772650364435814700,7.392814697265625,-0.007330167107284069,0.004275931045413017,0.006261184345930815
1772650364445691600,7.402691650390625,-0.007330167107284069,-0.0018325417768210173,0.008704573847353458
1772650364455569000,7.41256884765625,-0.013285927474498749,-0.011147962883114815,0.002748812548816204
1772650364465446000,7.42244580078125,-0.012216945178806782,-0.005650337319821119,-0.0029015245381742716
1772650364475323100,7.4323232421875,-0.015271181240677834,0.0012216945178806782,0.006261184345930815
1772650364485200100,7.4422001953125,-0.01695101149380207,-0.004886778071522713,0.0198525357991457
1772650364495077000,7.4520771484375,-0.018019994720816612,-0.014660334214568138,0.02107422985136509
1772650364504954400,7.461954345703125,-0.011453386396169662,-0.009773556143045425,0.015576604753732681
1772650364514831400,7.471831298828125,-0.007788302376866341,0,0.013744063675403595
1772650364524708600,7.48170849609375,-0.007788302376866341,-0.005497625097632408,0.013744063675403595
1772650364534585600,7.491585693359375,-0.004734066314995289,-0.00916270911693573,0.009468132629990578
1772650364544462600,7.501462646484375,-0.0024433890357613564,-0.0068720318377017975,0.001374406274408102
1772650364554339800,7.51133984375,-0.0030542362947016954,-0.0032069480512291193,0.0007635590736754239
1772650364564216800,7.521216796875,-0.009009997360408306,-0.021532366052269936,0.00030542362947016954
1772650364574094000,7.531093994140625,-0.014965757727622986,-0.027029991149902344,0.002748812548816204
1772650364583971000,7.54097119140625,-0.01435491070151329,-0.025808297097682953,0.003970507066696882
1772650364593848000,7.55084814453125,-0.013744063675403595,-0.029473381116986275,0.003970507066696882
1772650364603725300,7.560725341796875,-0.011453386396169662,-0.01847812905907631,0.003359660040587187
1772650364613602300,7.570602294921875,-0.010689826682209969,-0.02641914412379265,0.006413896102458239
1772650364623479600,7.5804794921875,-0.009009997360408306,-0.006719320081174374,0.01252236869186163
1772650364633356500,7.5903564453125,-0.009009997360408306,-0.014660334214568138,0.011300674639642239
1772650364643233500,7.600233642578125,-0.010689826682209969,-0.025197450071573257,0.007635590620338917
1772650364653110800,7.61011083984375,-0.005955760832875967,-0.009773556143045425,0.007635590620338917
1772650364662987800,7.61998779296875,-0.0010689827613532543,-0.012216945178806782,0.007024743594229221
1772650364672865000,7.629864990234375,0.0007635590736754239,-0.023975754156708717,0.0009162708884105086
1772650364682742000,7.639741943359375,0.006108472589403391,-0.020463382825255394,-0.010842538438737392
1772650364692619000,7.649618896484375,0.014965757727622986,0.005955760832875967,-0.011606098152697086
1772650364702496300,7.659496337890625,0.013285927474498749,-0.006261184345930815,-0.0065666078589856625
1772650364712373200,7.669373291015625,0.00916270911693573,-0.016034740954637527,-0.004734066314995289
1772650364722250200,7.679250244140625,0.009773556143045425,-0.015423892997205257,-0.0065666078589856625
1772650364732127500,7.68912744140625,0.008551862090826035,-0.014965757727622986,-0.009620844386518002
1772650364742004500,7.69900439453125,0.001374406274408102,-0.03268032893538475,-0.011300674639642239
1772650364751881700,7.7088818359375,-0.007024743594229221,-0.04184303805232048,-0.007635590620338917
1772650364761758700,7.7187587890625,-0.007177455350756645,-0.03512371703982353,-0.006413896102458239
1772650364771635700,7.7286357421875,0.0007635590736754239,-0.021685076877474785,-0.00519220158457756
1772650364781513000,7.738512939453125,0.005650337319821119,-0.027182703837752342,-0.01252236869186163
1772650364791390000,7.748389892578125,0.0030542362947016954,-0.020463382825255394,-0.016340164467692375
1772650364801267200,7.75826708984375,0.0018325417768210173,-0.017409147694706917,-0.014507622458040714
1772650364811144200,7.768144287109375,0.001374406274408102,-0.019088976085186005,-0.008857285603880882
1772650364821021200,7.778021240234375,0.00015271181473508477,-0.013438640162348747,0.00519220158457756
1772650364830898400,7.7878984375,0.003970507066696882,-0.015271181240677834,0.01435491070151329
1772650364840775400,7.797775390625,0.006413896102458239,-0.01832541823387146,0.014965757727622986
1772650364850652700,7.807652587890625,0.003359660040587187,-0.016492875292897224,0.01435491070151329
1772650364860529700,7.81752978515625,0.008093725889921188,-0.013438640162348747,0.007024743594229221
1772650364870406700,7.82740673828125,0.012216945178806782,-0.0038177953101694584,-0.0022906772792339325
1772650364880284000,7.837283935546875,0.009620844386518002,0.0035123717971146107,-0.009009997360408306
1772650364890161000,7.847160888671875,0.008857285603880882,0.006413896102458239,-0.020157959312200546
1772650364900038000,7.857037841796875,0.0050394898280501366,0.008093725889921188,-0.03237490355968475
1772650364909915100,7.8669150390625,0.0038177953101694584,0.00916270911693573,-0.04092676565051079
1772650364919792000,7.876792236328125,0.00015271181473508477,0.0030542362947016954,-0.03787253051996231
1772650364929669400,7.88666943359375,-0.0009162708884105086,-0.0016798300202935934,-0.031153209507465363
1772650364939546400,7.89654638671875,-0.00015271181473508477,-0.00519220158457756,-0.02244863659143448
1772650364949423400,7.90642333984375,0.0018325417768210173,-0.0068720318377017975,-0.009620844386518002
1772650364959300600,7.916300537109375,0.0006108472589403391,-0.005650337319821119,-0.0010689827613532543
1772650364969177600,7.926177490234375,0.0030542362947016954,-0.00015271181473508477,-0.0016798300202935934
1772650364979054800,7.936054931640625,0.004734066314995289,0.004734066314995289,-0.007177455350756645
1772650364988931800,7.945931884765625,0.005955760832875967,0.0016798300202935934,-0.010842538438737392
1772650364998808800,7.955808837890625,0.004734066314995289,-0.004581354558467865,-0.012064233422279358
1772650365008686000,7.96568603515625,0.0012216945178806782,-0.011300674639642239,-0.009620844386518002
1772650365018563000,7.97556298828125,-0.0029015245381742716,-0.018630841746926308,-0.007024743594229221
1772650365028440300,7.9854404296875,-0.004123218823224306,-0.0198525357991457,-0.009468132629990578
1772650365038317300,7.9953173828125,-0.0024433890357613564,-0.019241688773036003,-0.01511846948415041
1772650365048194300,8.0051943359375,0,-0.015576604753732681,-0.01817270554602146
1772650365058071600,8.015071533203125,0.0016798300202935934,-0.012064233422279358,-0.021226942539215088
1772650365067948500,8.024948486328125,0.004734066314995289,-0.008246437646448612,-0.018783552572131157
1772650365077825500,8.034825439453124,0.0010689827613532543,-0.00519220158457756,-0.012064233422279358
1772650365087702800,8.044702880859376,-0.0030542362947016954,-0.0050394898280501366,0.0007635590736754239
1772650365097579800,8.054579833984375,-0.0035123717971146107,-0.004275931045413017,0.008857285603880882
1772650365107457000,8.06445703125,-0.0018325417768210173,-0.0006108472589403391,0.011147962883114815
1772650365117334000,8.074333984375,0.0018325417768210173,0.006719320081174374,0.006261184345930815
1772650365127211000,8.0842109375,0.004123218823224306,0.00916270911693573,0.001985253533348441
1772650365137088300,8.094088134765625,0.004123218823224306,0.0029015245381742716,-0.0010689827613532543
1772650365146965200,8.10396533203125,0.004734066314995289,0.0004581354442052543,-0.0065666078589856625
1772650365156842500,8.113842529296875,0.005955760832875967,0.0015271181473508477,-0.01695101149380207
1772650365166719500,8.123719482421874,0.005955760832875967,-0.0021379655227065086,-0.023059483617544174
1772650365176596500,8.133596435546876,0.006413896102458239,-0.0065666078589856625,-0.031000498682260513
1772650365186473700,8.1434736328125,0.006413896102458239,-0.009009997360408306,-0.030389651656150818
1772650365196350700,8.153350830078125,0.004123218823224306,-0.012675080448389053,-0.025502873584628105
1772650365206228000,8.16322802734375,-0.0018325417768210173,-0.014965757727622986,-0.01572931744158268
1772650365216105000,8.17310498046875,-0.007330167107284069,-0.012369656935334206,-0.002748812548816204
1772650365225982000,8.18298193359375,-0.013285927474498749,-0.009773556143045425,0.008246437646448612
1772650365235859200,8.192859130859375,-0.018019994720816612,-0.010231691412627697,0.021685076877474785
1772650365245736200,8.202736083984375,-0.015576604753732681,-0.010842538438737392,0.027182703837752342
1772650365255613200,8.21261328125,-0.010078979656100273,-0.007177455350756645,0.024128466844558716
1772650365265490400,8.222490478515626,-0.005344913341104984,-0.0010689827613532543,0.0198525357991457
1772650365275367400,8.232367431640625,-0.0030542362947016954,0.00916270911693573,0.01175880990922451
1772650365285244700,8.24224462890625,-0.001985253533348441,0.01710372418165207,0.0036650835536420345
1772650365295121700,8.25212158203125,-0.003970507066696882,0.020616095513105392,-0.004886778071522713
1772650365304998700,8.26199853515625,-0.006413896102458239,0.021837789565324783,-0.010995250195264816
1772650365314876000,8.2718759765625,-0.008857285603880882,0.021226942539215088,-0.012827792204916477
1772650365324753000,8.2817529296875,-0.013744063675403595,0.016187451779842377,-0.012216945178806782
1772650365334630000,8.2916298828125,-0.01435491070151329,0.009468132629990578,-0.010842538438737392
1772650365344507100,8.301507080078125,-0.014813045971095562,0.0009162708884105086,-0.008399149402976036
1772650365354384100,8.311384033203124,-0.014049487188458443,-0.0050394898280501366,-0.0016798300202935934
1772650365364261000,8.32126123046875,-0.014507622458040714,-0.00992626789957285,0.004581354558467865
1772650365374138400,8.331138427734375,-0.012675080448389053,-0.009315420873463154,0.003970507066696882
1772650365384015400,8.341015380859375,-0.012827792204916477,-0.005650337319821119,0.0007635590736754239
1772650365393892600,8.350892578125,-0.013438640162348747,0.0010689827613532543,-0.0022906772792339325
1772650365403769600,8.36076953125,-0.01175880990922451,0.0065666078589856625,-0.004123218823224306
1772650365413646600,8.370646484375,-0.010078979656100273,0.013285927474498749,-0.008551862090826035
1772650365423523800,8.38052392578125,-0.00519220158457756,0.018783552572131157,-0.011606098152697086
1772650365433400800,8.39040087890625,-0.0004581354442052543,0.022906772792339325,-0.015271181240677834
1772650365443278000,8.400278076171874,0.001374406274408102,0.02733541466295719,-0.011606098152697086
1772650365453155000,8.410155029296876,-0.0010689827613532543,0.02870982140302658,-0.0036650835536420345
1772650365463032000,8.420031982421875,-0.0021379655227065086,0.026877280324697495,0.0024433890357613564
1772650365472909300,8.429909423828125,-0.00259610079228878,0.02076880633831024,0.009315420873463154
1772650365482786300,8.439786376953125,-0.001985253533348441,0.016492875292897224,0.012980503961443901
1772650365492663300,8.449663330078126,-0.0036650835536420345,0.013438640162348747,0.01175880990922451
1772650365502540500,8.45954052734375,-0.00259610079228878,0.010995250195264816,0.0038177953101694584
1772650365512417500,8.46941748046875,-0.00015271181473508477,0.009009997360408306,-0.0010689827613532543
1772650365522294800,8.479294677734375,0.0035123717971146107,0.0065666078589856625,-0.0016798300202935934
1772650365532171800,8.489171875,0.004734066314995289,0.0004581354442052543,-0.0010689827613532543
1772650365542048800,8.499048828125,0.0024433890357613564,-0.004428642801940441,0.00015271181473508477
1772650365551926000,8.508926025390625,-0.0006108472589403391,-0.006261184345930815,0.001985253533348441
1772650365561803000,8.518802978515625,-0.0018325417768210173,-0.0068720318377017975,0.0032069480512291193
1772650365571680000,8.528679931640625,-0.0006108472589403391,-0.0068720318377017975,0.0038177953101694584
1772650365581557200,8.53855712890625,0.006719320081174374,-0.0018325417768210173,0.0032069480512291193
1772650365591434200,8.548434326171876,0.01572931744158268,0.004275931045413017,0.001374406274408102
1772650365601311500,8.5583115234375,0.024281177669763565,0.011606098152697086,0.001985253533348441
1772650365611188500,8.5681884765625,0.027182703837752342,0.01954711228609085,0.004886778071522713
1772650365621065500,8.5780654296875,0.025350160896778107,0.023212196305394173,0.006108472589403391
1772650365630942700,8.587942626953126,0.020616095513105392,0.017714571207761765,0.006719320081174374
1772650365640819700,8.59781982421875,0.013285927474498749,0.007330167107284069,0.001374406274408102
1772650365650696700,8.60769677734375,0.004886778071522713,-0.0068720318377017975,-0.0016798300202935934
1772650365660574000,8.617573974609375,0.0006108472589403391,-0.016645587980747223,-0.006413896102458239
1772650365670451000,8.627450927734374,0.0006108472589403391,-0.020463382825255394,-0.012675080448389053
1772650365680328000,8.637327880859376,0.004886778071522713,-0.015423892997205257,-0.013285927474498749
1772650365690205200,8.647205078125,0.01038440316915512,-0.00992626789957285,-0.009009997360408306
1772650365700082200,8.657082275390625,0.013438640162348747,-0.007330167107284069,0.001985253533348441
1772650365709959400,8.66695947265625,0.01588202826678753,-0.0022906772792339325,0.00992626789957285
1772650365719836400,8.67683642578125,0.015423892997205257,0.0007635590736754239,0.014813045971095562
1772650365729713400,8.68671337890625,0.012216945178806782,0.001374406274408102,0.012980503961443901
1772650365739590700,8.696590576171875,0.007482878863811493,-0.0065666078589856625,0.01252236869186163
1772650365749467600,8.706467529296875,0.0038177953101694584,-0.014660334214568138,0.00519220158457756
1772650365759345000,8.716344970703124,0.005650337319821119,-0.02076880633831024,-0.0021379655227065086
1772650365769222000,8.726221923828126,0.008093725889921188,-0.023975754156708717,-0.008246437646448612
1772650365779099000,8.736098876953125,0.00992626789957285,-0.02641914412379265,-0.008857285603880882
1772650365788976000,8.74597607421875,0.00992626789957285,-0.025197450071573257,-0.004581354558467865
1772650365798853000,8.75585302734375,0.011147962883114815,-0.02076880633831024,-0.0015271181473508477
1772650365808730000,8.765730224609374,0.012369656935334206,-0.014049487188458443,0.003970507066696882
1772650365818607400,8.775607421875,0.011147962883114815,-0.007788302376866341,0.008246437646448612
1772650365828484400,8.785484375,0.010537114925682545,-0.0022906772792339325,0.01435491070151329
1772650365838361300,8.795361328125,0.006413896102458239,-0.006413896102458239,0.019241688773036003
1772650365848238600,8.805238525390624,0.006261184345930815,0.00030542362947016954,0.02229592576622963
1772650365858115600,8.815115478515626,0.012369656935334206,-0.004123218823224306,0.015576604753732681
1772650365867992600,8.82499267578125,0.016645587980747223,-0.008551862090826035,0.001374406274408102
1772650365877869800,8.834869873046875,0.025655584409832954,-0.007482878863811493,-0.016340164467692375
1772650365887746800,8.844746826171875,0.03023693896830082,-0.008246437646448612,-0.030542362481355667
1772650365897624000,8.8546240234375,0.027793550863862038,-0.011453386396169662,-0.04031591862440109
1772650365907501000,8.8645009765625,0.02107422985136509,-0.009620844386518002,-0.045202698558568954
1772650365917378000,8.8743779296875,0.01511846948415041,-0.012064233422279358,-0.03894151374697685
1772650365927255300,8.88425537109375,0.007177455350756645,-0.014965757727622986,-0.0261137206107378
1772650365937132300,8.89413232421875,0.0036650835536420345,-0.015423892997205257,-0.012064233422279358
1772650365947009300,8.90400927734375,0.0007635590736754239,-0.01832541823387146,-0.0009162708884105086
1772650365956886500,8.913886474609376,0.0015271181473508477,-0.018936265259981155,0.007024743594229221
1772650365966763500,8.923763427734375,0.007482878863811493,-0.016492875292897224,0.007635590620338917
1772650365976640800,8.933640869140625,0.012980503961443901,-0.013285927474498749,0.008857285603880882
1772650365986517800,8.943517822265624,0.017867282032966614,-0.007788302376866341,0.010078979656100273
1772650365996394800,8.953394775390626,0.016645587980747223,-0.007788302376866341,0.010689826682209969
1772650366006272000,8.96327197265625,0.012369656935334206,-0.004734066314995289,0.010689826682209969
1772650366016149000,8.97314892578125,0.01038440316915512,-0.0029015245381742716,0.007482878863811493
1772650366026026000,8.98302587890625,0.0068720318377017975,-0.006108472589403391,0.004428642801940441
1772650366035903200,8.9929033203125,0.005650337319821119,-0.012216945178806782,0.0021379655227065086
1772650366045780200,9.0027802734375,0.0050394898280501366,-0.01588202826678753,-0.0021379655227065086
1772650366055657200,9.0126572265625,0.00259610079228878,-0.017867282032966614,-0.007635590620338917
1772650366065534500,9.022534423828125,0.0012216945178806782,-0.014813045971095562,-0.009620844386518002
1772650366075411500,9.032411376953124,0,-0.010537114925682545,-0.009009997360408306
1772650366085288700,9.042288818359374,-0.0024433890357613564,-0.007941014133393764,-0.0035123717971146107
1772650366095165700,9.052165771484376,-0.0010689827613532543,-0.004275931045413017,0.007635590620338917
1772650366105042700,9.062042724609375,-0.0010689827613532543,-0.0035123717971146107,0.017409147694706917
1772650366114920000,9.071919921875,-0.004581354558467865,-0.005803049076348543,0.027793550863862038
1772650366124797000,9.081796875,-0.003359660040587187,-0.003970507066696882,0.030847785994410515
1772650366134674000,9.091673828125,0.00030542362947016954,-0.0021379655227065086,0.025961007922887802
1772650366144551200,9.10155126953125,0.005650337319821119,-0.0016798300202935934,0.015576604753732681
1772650366154428200,9.11142822265625,0.008551862090826035,-0.0004581354442052543,0.004428642801940441
1772650366164305200,9.12130517578125,0.010842538438737392,0.004275931045413017,0.00015271181473508477
1772650366174182400,9.131182373046874,0.00916270911693573,0.005650337319821119,0.006261184345930815
1772650366184059400,9.141059326171876,0.005650337319821119,0.001374406274408102,0.012369656935334206
1772650366193936400,9.150936279296875,0.00259610079228878,0.00519220158457756,0.01847812905907631
1772650366203813600,9.160813720703125,-0.0029015245381742716,0.007635590620338917,0.026571854948997498
1772650366213690600,9.170690673828124,-0.009009997360408306,0.0261137206107378,0.04169032722711563
1772650366223568000,9.18056787109375,-0.012675080448389053,0.03558185324072838,0.05390727147459984
1772650366233444900,9.19044482421875,-0.013896775431931019,0.0522274412214756,0.06856760382652283
1772650366243321900,9.20032177734375,-0.02901524491608143,0.07299624383449554,0.1175880953669548
1772650366253199000,9.21019921875,-0.0390942245721817,0.04184303805232048,0.12262758612632751
1772650366263076000,9.220076171875,-0.02870982140302658,0.04092676565051079,0.10369132459163666
1772650366272953000,9.229953125,-0.018019994720816612,0.03451287001371384,0.07605048269033432
1772650366282830300,9.239830322265625,-0.0010689827613532543,0.017561858519911766,0.0393996499478817
1772650366292707300,9.249707275390625,0.009468132629990578,-0.02626643143594265,-0.003359660040587187
1772650366302584300,9.259584228515624,0.006719320081174374,-0.0916270911693573,-0.03298575058579445
1772650366312461600,9.269461669921874,-0.0012216945178806782,-0.10399674624204636,-0.04825693368911743
1772650366322338600,9.279338623046876,-0.016798298805952072,-0.10949437320232391,-0.0328330397605896
1772650366332215600,9.289215576171875,-0.017561858519911766,-0.12430741637945175,0.013133215717971325
1772650366342092800,9.2990927734375,-0.001985253533348441,-0.11254860460758209,0.06642963737249374
1772650366351969800,9.3089697265625,-0.0006108472589403391,-0.12659808993339539,0.06826218217611313
