time,seconds_elapsed,z,y,x
1772562266043860200,0.085860107421875,-0.015526755712926388,-0.05054305121302605,0.3193139135837555
1772562266053842200,0.09584228515625,-0.03170616179704666,0.05429743602871895,0.28259122371673584
1772562266063825200,0.1058251953125,-0.052728354930877686,0.13689696788787842,0.2369755357503891
1772562266073808100,0.11580810546875,-0.06564165651798248,0.18401992321014404,0.192771315574646
1772562266083790000,0.1257900390625,-0.060503628104925156,0.19619084894657135,0.14652898907661438
1772562266093773000,0.13577294921875,-0.055065710097551346,0.14762574434280396,0.11900119483470917
1772562266103756300,0.14575634765625,-0.04852019250392914,0.06898365169763565,0.12033969908952713
1772562266113738000,0.155738037109375,-0.043199729174375534,-0.01027282141149044,0.15893475711345673
1772562266123721200,0.16572119140625,-0.04370519518852234,-0.10718391835689545,0.2038995772600174
1772562266133704200,0.1757041015625,-0.04695713520050049,-0.19832631945610046,0.24226316809654236
1772562266143686100,0.18568603515625,-0.05216414853930473,-0.26504355669021606,0.27155420184135437
1772562266153669000,0.195669189453125,-0.07834998518228531,-0.28397902846336365,0.2806533873081207
1772562266163652000,0.205652099609375,-0.13045844435691833,-0.29749029874801636,0.2503780424594879
1772562266173634000,0.215634033203125,-0.25552254915237427,-0.4422152638435364,0.18774190545082092
1772562266183617000,0.225616943359375,-0.34815874695777893,-0.5164809226989746,0.16136276721954346
1772562266193600300,0.235600341796875,-0.36023861169815063,-0.456953227519989,0.19884413480758667
1772562266203582000,0.24558203125,-0.3614008128643036,-0.37555718421936035,0.2161104828119278
1772562266213565200,0.255565185546875,-0.3631254732608795,-0.17728857696056366,0.1968957632780075
1772562266223547000,0.265546875,-0.38409653306007385,0.12546570599079132,0.16290158033370972
1772562266233530000,0.275530029296875,-0.3784256875514984,0.721563994884491,0.12216870486736298
1772562266243513000,0.28551318359375,-0.27115172147750854,0.6624335646629333,0.23910945653915405
1772562266253495000,0.2954951171875,-0.18202099204063416,0.4807829260826111,0.4344337284564972
1772562266263478000,0.30547802734375,-0.017342831939458847,0.21778830885887146,0.6028530597686768
1772562266273461000,0.3154609375,0.14337573945522308,0.06816959381103516,0.598921537399292
1772562266283443000,0.32544287109375,0.27311134338378906,0.11220922321081161,0.513883113861084
1772562266293426000,0.335426025390625,0.3829958438873291,0.3399171829223633,0.3919370770454407
1772562266303409200,0.3454091796875,0.47872447967529297,0.6018720865249634,0.23073434829711914
1772562266313390800,0.355390869140625,0.5578585863113403,0.7936755418777466,0.02325146272778511
1772562266323374000,0.3653740234375,0.6194438934326172,0.9855858683586121,-0.11052018404006958
1772562266333357000,0.375357177734375,0.6686374545097351,1.1795920133590698,-0.12743060290813446
1772562266343339300,0.38533935546875,0.6758942604064941,1.3888237476348877,0.017181169241666794
1772562266353322000,0.395322021484375,0.6624883413314819,1.6955538988113403,0.2846255898475647
1772562266363305200,0.40530517578125,0.6501754522323608,2.095381736755371,0.6222403645515442
1772562266373287200,0.415287109375,0.6393063068389893,2.5154552459716797,0.9915871620178223
1772562266383270100,0.425270263671875,0.6340044736862183,2.8302719593048096,1.3673014640808105
1772562266393253000,0.435253173828125,0.6450949907302856,2.935790777206421,1.686001181602478
1772562266403235000,0.445235107421875,0.5497045516967773,2.5049257278442383,1.8471580743789673
1772562266413218000,0.455218017578125,0.2463577836751938,1.547897219657898,1.751776933670044
1772562266423201000,0.465200927734375,-0.14693596959114075,0.5748473405838013,1.5167796611785889
1772562266433183200,0.475183349609375,-0.3181816041469574,-0.0422108955681324,1.3476440906524658
1772562266443166000,0.485166015625,-0.29931843280792236,-0.26411157846450806,1.148378610610962
1772562266453149200,0.495149169921875,-0.17269134521484375,-0.2726443111896515,0.8743877410888672
1772562266463131100,0.505131103515625,-0.07405424118041992,0.00042292766738682985,0.4862975776195526
1772562266473114000,0.515114013671875,-0.08733296394348145,0.32365795969963074,0.18309012055397034
1772562266483097000,0.52509716796875,-0.12433305382728577,0.4993475079536438,-0.045142509043216705
1772562266493079300,0.535079345703125,-0.15798687934875488,0.4972461462020874,-0.3325099050998688
1772562266503062000,0.54506201171875,-0.14672569930553436,0.3801184594631195,-0.6781200766563416
1772562266513045000,0.555044921875,-0.107930988073349,0.10002382099628448,-1.0499740839004517
1772562266523027200,0.565027099609375,-0.06705305725336075,-0.3178381621837616,-1.404646635055542
1772562266533010000,0.575010009765625,0.004459542687982321,-0.7494034171104431,-1.6756242513656616
1772562266542993200,0.5849931640625,0.10902296751737595,-1.07510244846344,-1.800384521484375
1772562266552975000,0.59497509765625,0.2495381385087967,-1.197808861732483,-1.759354829788208
1772562266562958000,0.6049580078125,0.39079749584198,-1.04873526096344,-1.648189902305603
1772562266572941000,0.614941162109375,0.4762653708457947,-0.3301137387752533,-1.5923057794570923
1772562266582923300,0.62492333984375,0.4918874502182007,0.23625090718269348,-1.6145600080490112
1772562266592906000,0.634906005859375,0.46128514409065247,0.8147034049034119,-1.7375184297561646
1772562266602889000,0.644888916015625,0.4303216338157654,1.036149024963379,-1.9767701625823975
1772562266612871200,0.65487109375,0.3724578619003296,0.7129647135734558,-2.3165438175201416
1772562266622854000,0.66485400390625,0.2733142375946045,0.15374591946601868,-2.6857495307922363
1772562266632837000,0.674837158203125,0.13927637040615082,-0.4666069746017456,-3.0428683757781982
1772562266642819000,0.684819091796875,0.05069297179579735,-1.19268000125885,-3.4049148559570312
1772562266652802000,0.694802001953125,0.13348987698554993,-1.9154847860336304,-3.68792724609375
1772562266662785000,0.704784912109375,0.37564659118652344,-2.217240810394287,-3.702993869781494
1772562266672767200,0.714767333984375,0.7088514566421509,-1.9974104166030884,-3.3950181007385254
1772562266682750000,0.72475,1.0528208017349243,-1.5767185688018799,-2.913665294647217
1772562266692733000,0.73473291015625,1.2868311405181885,-1.3099617958068848,-2.4882712364196777
1772562266702715100,0.744715087890625,1.2445605993270874,-1.2775641679763794,-2.2300150394439697
1772562266712697900,0.75469775390625,0.7884162068367004,-1.3430979251861572,-2.2124271392822266
1772562266722681000,0.76468115234375,0.0824737399816513,-1.4186794757843018,-2.39593768119812
1772562266732663000,0.7746630859375,-0.489949494600296,-1.6120731830596924,-2.6784145832061768
1772562266742646000,0.78464599609375,-0.8391586542129517,-1.5780494213104248,-3.02217960357666
1772562266752629000,0.79462890625,-0.9755064845085144,-1.172995686531067,-3.1419944763183594
1772562266762611200,0.804611083984375,-0.9414153695106506,-0.7116594314575195,-2.978687286376953
1772562266772594000,0.814593994140625,-0.7861539721488953,-0.23461560904979706,-2.8583755493164062
1772562266782576000,0.824576171875,-0.7198657393455505,-0.2119462490081787,-2.6608710289001465
1772562266792559000,0.83455908203125,-0.656012237071991,-0.24239318072795868,-2.4675207138061523
1772562266802542000,0.8445419921875,-0.5808389186859131,-0.3334043323993683,-2.3320083618164062
1772562266812524000,0.85452392578125,-0.48289310932159424,-0.6193424463272095,-2.210965394973755
1772562266822507300,0.86450732421875,-0.39887648820877075,-0.9914286732673645,-2.0545506477355957
1772562266832490000,0.874489990234375,-0.3879251182079315,-1.5092130899429321,-1.8426140546798706
1772562266842472200,0.88447216796875,-0.3985591232776642,-1.9568721055984497,-1.4481418132781982
1772562266852455200,0.894455078125,-0.39501953125,-2.2038650512695312,-0.865843653678894
1772562266862438100,0.904438232421875,-0.44376444816589355,-2.3593297004699707,-0.24209725856781006
1772562266872420000,0.914420166015625,-0.5645833611488342,-2.511596202850342,0.19935859739780426
1772562266882403000,0.924403076171875,-0.7012519836425781,-2.6735830307006836,0.37461721897125244
1772562266892386000,0.934385986328125,-0.8113244771957397,-2.783579111099243,0.385873407125473
1772562266902368000,0.944367919921875,-0.8326220512390137,-2.807697296142578,0.3956354856491089
1772562266912351200,0.954351318359375,-0.7836535573005676,-2.7778196334838867,0.5311552882194519
1772562266922334000,0.964333984375,-0.6042296886444092,-2.604177713394165,0.8970975875854492
1772562266932316200,0.974316162109375,-0.3780107796192169,-2.3058855533599854,1.2794920206069946
1772562266942299100,0.984299072265625,-0.19903357326984406,-1.8879804611206055,1.4801946878433228
1772562266952281900,0.99428173828125,-0.07550951838493347,-1.3676682710647583,1.4824049472808838
1772562266962264000,1.00426416015625,-0.054289449006319046,-0.8444170355796814,1.378684163093567
1772562266972247000,1.0142470703125,-0.15013141930103302,-0.32330647110939026,1.3134851455688477
1772562266982230000,1.02422998046875,-0.32442015409469604,0.13207489252090454,1.3883103132247925
1772562266992212000,1.0342119140625,-0.5126115083694458,0.4648348391056061,1.557026743888855
1772562267002195200,1.0441953125,-0.6661589741706848,0.6269270777702332,1.697948932647705
1772562267012178000,1.054177978515625,-0.8072543740272522,0.7110068798065186,1.8157134056091309
1772562267022160100,1.06416015625,-0.8855472803115845,0.7932309508323669,2.013486862182617
1772562267032143000,1.07414306640625,-0.8575394749641418,0.9463816285133362,2.322448253631592
1772562267042125800,1.084125732421875,-0.7474454641342163,1.1149221658706665,2.6564180850982666
1772562267052108000,1.09410791015625,-0.6361071467399597,1.1774547100067139,2.9119694232940674
1772562267062091000,1.104091064453125,-0.5588988661766052,1.0844316482543945,3.054659843444824
1772562267072074000,1.114073974609375,-0.5913270115852356,0.8586768507957458,3.0751490592956543
1772562267082056000,1.124055908203125,-0.7437732815742493,0.5408333539962769,3.0045132637023926
1772562267092039200,1.1340390625,-0.9596720933914185,0.19104665517807007,2.8751327991485596
1772562267102022000,1.14402197265625,-1.1598364114761353,-0.08920949697494507,2.7599542140960693
1772562267112004000,1.154004150390625,-1.2556629180908203,-0.24260690808296204,2.6685469150543213
1772562267121987000,1.163987060546875,-1.2340912818908691,-0.26480087637901306,2.5710432529449463
1772562267131970000,1.173969970703125,-1.0845413208007812,-0.2173595428466797,2.455458641052246
1772562267141952000,1.183951904296875,-0.8902168869972229,-0.14440330862998962,2.308410406112671
1772562267151935000,1.19393505859375,-0.7344493269920349,-0.0904676541686058,2.1236939430236816
1772562267161918000,1.20391796875,-0.6383249163627625,-0.07938145101070404,1.9218919277191162
1772562267171900200,1.213900146484375,-0.647699236869812,-0.08854804933071136,1.729270577430725
1772562267181883100,1.223883056640625,-0.7618756294250488,-0.014571291394531727,1.579601764678955
1772562267191866000,1.2338662109375,-0.9279286861419678,0.18093551695346832,1.4888076782226562
1772562267201848000,1.24384814453125,-1.0870217084884644,0.4438142776489258,1.4329720735549927
1772562267211831000,1.2538310546875,-1.1823371648788452,0.7001556158065796,1.3846125602722168
1772562267221814300,1.263814208984375,-1.1807829141616821,0.9008746147155762,1.3549060821533203
1772562267231796000,1.2737958984375,-1.1035442352294922,1.0092326402664185,1.3763726949691772
1772562267241779200,1.283779296875,-1.0570145845413208,1.0146135091781616,1.472551703453064
1772562267251762200,1.29376220703125,-1.0752525329589844,0.9084352850914001,1.6477060317993164
1772562267261744000,1.303744140625,-1.1578174829483032,0.7045878767967224,1.912752389907837
1772562267271727000,1.31372705078125,-1.2743364572525024,0.3969797194004059,2.239577293395996
1772562267281710000,1.3237099609375,-1.3960652351379395,-0.038809292018413544,2.5558266639709473
1772562267291692000,1.333692138671875,-1.5122934579849243,-0.5383882522583008,2.814805269241333
1772562267301675000,1.343675048828125,-1.5660685300827026,-1.0043202638626099,2.951648473739624
1772562267311657000,1.353656982421875,-1.547757863998413,-1.3153132200241089,2.9463634490966797
1772562267321640000,1.363639892578125,-1.3796615600585938,-1.4247558116912842,2.7651987075805664
1772562267331623200,1.373623046875,-1.0954813957214355,-1.2566462755203247,2.3717494010925293
1772562267341604900,1.38360498046875,-0.7409765720367432,-0.8823283910751343,1.7595090866088867
1772562267351588000,1.393588134765625,-0.3441890776157379,-0.4796724021434784,0.9822952747344971
1772562267361571000,1.403571044921875,0.0572078712284565,-0.11535970121622086,0.1050899550318718
1772562267371553000,1.413552978515625,0.4372004568576813,0.23055167496204376,-0.7715404629707336
1772562267381536000,1.423535888671875,0.7861229777336121,0.5422355532646179,-1.5644797086715698
1772562267391519000,1.43351904296875,1.0490624904632568,0.813490092754364,-2.2185938358306885
1772562267401501000,1.4435009765625,1.2245125770568848,1.0159465074539185,-2.7043111324310303
1772562267411484000,1.45348388671875,1.3203411102294922,1.1214879751205444,-3.041921377182007
1772562267421467100,1.463467041015625,1.3430184125900269,1.1956788301467896,-3.2106528282165527
1772562267431448800,1.47344873046875,1.3158942461013794,1.2455103397369385,-3.212939500808716
1772562267441432000,1.48343212890625,1.2939777374267578,1.2315996885299683,-3.081425189971924
1772562267451415000,1.4934150390625,1.2633930444717407,1.152336835861206,-2.8564224243164062
1772562267461397000,1.50339697265625,1.2342495918273926,0.9364271759986877,-2.6081225872039795
1772562267471380000,1.5133798828125,1.2058228254318237,0.5746808052062988,-2.366257667541504
1772562267481363000,1.523363037109375,1.1835750341415405,0.17654462158679962,-2.1430227756500244
1772562267491345000,1.533344970703125,1.1725057363510132,-0.17569851875305176,-1.908934473991394
1772562267501328000,1.543327880859375,1.1724120378494263,-0.45780131220817566,-1.653174638748169
1772562267511311000,1.55331103515625,1.141568660736084,-0.6145827174186707,-1.3828387260437012
1772562267521292800,1.563292724609375,1.0882718563079834,-0.636888325214386,-1.1146570444107056
1772562267531276000,1.573276123046875,1.1219594478607178,-0.7706937193870544,-0.9721518754959106
1772562267541259000,1.583259033203125,1.2841670513153076,-1.1323717832565308,-1.1274884939193726
1772562267551241200,1.5932412109375,1.5030995607376099,-1.5519100427627563,-1.5850176811218262
1772562267561224000,1.603223876953125,1.6561598777770996,-1.7956187725067139,-2.0954275131225586
1772562267571207200,1.613207275390625,1.6212937831878662,-1.625219702720642,-2.3978726863861084
1772562267581189000,1.623189208984375,1.2718716859817505,-1.065159797668457,-2.3690099716186523
1772562267591172000,1.633172119140625,0.8176564574241638,-0.4485052227973938,-2.1500306129455566
1772562267601155000,1.643155029296875,0.519071638584137,-0.0716056153178215,-1.9681198596954346
1772562267611137000,1.653136962890625,0.3998808264732361,-0.08191702514886856,-2.0082874298095703
1772562267621120000,1.6631201171875,0.20731087028980255,-0.3696928918361664,-2.225114345550537
1772562267631103000,1.67310302734375,-0.13841110467910767,-0.5114713311195374,-2.366384983062744
1772562267641085200,1.683085205078125,-0.5296603441238403,-0.3180730938911438,-2.3671820163726807
1772562267651068000,1.69306787109375,-0.834560751914978,0.2674511969089508,-2.06722092628479
1772562267661051100,1.703051025390625,-0.9663038849830627,0.8678528666496277,-1.3817166090011597
1772562267671033000,1.713033203125,-0.9000747203826904,1.2349438667297363,-0.4062865078449249
1772562267681016000,1.72301611328125,-0.6898221373558044,1.140072226524353,0.6389477849006653
1772562267690999000,1.7329990234375,-0.4966437518596649,0.6164004802703857,1.5803890228271484
1772562267700981200,1.742981201171875,-0.42407339811325073,0.03218710049986839,2.535515069961548
1772562267710964000,1.7529638671875,-0.45733433961868286,-0.43749815225601196,3.5306396484375
1772562267720947000,1.762947021484375,-0.524185299873352,-0.7031285166740417,4.405773162841797
1772562267730929200,1.77292919921875,-0.5593457818031311,-0.7910444736480713,5.0220184326171875
1772562267740911900,1.782911865234375,-0.5588166117668152,-0.7512616515159607,5.319540023803711
1772562267750895000,1.79289501953125,-0.5537336468696594,-0.6025569438934326,5.347123622894287
1772562267760877000,1.802876953125,-0.5968846082687378,-0.3765174448490143,5.143143653869629
1772562267770860000,1.812860107421875,-0.7161234021186829,-0.10421275347471237,4.766204357147217
1772562267780843000,1.822843017578125,-0.9049204587936401,0.2533973157405853,4.284399032592773
1772562267790825200,1.8328251953125,-1.1226801872253418,0.6796752214431763,3.7677814960479736
1772562267800808000,1.842807861328125,-1.3588149547576904,1.09871244430542,3.2946672439575195
1772562267810791000,1.852791015625,-1.5852752923965454,1.5228252410888672,2.877195119857788
1772562267820773000,1.862773193359375,-1.746477484703064,1.9672205448150635,2.47121524810791
1772562267830755800,1.872755859375,-1.8534247875213623,2.4057652950286865,2.0272669792175293
1772562267840739000,1.882739013671875,-1.897456169128418,2.8648784160614014,1.6394857168197632
1772562267850721000,1.892720947265625,-1.8528132438659668,3.3026905059814453,1.3466919660568237
1772562267860704000,1.9027041015625,-1.7011067867279053,3.672739028930664,1.1888659000396729
1772562267870687000,1.91268701171875,-1.476442813873291,3.910148859024048,1.278036117553711
1772562267880669200,1.922669189453125,-1.2566920518875122,3.8619556427001953,1.5956166982650757
1772562267890652000,1.93265185546875,-1.0303312540054321,3.511794090270996,2.0097744464874268
1772562267900638500,1.942638427734375,-0.7797911763191223,2.987224817276001,2.5040764808654785
1772562267910620400,1.952620361328125,-0.5597921013832092,2.2624409198760986,2.8633806705474854
1772562267920603400,1.962603271484375,-0.35663896799087524,1.4502466917037964,2.9821078777313232
1772562267930586600,1.972586669921875,-0.15569792687892914,0.7262366414070129,2.7840235233306885
1772562267940568300,1.982568359375,0.0897190272808075,0.1558951437473297,2.2768776416778564
1772562267950551600,1.992551513671875,0.37643247842788696,-0.21566109359264374,1.5166823863983154
1772562267960534500,2.002534423828125,0.6491721272468567,-0.4174426794052124,0.5786369442939758
1772562267970516500,2.0125166015625,0.8684378266334534,-0.5051921010017395,-0.4445422887802124
1772562267980499500,2.02249951171875,1.0240271091461182,-0.4935420751571655,-1.4725067615509033
1772562267990481700,2.032481689453125,1.1087820529937744,-0.31225863099098206,-2.330150842666626
1772562268000464400,2.04246435546875,1.1340937614440918,-0.06362483650445938,-3.038541078567505
1772562268010447600,2.052447509765625,1.0775660276412964,0.22841022908687592,-3.6107380390167236
1772562268020429600,2.0624296875,0.943947970867157,0.5181499123573303,-4.0454792976379395
1772562268030412500,2.07241259765625,0.7765215039253235,0.7998998165130615,-4.294892311096191
1772562268040395500,2.0823955078125,0.5873079299926758,1.0259006023406982,-4.410694599151611
1772562268050377700,2.092377685546875,0.3827959895133972,1.179198145866394,-4.404751777648926
1772562268060360400,2.1023603515625,0.18684165179729462,1.2377331256866455,-4.302851676940918
1772562268070343400,2.112343505859375,0.03093024343252182,1.182031512260437,-4.154985427856445
1772562268080325600,2.12232568359375,-0.06477231532335281,0.9858747720718384,-4.011624813079834
1772562268090308400,2.132308349609375,-0.08606778830289841,0.6752219200134277,-3.8872244358062744
1772562268100291600,2.14229150390625,-0.038383886218070984,0.26954421401023865,-3.794957399368286
1772562268110273500,2.1522734375,0.040305569767951965,-0.14909867942333221,-3.698291540145874
1772562268120256800,2.1622568359375,0.15030930936336517,-0.5691260695457458,-3.5785884857177734
1772562268130239500,2.172239501953125,0.2456403225660324,-0.9863660335540771,-3.4073667526245117
1772562268140221700,2.1822216796875,0.27966779470443726,-1.3620296716690063,-3.16274356842041
1772562268150204700,2.19220458984375,0.2352863997220993,-1.5499380826950073,-2.7811684608459473
1772562268160187400,2.2021875,0.20054812729358673,-1.6328116655349731,-2.286879062652588
1772562268170169600,2.212169677734375,0.19544333219528198,-1.8327980041503906,-1.8611525297164917
1772562268180152600,2.222152587890625,0.12880145013332367,-2.3617770671844482,-1.6884335279464722
1772562268190135600,2.232135498046875,0.011168944649398327,-3.3097140789031982,-1.9370557069778442
1772562268200117500,2.242117431640625,-0.11717864125967026,-4.301526069641113,-2.4664559364318848
1772562268210100700,2.252100830078125,-0.21263539791107178,-4.4091901779174805,-2.833411931991577
1772562268220083500,2.26208349609375,-0.23645365238189697,-3.3007476329803467,-2.843036651611328
1772562268230065700,2.272065673828125,-0.303262323141098,-1.341694712638855,-2.7091763019561768
1772562268240048600,2.282048583984375,-0.4278487265110016,0.5925183892250061,-2.80893611907959
1772562268250031400,2.29203125,-0.46454674005508423,1.679429292678833,-3.2392196655273438
1772562268260013600,2.302013671875,-0.6124240756034851,1.6870856285095215,-3.6783251762390137
1772562268269996500,2.31199658203125,-0.8725073337554932,1.0534249544143677,-3.5233495235443115
1772562268279979500,2.3219794921875,-1.0057791471481323,0.23350633680820465,-2.6630990505218506
1772562268289961500,2.33196142578125,-0.9456301927566528,-0.4588932693004608,-1.2712066173553467
1772562268299944700,2.34194482421875,-0.6562175750732422,-0.8667177557945251,0.3999781310558319
1772562268309927400,2.351927490234375,-0.32569658756256104,-1.1040624380111694,1.9663925170898438
1772562268319909600,2.36190966796875,-0.04885568469762802,-1.3219842910766602,3.135279655456543
1772562268329892600,2.371892578125,0.16329437494277954,-1.3732279539108276,3.796110153198242
1772562268339875600,2.38187548828125,0.29832887649536133,-1.1222304105758667,4.007311820983887
1772562268349857500,2.391857421875,0.34207457304000854,-0.5636499524116516,4.023065090179443
1772562268359840500,2.401840576171875,0.2887492775917053,0.04238961264491081,3.966549873352051
1772562268369823500,2.411823486328125,0.1195438876748085,0.5323089957237244,3.938936948776245
1772562268379805400,2.421805419921875,-0.10025079548358917,0.8448557257652283,4.017796516418457
1772562268389788700,2.43178857421875,-0.3371717929840088,0.944468080997467,4.146247386932373
1772562268399771400,2.441771484375,-0.5559488534927368,0.8507104516029358,4.273409366607666
1772562268409753600,2.451753662109375,-0.7371879816055298,0.6074037551879883,4.3694233894348145
1772562268419736600,2.461736572265625,-0.9117565751075745,0.34403368830680847,4.399871826171875
1772562268429719600,2.471719482421875,-1.0810108184814453,0.15090012550354004,4.307814598083496
1772562268439701500,2.481701416015625,-1.2394782304763794,0.11947882920503616,4.067097187042236
1772562268449684700,2.491684814453125,-1.3556691408157349,0.28503507375717163,3.681988000869751
1772562268459667500,2.50166748046875,-1.4443784952163696,0.6304451823234558,3.2356812953948975
1772562268469649700,2.511649658203125,-1.5210691690444946,1.053682804107666,2.7949891090393066
1772562268479632600,2.521632568359375,-1.5951272249221802,1.5044952630996704,2.380460500717163
1772562268489615400,2.531615478515625,-1.6618664264678955,1.9734070301055908,1.9959664344787598
1772562268499597600,2.54159765625,-1.706558346748352,2.436609983444214,1.6904845237731934
1772562268509580500,2.55158056640625,-1.6841808557510376,2.8286960124969482,1.4743984937667847
1772562268519563500,2.5615634765625,-1.557737112045288,3.096280336380005,1.3320064544677734
1772562268529545500,2.57154541015625,-1.3406524658203125,3.221338987350464,1.2722200155258179
1772562268539528700,2.58152880859375,-1.0819511413574219,3.1644885540008545,1.3007911443710327
1772562268549511400,2.591511474609375,-0.8174324035644531,2.929741382598877,1.394037127494812
1772562268559493600,2.60149365234375,-0.5960238575935364,2.5398190021514893,1.5303078889846802
1772562268569476600,2.6114765625,-0.42728662490844727,1.9961482286453247,1.6757264137268066
1772562268579459300,2.621459228515625,-0.29434749484062195,1.340209722518921,1.751927137374878
1772562268589441500,2.631441650390625,-0.12324372678995132,0.6555929780006409,1.622878074645996
1772562268599424500,2.641424560546875,0.09870091825723648,0.0484183244407177,1.2213711738586426
1772562268609407500,2.651407470703125,0.3428759276866913,-0.4681472182273865,0.5545529127120972
1772562268619389400,2.661389404296875,0.5937066078186035,-0.908348023891449,-0.28585925698280334
1772562268629372700,2.67137255859375,0.8094825148582458,-1.241395354270935,-1.2099157571792603
1772562268639355600,2.681355712890625,0.9624331593513489,-1.4345459938049316,-2.114204168319702
1772562268649337600,2.691337646484375,1.0665479898452759,-1.4822087287902832,-2.9379212856292725
1772562268659320600,2.701320556640625,1.1194385290145874,-1.400253176689148,-3.6407926082611084
1772562268669303600,2.711303466796875,1.1361539363861084,-1.1907309293746948,-4.200865745544434
1772562268679285500,2.721285400390625,1.0912013053894043,-0.8685241341590881,-4.572406768798828
1772562268689268500,2.7312685546875,1.025460958480835,-0.5209014415740967,-4.781539440155029
1772562268699251700,2.741251708984375,0.9348855018615723,-0.24704936146736145,-4.850193500518799
1772562268709233400,2.7512333984375,0.8248563408851624,-0.09770124405622482,-4.799678802490234
1772562268719216600,2.761216552734375,0.7134667038917542,-0.08410553634166718,-4.687314510345459
1772562268729198300,2.7711982421875,0.6063347458839417,-0.27247077226638794,-4.553246974945068
1772562268739181600,2.781181640625,0.5287744402885437,-0.5969945192337036,-4.445816516876221
1772562268749164500,2.79116455078125,0.4915466606616974,-0.9935613870620728,-4.3828630447387695
1772562268759147500,2.8011474609375,0.47293543815612793,-1.3971346616744995,-4.331470012664795
1772562268769129500,2.81112939453125,0.44929376244544983,-1.7629599571228027,-4.233391761779785
1772562268779112700,2.82111279296875,0.4109967052936554,-2.0939767360687256,-4.069925785064697
1772562268789094400,2.831094482421875,0.358305424451828,-2.424773931503296,-3.822983741760254
1772562268799077600,2.84107763671875,0.3412494957447052,-2.919459342956543,-3.603532075881958
1772562268809060600,2.851060546875,0.32354316115379333,-3.7032058238983154,-3.586576223373413
1772562268819042600,2.86104248046875,0.27107036113739014,-4.541041851043701,-3.8474652767181396
1772562268829025500,2.871025634765625,0.17738431692123413,-4.983565807342529,-4.348382472991943
1772562268839008500,2.881008544921875,0.09593126177787781,-4.614014148712158,-4.919674873352051
1772562268848990500,2.890990478515625,0.08689815551042557,-3.2975287437438965,-5.3871917724609375
1772562268858973400,2.900973388671875,0.14286741614341736,-1.1729217767715454,-5.7347331047058105
1772562268868956700,2.910956787109375,0.26828479766845703,0.9056811928749084,-6.089123249053955
1772562268878938400,2.9209384765625,0.3474975824356079,2.1004714965820312,-6.40964412689209
1772562268888921600,2.930921630859375,0.20161625742912292,2.3918516635894775,-6.319605827331543
1772562268898900500,2.940900390625,-0.15270188450813293,2.071246385574341,-5.617281913757324
1772562268908882400,2.95088232421875,-0.521653950214386,1.4966011047363281,-4.406895160675049
1772562268918865400,2.960865478515625,-0.642323911190033,0.9911118745803833,-2.7057037353515625
1772562268928848400,2.970848388671875,-0.4457366466522217,0.7178241610527039,-0.7109135985374451
1772562268938830300,2.980830322265625,-0.07419106364250183,0.5491304993629456,1.2022459506988525
1772562268948813300,2.990813232421875,0.21997250616550446,0.22359131276607513,2.6709389686584473
1772562268958796500,3.000796630859375,0.37041500210762024,-0.1679658144712448,3.563365936279297
1772562268968778500,3.010778564453125,0.40419167280197144,-0.4305904507637024,3.9791176319122314
1772562268978761500,3.020761474609375,0.3480604887008667,-0.4156796634197235,4.124831199645996
1772562268988744400,3.030744384765625,0.2436620593070984,-0.10099232941865921,4.115755081176758
1772562268998726400,3.040726318359375,0.04209805279970169,0.40625518560409546,4.008185863494873
1772562269008709400,3.05070947265625,-0.2024509757757187,0.8732146620750427,3.8757176399230957
1772562269018692600,3.060692626953125,-0.4024477005004883,1.1382076740264893,3.7547683715820312
1772562269028674300,3.07067431640625,-0.564518928527832,1.1429178714752197,3.6684625148773193
1772562269038657500,3.080657470703125,-0.75504070520401,0.8203827738761902,3.6565802097320557
1772562269048640500,3.090640625,-0.9540721774101257,0.2312968224287033,3.685023784637451
1772562269058622500,3.10062255859375,-1.1218270063400269,-0.4217371642589569,3.6747753620147705
1772562269068605400,3.11060546875,-1.1939945220947266,-1.0435900688171387,3.514383316040039
1772562269078588400,3.12058837890625,-1.1345105171203613,-1.3880058526992798,3.118583917617798
1772562269088570400,3.1305703125,-0.9740831851959229,-1.3364025354385376,2.4627177715301514
1772562269098553300,3.14055322265625,-0.7541286945343018,-0.8634403347969055,1.6070828437805176
1772562269108536600,3.15053662109375,-0.48985233902931213,-0.004184794146567583,0.5965737104415894
1772562269118518300,3.160518310546875,-0.2221231609582901,0.9695691466331482,-0.4106859564781189
1772562269128501500,3.17050146484375,0.014607535675168037,1.838087558746338,-1.1459524631500244
1772562269138484500,3.180484375,0.18232569098472595,2.3360650539398193,-1.4278126955032349
1772562269148466400,3.190466552734375,0.17757244408130646,2.4038517475128174,-1.134146809577942
1772562269158449400,3.200449462890625,0.01236378587782383,2.0182323455810547,-0.39882296323776245
1772562269168432400,3.210432373046875,-0.13807429373264313,1.1578532457351685,0.5574572682380676
1772562269178414300,3.220414306640625,-0.3284205198287964,0.07978616654872894,1.4976763725280762
1772562269188397300,3.230397216796875,-0.564793050289154,-0.9829840660095215,2.1383931636810303
1772562269198380500,3.240380615234375,-0.726852536201477,-1.6873992681503296,2.4409968852996826
1772562269208362500,3.250362548828125,-0.7000914812088013,-1.9354405403137207,2.3544788360595703
1772562269218345500,3.260345458984375,-0.5338923931121826,-1.9222283363342285,1.8365027904510498
1772562269228328400,3.270328369140625,-0.31047412753105164,-1.6584091186523438,0.9166590571403503
1772562269238310700,3.280310546875,-0.04829392954707146,-1.143067717552185,-0.07339262962341309
1772562269248293400,3.29029345703125,0.2407214492559433,-0.6507971286773682,-0.7873914241790771
1772562269258276400,3.3002763671875,0.5005072355270386,-0.33248358964920044,-1.269173502922058
1772562269268258600,3.310258544921875,0.6739040017127991,-0.21904303133487701,-1.5335536003112793
1772562269278241300,3.3202412109375,0.7689218521118164,-0.1391972005367279,-1.5986785888671875
1772562269288224500,3.330224609375,0.7752519845962524,0.07115676254034042,-1.500947117805481
1772562269298206500,3.34020654296875,0.7534457445144653,0.2568400800228119,-1.306147813796997
1772562269308189400,3.350189453125,0.7418444156646729,0.3155866265296936,-1.079126238822937
1772562269318172400,3.36017236328125,0.7140665650367737,0.24409113824367523,-0.8734191656112671
1772562269328154600,3.370154541015625,0.6505153775215149,0.1272057443857193,-0.7424674034118652
1772562269338137300,3.380137451171875,0.5761730074882507,0.06577834486961365,-0.7326675057411194
1772562269348120600,3.39012060546875,0.5261384844779968,0.027792952954769135,-0.860317587852478
1772562269358102500,3.4001025390625,0.5142900347709656,-0.025697968900203705,-1.0895445346832275
1772562269368085500,3.41008544921875,0.5499902963638306,-0.05356927961111069,-1.3560128211975098
1772562269378068500,3.420068359375,0.6079885959625244,-0.05524760112166405,-1.6226301193237305
1772562269388050400,3.430050537109375,0.6671560406684875,-0.054084740579128265,-1.8645457029342651
1772562269398033400,3.440033447265625,0.7224478125572205,-0.08254674077033997,-2.079935073852539
1772562269408016400,3.450016357421875,0.7655661702156067,-0.19289416074752808,-2.2853124141693115
1772562269417998600,3.45999853515625,0.7896727919578552,-0.43421515822410583,-2.405937671661377
1772562269427981300,3.469981201171875,0.8585233688354492,-0.7087616920471191,-2.399582862854004
1772562269437964500,3.479964599609375,0.9363092184066772,-0.9548013210296631,-2.3250367641448975
1772562269447946500,3.489946533203125,1.0031139850616455,-1.2088872194290161,-2.2857468128204346
1772562269457929500,3.499929443359375,1.0312588214874268,-1.514889121055603,-2.3923609256744385
1772562269467912400,3.509912353515625,1.0542985200881958,-1.82980215549469,-2.696180582046509
1772562269477894700,3.519894775390625,1.059346318244934,-2.050621747970581,-3.173771858215332
1772562269487877400,3.52987744140625,1.010067105293274,-1.943014144897461,-3.6917810440063477
1772562269497860400,3.5398603515625,0.9001675844192505,-1.4855320453643799,-4.1757917404174805
1772562269507842600,3.549842529296875,0.6636561155319214,-1.0080406665802002,-4.6864495277404785
1772562269517825300,3.5598251953125,0.34948545694351196,-0.3716455399990082,-4.905682563781738
1772562269527808500,3.56980859375,0.09098611027002335,0.30482354760169983,-4.598107814788818
1772562269537790500,3.57979052734375,-0.11844727396965027,0.5460140705108643,-3.744380474090576
1772562269547773400,3.5897734375,-0.3031708002090454,0.33366858959198,-2.4767701625823975
1772562269557756400,3.59975634765625,-0.48493048548698425,-0.07102084904909134,-1.210944652557373
1772562269567738600,3.609738525390625,-0.6356205344200134,-0.3778879940509796,-0.21415893733501434
1772562269577721300,3.619721435546875,-0.6590773463249207,-0.27384230494499207,0.3910561203956604
1772562269587704300,3.629704345703125,-0.571020781993866,0.15745438635349274,0.6384609937667847
1772562269597686500,3.6396865234375,-0.39916571974754333,0.7642529606819153,0.9606999754905701
1772562269607669200,3.649669189453125,-0.24462619423866272,1.1810390949249268,1.45481276512146
1772562269617652500,3.659652587890625,-0.23047256469726562,1.2688021659851074,2.008741855621338
1772562269627634400,3.669634521484375,-0.3369445502758026,1.1569854021072388,2.6223254203796387
1772562269637617400,3.679617431640625,-0.4718472361564636,0.8965879082679749,3.3520853519439697
1772562269647600400,3.689600341796875,-0.621139645576477,0.5751331448554993,4.088530540466309
1772562269657582600,3.69958251953125,-0.7612616419792175,0.3570388853549957,4.781322956085205
1772562269667565300,3.7095654296875,-0.8643801808357239,0.2574792504310608,5.349575996398926
1772562269677548300,3.71954833984375,-0.9349265098571777,0.2881207764148712,5.6454901695251465
1772562269687530500,3.729530517578125,-0.9835494160652161,0.3975161910057068,5.680689811706543
1772562269697513200,3.73951318359375,-0.9943019151687622,0.5967877507209778,5.533174514770508
1772562269707496400,3.749496337890625,-1.0116212368011475,0.7788918614387512,5.298104286193848
1772562269717478400,3.759478515625,-1.105007290840149,0.8459140062332153,5.0563740730285645
1772562269727461600,3.769461669921875,-1.2837861776351929,0.7989107370376587,4.902285575866699
1772562269737444400,3.7794443359375,-1.4832110404968262,0.7688881158828735,4.862699031829834
1772562269747426600,3.789426513671875,-1.6451773643493652,0.851462185382843,4.843883991241455
1772562269757409500,3.799409423828125,-1.7536969184875488,1.0276645421981812,4.740682601928711
1772562269767392500,3.809392578125,-1.791451096534729,1.208606243133545,4.580691814422607
1772562269777374500,3.81937451171875,-1.7908707857131958,1.4468477964401245,4.328632831573486
1772562269787357700,3.829357666015625,-1.7513477802276611,1.7232377529144287,4.0003743171691895
1772562269797339400,3.83933935546875,-1.6550837755203247,2.100726366043091,3.575338840484619
1772562269807322600,3.849322509765625,-1.51962149143219,2.5235562324523926,3.0795629024505615
1772562269817305600,3.8593056640625,-1.3774808645248413,2.8721041679382324,2.6155524253845215
1772562269827287600,3.86928759765625,-1.235233187675476,3.1092100143432617,2.255894899368286
1772562269837270500,3.8792705078125,-1.1048424243927002,3.204505681991577,2.029710531234741
1772562269847253500,3.88925341796875,-1.0037903785705566,3.1301724910736084,1.963424801826477
1772562269857235500,3.8992353515625,-0.9652819633483887,2.84397029876709,2.029496908187866
1772562269867218400,3.909218505859375,-1.0025784969329834,2.3297812938690186,2.2141098976135254
1772562269877201700,3.91920166015625,-1.0974220037460327,1.7018513679504395,2.4626247882843018
1772562269887183400,3.929183349609375,-1.177634835243225,1.0067387819290161,2.7094831466674805
1772562269897170700,3.939170654296875,-1.1709798574447632,0.27970436215400696,2.8415729999542236
1772562269907153700,3.949153564453125,-1.078063726425171,-0.3727688491344452,2.7204067707061768
1772562269917135600,3.959135498046875,-0.8484364151954651,-0.913027822971344,2.247770071029663
1772562269927118800,3.969118896484375,-0.4576317071914673,-1.3327367305755615,1.3943562507629395
1772562269937101600,3.9791015625,0.018232859671115875,-1.5988068580627441,0.3106050491333008
1772562269947083800,3.989083740234375,0.4770495891571045,-1.6101226806640625,-0.8377482891082764
1772562269957065500,3.9990654296875,0.8546461462974548,-1.377932071685791,-1.9203855991363525
1772562269967048700,4.009048583984375,1.1499935388565063,-1.03926420211792,-2.8524980545043945
1772562269977031700,4.01903173828125,1.3576138019561768,-0.6592617034912109,-3.594529390335083
1772562269987013600,4.029013671875,1.455832600593567,-0.3479239344596863,-4.154352188110352
1772562269996996600,4.03899658203125,1.4656215906143188,-0.19742392003536224,-4.491310119628906
1772562270006979600,4.0489794921875,1.4204835891723633,-0.2130519598722458,-4.612060546875
1772562270016961500,4.05896142578125,1.3516530990600586,-0.4112803637981415,-4.5611958503723145
1772562270026944500,4.068944580078125,1.2464042901992798,-0.7771587371826172,-4.419227123260498
1772562270036927700,4.078927734375,1.1109510660171509,-1.2172600030899048,-4.2318925857543945
1772562270046909700,4.08890966796875,0.9787830710411072,-1.7193934917449951,-3.9808599948883057
1772562270056892700,4.098892578125,0.864340603351593,-2.2731661796569824,-3.6475536823272705
1772562270066875600,4.108875732421875,0.7386906743049622,-2.8541319370269775,-3.204284429550171
1772562270076857600,4.118857666015625,0.6284816265106201,-3.4223532676696777,-2.682849407196045
1772562270086840600,4.128840576171875,0.5711699724197388,-4.130173206329346,-2.2907774448394775
1772562270096823800,4.13882373046875,0.6081868410110474,-5.05153226852417,-2.27484393119812
1772562270106805500,4.148805419921875,0.7981565594673157,-5.854196071624756,-2.779862642288208
1772562270116788700,4.158788818359375,1.134229063987732,-6.055171489715576,-3.7255165576934814
1772562270126771700,4.168771728515625,1.5432689189910889,-5.347908020019531,-4.721089839935303
1772562270136753700,4.178753662109375,1.846767783164978,-3.499218225479126,-5.452938079833984
1772562270146736600,4.188736572265625,1.838488221168518,-1.01065194606781,-5.845909595489502
1772562270156719600,4.1987197265625,1.541129469871521,1.0661356449127197,-6.106067180633545
1772562270166701600,4.20870166015625,1.2099759578704834,1.9776203632354736,-6.287449359893799
1772562270176684500,4.2186845703125,0.8933023810386658,1.8516696691513062,-6.109004497528076
1772562270186667800,4.228667724609375,0.6711291670799255,1.2628519535064697,-5.380756855010986
1772562270196649500,4.2386494140625,0.4818367660045624,0.8877315521240234,-4.003199100494385
1772562270206632700,4.2486328125,0.29467037320137024,0.9793298244476318,-1.9439067840576172
1772562270216615700,4.25861572265625,0.12579216063022614,1.2244902849197388,0.41029465198516846
1772562270226598000,4.268597900390625,-0.06992354243993759,1.2873672246932983,2.5202274322509766
1772562270236580600,4.27858056640625,-0.34307968616485596,1.1397109031677246,4.075051307678223
1772562270246563600,4.2885634765625,-0.6341274380683899,0.9036552309989929,5.03938102722168
1772562270256545800,4.2985458984375,-0.8357598781585693,0.7521754503250122,5.46116304397583
1772562270266528500,4.308528564453125,-0.9714733362197876,0.9022829532623291,5.598923683166504
1772562270276511700,4.31851171875,-1.0527395009994507,1.2955814599990845,5.69919490814209
1772562270286493700,4.32849365234375,-1.1178820133209229,1.7255277633666992,5.80078125
1772562270296476700,4.3384765625,-1.1896432638168335,2.078942060470581,5.899562835693359
1772562270306459600,4.348459716796875,-1.2884445190429688,2.258831262588501,5.8888092041015625
1772562270316441900,4.35844189453125,-1.4101089239120483,2.2093639373779297,5.740110874176025
1772562270326424600,4.368424560546875,-1.524789810180664,1.9772335290908813,5.476165771484375
1772562270336407600,4.378407470703125,-1.6158206462860107,1.648195505142212,5.1653876304626465
1772562270346389800,4.3883896484375,-1.655640959739685,1.2655580043792725,4.817526340484619
1772562270356372500,4.39837255859375,-1.648777961730957,0.9079053401947021,4.381412506103516
1772562270366354700,4.408354736328125,-1.6051210165023804,0.6890596747398376,3.814762830734253
1772562270376338700,4.418338623046875,-1.5078495740890503,0.5450756549835205,3.1302695274353027
1772562270386321700,4.42832177734375,-1.362801194190979,0.47793036699295044,2.374570608139038
1772562270396303600,4.4383037109375,-1.178178071975708,0.5261439681053162,1.6358062028884888
1772562270406286600,4.44828662109375,-0.946634829044342,0.6634047031402588,0.9703033566474915
1772562270416269800,4.458269775390625,-0.6839686036109924,0.8821437358856201,0.4034489393234253
1772562270426251800,4.468251708984375,-0.4103337228298187,1.1596421003341675,-0.006739294156432152
1772562270436234800,4.47823486328125,-0.162583589553833,1.429330825805664,-0.25413283705711365
1772562270446217700,4.4882177734375,0.03664560616016388,1.6318438053131104,-0.331895112991333
1772562270456199700,4.49819970703125,0.16534791886806488,1.739772915840149,-0.2465176284313202
1772562270466182700,4.5081826171875,0.21080680191516876,1.7005668878555298,-0.03902304172515869
1772562270476166000,4.518165771484375,0.2011009156703949,1.5415353775024414,0.2520205080509186
1772562270486147600,4.528147705078125,0.15851792693138123,1.2884266376495361,0.5361500382423401
1772562270496130800,4.538130859375,0.11571000516414642,0.9598826169967651,0.7695127129554749
1772562270506113800,4.54811376953125,0.0782877579331398,0.6026565432548523,0.917732834815979
1772562270516095700,4.558095703125,0.062295738607645035,0.2834276854991913,0.9509704113006592
1772562270526078700,4.56807861328125,0.06556180119514465,0.035436663776636124,0.8907049298286438
1772562270536061700,4.578061767578125,0.07283010333776474,-0.12987026572227478,0.7269514203071594
1772562270546043600,4.588043701171875,0.07560022920370102,-0.21971583366394043,0.44158658385276794
1772562270556026600,4.598026611328125,0.07535281777381897,-0.28394171595573425,0.031628869473934174
1772562270566009900,4.608009765625,0.0731951966881752,-0.36621472239494324,-0.470697820186615
1772562270575991600,4.617991455078125,0.09396305680274963,-0.4552159905433655,-1.003243088722229
1772562270585974800,4.627974853515625,0.14382454752922058,-0.5163088440895081,-1.5272732973098755
1772562270595957800,4.637957763671875,0.21384784579277039,-0.5160388350486755,-1.9998328685760498
1772562270605939700,4.647939697265625,0.30872535705566406,-0.46265238523483276,-2.4043896198272705
1772562270615922700,4.657922607421875,0.37555474042892456,-0.35863596200942993,-2.733052968978882
1772562270625905700,4.66790576171875,0.42451542615890503,-0.2636817693710327,-2.955902099609375
1772562270635887600,4.6778876953125,0.4461331069469452,-0.19466914236545563,-3.0421063899993896
1772562270645870600,4.68787060546875,0.4416530132293701,-0.18239377439022064,-2.988013505935669
1772562270655853800,4.697853759765625,0.427497535943985,-0.30041682720184326,-2.853066921234131
1772562270665835500,4.70783544921875,0.39217954874038696,-0.5280946493148804,-2.6747188568115234
1772562270675818800,4.71781884765625,0.355790376663208,-0.8161160349845886,-2.4927804470062256
1772562270685801700,4.7278017578125,0.3364490568637848,-1.122841477394104,-2.3247427940368652
1772562270695783700,4.73778369140625,0.34315115213394165,-1.4042282104492188,-2.1842598915100098
1772562270705766700,4.7477666015625,0.3622047007083893,-1.6164098978042603,-2.0966386795043945
1772562270715749600,4.75774951171875,0.3810047507286072,-1.745684027671814,-2.0435776710510254
1772562270725731600,4.767731689453125,0.4110429883003235,-1.7731837034225464,-2.0115933418273926
1772562270735714600,4.777714599609375,0.45679718255996704,-1.7393109798431396,-2.0024423599243164
1772562270745697800,4.78769775390625,0.46875593066215515,-1.7098493576049805,-2.016977548599243
1772562270755679500,4.797679443359375,0.45526009798049927,-1.6578130722045898,-2.0391244888305664
1772562270765662700,4.807662841796875,0.4606947600841522,-1.65465247631073,-2.0657567977905273
1772562270775645700,4.817645751953125,0.44973745942115784,-1.8027796745300293,-2.1982462406158447
1772562270785627600,4.827627685546875,0.4162975549697876,-2.1671860218048096,-2.460200548171997
1772562270795610600,4.837610595703125,0.3482242226600647,-2.694446325302124,-2.8537485599517822
1772562270805593900,4.84759375,0.279646098613739,-3.118908643722534,-3.39888334274292
1772562270815575600,4.857575439453125,0.28883135318756104,-3.0401251316070557,-3.976808547973633
1772562270825558800,4.867558837890625,0.38699039816856384,-2.381791353225708,-4.310240268707275
1772562270835541800,4.877541748046875,0.578292191028595,-1.5385000705718994,-4.33585262298584
1772562270845523700,4.887523681640625,0.8364730477333069,-0.7560190558433533,-4.156826496124268
1772562270855506700,4.897506591796875,1.0516482591629028,-0.19645161926746368,-3.9507455825805664
1772562270865489700,4.90748974609375,1.1022396087646484,0.17941798269748688,-3.744474411010742
1772562270875471600,4.9174716796875,0.9321312308311462,0.45679789781570435,-3.4419071674346924
1772562270885454600,4.92745458984375,0.6354681849479675,0.6823002099990845,-2.9006600379943848
1772562270895434000,4.93743408203125,0.33153069019317627,0.9549509286880493,-1.9778234958648682
1772562270905415700,4.947415771484375,0.09150522202253342,1.2161380052566528,-0.6392124891281128
1772562270915399000,4.95739892578125,-0.06776858866214752,1.3003323078155518,0.8464928865432739
1772562270925382000,4.9673818359375,-0.15525491535663605,1.2194541692733765,2.1174840927124023
1772562270935363800,4.97736376953125,-0.18960091471672058,1.0207661390304565,2.9598817825317383
1772562270945346800,4.987346923828125,-0.17564162611961365,0.8427063822746277,3.4142661094665527
1772562270955329800,4.997329833984375,-0.16128478944301605,0.7044441103935242,3.631152629852295
1772562270965311700,5.007311767578125,-0.16421405971050262,0.6741625070571899,3.815112590789795
1772562270975294700,5.017294677734375,-0.1943296194076538,0.7080339193344116,4.105044364929199
1772562270985278000,5.02727783203125,-0.27499139308929443,0.747563898563385,4.485725402832031
1772562270995259600,5.037259765625,-0.4077744781970978,0.7685227394104004,4.790848731994629
1772562271005243000,5.047242919921875,-0.6063686609268188,0.7420144081115723,4.91187047958374
1772562271015225900,5.057225830078125,-0.8187991380691528,0.7600077390670776,4.866157531738281
1772562271025207800,5.067207763671875,-1.0038139820098877,0.7932461500167847,4.649911403656006
1772562271035190800,5.077190673828125,-1.1472136974334717,0.8267239332199097,4.3127522468566895
1772562271045173800,5.087173828125,-1.2523891925811768,0.8859180808067322,3.956655502319336
1772562271055155700,5.09715576171875,-1.3123462200164795,0.9646992087364197,3.6019458770751953
1772562271065139000,5.107138916015625,-1.3589990139007568,1.012818455696106,3.245637893676758
1772562271075122000,5.117121826171875,-1.4196878671646118,1.0271291732788086,2.9011120796203613
1772562271085103900,5.127103759765625,-1.4907045364379883,1.010566234588623,2.6059165000915527
1772562271095086800,5.1370869140625,-1.5583763122558594,0.9815529584884644,2.3746140003204346
1772562271105069800,5.14706982421875,-1.604126214981079,0.9648407101631165,2.2242047786712646
1772562271115051800,5.1570517578125,-1.6153684854507446,0.9716219305992126,2.156400680541992
1772562271125034800,5.16703466796875,-1.5919712781906128,0.9940332174301147,2.149014472961426
1772562271135018000,5.17701806640625,-1.5435991287231445,0.9997358322143555,2.1785409450531006
1772562271144999700,5.186999755859375,-1.4851222038269043,0.9780582189559937,2.252235174179077
1772562271154983000,5.19698291015625,-1.4271923303604126,0.9511603116989136,2.3709051609039307
1772562271164966000,5.2069658203125,-1.354358434677124,0.9782949090003967,2.5183913707733154
1772562271174947800,5.21694775390625,-1.2669357061386108,1.0379084348678589,2.628000497817993
1772562271184930800,5.226930908203125,-1.1496312618255615,1.114791750907898,2.6727547645568848
1772562271194913800,5.236913818359375,-0.9917374849319458,1.2428545951843262,2.63969087600708
1772562271204895700,5.246895751953125,-0.8047251105308533,1.369733452796936,2.514342784881592
1772562271214878700,5.256878662109375,-0.6189970374107361,1.4580761194229126,2.3315834999084473
1772562271224862000,5.266862060546875,-0.45598477125167847,1.4415028095245361,2.126699447631836
1772562271234843600,5.27684375,-0.3438369333744049,1.2968401908874512,1.9264070987701416
1772562271244827000,5.286826904296875,-0.32208824157714844,1.0374953746795654,1.7190090417861938
1772562271254809900,5.296809814453125,-0.378531813621521,0.6986177563667297,1.5125298500061035
1772562271264791800,5.306791748046875,-0.4650053083896637,0.3442729711532593,1.3164883852005005
1772562271274774800,5.31677490234375,-0.5158719420433044,0.07853025197982788,1.1240699291229248
1772562271284757800,5.3267578125,-0.4788609445095062,-0.07418222725391388,0.863715648651123
1772562271294739700,5.33673974609375,-0.39036354422569275,-0.1583956480026245,0.5174338817596436
1772562271304722700,5.34672265625,-0.26329314708709717,-0.20541980862617493,0.06561577320098877
1772562271314706000,5.356705810546875,-0.10049942880868912,-0.23301202058792114,-0.4684939682483673
1772562271324687600,5.3666875,0.07243652641773224,-0.28244271874427795,-1.082496166229248
1772562271334670800,5.3766708984375,0.2411067634820938,-0.3160289227962494,-1.7055100202560425
1772562271344653800,5.38665380859375,0.3838767409324646,-0.31817078590393066,-2.271984100341797
1772562271354635800,5.3966357421875,0.5008763074874878,-0.296368271112442,-2.719132661819458
1772562271364618800,5.40661865234375,0.5832316279411316,-0.29629406332969666,-3.038410186767578
1772562271374601700,5.416601806640625,0.6388693451881409,-0.3330475389957428,-3.2364649772644043
1772562271384583700,5.426583740234375,0.6857395172119141,-0.4311346709728241,-3.3100435733795166
1772562271394566700,5.436566650390625,0.7181533575057983,-0.5869762301445007,-3.2739593982696533
1772562271404550000,5.4465498046875,0.7173133492469788,-0.7634463906288147,-3.1374192237854004
1772562271414531600,5.456531494140625,0.6601853370666504,-0.9357914924621582,-2.9475173950195312
1772562271424514800,5.466514892578125,0.5377659797668457,-1.1740769147872925,-2.7261886596679688
1772562271434497800,5.476497802734375,0.35336098074913025,-1.5677924156188965,-2.4993555545806885
1772562271444479700,5.486479736328125,0.14784693717956543,-2.160248041152954,-2.274916172027588
1772562271454462700,5.496462646484375,0.022343073040246964,-2.903838634490967,-2.1093881130218506
1772562271464446000,5.506446044921875,0.02383929118514061,-3.675097942352295,-2.1832826137542725
1772562271474427600,5.516427734375,0.14828188717365265,-4.3080620765686035,-2.6052796840667725
1772562271484411000,5.526410888671875,0.42314791679382324,-4.665336608886719,-3.345585823059082
1772562271494393900,5.536393798828125,0.7447395324707031,-4.678987979888916,-4.2823100090026855
1772562271504375800,5.546375732421875,1.03165602684021,-4.10259485244751,-5.127551078796387
1772562271514358800,5.55635888671875,1.2001808881759644,-2.9311087131500244,-5.684403896331787
1772562271524341800,5.566341796875,1.2139363288879395,-1.503260850906372,-5.956199645996094
1772562271534323700,5.57632373046875,1.139703631401062,-0.16830316185951233,-6.029630661010742
1772562271544306700,5.586306640625,1.0086206197738647,0.7540109753608704,-6.144010543823242
1772562271554290000,5.5962900390625,0.7830044627189636,1.32759428024292,-6.301419734954834
1772562271564271600,5.606271728515625,0.5486555695533752,1.7800565958023071,-6.249578475952148
1772562271574254800,5.6162548828125,0.32025831937789917,2.2264225482940674,-5.899814128875732
1772562271584237800,5.62623779296875,0.15859365463256836,2.620389699935913,-5.083991527557373
1772562271594219800,5.6362197265625,0.033762767910957336,2.684558629989624,-3.9347188472747803
1772562271604202800,5.64620263671875,-0.1425069123506546,2.4254164695739746,-2.7008142471313477
1772562271614185700,5.656185791015625,-0.3470238447189331,1.9028804302215576,-1.4615542888641357
1772562271624167700,5.666167724609375,-0.43370723724365234,1.2962905168533325,-0.20117391645908356
1772562271634150700,5.676150634765625,-0.3701125681400299,0.7804087996482849,1.0457834005355835
1772562271644134000,5.6861337890625,-0.20487861335277557,0.4303421974182129,2.2453229427337646
1772562271654115600,5.696115478515625,0.023773476481437683,0.21755565702915192,3.3790745735168457
1772562271664098800,5.706098876953125,0.21509498357772827,0.021958382800221443,4.351472854614258
1772562271674081800,5.716081787109375,0.29168376326560974,-0.22262686491012573,5.129451274871826
1772562271684064000,5.72606396484375,0.2147524058818817,-0.4218679666519165,5.666138648986816
1772562271694046700,5.736046630859375,0.009800860658288002,-0.4943011701107025,5.8868327140808105
1772562271704029700,5.74602978515625,-0.24409238994121552,-0.4137304127216339,5.803020000457764
1772562271714012000,5.756011962890625,-0.4696866273880005,-0.08092927932739258,5.538248538970947
1772562271723994600,5.76599462890625,-0.6187660098075867,0.5177344083786011,5.17582893371582
1772562271733977900,5.775977783203125,-0.7238402366638184,1.3043962717056274,4.68528413772583
1772562271743959800,5.785959716796875,-0.7835030555725098,2.085714817047119,4.142974853515625
1772562271753942800,5.79594287109375,-0.7848186492919922,2.704482316970825,3.7120277881622314
1772562271763925800,5.80592578125,-0.7285435199737549,3.0534603595733643,3.4811933040618896
1772562271773908000,5.815907958984375,-0.6705499887466431,3.1521925926208496,3.479459047317505
1772562271783890700,5.825890625,-0.6216543316841125,3.04396653175354,3.685032606124878
1772562271793873700,5.835873779296875,-0.5852621793746948,2.7816944122314453,4.024556636810303
1772562271803856000,5.84585595703125,-0.5596699714660645,2.4187204837799072,4.442798137664795
1772562271813838800,5.8558388671875,-0.5811371803283691,1.9689457416534424,4.919129848480225
1772562271823821800,5.86582177734375,-0.6361051797866821,1.5373120307922363,5.383205413818359
1772562271833803800,5.8758037109375,-0.6673619151115417,1.2535879611968994,5.669065475463867
1772562271843786800,5.885786865234375,-0.6325828433036804,1.1556867361068726,5.722299098968506
1772562271853769700,5.895769775390625,-0.578668475151062,1.190613865852356,5.611574649810791
1772562271863752000,5.905751953125,-0.5604943633079529,1.2604689598083496,5.397722244262695
1772562271873734700,5.915734619140625,-0.47790226340293884,1.383615493774414,5.185641288757324
1772562271883718000,5.9257177734375,-0.3291291892528534,1.5107303857803345,5.0527663230896
1772562271893699800,5.935699951171875,-0.20522935688495636,1.5156148672103882,4.863607406616211
1772562271903683300,5.945683349609375,-0.13628017902374268,1.3549702167510986,4.5019049644470215
1772562271913666300,5.955666259765625,-0.1858738362789154,1.0129828453063965,3.9861068725585938
1772562271923648300,5.965648193359375,-0.3094825744628906,0.650891125202179,3.3705520629882812
1772562271933631500,5.975631591796875,-0.41647452116012573,0.36472249031066895,2.6436047554016113
1772562271943614200,5.9856142578125,-0.4980630576610565,0.039427317678928375,1.8256081342697144
1772562271953596400,5.995596435546875,-0.5066658854484558,-0.3872145712375641,0.939556896686554
1772562271963579400,6.005579345703125,-0.43562427163124084,-0.8400968909263611,-0.014018954709172249
1772562271973562400,6.015562255859375,-0.28777676820755005,-1.23140287399292,-1.0023590326309204
1772562271983544300,6.02554443359375,-0.09400200098752975,-1.4899863004684448,-1.974005937576294
1772562271993527300,6.03552734375,0.09526193141937256,-1.6444318294525146,-2.8627243041992188
1772562272003510300,6.04551025390625,0.2811128497123718,-1.7053134441375732,-3.6162121295928955
1772562272013492200,6.0554921875,0.5238624215126038,-1.5096558332443237,-3.9597394466400146
1772562272023475500,6.065475341796875,0.7913615107536316,-1.215701699256897,-4.085570335388184
1772562272033458200,6.075458251953125,0.9074092507362366,-1.0679569244384766,-4.094693660736084
1772562272043440400,6.0854404296875,0.9289860725402832,-1.03044593334198,-3.997326135635376
1772562272053423400,6.09542333984375,0.8930496573448181,-1.0461857318878174,-3.7631800174713135
1772562272063406300,6.10540625,0.8223463892936707,-1.2158958911895752,-3.4672787189483643
1772562272073388300,6.11538818359375,0.7605599761009216,-1.5108526945114136,-3.1107640266418457
1772562272083371500,6.12537158203125,0.7239742875099182,-1.8934234380722046,-2.7449047565460205
1772562272093354200,6.135354248046875,0.7187396287918091,-2.3290817737579346,-2.480464458465576
1772562272103336400,6.14533642578125,0.7671691179275513,-2.673769950866699,-2.3608407974243164
1772562272113319400,6.1553193359375,0.8836475610733032,-2.8617517948150635,-2.3988406658172607
1772562272123302100,6.16530224609375,1.014828085899353,-2.9071388244628906,-2.6078317165374756
1772562272133284400,6.175284423828125,1.113511085510254,-2.7577595710754395,-2.8881027698516846
1772562272143267300,6.185267333984375,1.1760199069976807,-2.426847219467163,-3.136152982711792
1772562272153250300,6.195250244140625,1.216783046722412,-2.055737257003784,-3.4056904315948486
1772562272163232300,6.205232177734375,1.1763604879379272,-1.8683195114135742,-3.8761796951293945
1772562272173215500,6.215215576171875,1.022315263748169,-1.874614953994751,-4.520517349243164
1772562272183198500,6.225198486328125,0.811428427696228,-1.8919819593429565,-5.167442798614502
1772562272193180400,6.235180419921875,0.6372920274734497,-1.8034164905548096,-5.614233016967773
1772562272203163400,6.245163330078125,0.6207903027534485,-1.4435880184173584,-5.570584774017334
1772562272213146400,6.255146484375,0.7365462183952332,-0.993713915348053,-5.211278915405273
1772562272223128300,6.26512841796875,0.8448349833488464,-0.6614160537719727,-4.891040325164795
1772562272233111300,6.275111328125,0.8759745359420776,-0.5949070453643799,-4.79841947555542
1772562272243094500,6.285094482421875,0.7530012726783752,-0.7251320481300354,-4.892728328704834
1772562272253076200,6.295076171875,0.48599833250045776,-0.7763744592666626,-4.805568218231201
1772562272263059500,6.3050595703125,0.2540282607078552,-0.6036638617515564,-4.305020332336426
1772562272273042400,6.31504248046875,0.14630179107189178,-0.17369703948497772,-3.376380443572998
1772562272283024400,6.3250244140625,0.12185347825288773,0.4501120448112488,-2.3153746128082275
1772562272293007400,6.33500732421875,0.07373015582561493,1.0040061473846436,-1.4599498510360718
1772562272302990300,6.344990234375,-0.041779305785894394,1.2057218551635742,-0.7281560897827148
1772562272312972300,6.35497216796875,-0.17386837303638458,1.1029249429702759,0.20231245458126068
1772562272322955300,6.364955322265625,-0.2646123766899109,0.898066520690918,1.47322416305542
1772562272332938500,6.3749384765625,-0.3002971410751343,0.6798009872436523,3.053440809249878
1772562272342920200,6.384920166015625,-0.3320586383342743,0.4398547112941742,4.6685566902160645
1772562272352903400,6.3949033203125,-0.4238024055957794,0.27321380376815796,5.914949893951416
1772562272362886400,6.404886474609375,-0.5392332077026367,0.32595929503440857,6.577148914337158
1772562272372868400,6.414868408203125,-0.6669418811798096,0.6175514459609985,6.628225803375244
1772562272382851300,6.424851318359375,-0.7891700863838196,1.0117911100387573,6.214273452758789
1772562272392834300,6.434834228515625,-0.9002124071121216,1.4059373140335083,5.563443660736084
1772562272402816300,6.444816162109375,-1.00278902053833,1.6798522472381592,4.8349785804748535
1772562272412799200,6.45479931640625,-1.0859729051589966,1.7930229902267456,4.1736321449279785
1772562272422782500,6.464782470703125,-1.1429963111877441,1.7823668718338013,3.6387882232666016
1772562272432764400,6.474764404296875,-1.1650837659835815,1.6463816165924072,3.1974120140075684
1772562272442747400,6.484747314453125,-1.1757985353469849,1.3839000463485718,2.7814743518829346
1772562272452730400,6.49473046875,-1.1902384757995605,1.032326579093933,2.361708402633667
1772562272462712300,6.50471240234375,-1.1676547527313232,0.6608498692512512,1.984122395515442
1772562272472695300,6.5146953125,-1.0377793312072754,0.45343834161758423,1.6513631343841553
1772562272482678500,6.524678466796875,-0.8378034830093384,0.4557070732116699,1.2676297426223755
1772562272492660200,6.53466015625,-0.615775465965271,0.5897570252418518,0.8482215404510498
1772562272502643500,6.5446435546875,-0.40891507267951965,0.8241631388664246,0.48707684874534607
1772562272512626400,6.55462646484375,-0.24966976046562195,1.1115764379501343,0.23792561888694763
1772562272522608400,6.5646083984375,-0.13814087212085724,1.3102465867996216,0.15362557768821716
1772562272532591400,6.57459130859375,-0.07805836200714111,1.398504376411438,0.2364080846309662
1772562272542574300,6.58457421875,-0.052200984209775925,1.3924672603607178,0.4627625048160553
1772562272552556300,6.594556396484375,-0.0387437641620636,1.2822773456573486,0.7899488806724548
1772562272562539300,6.604539306640625,-0.017268629744648933,1.060969352722168,1.1560920476913452
1772562272572522500,6.6145224609375,0.02474273554980755,0.7995662689208984,1.4964549541473389
1772562272582504200,6.624504150390625,0.09003093838691711,0.5262019038200378,1.7523679733276367
1772562272592487400,6.6344873046875,0.16093415021896362,0.25866496562957764,1.870836853981018
1772562272602470400,6.644470458984375,0.23423604667186737,0.06468235701322556,1.8299243450164795
1772562272612452400,6.654452392578125,0.3013131022453308,-0.06823121756315231,1.6408718824386597
1772562272622435300,6.664435302734375,0.3349737524986267,-0.112212635576725,1.3096166849136353
1772562272632418300,6.674418212890625,0.3267139494419098,-0.08183235675096512,0.9042369723320007
1772562272642400300,6.684400146484375,0.2639709413051605,0.02284434624016285,0.44170722365379333
1772562272652383200,6.69438330078125,0.13817597925662994,0.14847950637340546,-0.04257985204458237
1772562272662366500,6.704366455078125,-0.019011080265045166,0.22213630378246307,-0.5422049760818481
1772562272672348200,6.71434814453125,-0.16931988298892975,0.21773649752140045,-1.010094165802002
1772562272682331400,6.724331298828125,-0.285684734582901,0.1091860681772232,-1.410840392112732
1772562272692314400,6.734314453125,-0.3244933784008026,-0.10660801082849503,-1.7151890993118286
1772562272702296300,6.74429638671875,-0.26333940029144287,-0.3925238847732544,-1.9296650886535645
1772562272712279300,6.754279296875,-0.1121397539973259,-0.6667850613594055,-2.049948215484619
1772562272722262300,6.76426220703125,0.10238712280988693,-0.8821360468864441,-2.1001017093658447
1772562272732244200,6.774244140625,0.34328362345695496,-1.0154030323028564,-2.1317882537841797
1772562272742227200,6.784227294921875,0.5662136077880859,-1.098190188407898,-2.189335346221924
1772562272752210400,6.79421044921875,0.7403340339660645,-1.1767915487289429,-2.279438018798828
1772562272762192100,6.804192138671875,0.8524372577667236,-1.2517976760864258,-2.3907997608184814
1772562272772175400,6.81417529296875,0.8730634450912476,-1.350722074508667,-2.5109405517578125
1772562272782158300,6.824158447265625,0.8250613212585449,-1.4781532287597656,-2.612433671951294
1772562272792140300,6.834140380859375,0.7496310472488403,-1.6256529092788696,-2.6835055351257324
1772562272802123300,6.844123291015625,0.6572261452674866,-1.7974450588226318,-2.699899673461914
1772562272812106500,6.8541064453125,0.552663266658783,-2.015254020690918,-2.6453795433044434
1772562272822088200,6.864088134765625,0.4295167624950409,-2.3138980865478516,-2.4854390621185303
1772562272832071400,6.874071533203125,0.29685139656066895,-2.6753296852111816,-2.220292568206787
1772562272842054400,6.884054443359375,0.17323020100593567,-3.066951274871826,-1.9437724351882935
1772562272852036400,6.894036376953125,0.08684710413217545,-3.524507999420166,-1.8922773599624634
1772562272862019300,6.904019287109375,0.0666930302977562,-4.117051601409912,-2.254818916320801
1772562272872002300,6.914002197265625,0.12835080921649933,-4.820883274078369,-3.053510904312134
1772562272881984300,6.923984375,0.34813830256462097,-5.409757137298584,-4.057928085327148
1772562272891967200,6.93396728515625,0.7249156832695007,-5.695362091064453,-5.064249038696289
1772562272901950000,6.943949951171875,1.1534886360168457,-5.404024600982666,-5.914306163787842
1772562272911932000,6.953931884765625,1.5182290077209473,-4.212324619293213,-6.480025768280029
1772562272921915000,6.963914794921875,1.7102950811386108,-1.9442318677902222,-6.727917671203613
1772562272931897900,6.97389794921875,1.6714518070220947,0.6818109154701233,-6.757879257202148
1772562272941880000,6.983880126953125,1.3275012969970703,2.557102918624878,-6.644777774810791
1772562272951862800,6.99386279296875,0.8660630583763123,3.1144869327545166,-6.24869966506958
1772562272961845800,7.003845703125,0.37691932916641235,2.6025571823120117,-5.278560638427734
1772562272971828000,7.013827880859375,-0.08579131960868835,1.5886902809143066,-3.6839139461517334
1772562272981810700,7.023810791015625,-0.48777419328689575,0.6787512302398682,-1.6938806772232056
1772562272991794000,7.0337939453125,-0.8098853826522827,0.0855553075671196,0.36030998826026917
1772562273001775900,7.04377587890625,-0.9958619475364685,-0.1770118921995163,2.2066898345947266
1772562273011758800,7.0537587890625,-1.0115658044815063,-0.17928864061832428,3.6925930976867676
1772562273021741800,7.063741943359375,-0.9440087080001831,0.06945697218179703,4.862556457519531
1772562273031724000,7.07372412109375,-0.839336097240448,0.446511834859848,5.6436285972595215
1772562273041706800,7.083706787109375,-0.6868493556976318,0.9553841948509216,5.993310928344727
1772562273051690000,7.09368994140625,-0.5275244116783142,1.5736541748046875,6.001745700836182
1772562273061672000,7.103671875,-0.4358184039592743,2.1007814407348633,5.807670593261719
1772562273071655000,7.113655029296875,-0.45364558696746826,2.347909927368164,5.5469489097595215
1772562273081638000,7.123637939453125,-0.586999773979187,2.2955989837646484,5.35837984085083
1772562273091620000,7.1336201171875,-0.7890083193778992,1.9981597661972046,5.221072196960449
1772562273101603000,7.14360302734375,-1.006883978843689,1.4821178913116455,5.0346760749816895
1772562273111585800,7.153585693359375,-1.191286563873291,0.9376689791679382,4.768320083618164
1772562273121568000,7.163568115234375,-1.2809149026870728,0.5039404034614563,4.430907249450684
1772562273131551000,7.173551025390625,-1.246085286140442,0.18706154823303223,4.002143859863281
1772562273141534000,7.183533935546875,-1.1448758840560913,0.03723251074552536,3.506577253341675
1772562273151516000,7.193515869140625,-1.0480228662490845,0.050018880516290665,2.9555587768554688
1772562273161499100,7.2034990234375,-0.9732006192207336,0.16581246256828308,2.3041393756866455
1772562273171481900,7.21348193359375,-0.9181626439094543,0.3055807650089264,1.6217976808547974
1772562273181464000,7.223464111328125,-0.8634750843048096,0.5103393197059631,1.0414390563964844
1772562273191447000,7.233447021484375,-0.7836034297943115,0.8588104844093323,0.6006882786750793
1772562273201429800,7.2434296875,-0.6901771426200867,1.2063672542572021,0.3013525903224945
1772562273211412000,7.253411865234375,-0.6444271802902222,1.4664846658706665,0.1692078709602356
1772562273221395000,7.26339501953125,-0.627548336982727,1.6173076629638672,0.2540360987186432
1772562273231378000,7.2733779296875,-0.6183753609657288,1.6653590202331543,0.5356208682060242
1772562273241360000,7.28335986328125,-0.6185222864151001,1.5956482887268066,0.9300337433815002
1772562273251343000,7.293343017578125,-0.62906414270401,1.3833937644958496,1.343227744102478
1772562273261325800,7.303325927734375,-0.6657710075378418,1.0706772804260254,1.704944372177124
1772562273271308000,7.31330810546875,-0.7248499989509583,0.7313758730888367,1.952399492263794
1772562273281291000,7.323291015625,-0.7818277478218079,0.4701513350009918,2.068469524383545
1772562273291273700,7.333273681640625,-0.791164755821228,0.3486845791339874,2.0640926361083984
1772562273301256000,7.343255859375,-0.7275853157043457,0.40493839979171753,1.9349042177200317
1772562273311239000,7.353239013671875,-0.6269060969352722,0.5203132033348083,1.6985012292861938
1772562273321222000,7.363221923828125,-0.4948778748512268,0.6366452574729919,1.4055112600326538
1772562273331203800,7.373203857421875,-0.3354756832122803,0.7392760515213013,1.096459150314331
1772562273341187000,7.38318701171875,-0.16489283740520477,0.7595748901367188,0.7769931554794312
1772562273351169800,7.393169677734375,0.007585456594824791,0.6529421806335449,0.4410921335220337
1772562273361152000,7.403152099609375,0.1694362908601761,0.4561665952205658,0.16277745366096497
1772562273371135000,7.413135009765625,0.2810927629470825,0.13969305157661438,-0.1014733761548996
1772562273381117700,7.42311767578125,0.37768611311912537,-0.16792944073677063,-0.29082638025283813
1772562273391100000,7.433099853515625,0.4486468434333801,-0.3712886869907379,-0.46793457865715027
1772562273401083000,7.443082763671875,0.5205802321434021,-0.43439340591430664,-0.6492834091186523
1772562273411065900,7.45306591796875,0.5891827344894409,-0.3380676805973053,-0.8207510709762573
1772562273421047800,7.4630478515625,0.6604155898094177,-0.18037386238574982,-0.9799714088439941
1772562273431031000,7.473031005859375,0.7473563551902771,0.018072377890348434,-1.1179840564727783
1772562273441013800,7.483013671875,0.8453711271286011,0.18169145286083221,-1.2314095497131348
1772562273450996000,7.492995849609375,0.9403043389320374,0.26848095655441284,-1.3148468732833862
1772562273460979000,7.50297900390625,0.9912880063056946,0.30088406801223755,-1.3615530729293823
1772562273470962000,7.5129619140625,0.9732645153999329,0.2875645160675049,-1.3670284748077393
1772562273480943900,7.52294384765625,0.8941950798034668,0.1914750635623932,-1.3158715963363647
1772562273490927000,7.532927001953125,0.792258620262146,0.041238680481910706,-1.1979188919067383
1772562273500909800,7.542909912109375,0.7013718485832214,-0.04164586961269379,-1.0194377899169922
1772562273510892000,7.55289208984375,0.6826343536376953,-0.03733820840716362,-0.9116458296775818
1772562273520875000,7.562875,0.6625762581825256,-0.03515941649675369,-1.0397076606750488
1772562273530857700,7.572857666015625,0.5396436452865601,-0.05396905541419983,-1.3629648685455322
1772562273540840000,7.58283984375,0.29416999220848083,0.13439792394638062,-1.6695263385772705
1772562273550823000,7.592822998046875,-0.0559973306953907,0.557051956653595,-1.862174391746521
1772562273560806100,7.60280615234375,-0.42735961079597473,0.7831081748008728,-1.9694632291793823
1772562273570787800,7.612787841796875,-0.7109308838844299,0.7643936276435852,-1.967477560043335
1772562273580771000,7.62277099609375,-0.8655695915222168,0.5644496083259583,-1.8223891258239746
1772562273590754000,7.632754150390625,-1.0473881959915161,0.07387910038232803,-1.6639432907104492
1772562273600736000,7.642736083984375,-1.298515796661377,-0.3206457793712616,-1.332932710647583
1772562273610719000,7.652718994140625,-1.493226170539856,-0.4385697543621063,-0.7585049271583557
1772562273620702000,7.662701904296875,-1.5399171113967896,-0.5409377217292786,-0.12596431374549866
1772562273630684000,7.672683837890625,-1.4122965335845947,-0.8259614706039429,0.2752467393875122
1772562273640667000,7.6826669921875,-1.2389178276062012,-1.1752235889434814,0.1609708070755005
1772562273650650000,7.692650146484375,-1.1489908695220947,-1.1313080787658691,-0.1351466029882431
1772562273660631800,7.7026318359375,-1.1025314331054688,-0.6872841715812683,-0.4124201238155365
1772562273670615000,7.712614990234375,-1.068575143814087,0.04389894753694534,-0.44387951493263245
1772562273680598000,7.722597900390625,-1.016317367553711,0.8464418053627014,-0.2665708363056183
1772562273690580000,7.732580078125,-0.8440007567405701,1.6963212490081787,0.09334790706634521
1772562273700563000,7.74256298828125,-0.43420398235321045,2.095578193664551,0.47201839089393616
1772562273710546000,7.7525458984375,-0.014054367318749428,1.895512580871582,0.7416464686393738
1772562273720528000,7.76252783203125,0.12936988472938538,1.4032939672470093,0.999016523361206
1772562273730510800,7.7725107421875,0.04971260577440262,0.7512679696083069,1.3407952785491943
1772562273740494000,7.782494140625,-0.17248500883579254,0.05385890230536461,1.7320942878723145
1772562273750475800,7.792475830078125,-0.48693856596946716,-0.4606185555458069,2.152893304824829
1772562273760459000,7.802458984375,-0.748462975025177,-0.7481033205986023,2.4978649616241455
1772562273770442000,7.81244189453125,-0.9259541034698486,-0.7771735787391663,2.579928398132324
1772562273780424000,7.822423828125,-0.9751914143562317,-0.40241652727127075,2.2905712127685547
1772562273790407000,7.832406982421875,-0.8701408505439758,0.11359064280986786,1.757656455039978
1772562273800390000,7.842389892578125,-0.6845941543579102,0.5473190546035767,1.1441694498062134
1772562273810371800,7.852371826171875,-0.4738878011703491,0.8322160243988037,0.6048810482025146
1772562273820354800,7.862354736328125,-0.32038503885269165,1.006140947341919,0.24552804231643677
1772562273830338000,7.872338134765625,-0.2585488259792328,1.077652096748352,0.09807493537664413
1772562273840319700,7.88231982421875,-0.22316063940525055,1.0699491500854492,0.1694478839635849
1772562273850303000,7.892302978515625,-0.14599713683128357,1.0048010349273682,0.4252985715866089
1772562273860286000,7.902285888671875,-0.039044976234436035,0.7887515425682068,0.7750658392906189
1772562273870268000,7.912267822265625,0.011817938648164272,0.4457411766052246,1.1388981342315674
1772562273880251000,7.9222509765625,0.006321991793811321,0.027658889070153236,1.4359904527664185
1772562273890234000,7.932234130859375,0.014926132746040821,-0.3341776132583618,1.5748870372772217
1772562273900215300,7.94221533203125,0.049117203801870346,-0.3941646218299866,1.454328179359436
1772562273910198500,7.952198486328125,0.041826535016298294,-0.16118356585502625,1.1621698141098022
1772562273920181200,7.96218115234375,-0.023272119462490082,0.24587884545326233,0.806246817111969
1772562273930163500,7.97216357421875,-0.15683791041374207,0.7273091077804565,0.5388497114181519
1772562273940146400,7.982146484375,-0.31690260767936707,1.229472041130066,0.5242895483970642
1772562273950128400,7.99212841796875,-0.4663986265659332,1.5525521039962769,0.7499452829360962
1772562273960111400,8.002111328125,-0.5454819202423096,1.6360245943069458,1.114603042602539
1772562273970093300,8.01209326171875,-0.5261766314506531,1.5419859886169434,1.5116547346115112
1772562273980076300,8.022076171875,-0.4797704815864563,1.3074992895126343,1.907618522644043
1772562273990059300,8.032059326171876,-0.4734888970851898,0.9960540533065796,2.255384922027588
1772562274000041200,8.042041259765625,-0.5262556076049805,0.69482421875,2.4732439517974854
1772562274010024200,8.052024169921875,-0.5969308018684387,0.4134194552898407,2.5417842864990234
1772562274020007400,8.06200732421875,-0.6374906897544861,0.169175386428833,2.4783437252044678
1772562274029989000,8.071989013671875,-0.6650922298431396,0.05467331409454346,2.2946035861968994
1772562274039972400,8.081972412109375,-0.6938310861587524,0.05967916548252106,1.94584321975708
1772562274049955300,8.091955322265624,-0.6667195558547974,-0.025100966915488243,1.5482479333877563
1772562274059937300,8.101937255859376,-0.6073147058486938,-0.13356512784957886,1.1295064687728882
1772562274069920300,8.111920166015626,-0.5343624353408813,-0.2707570493221283,0.6772753596305847
1772562274079903500,8.121903564453126,-0.4862378239631653,-0.4290515184402466,0.19265079498291016
1772562274089885200,8.13188525390625,-0.4647067189216614,-0.5664538741111755,-0.2673093378543854
1772562274099868400,8.141868408203125,-0.47327736020088196,-0.6028988361358643,-0.6374678015708923
1772562274109851400,8.151851318359375,-0.48097893595695496,-0.4555744230747223,-0.7925489544868469
1772562274119833300,8.161833251953125,-0.45688217878341675,-0.2527342736721039,-0.8051547408103943
1772562274129816300,8.17181640625,-0.41589027643203735,-0.1320030838251114,-0.7361208200454712
1772562274139799300,8.18179931640625,-0.3615754246711731,-0.14005962014198303,-0.6657349467277527
1772562274149781200,8.19178125,-0.30453798174858093,-0.22575029730796814,-0.6304033398628235
1772562274159764200,8.20176416015625,-0.2042715698480606,-0.4111958146095276,-0.5835053324699402
1772562274169747500,8.21174755859375,-0.08436781167984009,-0.6366084814071655,-0.5444998741149902
1772562274179729200,8.221729248046875,-0.0143016017973423,-0.8292946815490723,-0.526313841342926
1772562274189712400,8.23171240234375,3.7159770727157593e-7,-1.0645722150802612,-0.4752879738807678
1772562274199695400,8.2416953125,-0.05953235179185867,-1.3972163200378418,-0.40528103709220886
1772562274209677300,8.25167724609375,-0.23273634910583496,-1.9230375289916992,-0.3641546368598938
1772562274219660300,8.261660400390625,-0.47356829047203064,-2.7572669982910156,-0.4513659179210663
1772562274229643300,8.271643310546875,-0.6432931423187256,-3.6877055168151855,-0.7212916612625122
1772562274239625500,8.28162548828125,-0.6082016825675964,-4.189245700836182,-1.1738873720169067
1772562274249608200,8.291608154296876,-0.38119810819625854,-4.0686845779418945,-1.7202236652374268
1772562274259591400,8.30159130859375,-0.04707309603691101,-3.550189256668091,-2.2380564212799072
1772562274269573400,8.311573486328125,0.31062963604927063,-2.877622127532959,-2.684234857559204
1772562274279556400,8.321556396484375,0.5908010005950928,-2.295564889907837,-3.0499134063720703
1772562274289539300,8.331539306640625,0.6989240050315857,-1.9542236328125,-3.2880055904388428
1772562274299521500,8.341521484375,0.6121121048927307,-1.986709713935852,-3.410977602005005
1772562274309504300,8.351504150390625,0.38213610649108887,-2.2016706466674805,-3.3696937561035156
1772562274319487200,8.3614873046875,0.15466482937335968,-2.317902088165283,-3.197056531906128
1772562274329469400,8.371469482421874,0.08950605243444443,-2.373231887817383,-3.043433666229248
1772562274339453200,8.381453125,0.1305549293756485,-2.36232852935791,-2.970039129257202
1772562274349435400,8.391435302734376,0.20408320426940918,-2.160539150238037,-2.832106351852417
1772562274359418400,8.40141845703125,0.20458751916885376,-1.6556642055511475,-2.3696351051330566
1772562274369401300,8.4114013671875,0.065574511885643,-0.7222126722335815,-1.3791532516479492
1772562274379384300,8.42138427734375,-0.12117403000593185,0.11176459491252899,-0.07820349931716919
1772562274389366300,8.4313662109375,-0.3326985239982605,0.2469698190689087,1.1802023649215698
1772562274399349500,8.441349609375,-0.5971768498420715,-0.1701531708240509,2.1149868965148926
1772562274409331200,8.451331298828125,-0.8812420964241028,-0.5341876149177551,2.6578762531280518
1772562274419314400,8.461314453125,-1.0542668104171753,-0.40365728735923767,2.950425148010254
1772562274429297400,8.47129736328125,-1.0376923084259033,0.1881791353225708,3.157864570617676
1772562274439280400,8.4812802734375,-0.9073894619941711,0.9840474724769592,3.339531421661377
1772562274449262300,8.491262451171876,-0.7244420051574707,1.7094250917434692,3.4609692096710205
1772562274459245600,8.50124560546875,-0.5138355493545532,2.229538679122925,3.453512668609619
1772562274469228300,8.511228271484375,-0.3176670968532562,2.4717037677764893,3.2121737003326416
1772562274479210500,8.52121044921875,-0.23092280328273773,2.4816198348999023,2.7566752433776855
1772562274489193500,8.531193359375,-0.20416921377182007,2.4148612022399902,2.2545363903045654
1772562274499176200,8.54117626953125,-0.17566362023353577,2.398223638534546,1.7945138216018677
1772562274509158400,8.551158447265625,-0.13867124915122986,2.4380013942718506,1.4060012102127075
1772562274519141400,8.561141357421874,-0.07146432250738144,2.4435274600982666,1.132933259010315
1772562274529124400,8.571124267578124,-0.020649613812565804,2.3668363094329834,0.9776374697685242
1772562274539106300,8.581106201171876,-0.037804607301950455,2.220200538635254,0.9423226118087769
1772562274549089500,8.591089599609376,-0.09663143008947372,2.1282479763031006,1.0921396017074585
1772562274559072300,8.601072265625,-0.11132676899433136,2.1524243354797363,1.4523141384124756
1772562274569054500,8.611054443359375,-0.07591604441404343,2.1849825382232666,1.932883381843567
1772562274579037400,8.621037353515625,-0.07240736484527588,2.1075706481933594,2.3918087482452393
1772562274589020200,8.631020263671875,-0.14911651611328125,1.8798435926437378,2.7773044109344482
1772562274599002400,8.64100244140625,-0.2576698064804077,1.6340641975402832,3.088547945022583
1772562274608985300,8.6509853515625,-0.34131038188934326,1.5300999879837036,3.2929909229278564
1772562274618968300,8.66096826171875,-0.3563080132007599,1.6186983585357666,3.3493261337280273
1772562274628950300,8.6709501953125,-0.31312379240989685,1.7877507209777832,3.2687084674835205
1772562274638933500,8.68093359375,-0.2334250956773758,1.9060735702514648,3.089653730392456
1772562274648916200,8.690916259765626,-0.17874853312969208,1.932823896408081,2.84173583984375
1772562274658898400,8.7008984375,-0.16301347315311432,1.810814380645752,2.543764591217041
1772562274668881400,8.71088134765625,-0.15927119553089142,1.524767518043518,2.212703227996826
1772562274678864100,8.720864013671875,-0.1538306623697281,1.2170778512954712,1.847352147102356
1772562274688846300,8.730846435546875,-0.10647326707839966,0.9711363911628723,1.4652079343795776
1772562274698829300,8.740829345703125,-0.014692647382616997,0.821406900882721,1.0875109434127808
1772562274708812300,8.750812255859374,0.10729771107435226,0.7929909825325012,0.7249367237091064
1772562274718794200,8.760794189453126,0.25365063548088074,0.7879378795623779,0.3860490918159485
1772562274728777500,8.770777587890626,0.3894446790218353,0.7326945662498474,0.07819138467311859
1772562274738760200,8.78076025390625,0.500345766544342,0.6920257210731506,-0.13828755915164948
1772562274748742400,8.790742431640625,0.6215236186981201,0.6746379137039185,-0.24993792176246643
1772562274758725400,8.800725341796875,0.7132218480110168,0.5915506482124329,-0.28302550315856934
1772562274768708400,8.810708251953125,0.714867115020752,0.4593372046947479,-0.2680220603942871
1772562274778690300,8.820690185546875,0.7139297127723694,0.2322428673505783,-0.22757945954799652
1772562274788673300,8.83067333984375,0.7229775190353394,-0.09468572586774826,-0.19006377458572388
1772562274798656300,8.84065625,0.7282759547233582,-0.42427903413772583,-0.1654951125383377
1772562274808638200,8.85063818359375,0.802996814250946,-0.5751500129699707,-0.20120038092136383
1772562274818621400,8.860621337890626,0.924319863319397,-0.5253238677978516,-0.32461345195770264
1772562274828604200,8.870604248046876,1.0432484149932861,-0.3716736137866974,-0.5065845847129822
1772562274838586400,8.88058642578125,1.1165965795516968,-0.21069574356079102,-0.6856513619422913
1772562274848569300,8.8905693359375,1.121720790863037,-0.07172960042953491,-0.8485127091407776
1772562274858552300,8.90055224609375,1.042855143547058,-0.0008542760042473674,-0.991398811340332
1772562274868534300,8.9105341796875,0.9065366983413696,-0.11085827648639679,-1.0930007696151733
1772562274878517500,8.920517578125,0.7426701784133911,-0.37536144256591797,-1.168071985244751
1772562274888500500,8.93050048828125,0.6253179311752319,-0.7198355197906494,-1.1979217529296875
1772562274898482700,8.940482666015624,0.5810440182685852,-0.9753127694129944,-1.155110478401184
1772562274908465700,8.950465576171876,0.5500600337982178,-1.1131653785705566,-1.1488624811172485
1772562274918448400,8.960448486328126,0.4947185814380646,-1.0766676664352417,-1.2752364873886108
1772562274928430600,8.9704306640625,0.4144807457923889,-0.7968535423278809,-1.496265172958374
1772562274938413600,8.98041357421875,0.3243175446987152,-0.3614787459373474,-1.7477864027023315
1772562274948396500,8.990396484375,0.3252706825733185,-0.1502636969089508,-2.049379825592041
1772562274958378500,9.00037841796875,0.43876466155052185,-0.37964025139808655,-2.4189882278442383
1772562274968361700,9.01036181640625,0.6231446266174316,-0.8936468362808228,-2.78556752204895
1772562274978344400,9.020344482421875,0.7673737406730652,-1.246826171875,-3.1211671829223633
1772562274988326700,9.03032666015625,0.8248985409736633,-1.3160268068313599,-3.3763656616210938
1772562274998309600,9.0403095703125,0.802306056022644,-1.0183992385864258,-3.493715524673462
1772562275008292400,9.050292236328126,0.7415372133255005,-0.2783430218696594,-3.4682390689849854
1772562275018274600,9.060274658203125,0.6529622077941895,0.4484882056713104,-3.28529691696167
1772562275028257500,9.070257568359375,0.5440029501914978,0.7605478167533875,-2.8286309242248535
1772562275038240500,9.080240478515625,0.4414540231227875,0.5720730423927307,-2.1406400203704834
1772562275048222500,9.090222412109375,0.31327927112579346,0.0674452856183052,-1.381795883178711
1772562275058205700,9.100205810546875,0.19158603250980377,-0.3894336223602295,-0.6230080723762512
1772562275068188400,9.1101884765625,0.11198841035366058,-0.6055405735969543,0.1292119026184082
1772562275078170600,9.120170654296874,0.05434337630867958,-0.635529637336731,0.8742697238922119
1772562275088153600,9.130153564453124,0.0013818909646943212,-0.5399535894393921,1.6537582874298096
1772562275098136300,9.14013623046875,-0.060183774679899216,-0.3740043044090271,2.4527170658111572
1772562275108118500,9.150118408203125,-0.13987833261489868,-0.1328396052122116,3.1071643829345703
1772562275118101500,9.1601015625,-0.20931419730186462,0.08626668155193329,3.520460605621338
1772562275128084700,9.170084716796875,-0.2989266514778137,0.15626627206802368,3.6388936042785645
1772562275138066400,9.18006640625,-0.4120761752128601,0.0997518002986908,3.452348470687866
1772562275148049700,9.190049560546875,-0.48576608300209045,0.03437120094895363,3.0824596881866455
1772562275158032600,9.20003271484375,-0.43745318055152893,0.1773577779531479,2.467928886413574
1772562275168014600,9.2100146484375,-0.26848652958869934,0.5754702687263489,1.5546379089355469
1772562275177997600,9.21999755859375,-0.06808623671531677,1.148797869682312,0.589492917060852
1772562275187980500,9.22998046875,0.1315390020608902,1.6800132989883423,-0.22091926634311676
1772562275197962500,9.23996240234375,0.28757143020629883,2.0056753158569336,-0.7848324775695801
1772562275207945500,9.249945556640625,0.39483290910720825,2.0594255924224854,-1.0516719818115234
1772562275217928700,9.2599287109375,0.44431272149086,1.9530092477798462,-1.009873628616333
1772562275227910400,9.269910400390625,0.4584847390651703,1.6989768743515015,-0.7744054794311523
1772562275237893600,9.2798935546875,0.4006827473640442,1.3746365308761597,-0.41876327991485596
1772562275247876600,9.289876708984375,0.2829550504684448,1.067247748374939,-0.01261870376765728
1772562275257858600,9.299858642578124,0.12163514643907547,0.8759995102882385,0.41374796628952026
1772562275267841500,9.309841552734374,-0.06582582741975784,0.8293161988258362,0.8104343414306641
1772562275277824800,9.31982470703125,-0.23170721530914307,0.8877109885215759,1.1314139366149902
1772562275287806500,9.329806396484376,-0.3656884431838989,0.9716280102729797,1.3680933713912964
1772562275297789700,9.339789794921876,-0.4623344838619232,1.0834203958511353,1.562172293663025
1772562275307772700,9.349772705078125,-0.5176672339439392,1.1877901554107666,1.7515068054199219
1772562275317754600,9.359754638671875,-0.5628151297569275,1.2019394636154175,1.9123413562774658
1772562275327737600,9.369737548828125,-0.6031196713447571,1.1136761903762817,2.003103017807007
1772562275337720600,9.379720458984375,-0.6502057909965515,0.9795501232147217,1.9907995462417603
1772562275347702500,9.38970263671875,-0.6869177222251892,0.8374941945075989,1.892113208770752
1772562275357685500,9.399685546875,-0.6964219808578491,0.7145683765411377,1.7153160572052002
1772562275367668700,9.409668701171874,-0.6667793989181519,0.6775277853012085,1.4719207286834717
1772562275377650400,9.419650390625,-0.6034024357795715,0.7335438132286072,1.1712514162063599
1772562275387633700,9.429633544921876,-0.5311644673347473,0.7806095480918884,0.8376206755638123
1772562275397616600,9.43961669921875,-0.4595915675163269,0.7776848077774048,0.5073431730270386
1772562275407598600,9.4495986328125,-0.3996789753437042,0.7403686046600342,0.22243905067443848
1772562275417581600,9.45958154296875,-0.36796924471855164,0.6921345591545105,-0.002305555623024702
1772562275427564500,9.469564453125,-0.36732956767082214,0.6300176978111267,-0.18133309483528137
1772562275437546500,9.47954638671875,-0.3930431604385376,0.5252843499183655,-0.3188760280609131
1772562275447529500,9.489529541015624,-0.4281492233276367,0.356082022190094,-0.4109511077404022
1772562275457512700,9.4995126953125,-0.48473089933395386,0.16412930190563202,-0.48181599378585815
1772562275467495400,9.509495361328124,-0.5355464220046997,0.0027792879845947027,-0.540330171585083
1772562275477477600,9.5194775390625,-0.556114912033081,-0.057568568736314774,-0.5788308382034302
1772562275487460600,9.529460693359376,-0.5112478137016296,-0.044626135379076004,-0.612464427947998
1772562275497443300,9.539443359375,-0.42804092168807983,-0.07360144704580307,-0.6579352021217346
1772562275507425500,9.549425537109375,-0.30920881032943726,-0.16090784966945648,-0.7294482588768005
1772562275517408500,9.559408447265625,-0.1762879490852356,-0.25137338042259216,-0.819527268409729
1772562275527391500,9.5693916015625,-0.04246702790260315,-0.32246166467666626,-0.9291169047355652
1772562275537373400,9.57937353515625,0.06905163824558258,-0.3713742196559906,-1.0348929166793823
1772562275547356700,9.589356689453124,0.12533994019031525,-0.48456841707229614,-1.1382973194122314
1772562275557339400,9.59933935546875,0.13087694346904755,-0.7784355878829956,-1.241877555847168
1772562275567321600,9.609321533203126,0.11272215843200684,-1.216750979423523,-1.3312830924987793
1772562275577304600,9.6193046875,0.09890489280223846,-1.6054518222808838,-1.3849889039993286
1772562275587287600,9.62928759765625,0.11176982522010803,-1.845662236213684,-1.3866560459136963
1772562275597269500,9.63926953125,0.1949481964111328,-2.032181739807129,-1.4350680112838745
1772562275607252500,9.64925244140625,0.3039036989212036,-2.11934232711792,-1.6325722932815552
1772562275617235700,9.659235595703125,0.32084089517593384,-2.207313299179077,-1.9771925210952759
1772562275627217400,9.669217529296875,0.3202955424785614,-2.176215648651123,-2.371832847595215
1772562275637200600,9.67920068359375,0.33163800835609436,-2.0234363079071045,-2.7392139434814453
1772562275647183600,9.68918359375,0.3551254868507385,-2.01833438873291,-3.083540201187134
1772562275657165600,9.69916552734375,0.4870559573173523,-2.3420660495758057,-3.452857255935669
1772562275667148500,9.7091484375,0.6918250918388367,-2.8691189289093018,-4.109277725219727
1772562275677131800,9.7191318359375,0.8943274021148682,-3.3168349266052246,-5.009167194366455
1772562275687113500,9.729113525390625,1.071581244468689,-3.4262731075286865,-5.8622918128967285
1772562275697096700,9.7390966796875,1.196273684501648,-3.159480333328247,-6.476104736328125
1772562275707079700,9.74907958984375,1.2757368087768555,-2.46802020072937,-6.571249008178711
1772562275717061600,9.7590615234375,1.2889881134033203,-1.424933671951294,-6.030531406402588
1772562275727044600,9.769044677734374,1.263142466545105,-0.4898815453052521,-4.967640399932861
1772562275737027600,9.779027587890624,1.1952059268951416,-0.02186712808907032,-3.7831122875213623
1772562275747009500,9.789009521484376,1.0457637310028076,-0.13947764039039612,-2.8095858097076416
1772562275756992500,9.798992431640626,0.8044601082801819,-0.5525302886962891,-2.0681204795837402
1772562275766975700,9.808975830078126,0.5377634167671204,-0.8494898080825806,-1.4173189401626587
1772562275776957400,9.81895751953125,0.34656381607055664,-0.8833519816398621,-0.6459296941757202
1772562275786940700,9.828940673828125,0.2138526439666748,-0.5958229899406433,0.30979540944099426
1772562275796923600,9.838923583984375,0.06201808899641037,-0.15039296448230743,1.3375155925750732
1772562275806905600,9.848905517578125,-0.10948735475540161,0.3933590054512024,2.2652063369750977
1772562275816888600,9.858888671875,-0.27677425742149353,0.7975264191627502,2.8827412128448486
1772562275826871600,9.86887158203125,-0.41616091132164,0.9368219971656799,3.1907966136932373
1772562275836853500,9.878853515625,-0.5028973817825317,0.901864230632782,3.274916410446167
1772562275846836500,9.88883642578125,-0.5622363090515137,0.8248317837715149,3.2453203201293945
1772562275856819700,9.89881982421875,-0.6173374652862549,0.749575138092041,3.172412633895874
1772562275866801400,9.908801513671875,-0.6858664155006409,0.6886444091796875,3.101226806640625
1772562275876784600,9.91878466796875,-0.7396451830863953,0.6900883316993713,3.02146053314209
1772562275886767600,9.928767578125,-0.7812964916229248,0.715602457523346,2.9077508449554443
1772562275896749600,9.93874951171875,-0.8201349973678589,0.7606965899467468,2.800217866897583
1772562275906732500,9.948732666015625,-0.8457388877868652,0.8126385807991028,2.7430858612060547
1772562275916715500,9.958715576171874,-0.8589240908622742,0.8209604024887085,2.7684314250946045
1772562275926697700,9.96869775390625,-0.8702713251113892,0.7820414900779724,2.869187593460083
1772562275936680400,9.978680419921876,-0.8798285126686096,0.7218543291091919,3.0350167751312256
1772562275946663700,9.98866357421875,-0.8649529218673706,0.6485785245895386,3.2376372814178467
1772562275956645600,9.998645751953125,-0.8546965718269348,0.4892556071281433,3.4289567470550537
1772562275966628600,10.008628662109375,-0.8698110580444336,0.24794340133666992,3.573277235031128
1772562275976611600,10.018611572265625,-0.8751311302185059,0.0628240779042244,3.676114320755005
1772562275986593800,10.02859375,-0.8630688786506653,-0.03780212998390198,3.7320995330810547
1772562275996576800,10.03857666015625,-0.8455966711044312,-0.08815938234329224,3.719759464263916
1772562276006559500,10.0485595703125,-0.8377224802970886,-0.12841811776161194,3.655296564102173
1772562276016541700,10.058541748046874,-0.8272510766983032,-0.16341537237167358,3.6018593311309814
1772562276026524700,10.068524658203126,-0.7970007658004761,-0.15051688253879547,3.5628790855407715
1772562276036507600,10.078507568359376,-0.7507882714271545,-0.114765964448452,3.5441627502441406
1772562276046489600,10.088489501953125,-0.7194274067878723,-0.131174236536026,3.5413436889648438
1772562276056472800,10.098472900390625,-0.7241392135620117,-0.23071841895580292,3.5521867275238037
1772562276066455600,10.10845556640625,-0.7724471092224121,-0.3621598184108734,3.6030309200286865
1772562276076437800,10.118437744140625,-0.8017621040344238,-0.4887661039829254,3.755439519882202
1772562276086420700,10.128420654296875,-0.7871336340904236,-0.643719494342804,3.9808361530303955
1772562276096403700,10.13840380859375,-0.768997848033905,-0.7818967700004578,4.205113887786865
1772562276106385700,10.1483857421875,-0.7600365877151489,-0.9616689085960388,4.360644817352295
1772562276116369000,10.158368896484374,-0.7608861923217773,-1.148402214050293,4.416589260101318
1772562276126351600,10.1683515625,-0.7795730233192444,-1.2820414304733276,4.353370666503906
1772562276136333800,10.178333740234375,-0.8208240866661072,-1.3722389936447144,4.213577747344971
1772562276146316800,10.18831689453125,-0.8414431214332581,-1.3761197328567505,4.01137113571167
1772562276156299500,10.198299560546875,-0.8146350979804993,-1.2462213039398193,3.7308874130249023
1772562276166281700,10.20828173828125,-0.7689581513404846,-1.0242161750793457,3.3770813941955566
1772562276176264700,10.2182646484375,-0.7037667632102966,-0.7868531942367554,2.9444210529327393
1772562276186247700,10.22824755859375,-0.6039067506790161,-0.47850650548934937,2.4358861446380615
1772562276196229600,10.238229736328124,-0.46641501784324646,-0.09228082001209259,1.8684931993484497
1772562276206212900,10.248212890625,-0.28139376640319824,0.40176111459732056,1.2426527738571167
1772562276216195600,10.258195556640626,-0.07657723128795624,1.001400113105774,0.5337249636650085
1772562276226177800,10.268177734375,0.11281745880842209,1.5726053714752197,-0.2402346134185791
1772562276236160800,10.278160888671875,0.3502461314201355,1.9104827642440796,-0.9818174242973328
1772562276246143500,10.2881435546875,0.7005969882011414,1.7194446325302124,-1.6317096948623657
1772562276256125700,10.298125732421875,1.1311604976654053,1.1825734376907349,-2.211582660675049
1772562276266108700,10.308108642578125,1.6504430770874023,0.7028542160987854,-2.8106372356414795
1772562276276091600,10.318091552734375,2.2409706115722656,0.22500891983509064,-3.4306039810180664
1772562276286073600,10.328073486328124,2.8909285068511963,-0.24367067217826843,-4.058811187744141
1772562276296056800,10.338056884765624,3.4974582195281982,-0.45082467794418335,-4.691482067108154
1772562276306039600,10.34803955078125,4.113480567932129,-0.4541237950325012,-5.3682966232299805
1772562276316021800,10.358021728515626,4.744441509246826,-0.4421514868736267,-6.211308002471924
1772562276326004700,10.368004638671875,5.269735813140869,-0.30906856060028076,-7.221945762634277
1772562276335987500,10.377987548828125,5.56837797164917,0.03673084080219269,-8.19108772277832
1772562276345970700,10.387970703125,5.581172943115234,0.4897124171257019,-8.795092582702637
1772562276355952600,10.39795263671875,5.375151634216309,0.9153080582618713,-8.919855117797852
1772562276365935600,10.407935546875,5.079227924346924,1.3723057508468628,-8.574002265930176
1772562276375918600,10.417918701171875,4.706715106964111,1.8947213888168335,-7.977453231811523
1772562276385900800,10.42790087890625,4.3215250968933105,2.5203211307525635,-7.367176055908203
1772562276395883500,10.437883544921876,3.9237523078918457,2.9214107990264893,-6.966254234313965
1772562276405866500,10.447866455078126,3.5185818672180176,2.8991570472717285,-6.781378269195557
1772562276415848700,10.4578486328125,3.1815056800842285,2.6370835304260254,-6.586778163909912
1772562276425831700,10.467831787109375,2.836953639984131,2.1043574810028076,-6.251641750335693
1772562276435814700,10.477814697265625,2.515533447265625,1.5167949199676514,-5.707527160644531
1772562276445796600,10.487796630859375,2.263134241104126,0.9871424436569214,-5.025300979614258
1772562276455779600,10.497779541015625,2.0511202812194824,0.4233991503715515,-4.310935020446777
1772562276465762600,10.507762451171875,1.9060674905776978,-0.040776509791612625,-3.644153594970703
1772562276475744800,10.517744873046874,1.8279551267623901,-0.30530810356140137,-3.139777660369873
1772562276485727700,10.527727783203124,1.8051337003707886,-0.36928895115852356,-2.76749587059021
1772562276495710700,10.537710693359376,1.8533276319503784,-0.1943444013595581,-2.349731922149658
1772562276505692700,10.547692626953125,1.9107589721679688,-0.021856512874364853,-1.9573748111724854
1772562276515676000,10.557676025390625,1.8851178884506226,0.058021701872348785,-1.6956154108047485
1772562276525658600,10.56765869140625,1.7856824398040771,0.14103136956691742,-1.4811590909957886
1772562276535640800,10.577640869140625,1.6494637727737427,0.2050803303718567,-1.2253061532974243
1772562276545623800,10.587623779296875,1.474621057510376,0.18670184910297394,-0.8810297846794128
1772562276555606500,10.5976064453125,1.2249243259429932,0.10541344434022903,-0.49221083521842957
1772562276565588700,10.607588623046874,0.983747661113739,-0.013929464854300022,-0.1315208375453949
1772562276575571700,10.61757177734375,0.7962456345558167,-0.17536798119544983,0.14655429124832153
1772562276585554700,10.6275546875,0.672562301158905,-0.2751678228378296,0.31788715720176697
1772562276595536600,10.63753662109375,0.6120193004608154,-0.2170695662498474,0.36042869091033936
1772562276605520000,10.647519775390625,0.6057472825050354,-0.025414112955331802,0.29135429859161377
1772562276615502600,10.657502685546875,0.6198917031288147,0.25998494029045105,0.17109228670597076
1772562276625484800,10.66748486328125,0.6351638436317444,0.5369212031364441,0.03621728718280792
1772562276635467800,10.6774677734375,0.6444945931434631,0.6979678869247437,-0.08201166242361069
1772562276645450500,10.687450439453125,0.6555832028388977,0.6756641864776611,-0.17707344889640808
1772562276655432700,10.6974326171875,0.6642711758613586,0.5245078802108765,-0.23884765803813934
1772562276665415700,10.707415771484374,0.6428231000900269,0.3223355710506439,-0.2726426422595978
1772562276675398700,10.717398681640624,0.5811175107955933,0.08328232169151306,-0.28531619906425476
1772562276685380600,10.727380615234376,0.4781002998352051,-0.15085507929325104,-0.27523159980773926
1772562276695363800,10.73736376953125,0.37207260727882385,-0.14348286390304565,-0.14578211307525635
1772562276705346600,10.7473466796875,0.2557941973209381,0.0410291813313961,0.08565909415483475
1772562276715328800,10.757328857421875,0.10880817472934723,0.18890123069286346,0.33853623270988464
1772562276725311700,10.767311767578125,-0.037627074867486954,0.2877580523490906,0.5361252427101135
1772562276735294500,10.77729443359375,-0.1598464399576187,0.35919877886772156,0.6728285551071167
1772562276745276700,10.787276611328124,-0.23028650879859924,0.4567173421382904,0.737513542175293
1772562276755259600,10.797259765625,-0.23674480617046356,0.6159374117851257,0.7095959186553955
1772562276765242600,10.80724267578125,-0.2136853039264679,0.7776972651481628,0.6058460474014282
1772562276775224600,10.817224609375,-0.21193359792232513,0.9239274859428406,0.522158682346344
1772562276785207800,10.827207763671876,-0.23497048020362854,1.0574443340301514,0.462792307138443
1772562276795190500,10.8371904296875,-0.2871412932872772,1.1790292263031006,0.44754281640052795
1772562276805172700,10.8471728515625,-0.35141244530677795,1.3100743293762207,0.48539406061172485
1772562276815155700,10.85715576171875,-0.4136669933795929,1.2478890419006348,0.48030516505241394
1772562276825138700,10.867138671875,-0.46257513761520386,1.0718636512756348,0.4631922245025635
1772562276835120600,10.87712060546875,-0.4944203197956085,0.908715009689331,0.4833892583847046
1772562276845103600,10.887103515625,-0.5403484106063843,0.8114595413208008,0.591482937335968
1772562276855086600,10.897086669921874,-0.6161713600158691,0.6309887170791626,0.7383588552474976
1772562276865068800,10.90706884765625,-0.7426587343215942,0.1494220793247223,0.8350635170936584
1772562276875051800,10.9170517578125,-0.8622050881385803,-0.4225912094116211,0.8784493803977966
1772562276885034500,10.927034423828125,-0.9133212566375732,-0.7492859363555908,0.9705212116241455
1772562276895016700,10.9370166015625,-0.9159030914306641,-0.9113600254058838,1.100540041923523
1772562276904999700,10.946999755859375,-0.8888786435127258,-0.8938636183738708,1.2823034524917603
1772562276914983000,10.95698291015625,-0.7500973343849182,-0.4110737442970276,1.4954065084457397
1772562276924964900,10.96696484375,-0.5307167768478394,0.3727441132068634,1.7353395223617554
1772562276934947800,10.97694775390625,-0.2804144322872162,0.8963615298271179,1.884029746055603
1772562276944930800,10.986930908203124,-0.0749472975730896,1.018950343132019,1.7886502742767334
1772562276954913000,10.9969130859375,0.058771390467882156,1.065495252609253,1.4959890842437744
1772562276964895700,11.006895751953126,0.09181828796863556,1.1365331411361694,1.1712818145751953
1772562276974878700,11.016878662109375,0.05692250281572342,1.0411643981933594,0.8840779662132263
1772562276984861000,11.02686083984375,0.019701898097991943,0.8285223841667175,0.7004112005233765
1772562276994843600,11.03684375,0.007548294961452484,0.7297683954238892,0.6709249019622803
1772562277004827000,11.046826904296875,0.03321823850274086,0.8031099438667297,0.7552536725997925
1772562277014808800,11.056808837890625,0.10895352810621262,0.8922781348228455,0.8493083715438843
1772562277024791800,11.066791748046874,0.2202712595462799,0.942368745803833,0.9390872716903687
1772562277034774800,11.07677490234375,0.33045971393585205,0.9144015312194824,1.0182353258132935
1772562277044757000,11.086757080078126,0.3999634385108948,0.742734968662262,1.07581627368927
1772562277054739700,11.09673974609375,0.4420650005340576,0.47553980350494385,1.1218597888946533
1772562277064722700,11.10672265625,0.44546347856521606,0.17985223233699799,1.1682409048080444
1772562277074706000,11.116705810546875,0.39862683415412903,-0.024887690320611,1.2248951196670532
1772562277084687600,11.1266875,0.31634342670440674,-0.0906512588262558,1.2790143489837646
1772562277094670800,11.1366708984375,0.23055198788642883,-0.12599386274814606,1.2704485654830933
1772562277104653800,11.14665380859375,0.17857879400253296,-0.17299333214759827,1.1857136487960815
1772562277114635800,11.1566357421875,0.17889641225337982,-0.2079966813325882,1.0784648656845093
1772562277124618800,11.16661865234375,0.22595153748989105,-0.22540150582790375,0.9542251825332642
1772562277134601700,11.176601806640624,0.2992938458919525,-0.21437150239944458,0.8018531203269958
1772562277144583700,11.186583740234376,0.364713579416275,-0.17853200435638428,0.5993087887763977
1772562277154566700,11.196566650390626,0.40459588170051575,-0.1291704773902893,0.35842445492744446
1772562277164550000,11.2065498046875,0.4218931198120117,-0.0279740821570158,0.08991337567567825
1772562277174531600,11.216531494140625,0.43288373947143555,0.08284611254930496,-0.18558567762374878
1772562277184514800,11.226514892578125,0.41536492109298706,0.16059629619121552,-0.42330023646354675
1772562277194497800,11.236497802734375,0.36824408173561096,0.22501741349697113,-0.562714159488678
1772562277204479700,11.246479736328125,0.300321489572525,0.3087083101272583,-0.5921679139137268
1772562277214462700,11.256462646484374,0.22309793531894684,0.4381954073905945,-0.5244831442832947
1772562277224445700,11.26644580078125,0.16364338994026184,0.5918850898742676,-0.40309998393058777
1772562277234427600,11.276427734375,0.13811403512954712,0.7087971568107605,-0.27094846963882446
1772562277244411000,11.286410888671876,0.14167840778827667,0.7183722853660583,-0.17133961617946625
1772562277254393900,11.296393798828126,0.1595723032951355,0.6674624085426331,-0.09503607451915741
1772562277264375800,11.306375732421875,0.1784040480852127,0.5448174476623535,-0.046519674360752106
1772562277274358800,11.31635888671875,0.2019498646259308,0.3739510178565979,-0.016204839572310448
1772562277284341800,11.326341796875,0.2368689775466919,0.22158916294574738,-0.01038396917283535
1772562277294323700,11.33632373046875,0.2710643410682678,0.20035481452941895,-0.02494863048195839
1772562277304306700,11.346306640625,0.2893197536468506,0.29154571890830994,-0.07537345588207245
1772562277314290000,11.3562900390625,0.2738878130912781,0.39192497730255127,-0.1323433518409729
1772562277324271600,11.366271728515626,0.18696355819702148,0.23911945521831512,-0.3083447217941284
1772562277334254800,11.3762548828125,0.09521681070327759,0.15188080072402954,-0.4836795926094055
1772562277344237800,11.38623779296875,-0.003934808541089296,0.1764702945947647,-0.6255006194114685
1772562277354219800,11.3962197265625,-0.09793716669082642,0.22126567363739014,-0.7099685072898865
1772562277364202800,11.40620263671875,-0.11951276659965515,0.2791132628917694,-0.688624918460846
1772562277374185700,11.416185791015625,-0.08952357620000839,0.24765624105930328,-0.5746826529502869
1772562277384168000,11.42616796875,-0.009426611475646496,0.0692840963602066,-0.42445608973503113
