time,seconds_elapsed,z,y,x
1772656653233212400,0.24221240234375,-0.039630889892578125,0.0031426288187503815,-0.0039922744035720825
1772656653252970500,0.261970458984375,-0.034844398498535156,0.0020042583346366882,0.0005296990275382996
1772656653272728600,0.281728515625,-0.036042213439941406,-0.001469578593969345,0.003314957022666931
1772656653292486700,0.301486572265625,-0.033646583557128906,-0.0004548691213130951,0.0018232539296150208
1772656653312244700,0.32124462890625,-0.036042213439941406,-0.003148261457681656,-0.0027820318937301636
1772656653332002800,0.3410029296875,-0.038435935974121094,-0.004078719764947891,0.006885796785354614
1772656653351760600,0.3607607421875,-0.03604316711425781,0.0028036125004291534,0.0018312633037567139
1772656653371518700,0.380518798828125,-0.030057907104492188,0.006273083388805389,-0.006483018398284912
1772656653391276800,0.40027685546875,-0.040831565856933594,0.0005254335701465607,0.0020795315504074097
1772656653411035000,0.420034912109375,-0.03484535217285156,0.001571696251630783,0.0018441453576087952
1772656653430793000,0.43979296875,-0.037240028381347656,-0.0021689869463443756,-0.0016231909394264221
1772656653450551000,0.459551025390625,-0.030057907104492188,0.0003418847918510437,0.0006537213921546936
1772656653470309000,0.47930908203125,-0.03604412078857422,0.0000694766640663147,0.0006864219903945923
1772656653490067200,0.499067138671875,-0.036045074462890625,-0.002474617213010788,-0.0002096220850944519
1772656653509825300,0.5188251953125,-0.03484821319580078,0.0011423155665397644,0.001078777015209198
1772656653529583400,0.538583251953125,-0.032454490661621094,-0.004457093775272369,-0.0012824088335037231
1772656653549341200,0.558341064453125,-0.030061721801757812,0.0014052130281925201,-0.00014304369688034058
1772656653569099300,0.578099365234375,-0.03604698181152344,0.0039171092212200165,0.005815453827381134
1772656653588857300,0.597857421875,-0.03604698181152344,-0.004342805594205856,0.0071353912353515625
1772656653608615400,0.617615478515625,-0.037242889404296875,-0.006798911839723587,0.0022614747285842896
1772656653628373500,0.63737353515625,-0.03843975067138672,-0.0022788643836975098,0.0032229870557785034
1772656653648131600,0.657131591796875,-0.03484821319580078,-0.002309296280145645,0.0021494999527931213
1772656653667889700,0.6768896484375,-0.03724384307861328,-0.0038054287433624268,-0.000270746648311615
1772656653687647700,0.696647705078125,-0.03604602813720703,-0.00494147464632988,-0.001493014395236969
1772656653707405800,0.71640576171875,-0.030060768127441406,-0.0017396770417690277,-0.005168326199054718
1772656653727164000,0.736163818359375,-0.03604698181152344,-0.003955516964197159,-0.0004964619874954224
1772656653746921700,0.755921630859375,-0.03604698181152344,-0.0038364268839359283,0.002139173448085785
1772656653766679800,0.7756796875,-0.04083442687988281,-0.005122378468513489,0.0033689364790916443
1772656653786438000,0.79543798828125,-0.032456398010253906,-0.0028176531195640564,0.0032520294189453125
1772656653806196000,0.815196044921875,-0.03604602813720703,-0.0027885548770427704,0.0055007487535476685
1772656653825954000,0.8349541015625,-0.0324554443359375,-0.003926489502191544,0.003288254141807556
1772656653845712100,0.854712158203125,-0.027669906616210938,-0.01245301216840744,0.002301163971424103
1772656653865470200,0.87447021484375,-0.03245735168457031,-0.0003953017294406891,0.006703212857246399
1772656653885228300,0.894228271484375,-0.037245750427246094,-0.0007578432559967041,-0.0024813488125801086
1772656653904986000,0.913986083984375,-0.03245830535888672,-0.0005797147750854492,0.003386765718460083
1772656653924744200,0.933744140625,-0.03126049041748047,-0.0005517005920410156,-0.00013994425535202026
1772656653944502300,0.953502197265625,-0.03125953674316406,0.0004955306649208069,0.0008220300078392029
1772656653964260400,0.97326025390625,-0.031261444091796875,-0.0018985942006111145,0.0045944079756736755
1772656653984018400,0.993018310546875,-0.026473045349121094,0.0020782500505447388,0.006838716566562653
1772656654003776500,1.012776611328125,-0.03485393524169922,-0.0040866918861866,0.004953056573867798
1772656654023534600,1.03253466796875,-0.038445472717285156,-0.0056727007031440735,0.00486581027507782
1772656654043292700,1.052292724609375,-0.03365802764892578,-0.005345284938812256,0.006152510643005371
1772656654063050800,1.07205078125,-0.028868675231933594,-0.0017257072031497955,0.007321082055568695
1772656654082808800,1.091808837890625,-0.03126239776611328,0.00027704983949661255,0.003493204712867737
1772656654102566700,1.111566650390625,-0.031264305114746094,0.0025792494416236877,-0.00141124427318573
1772656654122324700,1.13132470703125,-0.02886962890625,-0.004274889826774597,0.0071481019258499146
1772656654142082800,1.151082763671875,-0.027673721313476562,-0.0009240545332431793,0.0001483038067817688
1772656654161841000,1.1708408203125,-0.027672767639160156,-0.002451695501804352,-0.003676801919937134
1772656654181599000,1.190598876953125,-0.03844642639160156,-0.0010776892304420471,0.003536798059940338
1772656654201357000,1.210357177734375,-0.03365802764892578,-0.004788745194673538,-0.002205662429332733
1772656654221115100,1.230115234375,-0.03485584259033203,-0.003471534699201584,0.0012095198035240173
1772656654240873200,1.249873291015625,-0.022884368896484375,0.0003864802420139313,0.005819261074066162
1772656654260631300,1.26963134765625,-0.03006744384765625,-0.005809064954519272,0.0023504719138145447
1772656654280389000,1.28938916015625,-0.027670860290527344,-0.008962173014879227,0.007130347192287445
1772656654300147200,1.309147216796875,-0.03365612030029297,-0.0009390898048877716,0.002293884754180908
1772656654319905300,1.3289052734375,-0.02527618408203125,-0.004049897193908691,0.008137889206409454
1772656654339663400,1.348663330078125,-0.02886676788330078,-0.0008135475218296051,0.0006407201290130615
1772656654359421400,1.36842138671875,-0.03125953674316406,-0.005836058408021927,-0.0017088651657104492
1772656654379179500,1.388179443359375,-0.027667999267578125,-0.005441121757030487,0.004377193748950958
1772656654398937600,1.4079375,-0.03006267547607422,-0.0069906264543533325,-0.0015949457883834839
1772656654418695700,1.42769580078125,-0.02766895294189453,-0.0008214302361011505,0.003054514527320862
1772656654438453500,1.44745361328125,-0.028865814208984375,0.003726661205291748,-0.003216572105884552
1772656654458211600,1.467211669921875,-0.03125953674316406,-0.0007000230252742767,0.008702792227268219
1772656654477969700,1.4869697265625,-0.032456398010253906,0.000466763973236084,0.001830458641052246
1772656654497727700,1.506727783203125,-0.03604698181152344,-0.0032384246587753296,0.0031286776065826416
1772656654517485800,1.52648583984375,-0.03126049041748047,-0.0008407607674598694,0.001911938190460205
1772656654537244000,1.546243896484375,-0.034850120544433594,-0.0010468028485774994,-0.0005290135741233826
1772656654557002000,1.566001953125,-0.03006267547607422,-0.0008064396679401398,0.000471457839012146
1772656654576760000,1.585760009765625,-0.02647113800048828,-0.006277602165937424,0.006705492734909058
1772656654596518100,1.60551806640625,-0.02647113800048828,0.0006384886801242828,0.0018379464745521545
1772656654616276200,1.625276123046875,-0.0324554443359375,-0.0007084086537361145,-0.0027276575565338135
1772656654636034000,1.645033935546875,-0.03365325927734375,-0.003276519477367401,-0.005047902464866638
1772656654655792000,1.664792236328125,-0.03365325927734375,-0.0031224600970745087,-0.0015932396054267883
1772656654675550200,1.68455029296875,-0.03125953674316406,0.0018454305827617645,-0.0025675147771835327
1772656654695308300,1.704308349609375,-0.033652305603027344,0.004507627338171005,0.001963771879673004
1772656654715066400,1.72406640625,-0.028865814208984375,-0.001533258706331253,0.004545070230960846
1772656654734824400,1.743824462890625,-0.03245735168457031,-0.0016489140689373016,0.0031491443514823914
1772656654754582500,1.76358251953125,-0.03485107421875,-0.0008070953190326691,-0.0001895502209663391
1772656654774340600,1.783340576171875,-0.03126049041748047,-0.0006856098771095276,-0.002510674297809601
1772656654794098700,1.8030986328125,-0.03365516662597656,0.0031742900609970093,0.004350669682025909
1772656654813856500,1.8228564453125,-0.026472091674804688,0.00009480118751525879,0.005588196218013763
1772656654833614600,1.842614501953125,-0.03365325927734375,-0.0003507100045681,0.0008119568228721619
1772656654853372700,1.86237255859375,-0.02647113800048828,-0.0011849142611026764,0.002229146659374237
1772656654873130800,1.882130859375,-0.027667999267578125,-0.005218915641307831,-0.004847310483455658
1772656654892888800,1.901888916015625,-0.030061721801757812,-0.00039643049240112305,-0.0005233213305473328
1772656654912647000,1.92164697265625,-0.030061721801757812,-0.0013232976198196411,0.000775262713432312
1772656654932405000,1.941405029296875,-0.027666091918945312,-0.0027245692908763885,-0.00046837329864501953
1772656654952163000,1.9611630859375,-0.030060768127441406,-0.0012247003614902496,0.004329189658164978
1772656654971921200,1.980921142578125,-0.030061721801757812,-0.00283605232834816,-0.0005062296986579895
1772656654991679000,2.000678955078125,-0.02646923065185547,-0.0022645369172096252,0.004232101142406464
1772656655011437000,2.02043701171875,-0.028863906860351562,-0.0014813058078289032,0.0007119476795196533
1772656655031195100,2.040195068359375,-0.02527332305908203,-0.005183923989534378,-0.002715080976486206
1772656655050953200,2.059953125,-0.02647113800048828,-0.0026952214539051056,-0.00039905309677124023
1772656655070711300,2.079711181640625,-0.03484916687011719,-0.00017990544438362122,0.00786842405796051
1772656655090469400,2.099469482421875,-0.0324554443359375,-0.002837691456079483,0.0020433515310287476
1772656655110227500,2.1192275390625,-0.028863906860351562,-0.0006497502326965332,0.0007985234260559082
1772656655129985500,2.138985595703125,-0.03006267547607422,-0.0021100901067256927,-0.0038559362292289734
1772656655149743600,2.15874365234375,-0.034850120544433594,-0.0004932805895805359,-0.0015394017100334167
1772656655169501700,2.178501708984375,-0.03125953674316406,-0.0015680529177188873,0.00684695690870285
1772656655189259500,2.198259521484375,-0.03485107421875,-0.002969924360513687,0.0034145787358283997
1772656655209017600,2.218017578125,-0.02886486053466797,-0.0017697885632514954,-0.0003733336925506592
1772656655228775700,2.237775634765625,-0.027667999267578125,0.0017327331006526947,-0.0027528032660484314
1772656655248533800,2.25753369140625,-0.02646923065185547,0.0018513835966587067,-0.005308553576469421
1772656655268291800,2.277291748046875,-0.030061721801757812,-0.0002400912344455719,0.0007477551698684692
1772656655288050000,2.2970498046875,-0.03365325927734375,0.003023136407136917,0.002852044999599457
1772656655307808000,2.31680810546875,-0.03006267547607422,-0.0029565468430519104,0.0019651055335998535
1772656655327566000,2.336566162109375,-0.032456398010253906,-0.0015164688229560852,0.004576012492179871
1772656655347324200,2.35632421875,-0.031261444091796875,-0.007910646498203278,-0.003729104995727539
1772656655367082200,2.376082275390625,-0.03365325927734375,-0.0006067492067813873,-0.00018481165170669556
1772656655386840000,2.395840087890625,-0.02886486053466797,-0.005358345806598663,-0.0037598982453346252
1772656655406598100,2.41559814453125,-0.0324554443359375,-0.003856554627418518,0.003163635730743408
1772656655426356200,2.435356201171875,-0.032454490661621094,-0.0005614906549453735,-0.0003837794065475464
1772656655446114300,2.4551142578125,-0.03125762939453125,-0.002861443907022476,-0.003960035741329193
1772656655465872400,2.474872314453125,-0.02646923065185547,-0.00270630419254303,-0.0004152730107307434
1772656655485630500,2.49463037109375,-0.027666091918945312,0.00010853633284568787,0.006533697247505188
1772656655505388500,2.514388427734375,-0.025272369384765625,-0.00150211900472641,-0.000604584813117981
1772656655525146600,2.534146728515625,-0.034847259521484375,-0.0030208751559257507,-0.0007101446390151978
1772656655544904700,2.55390478515625,-0.03365039825439453,-0.004211440682411194,0.00064811110496521
1772656655564662500,2.57366259765625,-0.030059814453125,-0.005041804164648056,0.0029929503798484802
1772656655584420600,2.593420654296875,-0.031256675720214844,-0.0006400197744369507,-0.0005263462662696838
1772656655604178700,2.6131787109375,-0.030059814453125,-0.006077177822589874,0.0042111873626708984
1772656655623936800,2.632936767578125,-0.03125572204589844,-0.0026924461126327515,-0.0007136091589927673
1772656655643694800,2.65269482421875,-0.03484535217285156,-0.004811316728591919,0.0030364766716957092
1772656655663453000,2.672452880859375,-0.02886199951171875,-0.004712790250778198,0.004092715680599213
1772656655683211000,2.6922109375,-0.03484630584716797,-0.0012678354978561401,0.003054313361644745
1772656655702969000,2.711968994140625,-0.03125762939453125,-0.0011139512062072754,0.002823963761329651
1772656655722727200,2.73172705078125,-0.03245258331298828,-0.0011404119431972504,0.0005915388464927673
1772656655742485200,2.7514853515625,-0.030059814453125,-0.0034101083874702454,-0.0014617368578910828
1772656655762243300,2.771243408203125,-0.02527141571044922,-0.0034041032195091248,0.0008845105767250061
1772656655782001200,2.791001220703125,-0.030058860778808594,-0.0010067299008369446,0.0006278231739997864
1772656655801759200,2.81075927734375,-0.038435935974121094,-0.003393694758415222,0.004199452698230743
1772656655821517300,2.830517333984375,-0.034844398498535156,-0.0012356936931610107,0.0006198063492774963
1772656655841275400,2.850275390625,-0.031253814697265625,0.0016079768538475037,0.005205914378166199
1772656655861033500,2.870033447265625,-0.031253814697265625,0.003791164606809616,0.0026711970567703247
1772656655880791600,2.88979150390625,-0.03364753723144531,-0.00009690597653388977,-0.004195652902126312
1772656655900549600,2.909549560546875,-0.03245067596435547,-0.002008400857448578,-0.0005321651697158813
1772656655920307700,2.9293076171875,-0.033646583557128906,-0.0010481029748916626,-0.004225447773933411
1772656655940065800,2.949065673828125,-0.026465415954589844,0.0025743208825588226,-0.0019667744636535645
1772656655959823600,2.96882373046875,-0.02885913848876953,0.0028733015060424805,0.0062685757875442505
1772656655979581700,2.988581787109375,-0.034844398498535156,-0.006483759731054306,0.0077693164348602295
1772656655999339800,3.00833984375,-0.030055999755859375,-0.000735066831111908,0.0005985051393508911
1772656656019097900,3.028097900390625,-0.02885913848876953,0.0018680915236473083,0.004047669470310211
1772656656038856000,3.04785595703125,-0.036040306091308594,-0.0009394250810146332,0.0030093491077423096
1772656656058614000,3.067614013671875,-0.03125190734863281,-0.0005184859037399292,0.00409572571516037
1772656656078372000,3.0873720703125,-0.03125190734863281,-0.0019255466759204865,0.0004616081714630127
1772656656098130200,3.107130126953125,-0.028858184814453125,-0.0018183477222919464,-0.0006560608744621277
1772656656117888300,3.12688818359375,-0.03484344482421875,-0.0007236041128635406,0.00046969205141067505
1772656656137646300,3.146646240234375,-0.03005504608154297,-0.0007936321198940277,-0.0018118247389793396
1772656656157404400,3.166404296875,-0.02885913848876953,0.005054924637079239,0.0005109533667564392
1772656656177162500,3.18616259765625,-0.030055999755859375,0.005245201289653778,0.006300032138824463
1772656656196920300,3.20592041015625,-0.031253814697265625,0.00017617270350456238,0.002965301275253296
1772656656216678400,3.225678466796875,-0.032448768615722656,-0.0006738491356372833,0.00390981137752533
1772656656236436500,3.2454365234375,-0.03005504608154297,0.0005974993109703064,0.0028478428721427917
1772656656256194600,3.265194580078125,-0.033646583557128906,0.001540541648864746,-0.004160195589065552
1772656656275952600,3.28495263671875,-0.02646350860595703,0.0017351694405078888,-0.004284948110580444
1772656656295710700,3.304710693359375,-0.032448768615722656,-0.0007288530468940735,-0.0032415613532066345
1772656656315468800,3.32446875,-0.03484153747558594,-0.0028921738266944885,0.006437383592128754
1772656656335227000,3.344226806640625,-0.02765941619873047,-0.0031095631420612335,0.00035325437784194946
1772656656354985000,3.36398486328125,-0.030053138732910156,0.0004703626036643982,0.0014508366584777832
1772656656374742800,3.38374267578125,-0.033644676208496094,0.0026994608342647552,0.0025742799043655396
1772656656394500900,3.4035009765625,-0.027660369873046875,0.00397099182009697,0.002650730311870575
1772656656414259000,3.423259033203125,-0.036040306091308594,-0.001126796007156372,-0.0031610578298568726
1772656656434017000,3.44301708984375,-0.03244781494140625,-0.003170788288116455,0.001526758074760437
1772656656453775000,3.462775146484375,-0.030054092407226562,0.004053615033626556,0.002382323145866394
1772656656473533200,3.482533203125,-0.03244781494140625,-0.0008366629481315613,0.0026979222893714905
1772656656493291300,3.502291259765625,-0.033644676208496094,0.006175301969051361,0.0023559406399726868
1772656656513049300,3.52204931640625,-0.030054092407226562,-0.0019742250442504883,0.0015351325273513794
1772656656532807400,3.541807373046875,-0.03125,0.002559121698141098,0.0002395138144493103
1772656656552565500,3.5615654296875,-0.034842491149902344,-0.002208177000284195,0.0012455806136131287
1772656656572323600,3.581323486328125,-0.025264739990234375,0.0025646165013313293,-0.0011862963438034058
1772656656592081700,3.60108154296875,-0.026462554931640625,-0.002052824944257736,0.0050211623311042786
1772656656611839500,3.620839599609375,-0.03125190734863281,0.0011657178401947021,-0.002020537853240967
1772656656631597600,3.64059765625,-0.03484344482421875,-0.0035713911056518555,-0.000743769109249115
1772656656651355600,3.660355712890625,-0.034842491149902344,-0.00498204305768013,-0.0032317936420440674
1772656656671113700,3.68011376953125,-0.031250953674316406,0.00003073364496231079,-0.0046119168400764465
1772656656690871800,3.699871826171875,-0.03244781494140625,0.0038727596402168274,0.003632962703704834
1772656656710630000,3.7196298828125,-0.030053138732910156,-0.004246708005666733,0.0013467222452163696
1772656656730388000,3.739387939453125,-0.03244781494140625,0.00411561131477356,0.0024702176451683044
1772656656750146000,3.75914599609375,-0.025266647338867188,0.004098072648048401,0.0023965835571289062
1772656656769904000,3.778904052734375,-0.034842491149902344,-0.005306396633386612,0.00035209208726882935
1772656656789662200,3.798662109375,-0.030053138732910156,-0.003997858613729477,-0.0008239969611167908
1772656656809420000,3.818419921875,-0.03244590759277344,-0.001764189451932907,-0.0021172761917114258
1772656656829178000,3.83817822265625,-0.03364372253417969,-0.0030876807868480682,-0.0008992031216621399
1772656656848936200,3.857936279296875,-0.032446861267089844,0.0020445771515369415,0.006204448640346527
1772656656868694300,3.8776943359375,-0.034839630126953125,0.0019379332661628723,0.004901520907878876
1772656656888452400,3.897452392578125,-0.032446861267089844,-0.000677153468132019,0.0001325458288192749
1772656656908210400,3.91721044921875,-0.03364276885986328,-0.000420156866312027,-0.0000561252236366272
1772656656927968500,3.936968505859375,-0.03364372253417969,0.004201095551252365,-0.002426840364933014
1772656656947726600,3.9567265625,-0.032446861267089844,-0.001585308462381363,-0.0009997636079788208
1772656656967484700,3.976484619140625,-0.03483867645263672,-0.0006082095205783844,0.00018897652626037598
1772656656987242800,3.99624267578125,-0.033641815185546875,-0.00035178661346435547,-0.002241387963294983
1772656657007000800,4.016000732421875,-0.033641815185546875,-0.00012362748384475708,0.005999833345413208
1772656657026758700,4.035758544921875,-0.030051231384277344,-0.004021044820547104,-0.0010117515921592712
1772656657046516700,4.055516845703125,-0.031249046325683594,0.0043992772698402405,0.007078282535076141
1772656657066274800,4.07527490234375,-0.031248092651367188,-0.0023746266961097717,0.003800719976425171
1772656657086033000,4.095032958984375,-0.031248092651367188,-0.00366847962141037,0.0025610029697418213
1772656657105791000,4.114791015625,-0.026458740234375,-0.003648027777671814,-0.0010681897401809692
1772656657125549000,4.134549072265625,-0.030048370361328125,-0.0021323971450328827,-0.0012551695108413696
1772656657145307100,4.15430712890625,-0.03722953796386719,0.0018299594521522522,0.0059693604707717896
1772656657165065200,4.174065185546875,-0.036032676696777344,-0.0012913160026073456,-0.002445921301841736
1772656657184823300,4.1938232421875,-0.03004741668701172,0.00168672576546669,0.009290985763072968
1772656657204581400,4.213581298828125,-0.030046463012695312,0.001430954784154892,-0.00023470818996429443
1772656657224339500,4.23333935546875,-0.032441139221191406,-0.0011828802525997162,-0.00245608389377594
1772656657244097500,4.25309765625,-0.03004741668701172,0.0012559480965137482,0.0024073943495750427
1772656657263855400,4.27285546875,-0.032440185546875,-0.0008809790015220642,-0.0014298781752586365
1772656657283613400,4.292613525390625,-0.03124237060546875,0.00036265701055526733,-0.00027179718017578125
1772656657303371500,4.31237158203125,-0.033637046813964844,-0.0009667575359344482,-0.0036289915442466736
1772656657323129600,4.332129638671875,-0.03243827819824219,0.003981500864028931,-0.001421600580215454
1772656657342887700,4.3518876953125,-0.03842449188232422,0.0016311071813106537,-0.004777595400810242
1772656657362645800,4.371645751953125,-0.031241416931152344,0.0008979178965091705,0.0023620352149009705
1772656657382403800,4.39140380859375,-0.031241416931152344,0.001961570233106613,0.0011239275336265564
1772656657402162000,4.411161865234375,-0.02765178680419922,-0.0042071156203746796,-0.005970373749732971
1772656657421920000,4.430919921875,-0.032439231872558594,0.002957116812467575,0.0033519938588142395
1772656657441678000,4.450677978515625,-0.0300445556640625,-0.0031259767711162567,-0.0001878291368484497
1772656657461436000,4.470435791015625,-0.03243732452392578,0.0020050108432769775,0.005808129906654358
1772656657481194000,4.490194091796875,-0.03243827819824219,0.0042304061353206635,0.002083703875541687
1772656657500952000,4.5099521484375,-0.03722667694091797,0.0003278963267803192,-0.007311910390853882
1772656657520710100,4.529710205078125,-0.03243827819824219,0.0005829706788063049,-0.005039900541305542
1772656657540468200,4.54946826171875,-0.025255203247070312,-0.00394323468208313,-0.0013954788446426392
1772656657560226300,4.569226318359375,-0.02884674072265625,0.0009493231773376465,-0.0002688392996788025
1772656657579984400,4.588984375,-0.03243541717529297,0.001112569123506546,-0.0014720335602760315
1772656657599742500,4.608742431640625,-0.03123760223388672,-0.000965416431427002,0.002135336399078369
1772656657619500500,4.62850048828125,-0.03363227844238281,-0.0023195967078208923,-0.0003284364938735962
1772656657639258600,4.648258544921875,-0.03243446350097656,0.0037656016647815704,0.0008276551961898804
1772656657659016700,4.6680166015625,-0.03003978729248047,0.007542122155427933,0.004014894366264343
1772656657678774800,4.68777490234375,-0.031236648559570312,0.003933202475309372,0.0017876476049423218
1772656657698532600,4.70753271484375,-0.03363037109375,0.0014343559741973877,0.0044936612248420715
1772656657718290700,4.727290771484375,-0.03363037109375,0.0014795884490013123,0.0032522231340408325
1772656657738048800,4.747048828125,-0.03961467742919922,-0.0019107498228549957,0.00553923100233078
1772656657757806800,4.766806884765625,-0.03602409362792969,-0.0009326338768005371,0.0007697418332099915
1772656657777565000,4.78656494140625,-0.03363037109375,0.004823986440896988,-0.0017513930797576904
1772656657797323000,4.806322998046875,-0.031235694885253906,-0.0007564760744571686,0.0029012784361839294
1772656657817081000,4.8260810546875,-0.03482627868652344,-0.002083912491798401,-0.0014471784234046936
1772656657836839200,4.845839111328125,-0.03243255615234375,-0.0005396343767642975,0.0020420029759407043
1772656657856597000,4.865596923828125,-0.03482627868652344,-0.0008189082145690918,-0.0004815012216567993
1772656657876355000,4.88535498046875,-0.03602313995361328,0.0012548081576824188,-0.0051496997475624084
1772656657896113200,4.905113037109375,-0.036025047302246094,0.0025612227618694305,-0.0014693811535835266
1772656657915871200,4.924871337890625,-0.03243541717529297,0.008287433534860611,-0.0003660619258880615
1772656657935629300,4.94462939453125,-0.03123760223388672,-0.002070236951112747,0.0033686012029647827
1772656657955387400,4.964387451171875,-0.036025047302246094,0.003482978790998459,-0.00389833003282547
1772656657975145500,4.9841455078125,-0.031238555908203125,-0.0023550763726234436,0.002169370651245117
1772656657994903600,5.003903564453125,-0.03841876983642578,-0.004867054522037506,-0.0039000362157821655
1772656658014661600,5.02366162109375,-0.03363037109375,0.0021855607628822327,-0.00293828547000885
1772656658034419700,5.043419677734375,-0.03482627868652344,-0.00003523379564285278,-0.0017384886741638184
1772656658054177800,5.063177734375,-0.03362846374511719,0.00040435791015625,0.00420784205198288
1772656658073935600,5.082935546875,-0.032431602478027344,0.002817310392856598,0.005274184048175812
1772656658093693700,5.102693603515625,-0.03243064880371094,-0.0011976025998592377,-0.0005920082330703735
1772656658113451800,5.12245166015625,-0.031233787536621094,0.0004716254770755768,0.0017679929733276367
1772656658133209900,5.1422099609375,-0.03721904754638672,0.0035131461918354034,-0.0054955631494522095
1772656658152968000,5.161968017578125,-0.03602123260498047,-0.0013679824769496918,0.00039812177419662476
1772656658172726000,5.18172607421875,-0.030035972595214844,0.0021559782326221466,0.0004252716898918152
1772656658192484000,5.201484130859375,-0.027643203735351562,-0.002216152846813202,0.004036910831928253
1772656658212242200,5.2212421875,-0.028839111328125,-0.004611462354660034,-0.004366986453533173
1772656658232000300,5.241000244140625,-0.034824371337890625,-0.006310466676950455,-0.004391036927700043
1772656658251758300,5.26075830078125,-0.026447296142578125,0.0008933544158935547,-0.005522899329662323
1772656658271516200,5.28051611328125,-0.03243255615234375,0.0010959208011627197,0.0028201863169670105
1772656658291274200,5.300274169921875,-0.03482627868652344,-0.00016765296459197998,-0.0006515979766845703
1772656658311032300,5.3200322265625,-0.036025047302246094,-0.0013392195105552673,0.0018260404467582703
1772656658330790400,5.339790283203125,-0.03482627868652344,0.003257080912590027,0.0016416236758232117
1772656658350548500,5.359548583984375,-0.03003978729248047,0.0007346644997596741,-0.0017103403806686401
1772656658370306600,5.379306640625,-0.037222862243652344,-0.0013025030493736267,0.0055493637919425964
1772656658390064600,5.399064697265625,-0.03722381591796875,0.005593802779912949,0.002878420054912567
1772656658409822500,5.418822509765625,-0.03004169464111328,-0.0005766414105892181,-0.006301023066043854
1772656658429580500,5.43858056640625,-0.038420677185058594,-0.0026748143136501312,-0.000287763774394989
1772656658449338600,5.458338623046875,-0.03004169464111328,-0.00004721060395240784,0.002189949154853821
1772656658469096700,5.4780966796875,-0.031238555908203125,0.0008721128106117249,-0.0013711601495742798
1772656658488854800,5.497854736328125,-0.03363227844238281,0.0035231150686740875,0.0020350664854049683
1772656658508612900,5.51761279296875,-0.036026954650878906,0.004437059164047241,-0.0004486069083213806
1772656658528371000,5.537370849609375,-0.03003978729248047,0.0011061057448387146,0.0008053407073020935
1772656658548129000,5.55712890625,-0.03363323211669922,-0.005084063857793808,-0.0015586316585540771
1772656658567887000,5.57688720703125,-0.03483104705810547,-0.000391397625207901,-0.0004242360591888428
1772656658587645000,5.59664501953125,-0.039620399475097656,0.002977021038532257,-0.0051167309284210205
1772656658607403000,5.616403076171875,-0.038422584533691406,-0.005311284214258194,-0.008515782654285431
1772656658627161000,5.6361611328125,-0.03602886199951172,-0.0027678199112415314,0.0010858848690986633
1772656658646919200,5.655919189453125,-0.03363513946533203,0.004310905933380127,0.00206640362739563
1772656658666677200,5.67567724609375,-0.03243827819824219,0.003039497882127762,0.0010438859462738037
1772656658686435300,5.695435302734375,-0.026452064514160156,-0.0027688108384609222,-0.0025433599948883057
1772656658706193400,5.715193359375,-0.03483104705810547,0.00308377668261528,0.0021185725927352905
1772656658725951500,5.734951416015625,-0.02884674072265625,0.001698363572359085,-0.00496751070022583
1772656658745709300,5.754709228515625,-0.031241416931152344,-0.004195839166641235,-0.004840068519115448
1772656658765467400,5.77446728515625,-0.03483104705810547,0.0054839663207530975,0.0009029954671859741
1772656658785225500,5.7942255859375,-0.03722572326660156,-0.0004465468227863312,0.0034084245562553406
1772656658804983600,5.813983642578125,-0.030042648315429688,0.0010699518024921417,0.00788184255361557
1772656658824741600,5.83374169921875,-0.038421630859375,-0.0019242875277996063,-0.00276879221200943
1772656658844499700,5.853499755859375,-0.039620399475097656,0.002555564045906067,-0.0014230161905288696
1772656658864257800,5.8732578125,-0.030043601989746094,-0.004386071115732193,-0.0026464685797691345
1772656658884015900,5.893015869140625,-0.03722572326660156,0.00039478763937950134,-0.005002968013286591
1772656658903773700,5.912773681640625,-0.034832000732421875,-0.0008049458265304565,-0.0038891956210136414
1772656658923531800,5.93253173828125,-0.03602886199951172,-0.0020033158361911774,0.0007161572575569153
1772656658943289900,5.952289794921875,-0.034832000732421875,0.0029510818421840668,0.006535157561302185
1772656658963048000,5.9720478515625,-0.039623260498046875,0.0036294758319854736,0.0033240988850593567
1772656658982806000,5.991805908203125,-0.033637046813964844,-0.003284238278865814,0.0009864717721939087
1772656659002564000,6.011564208984375,-0.034834861755371094,-0.0062110573053359985,-0.006038665771484375
1772656659022322200,6.031322265625,-0.03363990783691406,0.000009045004844665527,0.0012278184294700623
1772656659042080000,6.051080078125,-0.039626121520996094,-0.007463283836841583,0.00352400541305542
1772656659061838000,6.070838134765625,-0.036032676696777344,-0.0014231912791728973,-0.0024877116084098816
1772656659081596200,6.09059619140625,-0.034836769104003906,-0.007281336933374405,0.004771851003170013
1772656659101354200,6.110354248046875,-0.038425445556640625,-0.00022536516189575195,0.0033588185906410217
1772656659121112300,6.1301123046875,-0.033637046813964844,0.005921263247728348,0.0028727054595947266
1772656659140870400,6.149870361328125,-0.037227630615234375,-0.0002797842025756836,-0.003943726420402527
1772656659160628500,6.16962841796875,-0.03603076934814453,-0.004855386912822723,-0.0027143731713294983
1772656659180386300,6.18938623046875,-0.037227630615234375,-0.000043798238039016724,0.0017706602811813354
1772656659200144400,6.209144287109375,-0.0300445556640625,0.0012331493198871613,0.0003915727138519287
1772656659219902500,6.22890234375,-0.03363513946533203,-0.001194540411233902,0.0006579160690307617
1772656659239660500,6.24866064453125,-0.03722667694091797,0.002057347446680069,-0.001646295189857483
1772656659259418600,6.268418701171875,-0.0300445556640625,0.002226840704679489,-0.0031675100326538086
1772656659279176700,6.2881767578125,-0.02884674072265625,-0.0011891722679138184,-0.0018487945199012756
1772656659298934500,6.3079345703125,-0.03602886199951172,-0.0000871121883392334,0.003978505730628967
1772656659318692600,6.327692626953125,-0.03483104705810547,-0.0013190805912017822,-0.0018858015537261963
1772656659338450700,6.34745068359375,-0.03602790832519531,-0.003741815686225891,0.0016112402081489563
1772656659358208800,6.367208740234375,-0.03363323211669922,0.004532806575298309,0.0024721771478652954
1772656659377966800,6.386966796875,-0.038420677185058594,-0.0028886012732982635,0.00022673606872558594
1772656659397725000,6.406724853515625,-0.0360260009765625,-0.0017231553792953491,0.00025413185358047485
1772656659417482800,6.426482666015625,-0.03841972351074219,-0.007521569728851318,0.0025517046451568604
1772656659437240800,6.44624072265625,-0.036026954650878906,0.0028512515127658844,-0.0009511411190032959
1772656659456999000,6.4659990234375,-0.03602790832519531,0.00039194151759147644,0.0014081746339797974
1772656659476757000,6.485757080078125,-0.037224769592285156,-0.004186093807220459,-0.0020916983485221863
1772656659496515000,6.50551513671875,-0.037224769592285156,-0.00027146562933921814,0.005167052149772644
1772656659516273200,6.525273193359375,-0.03243732452392578,-0.0020091086626052856,-0.005686037242412567
1772656659536031000,6.545031005859375,-0.038420677185058594,0.0033041760325431824,0.004837267100811005
1772656659555789000,6.5647890625,-0.036026954650878906,-0.0028609484434127808,-0.0010280236601829529
1772656659575547100,6.584547119140625,-0.03483009338378906,-0.004086241126060486,-0.004523605108261108
1772656659595305200,6.60430517578125,-0.03722381591796875,0.0031709931790828705,0.0012771785259246826
1772656659615063300,6.624063232421875,-0.034829139709472656,-0.002844996750354767,-0.0010562986135482788
1772656659634821400,6.6438212890625,-0.031238555908203125,-0.0021563470363616943,-0.002339407801628113
1772656659654579200,6.6635791015625,-0.03123950958251953,0.0003802962601184845,0.0021718814969062805
1772656659674337300,6.683337158203125,-0.036026954650878906,-0.0008172206580638885,-0.002342239022254944
1772656659694095400,6.703095458984375,-0.03482818603515625,0.00042832642793655396,-0.0013156309723854065
1772656659713853400,6.722853515625,-0.03243541717529297,-0.003017708659172058,-0.002322964370250702
1772656659733611500,6.742611572265625,-0.034829139709472656,-0.0018291398882865906,0.0011506974697113037
1772656659753369300,6.762369384765625,-0.03602790832519531,0.00171642005443573,-0.002490527927875519
1772656659773127400,6.78212744140625,-0.03482818603515625,-0.0005087889730930328,-0.002269253134727478
1772656659792885500,6.801885498046875,-0.03722381591796875,-0.001920986920595169,-0.004500254988670349
1772656659812643600,6.8216435546875,-0.03602790832519531,-0.0030900277197360992,0.002594009041786194
1772656659832401700,6.841401611328125,-0.032436370849609375,-0.0019896067678928375,-0.004484303295612335
1772656659852159500,6.861159423828125,-0.03123950958251953,-0.0038773491978645325,0.0001305714249610901
1772656659871917600,6.88091748046875,-0.037224769592285156,0.0010475069284439087,0.004645012319087982
1772656659891675600,6.900675537109375,-0.039618492126464844,0.0004388280212879181,0.0012679621577262878
1772656659911433700,6.920433837890625,-0.03602790832519531,0.0027884095907211304,-0.0035368725657463074
1772656659931191800,6.94019189453125,-0.03363227844238281,-0.003141392022371292,0.00017983466386795044
1772656659950950000,6.959949951171875,-0.03602886199951172,-0.0005491040647029877,0.002662248909473419
1772656659970708000,6.9797080078125,-0.03363227844238281,-0.004024732857942581,0.0014379993081092834
1772656659990465800,6.9994658203125,-0.04081439971923828,0.004244986921548843,-0.00014107674360275269
1772656660010223900,7.019223876953125,-0.034827232360839844,-0.0026153847575187683,-0.0010606274008750916
1772656660029982000,7.03898193359375,-0.03363227844238281,0.0031124092638492584,-0.0024573206901550293
1772656660049740000,7.058739990234375,-0.031238555908203125,0.009275566786527634,0.001076139509677887
1772656660069497900,7.078497802734375,-0.039618492126464844,-0.003893505781888962,0.0003628283739089966
1772656660089256000,7.098255859375,-0.03363227844238281,0.000882517546415329,0.002578064799308777
1772656660109014000,7.118013916015625,-0.03961658477783203,-0.0024456195533275604,0.002639085054397583
1772656660128772000,7.137772216796875,-0.036025047302246094,-0.003676801919937134,-0.00216849148273468
1772656660148530200,7.1575302734375,-0.036025047302246094,0.001423317939043045,-0.002129480242729187
1772656660168288000,7.1772880859375,-0.034827232360839844,-0.0013048313558101654,-0.003460988402366638
1772656660188046000,7.197046142578125,-0.03722095489501953,0.000030081719160079956,0.0035395920276641846
1772656660207804200,7.21680419921875,-0.03602313995361328,0.004499226808547974,-0.0036586150527000427
1772656660227562200,7.236562255859375,-0.03363037109375,-0.0023314058780670166,-0.0011368989944458008
1772656660247320300,7.2563203125,-0.03362751007080078,-0.0023082904517650604,-0.003605946898460388
1772656660267078100,7.276078125,-0.033626556396484375,-0.0007028616964817047,0.005725301802158356
1772656660286836200,7.295836181640625,-0.03362560272216797,0.005948476493358612,-0.006522819399833679
1772656660306594300,7.31559423828125,-0.033626556396484375,-0.002553369849920273,-0.008622497320175171
1772656660326352400,7.335352294921875,-0.034824371337890625,-0.0032450370490550995,0.0007790699601173401
1772656660346110500,7.3551103515625,-0.03482341766357422,0.00006832927465438843,-0.0014856606721878052
1772656660365868300,7.374868408203125,-0.03243064880371094,0.0022072605788707733,-0.007450513541698456
1772656660385626400,7.39462646484375,-0.03482341766357422,0.00027769431471824646,-0.00026088953018188477
1772656660405384400,7.414384521484375,-0.03721809387207031,-0.0036731399595737457,-0.00613771378993988
1772656660425142500,7.434142578125,-0.03482341766357422,-0.0022135451436042786,-0.004953660070896149
1772656660444900600,7.453900634765625,-0.03242969512939453,0.0018122941255569458,0.004498757421970367
1772656660464658400,7.473658447265625,-0.03602123260498047,-0.002142302691936493,0.002225920557975769
1772656660484416500,7.49341650390625,-0.036022186279296875,0.000032179057598114014,-0.006104908883571625
1772656660504174600,7.513174560546875,-0.03123188018798828,-0.004252716898918152,-0.0014870688319206238
1772656660523932700,7.5329326171875,-0.033626556396484375,0.002704080194234848,-0.0038375332951545715
1772656660543690500,7.5526904296875,-0.03602027893066406,0.002687472850084305,-0.0061828941106796265
1772656660563448600,7.572448486328125,-0.03602123260498047,0.0018356814980506897,0.004348874092102051
1772656660583206700,7.59220654296875,-0.03602123260498047,-0.0007479116320610046,-0.0013890936970710754
1772656660602964700,7.61196484375,-0.03602027893066406,-0.0004885829985141754,-0.0012602508068084717
1772656660622722600,7.63172265625,-0.036019325256347656,0.005622211843729019,0.0019436478614807129
1772656660642480600,7.651480712890625,-0.037217140197753906,-0.00395612046122551,-0.0013102144002914429
1772656660662238700,7.67123876953125,-0.03482246398925781,-0.0016584992408752441,-0.0012717172503471375
1772656660681996800,7.690996826171875,-0.03602027893066406,-0.0018143169581890106,-0.0024279654026031494
1772656660701755000,7.7107548828125,-0.033626556396484375,-0.0002371557056903839,0.002091825008392334
1772656660721512700,7.7305126953125,-0.031232833862304688,-0.0017402879893779755,-0.005939789116382599
1772656660741270800,7.750270751953125,-0.03362751007080078,0.002045031636953354,-0.0012038275599479675
1772656660761028900,7.77002880859375,-0.038414955139160156,0.002207007259130478,0.0013719573616981506
1772656660780787000,7.789786865234375,-0.039612770080566406,0.0031469129025936127,0.0011958479881286621
1772656660800544800,7.809544677734375,-0.03242969512939453,-0.002394203096628189,0.004752680659294128
1772656660820302800,7.829302734375,-0.03482341766357422,0.0008855462074279785,-0.003583177924156189
1772656660840061000,7.84906103515625,-0.039612770080566406,0.0022167079150676727,0.0047302693128585815
1772656660859819000,7.868819091796875,-0.0312347412109375,0.003187652677297592,-0.0025013163685798645
1772656660879576800,7.888576904296875,-0.03243255615234375,0.0009036175906658173,0.0012133121490478516
1772656660899335000,7.9083349609375,-0.026447296142578125,0.005638528615236282,0.0010661184787750244
1772656660919093000,7.928093017578125,-0.03722190856933594,-0.0005637966096401215,-0.0020949169993400574
1772656660938851000,7.94785107421875,-0.043206214904785156,0.00035395100712776184,0.0014097318053245544
1772656660958609000,7.96760888671875,-0.039615631103515625,-0.0018060654401779175,0.0026952624320983887
1772656660978367000,7.987366943359375,-0.03961753845214844,0.00030881166458129883,0.00042578577995300293
1772656660998125000,8.007125,-0.0360260009765625,0.003790348768234253,-0.002137094736099243
1772656661017883100,8.026883056640624,-0.03602409362792969,0.0006634071469306946,0.0038152337074279785
1772656661037641000,8.046640869140624,-0.03722190856933594,0.005278967320919037,-0.00009918212890625
1772656661057399000,8.06639892578125,-0.03841876983642578,-0.0018197596073150635,0.0014878809452056885
1772656661077157000,8.0861572265625,-0.031236648559570312,0.00047121569514274597,-0.0033171474933624268
1772656661096915200,8.105915283203124,-0.036025047302246094,-0.0015427060425281525,0.00036798417568206787
1772656661116673000,8.125673095703124,-0.028841018676757812,-0.0002061501145362854,0.0038672685623168945
1772656661136431000,8.14543115234375,-0.044403076171875,-0.00042445212602615356,0.00028255581855773926
1772656661156189200,8.165189208984375,-0.03722095489501953,0.0028824955224990845,0.0011230036616325378
1772656661175947300,8.184947265625,-0.03722095489501953,-0.0005087330937385559,-0.0021876469254493713
1772656661195705000,8.204705078125,-0.03602313995361328,-0.0013849735260009766,0.006154052913188934
1772656661215463200,8.224463134765625,-0.036025047302246094,0.003176949918270111,-0.0008133500814437866
1772656661235221200,8.24422119140625,-0.03602409362792969,-0.00042276084423065186,-0.002029232680797577
1772656661254979000,8.26397900390625,-0.03363037109375,-0.003029763698577881,-0.004496365785598755
1772656661274737200,8.283737060546875,-0.034827232360839844,0.0032962001860141754,0.003819212317466736
1772656661294495200,8.3034951171875,-0.03363037109375,0.002111148089170456,0.0027412697672843933
1772656661314253300,8.32325341796875,-0.03003978729248047,0.003141172230243683,0.0024718493223190308
1772656661334011100,8.34301123046875,-0.03961753845214844,0.0029159821569919586,-0.0007235631346702576
1772656661353769200,8.362769287109375,-0.034832000732421875,0.0018857866525650024,-0.0008076950907707214
1772656661373527300,8.38252734375,-0.03483104705810547,-0.0015939250588417053,0.0033190473914146423
1772656661393285000,8.40228515625,-0.034832000732421875,0.0018342845141887665,-0.001697257161140442
1772656661413043200,8.422043212890625,-0.038420677185058594,0.004235941916704178,0.0005219802260398865
1772656661432801300,8.44180126953125,-0.036026954650878906,0.0006912760436534882,-0.0004893913865089417
1772656661452559400,8.461559326171875,-0.036026954650878906,0.004380475729703903,-0.0006021782755851746
1772656661472317200,8.481317138671875,-0.032433509826660156,0.0058747828006744385,-0.0020295381546020508
1772656661492075300,8.5010751953125,-0.03243446350097656,0.007291175425052643,0.00039061158895492554
1772656661511833300,8.520833251953125,-0.039615631103515625,0.0011806897819042206,-0.0005975440144538879
1772656661531591400,8.54059130859375,-0.033629417419433594,-0.002317763864994049,-0.0018223002552986145
1772656661551349200,8.560349365234375,-0.04200935363769531,-0.004613209515810013,-0.00170058012008667
1772656661571107300,8.580107421875,-0.034824371337890625,0.0041716620326042175,0.0014068037271499634
1772656661590865400,8.599865478515625,-0.03841590881347656,-0.0008549131453037262,0.0017288774251937866
1772656661610623500,8.61962353515625,-0.036022186279296875,-0.0007658861577510834,-0.0016815364360809326
1772656661630381300,8.63938134765625,-0.03243255615234375,0.0005483292043209076,0.0004984885454177856
1772656661650139400,8.659139404296875,-0.03961372375488281,-0.0005600787699222565,0.0030932873487472534
1772656661669897500,8.6788974609375,-0.037220001220703125,0.0029031597077846527,-0.004142351448535919
1772656661689655300,8.6986552734375,-0.033629417419433594,0.0038517415523529053,-0.0052994489669799805
1772656661709413400,8.718413330078125,-0.03243064880371094,0.0006456561386585236,0.000475175678730011
1772656661729171500,8.73817138671875,-0.03482341766357422,0.006642322987318039,-0.0009018853306770325
1772656661748929300,8.75792919921875,-0.040810585021972656,0.002955969423055649,0.0016659796237945557
1772656661768687400,8.777687255859375,-0.03242969512939453,0.00038028135895729065,0.00031785666942596436
1772656661788445400,8.797445556640625,-0.04320335388183594,-0.0021297335624694824,0.00034430623054504395
1772656661808203300,8.817203369140625,-0.039612770080566406,0.0001151934266090393,-0.0030625686049461365
1772656661827961300,8.83696142578125,-0.03243064880371094,-0.0008698701858520508,0.0016901418566703796
1772656661847719400,8.856719482421875,-0.03721904754638672,0.0014008060097694397,0.0027588680386543274
1772656661867477500,8.8764775390625,-0.036022186279296875,-0.0018586106598377228,0.002987705171108246
1772656661887235300,8.8962353515625,-0.036170005798339844,0.0027702972292900085,-0.00099153071641922
1772656661906993400,8.915993408203125,-0.037815093994140625,0.004345111548900604,0.0012187287211418152
1772656661926751500,8.93575146484375,-0.03781604766845703,-0.00435362383723259,-0.0056234970688819885
1772656661946509300,8.95550927734375,-0.03542137145996094,0.001774381846189499,-0.0009552240371704102
1772656661966267400,8.975267333984375,-0.03661918640136719,-0.002621464431285858,0.006388328969478607
1772656661986025500,8.995025390625,-0.0294342041015625,-0.000022105872631072998,0.0013559386134147644
1772656662005783300,9.014783203125,-0.04140472412109375,-0.00005295872688293457,0.002306520938873291
1772656662025541400,9.034541259765625,-0.03063201904296875,-0.0062319375574588776,-0.0043890997767448425
1772656662045299500,9.054299560546875,-0.033026695251464844,0.003306455910205841,0.0035605505108833313
1772656662065057300,9.074057373046875,-0.03901100158691406,-0.0005544237792491913,0.0024751201272010803
1772656662084815400,9.0938154296875,-0.039012908935546875,0.0020433329045772552,0.0015691742300987244
1772656662104573400,9.113573486328125,-0.03856182098388672,0.002904120832681656,-0.0009725391864776611
1772656662124331300,9.133331298828125,-0.03392601013183594,0.004268616437911987,0.0012648329138755798
1772656662144089300,9.15308935546875,-0.034974098205566406,0.0004950501024723053,-0.0031304284930229187
1772656662163847400,9.172847412109375,-0.03617095947265625,-0.0015991069376468658,-0.0030958354473114014
1772656662183605200,9.192605224609375,-0.037517547607421875,0.001598212867975235,-0.003210797905921936
1772656662203363300,9.21236328125,-0.03871440887451172,0.005236629396677017,-0.0020997226238250732
1772656662223121400,9.232121337890625,-0.034824371337890625,-0.005227670073509216,-0.004098072648048401
1772656662242879200,9.251879150390625,-0.03512382507324219,0.0018282420933246613,-0.0045369938015937805
1772656662262637300,9.27163720703125,-0.03362560272216797,0.0007161982357501984,0.0025165006518363953
1772656662282395400,9.2913955078125,-0.03871440887451172,-0.0016736015677452087,-0.0008957237005233765
1772656662302153200,9.3111533203125,-0.03781700134277344,-0.002776574343442917,-0.0018523335456848145
1772656662321911300,9.330911376953125,-0.03647041320800781,0.0006645321846008301,0.0028070583939552307
1772656662341669400,9.35066943359375,-0.040210723876953125,0.0044828131794929504,0.003931693732738495
1772656662361427200,9.37042724609375,-0.03302955627441406,-0.0002175159752368927,0.0016512498259544373
1772656662381185300,9.390185302734375,-0.04140949249267578,0.004470061510801315,0.0005393475294113159
1772656662400943400,9.409943359375,-0.043804168701171875,0.0041902512311935425,-0.0005693808197975159
1772656662420701200,9.429701171875,-0.04141044616699219,-0.0017308183014392853,0.0019377321004867554
1772656662440459300,9.449459228515625,-0.03662109375,0.005258478224277496,-0.004277683794498444
1772656662460217300,9.46921728515625,-0.0390167236328125,0.004379186779260635,0.0004465952515602112
1772656662479975200,9.48897509765625,-0.033031463623046875,0.003979947417974472,-0.005675122141838074
1772656662499733200,9.508733154296875,-0.03542518615722656,0.0005046837031841278,-0.001903235912322998
1772656662519491000,9.528490966796875,-0.03422832489013672,0.004054859280586243,-0.0008856281638145447
1772656662539249200,9.548249267578125,-0.03422737121582031,0.0013262256979942322,-0.005661182105541229
1772656662559007200,9.56800732421875,-0.037817955017089844,0.0019184313714504242,0.003992415964603424
1772656662578765000,9.58776513671875,-0.036620140075683594,0.00418081134557724,0.0002781227231025696
1772656662598523100,9.607523193359375,-0.04021167755126953,0.00497668981552124,-0.0055756717920303345
1772656662618281200,9.62728125,-0.03901386260986328,0.0002161674201488495,-0.006697863340377808
1772656662638039000,9.6470390625,-0.035422325134277344,0.004274357110261917,0.00009398162364959717
1772656662657797000,9.666797119140625,-0.042603492736816406,-0.0005741119384765625,-0.0019687265157699585
1772656662677555200,9.68655517578125,-0.039012908935546875,0.0006811991333961487,0.0014373883605003357
1772656662697313000,9.70631298828125,-0.03302955627441406,0.0026801563799381256,-0.003523215651512146
1772656662717071000,9.726071044921875,-0.035422325134277344,0.00016469135880470276,-0.005726128816604614
1772656662736829000,9.745828857421875,-0.03407764434814453,-0.0008208043873310089,0.000494144856929779
1772656662756587000,9.7655869140625,-0.04141044616699219,0.0025248005986213684,-0.002017296850681305
1772656662776345000,9.785344970703125,-0.03422737121582031,0.0049660056829452515,0.00013565272092819214
1772656662796103000,9.80510302734375,-0.034076690673828125,-0.0024491101503372192,-0.002253122627735138
1772656662815861000,9.824861083984375,-0.03781700134277344,-0.0026232339441776276,-0.006906650960445404
1772656662835618800,9.844618896484375,-0.04021167755126953,0.0025774575769901276,0.005974389612674713
1772656662855377000,9.864376953125,-0.042606353759765625,0.0007495731115341187,-0.004520513117313385
1772656662875135000,9.884135009765625,-0.03542327880859375,0.005969766527414322,-0.0012570470571517944
1772656662894892800,9.903892822265625,-0.040210723876953125,-0.0009419023990631104,-0.0023898184299468994
1772656662914651000,9.92365087890625,-0.03542041778564453,-0.002195749431848526,-0.003578774631023407
1772656662934409000,9.943408935546875,-0.03422355651855469,0.004016507416963577,-0.001512177288532257
1772656662954166800,9.963166748046875,-0.039010047912597656,0.00009488314390182495,-0.005032449960708618
1772656662973924900,9.9829248046875,-0.03781414031982422,0.002572733908891678,0.0018727928400039673
1772656662993682700,10.0026826171875,-0.03542137145996094,-0.0020652860403060913,0.004549965262413025
1772656663013440800,10.022440673828125,-0.04020881652832031,0.0026852302253246307,0.0045065805315971375
1772656663033198800,10.04219873046875,-0.03661823272705078,-0.0010252855718135834,-0.006075158715248108
1772656663052956700,10.061956787109375,-0.03661918640136719,-0.0012019388377666473,-0.0058831945061683655
1772656663072714800,10.08171484375,-0.04140663146972656,-0.002332683652639389,-0.002376966178417206
1772656663092472600,10.10147265625,-0.034224510192871094,0.00020788982510566711,-0.00368703156709671
1772656663112230700,10.121230712890625,-0.041405677795410156,0.002474326640367508,-0.00012774020433425903
1772656663131988700,10.14098876953125,-0.036617279052734375,0.0014519542455673218,-0.0015024840831756592
1772656663151746600,10.16074658203125,-0.03661632537841797,0.00016478821635246277,0.0021419376134872437
1772656663171504600,10.180504638671875,-0.036617279052734375,-0.0021351277828216553,-0.0036566779017448425
1772656663191262500,10.200262451171875,-0.03661632537841797,0.002675022929906845,-0.00030536949634552
1772656663211020500,10.2200205078125,-0.036614418029785156,0.0015614554286003113,-0.0027837231755256653
1772656663230778400,10.2397783203125,-0.035416603088378906,-0.0018778927624225616,-0.0027182698249816895
1772656663250536400,10.259536376953125,-0.040203094482421875,0.002723846584558487,-0.006384178996086121
1772656663270294500,10.27929443359375,-0.03421974182128906,0.001847773790359497,0.0005281120538711548
1772656663290052400,10.29905224609375,-0.041400909423828125,-0.00043617188930511475,0.0019110217690467834
1772656663309810400,10.318810546875,-0.03780937194824219,0.003168400377035141,0.0005446970462799072
1772656663329568300,10.338568359375,-0.04139995574951172,-0.0002826377749443054,-0.001623794436454773
1772656663349326300,10.358326416015625,-0.03780841827392578,-0.0026495642960071564,-0.0028324276208877563
1772656663369084400,10.37808447265625,-0.03900337219238281,0.006990354508161545,0.0004403442144393921
1772656663388842200,10.39784228515625,-0.03421497344970703,0.004756320267915726,0.0038265809416770935
1772656663408600300,10.417600341796875,-0.03421592712402344,0.002138189971446991,-0.0019039735198020935
1772656663428358100,10.437358154296875,-0.03780555725097656,0.0001232251524925232,0.0005606338381767273
1772656663448116200,10.4571162109375,-0.035411834716796875,0.007008466869592667,-0.005728326737880707
1772656663467874000,10.4768740234375,-0.041245460510253906,0.00229567289352417,-0.0022088438272476196
1772656663487632100,10.496632080078125,-0.03061962127685547,0.006368931382894516,0.0013017132878303528
1772656663507390200,10.51639013671875,-0.029424667358398438,0.007450088858604431,0.0011902078986167908
1772656663527148000,10.53614794921875,-0.037802696228027344,-0.000009953975677490234,-0.002173595130443573
1772656663546906000,10.555906005859375,-0.0366058349609375,0.0033256895840168,-0.008066393435001373
1772656663566664000,10.575663818359375,-0.030622482299804688,0.0023235082626342773,-0.002393178641796112
1772656663586422000,10.595422119140625,-0.037802696228027344,0.00009926781058311462,0.0001905187964439392
1772656663606179800,10.615179931640625,-0.035408973693847656,0.0057924725115299225,-0.004812195897102356
1772656663625938000,10.63493798828125,-0.03421306610107422,0.0032920464873313904,-0.003565572202205658
1772656663645695700,10.65469580078125,-0.04139518737792969,0.002200845628976822,-0.00321747362613678
1772656663665453800,10.674453857421875,-0.035411834716796875,0.000516355037689209,-0.011376932263374329
1772656663685212000,10.6942119140625,-0.03780555725097656,-0.001254536211490631,0.0016186162829399109
1772656663704969700,10.7139697265625,-0.034214019775390625,0.005815479904413223,0.00004456937313079834
1772656663724727800,10.733727783203125,-0.040200233459472656,-0.002894420176744461,-0.004274636507034302
1772656663744485600,10.753485595703125,-0.03900337219238281,-0.0005065016448497772,-0.004490777850151062
1772656663764243700,10.77324365234375,-0.04139995574951172,0.0030118227005004883,-0.0005889832973480225
1772656663784001500,10.79300146484375,-0.03421783447265625,0.002699136734008789,-0.003292083740234375
1772656663803759600,10.812759521484375,-0.0354156494140625,0.0015196502208709717,-0.005630776286125183
1772656663823517400,10.832517333984375,-0.031823158264160156,-0.0016589872539043427,0.001529701054096222
1772656663843275500,10.852275634765626,-0.03541278839111328,0.006693437695503235,-0.003594711422920227
1772656663863033300,10.872033447265625,-0.03182220458984375,0.0032049305737018585,-0.004530742764472961
