time,seconds_elapsed,z,y,x
1772656653154048300,0.16304833984375,9.763314247131348,0.010169495828449726,0.04307080805301666
1772656653163927600,0.172927490234375,9.760921478271484,0.010169495828449726,0.05024927482008934
1772656653173806300,0.182806396484375,9.760921478271484,0.01196411345154047,0.035892341285943985
1772656653183685400,0.192685302734375,9.758528709411621,0.004785645287483931,0.040677983313798904
1772656653193564400,0.202564453125,9.763314247131348,0.014955141581594944,0.04546362906694412
1772656653203443500,0.212443359375,9.760921478271484,0.014955141581594944,0.04546362906694412
1772656653213322500,0.222322509765625,9.753743171691895,0.0023928226437419653,0.04307080805301666
1772656653223201500,0.232201416015625,9.760921478271484,0.01196411345154047,0.04307080805301666
1772656653233080600,0.24208056640625,9.758528709411621,0.009571290574967861,0.04546362906694412
1772656653242959600,0.251959716796875,9.768099784851074,0.014356935396790504,0.035892341285943985
1772656653252838700,0.261838623046875,9.753743171691895,0.0077766734175384045,0.0526420995593071
1772656653262717700,0.2717177734375,9.758528709411621,0.010169495828449726,0.04546362906694412
1772656653272596700,0.2815966796875,9.758528709411621,0.01196411345154047,0.04307080805301666
1772656653282475800,0.291475830078125,9.765707015991211,0.0029910283628851175,0.05024927482008934
1772656653292354800,0.301354736328125,9.758528709411621,0.0077766734175384045,0.0526420995593071
1772656653302233900,0.31123388671875,9.758528709411621,0.007178467698395252,0.040677983313798904
1772656653312113000,0.32111279296875,9.760921478271484,0.009571290574967861,0.04785645380616188
1772656653321992000,0.330991943359375,9.758528709411621,0.004785645287483931,0.04546362906694412
1772656653331871000,0.34087109375,9.758528709411621,0.0029910283628851175,0.0526420995593071
1772656653341750000,0.35075,9.758528709411621,0.010169495828449726,0.05024927482008934
1772656653351629000,0.360629150390625,9.760921478271484,0.014955141581594944,0.0568295381963253
1772656653361508000,0.370508056640625,9.763314247131348,0.014356935396790504,0.031106693670153618
1772656653371387100,0.38038720703125,9.765707015991211,0.019142581149935722,0.040677983313798904
1772656653381266000,0.390265869140625,9.758528709411621,0.007178467698395252,0.04546362906694412
1772656653391145000,0.40014501953125,9.753743171691895,0.010169495828449726,0.05024927482008934
1772656653401024000,0.41002392578125,9.758528709411621,0.01196411345154047,0.04307080805301666
1772656653410903000,0.419903076171875,9.760921478271484,0.01196411345154047,0.04546362906694412
1772656653420782000,0.429781982421875,9.760921478271484,0.0077766734175384045,0.05742774158716202
1772656653430661000,0.4396611328125,9.756135940551758,0.009571290574967861,0.040677983313798904
1772656653440540200,0.4495400390625,9.765707015991211,0.0023928226437419653,0.040677983313798904
1772656653450419200,0.459419189453125,9.770493507385254,0.012562318705022335,0.04546362906694412
1772656653460298200,0.46929833984375,9.756135940551758,0.014955141581594944,0.0526420995593071
1772656653470177300,0.47917724609375,9.758528709411621,0.009571290574967861,0.04785645380616188
1772656653480056300,0.489056396484375,9.760921478271484,0.007178467698395252,0.04546362906694412
1772656653489935400,0.498935302734375,9.760921478271484,0.004785645287483931,0.04307080805301666
1772656653499814400,0.508814453125,9.763314247131348,0.007178467698395252,0.04546362906694412
1772656653509693400,0.518693359375,9.758528709411621,0.01196411345154047,0.05024927482008934
1772656653519572500,0.528572509765625,9.758528709411621,0.004785645287483931,0.038285162299871445
1772656653529451500,0.538451416015625,9.763314247131348,0.0029910283628851175,0.05503492057323456
1772656653539330600,0.54833056640625,9.765707015991211,0.014356935396790504,0.038285162299871445
1772656653549209600,0.558209716796875,9.763314247131348,0.0077766734175384045,0.04785645380616188
1772656653559088600,0.568088623046875,9.768099784851074,0.012562318705022335,0.04785645380616188
1772656653568967400,0.577967529296875,9.758528709411621,0.016749758273363113,0.04785645380616188
1772656653578846700,0.5878466796875,9.758528709411621,0.010169495828449726,0.05503492057323456
1772656653588725500,0.5977255859375,9.756135940551758,0.005383851006627083,0.04785645380616188
1772656653598604500,0.6076044921875,9.768099784851074,-0.001794616924598813,0.05503492057323456
1772656653608483600,0.617483642578125,9.756135940551758,0.005383851006627083,0.05024927482008934
1772656653618362600,0.627362548828125,9.751350402832031,0.0029910283628851175,0.04785645380616188
1772656653628241700,0.63724169921875,9.758528709411621,0.0077766734175384045,0.05024927482008934
1772656653638120700,0.64712060546875,9.763314247131348,0.014955141581594944,0.04546362906694412
1772656653647999700,0.656999755859375,9.760921478271484,0.0077766734175384045,0.05024927482008934
1772656653657878800,0.666878662109375,9.756135940551758,0.004785645287483931,0.04307080805301666
1772656653667757800,0.6767578125,9.760921478271484,0.009571290574967861,0.04307080805301666
1772656653677636900,0.686636962890625,9.756135940551758,0.0029910283628851175,0.04546362906694412
1772656653687516000,0.696515869140625,9.763314247131348,0.005383851006627083,0.05024927482008934
1772656653697395000,0.70639501953125,9.763314247131348,0.004785645287483931,0.035892341285943985
1772656653707274000,0.71627392578125,9.770493507385254,0.007178467698395252,0.038285162299871445
1772656653717153000,0.726153076171875,9.758528709411621,0.014955141581594944,0.0526420995593071
1772656653727032000,0.736031982421875,9.760921478271484,0.004785645287483931,0.040677983313798904
1772656653736911000,0.7459111328125,9.756135940551758,0,0.04307080805301666
1772656653746790100,0.7557900390625,9.756135940551758,0.0077766734175384045,0.05024927482008934
1772656653756669000,0.7656689453125,9.765707015991211,0.010169495828449726,0.05024927482008934
1772656653766548000,0.7755478515625,9.751350402832031,0.0029910283628851175,0.05024927482008934
1772656653776427000,0.785427001953125,9.758528709411621,0.010169495828449726,0.05024927482008934
1772656653786306000,0.79530615234375,9.763314247131348,0.0029910283628851175,0.04785645380616188
1772656653796185000,0.80518505859375,9.765707015991211,0.0077766734175384045,0.04785645380616188
1772656653806064000,0.815064208984375,9.756135940551758,0.01196411345154047,0.05024927482008934
1772656653815943200,0.824943115234375,9.760921478271484,0.0029910283628851175,0.0526420995593071
1772656653825822200,0.834822265625,9.763314247131348,0.005383851006627083,0.04785645380616188
1772656653835701200,0.844701171875,9.763314247131348,0.005383851006627083,0.04785645380616188
1772656653845580300,0.854580322265625,9.770493507385254,-0.004187439568340778,0.05024927482008934
1772656653855459300,0.864459228515625,9.765707015991211,0.005383851006627083,0.04785645380616188
1772656653865338400,0.87433837890625,9.760921478271484,0.0077766734175384045,0.0526420995593071
1772656653875217400,0.884217529296875,9.763314247131348,0.005383851006627083,0.04785645380616188
1772656653885096400,0.894096435546875,9.758528709411621,0.014356935396790504,0.04307080805301666
1772656653894975500,0.9039755859375,9.758528709411621,0.009571290574967861,0.04785645380616188
1772656653904854500,0.9138544921875,9.765707015991211,0.012562318705022335,0.0526420995593071
1772656653914733600,0.923733642578125,9.763314247131348,0.007178467698395252,0.04307080805301666
1772656653924612600,0.933612548828125,9.760921478271484,0.012562318705022335,0.04546362906694412
1772656653934491600,0.94349169921875,9.768099784851074,0.009571290574967861,0.04307080805301666
1772656653944370400,0.953370361328125,9.763314247131348,0.0077766734175384045,0.04785645380616188
1772656653954249500,0.96324951171875,9.765707015991211,0.014356935396790504,0.05024927482008934
1772656653964128500,0.97312841796875,9.768099784851074,0.0077766734175384045,0.05024927482008934
1772656653974007600,0.983007568359375,9.763314247131348,0.010169495828449726,0.0526420995593071
1772656653983886600,0.992886474609375,9.768099784851074,0.010169495828449726,0.0526420995593071
1772656653993765600,1.002765625,9.765707015991211,0.012562318705022335,0.0526420995593071
1772656654003644700,1.012644775390625,9.763314247131348,0.0077766734175384045,0.04785645380616188
1772656654013523700,1.022523681640625,9.758528709411621,0.005383851006627083,0.05024927482008934
1772656654023402800,1.03240283203125,9.756135940551758,0.004785645287483931,0.05024927482008934
1772656654033281800,1.04228173828125,9.758528709411621,0.0029910283628851175,0.04785645380616188
1772656654043160800,1.052160888671875,9.760921478271484,0.005383851006627083,0.05503492057323456
1772656654053039900,1.062039794921875,9.768099784851074,0.0077766734175384045,0.0526420995593071
1772656654062919000,1.0719189453125,9.768099784851074,0.0077766734175384045,0.05024927482008934
1772656654072798000,1.0817978515625,9.765707015991211,0.012562318705022335,0.05024927482008934
1772656654082677000,1.091677001953125,9.765707015991211,0.01196411345154047,0.04785645380616188
1772656654092556000,1.10155615234375,9.760921478271484,0.014955141581594944,0.04785645380616188
1772656654102435000,1.11143505859375,9.765707015991211,0.009571290574967861,0.038285162299871445
1772656654112314000,1.121314208984375,9.765707015991211,0.012562318705022335,0.0568295381963253
1772656654122193000,1.13119287109375,9.768099784851074,0.0029910283628851175,0.05503492057323456
1772656654132072000,1.141072021484375,9.763314247131348,0.0077766734175384045,0.05024927482008934
1772656654141951000,1.150950927734375,9.768099784851074,0.0077766734175384045,0.04546362906694412
1772656654151830000,1.160830078125,9.777671813964844,0.01196411345154047,0.038285162299871445
1772656654161709000,1.170708984375,9.758528709411621,0.007178467698395252,0.04546362906694412
1772656654171588000,1.180588134765625,9.763314247131348,0.010169495828449726,0.04785645380616188
1772656654181467100,1.190467041015625,9.758528709411621,0.01196411345154047,0.04307080805301666
1772656654191346200,1.20034619140625,9.756135940551758,0.0023928226437419653,0.04546362906694412
1772656654201225200,1.21022509765625,9.763314247131348,0.009571290574967861,0.04307080805301666
1772656654211104300,1.220104248046875,9.763314247131348,0.0023928226437419653,0.04546362906694412
1772656654220983300,1.2299833984375,9.760921478271484,0.014955141581594944,0.05024927482008934
1772656654230862300,1.2398623046875,9.768099784851074,0.009571290574967861,0.040677983313798904
1772656654240741400,1.249741455078125,9.777671813964844,0.012562318705022335,0.05503492057323456
1772656654250620400,1.259620361328125,9.765707015991211,0.010169495828449726,0.0526420995593071
1772656654260499500,1.26949951171875,9.763314247131348,0.0023928226437419653,0.04546362906694412
1772656654270378500,1.27937841796875,9.770493507385254,-0.004187439568340778,0.04785645380616188
1772656654280257500,1.289257568359375,9.765707015991211,0.005383851006627083,0.05742774158716202
1772656654290136300,1.29913623046875,9.768099784851074,0.005383851006627083,0.0526420995593071
1772656654300015400,1.309015380859375,9.760921478271484,0.010169495828449726,0.05024927482008934
1772656654309894400,1.318894287109375,9.765707015991211,0.012562318705022335,0.04546362906694412
1772656654319773400,1.3287734375,9.772886276245117,0.0029910283628851175,0.0526420995593071
1772656654329652500,1.338652587890625,9.765707015991211,0.0077766734175384045,0.0526420995593071
1772656654339531500,1.348531494140625,9.768099784851074,0.0077766734175384045,0.04546362906694412
1772656654349410600,1.35841064453125,9.763314247131348,0.016749758273363113,0.047258246690034866
1772656654359289600,1.36828955078125,9.760921478271484,0.0023928226437419653,0.04546362906694412
1772656654369168600,1.378168701171875,9.772886276245117,0.0005982056609354913,0.04546362906694412
1772656654379047700,1.388047607421875,9.768099784851074,0.0077766734175384045,0.05024927482008934
1772656654388926700,1.3979267578125,9.765707015991211,0.0005982056609354913,0.04785645380616188
1772656654398805800,1.4078056640625,9.765707015991211,0.0023928226437419653,0.040677983313798904
1772656654408684800,1.417684814453125,9.765707015991211,0.0077766734175384045,0.04785645380616188
1772656654418563800,1.427563720703125,9.772886276245117,0.014955141581594944,0.04546362906694412
1772656654428443000,1.43744287109375,9.763314247131348,0.012562318705022335,0.05503492057323456
1772656654438322000,1.447322021484375,9.765707015991211,0.01196411345154047,0.038285162299871445
1772656654448201000,1.457200927734375,9.768099784851074,0.010169495828449726,0.04546362906694412
1772656654458080000,1.467080078125,9.760921478271484,0.014955141581594944,0.054436713457107544
1772656654467958800,1.476958740234375,9.765707015991211,0.005383851006627083,0.05503492057323456
1772656654477837800,1.486837890625,9.760921478271484,0.016749758273363113,0.04546362906694412
1772656654487716900,1.496716796875,9.763314247131348,0.0077766734175384045,0.05024927482008934
1772656654497596000,1.506595947265625,9.760921478271484,0.0077766734175384045,0.05024927482008934
1772656654507475000,1.516474853515625,9.765707015991211,0.010169495828449726,0.05024927482008934
1772656654517354000,1.52635400390625,9.768099784851074,0.012562318705022335,0.04546362906694412
1772656654527233000,1.53623291015625,9.753743171691895,0.007178467698395252,0.04546362906694412
1772656654537112000,1.546112060546875,9.760921478271484,0.007178467698395252,0.040677983313798904
1772656654546991000,1.5559912109375,9.765707015991211,0.012562318705022335,0.0568295381963253
1772656654556870100,1.5658701171875,9.765707015991211,0.009571290574967861,0.04546362906694412
1772656654566749200,1.575749267578125,9.765707015991211,0.0005982056609354913,0.04307080805301666
1772656654576628200,1.585628173828125,9.768099784851074,0.0077766734175384045,0.05503492057323456
1772656654586507300,1.59550732421875,9.770493507385254,0.012562318705022335,0.04785645380616188
1772656654596386300,1.60538623046875,9.770493507385254,0.010169495828449726,0.04785645380616188
1772656654606265300,1.615265380859375,9.765707015991211,0.0077766734175384045,0.04546362906694412
1772656654616144400,1.625144287109375,9.763314247131348,0.014356935396790504,0.04307080805301666
1772656654626023400,1.6350234375,9.760921478271484,0.004785645287483931,0.04307080805301666
1772656654635902500,1.64490234375,9.760921478271484,0.007178467698395252,0.038285162299871445
1772656654645781500,1.654781494140625,9.768099784851074,0.004785645287483931,0.04307080805301666
1772656654655660300,1.664660400390625,9.760921478271484,0.005383851006627083,0.04307080805301666
1772656654665539300,1.674539306640625,9.758528709411621,0.016749758273363113,0.04785645380616188
1772656654675418400,1.68441845703125,9.763314247131348,0.014955141581594944,0.04307080805301666
1772656654685297400,1.69429736328125,9.768099784851074,0.010169495828449726,0.04785645380616188
1772656654695176400,1.704176513671875,9.763314247131348,0.014955141581594944,0.04785645380616188
1772656654705055500,1.714055419921875,9.765707015991211,0.010169495828449726,0.04546362906694412
1772656654714934500,1.7239345703125,9.763314247131348,0.0077766734175384045,0.0526420995593071
1772656654724813600,1.7338134765625,9.763314247131348,0.014356935396790504,0.04785645380616188
1772656654734692600,1.743692626953125,9.763314247131348,0.0029910283628851175,0.04546362906694412
1772656654744571600,1.753571533203125,9.763314247131348,0.012562318705022335,0.0526420995593071
1772656654754450700,1.76345068359375,9.760921478271484,0.007178467698395252,0.04785645380616188
1772656654764329700,1.773329833984375,9.768099784851074,0.01196411345154047,0.035892341285943985
1772656654774208800,1.783208740234375,9.760921478271484,0.009571290574967861,0.04546362906694412
1772656654784087800,1.793087890625,9.763314247131348,0.007178467698395252,0.04307080805301666
1772656654793966800,1.802966796875,9.760921478271484,0.014955141581594944,0.054436713457107544
1772656654803846000,1.812845947265625,9.763314247131348,0.012562318705022335,0.0526420995593071
1772656654813725000,1.822724853515625,9.772886276245117,0.012562318705022335,0.049651071429252625
1772656654823603700,1.832603759765625,9.765707015991211,0.012562318705022335,0.04785645380616188
1772656654833483000,1.84248291015625,9.763314247131348,0.010169495828449726,0.04785645380616188
1772656654843361800,1.85236181640625,9.763314247131348,0.009571290574967861,0.04546362906694412
1772656654853240800,1.86224072265625,9.768099784851074,0.005383851006627083,0.05024927482008934
1772656654863120000,1.872119873046875,9.770493507385254,0.0077766734175384045,0.04546362906694412
1772656654872999000,1.8819990234375,9.768099784851074,0.0023928226437419653,0.038285162299871445
1772656654882878000,1.8918779296875,9.765707015991211,0.004785645287483931,0.040677983313798904
1772656654892757000,1.901757080078125,9.768099784851074,0.010169495828449726,0.04785645380616188
1772656654902636000,1.911635986328125,9.765707015991211,0.014955141581594944,0.047258246690034866
1772656654912515000,1.92151513671875,9.768099784851074,0.0077766734175384045,0.04785645380616188
1772656654922394000,1.93139404296875,9.760921478271484,0.01196411345154047,0.04546362906694412
1772656654932273200,1.941273193359375,9.770493507385254,0.005383851006627083,0.04546362906694412
1772656654942152200,1.951152099609375,9.763314247131348,0.005383851006627083,0.04785645380616188
1772656654952031200,1.96103125,9.768099784851074,0.0077766734175384045,0.04546362906694412
1772656654961910300,1.97091015625,9.768099784851074,0.012562318705022335,0.04785645380616188
1772656654971789300,1.980789306640625,9.768099784851074,0.0077766734175384045,0.05024927482008934
1772656654981668400,1.99066845703125,9.760921478271484,0.0029910283628851175,0.04785645380616188
1772656654991547400,2.00054736328125,9.770493507385254,0.010169495828449726,0.04785645380616188
1772656655001426400,2.010426513671875,9.768099784851074,0.010169495828449726,0.04307080805301666
1772656655011305500,2.020305419921875,9.763314247131348,0.010169495828449726,0.05024927482008934
1772656655021184300,2.030184326171875,9.772886276245117,0.005383851006627083,0.05024927482008934
1772656655031063300,2.040063232421875,9.770493507385254,0.0029910283628851175,0.04307080805301666
1772656655040942300,2.0499423828125,9.77527904510498,0.01196411345154047,0.035892341285943985
1772656655050821400,2.0598212890625,9.770493507385254,0.005383851006627083,0.04785645380616188
1772656655060700400,2.069700439453125,9.760921478271484,0.005383851006627083,0.05024927482008934
1772656655070579500,2.079579345703125,9.760921478271484,0.012562318705022335,0.05503492057323456
1772656655080458500,2.08945849609375,9.758528709411621,0.005383851006627083,0.0526420995593071
1772656655090337500,2.099337646484375,9.763314247131348,0.0077766734175384045,0.04785645380616188
1772656655100216600,2.109216552734375,9.768099784851074,0.01196411345154047,0.04546362906694412
1772656655110095600,2.119095703125,9.765707015991211,0.01196411345154047,0.04546362906694412
1772656655119974700,2.128974609375,9.765707015991211,0.0029910283628851175,0.04546362906694412
1772656655129853700,2.138853759765625,9.765707015991211,0.009571290574967861,0.04307080805301666
1772656655139732700,2.148732666015625,9.758528709411621,0.01196411345154047,0.038285162299871445
1772656655149611800,2.15861181640625,9.763314247131348,0.0077766734175384045,0.04546362906694412
1772656655159490800,2.16849072265625,9.763314247131348,0.010169495828449726,0.05024927482008934
1772656655169369900,2.178369873046875,9.765707015991211,0.010169495828449726,0.05742774158716202
1772656655179249000,2.188248779296875,9.760921478271484,0.009571290574967861,0.04785645380616188
1772656655189128000,2.1981279296875,9.763314247131348,0.007178467698395252,0.04785645380616188
1772656655199007000,2.208007080078125,9.768099784851074,0.005383851006627083,0.04546362906694412
1772656655208885800,2.2178857421875,9.768099784851074,0.0077766734175384045,0.04785645380616188
1772656655218764800,2.227764892578125,9.765707015991211,0.016749758273363113,0.04546362906694412
1772656655228643800,2.237643798828125,9.770493507385254,0.009571290574967861,0.04307080805301666
1772656655238523000,2.24752294921875,9.763314247131348,0.007178467698395252,0.04307080805301666
1772656655248402000,2.25740185546875,9.772886276245117,0.01196411345154047,0.03349951654672623
1772656655258281000,2.267281005859375,9.765707015991211,0.01196411345154047,0.04307080805301666
1772656655268160000,2.277159912109375,9.770493507385254,0.012562318705022335,0.0526420995593071
1772656655278039000,2.2870390625,9.760921478271484,0.01196411345154047,0.04546362906694412
1772656655287918000,2.29691796875,9.758528709411621,0.01196411345154047,0.04785645380616188
1772656655297797000,2.306797119140625,9.765707015991211,0.014955141581594944,0.052043892443180084
1772656655307676200,2.31667626953125,9.758528709411621,0.0023928226437419653,0.04546362906694412
1772656655317555200,2.32655517578125,9.770493507385254,0.0077766734175384045,0.05024927482008934
1772656655327434200,2.336434326171875,9.760921478271484,0.0077766734175384045,0.0526420995593071
1772656655337313300,2.346313232421875,9.760921478271484,0.007178467698395252,0.04785645380616188
1772656655347192300,2.3561923828125,9.768099784851074,0.0023928226437419653,0.035892341285943985
1772656655357071400,2.3660712890625,9.763314247131348,0.0077766734175384045,0.04546362906694412
1772656655366950400,2.375950439453125,9.763314247131348,0.0077766734175384045,0.04785645380616188
1772656655376829400,2.385829345703125,9.765707015991211,0.004785645287483931,0.038285162299871445
1772656655386708500,2.39570849609375,9.765707015991211,0.007178467698395252,0.04307080805301666
1772656655396587300,2.405587158203125,9.765707015991211,0.0023928226437419653,0.04307080805301666
1772656655406466600,2.415466552734375,9.765707015991211,0.005383851006627083,0.0526420995593071
1772656655416345300,2.425345458984375,9.758528709411621,0.01196411345154047,0.04546362906694412
1772656655426224400,2.435224365234375,9.763314247131348,0.009571290574967861,0.04785645380616188
1772656655436103400,2.445103515625,9.768099784851074,0.01196411345154047,0.04307080805301666
1772656655445982500,2.454982421875,9.763314247131348,0.007178467698395252,0.038285162299871445
1772656655455861500,2.464861572265625,9.768099784851074,0.005383851006627083,0.05024927482008934
1772656655465740500,2.474740478515625,9.765707015991211,0.005383851006627083,0.04546362906694412
1772656655475619600,2.48461962890625,9.770493507385254,0.012562318705022335,0.04785645380616188
1772656655485498600,2.49449853515625,9.770493507385254,0.010169495828449726,0.05024927482008934
1772656655495377700,2.504377685546875,9.763314247131348,0.005383851006627083,0.0526420995593071
1772656655505256700,2.514256591796875,9.770493507385254,0.012562318705022335,0.04546362906694412
1772656655515135700,2.5241357421875,9.768099784851074,0.0029910283628851175,0.04546362906694412
1772656655525014800,2.534014892578125,9.765707015991211,0.014356935396790504,0.04546362906694412
1772656655534893800,2.543893798828125,9.753743171691895,0.0023928226437419653,0.04307080805301666
1772656655544772900,2.55377294921875,9.768099784851074,0.010169495828449726,0.04785645380616188
1772656655554652000,2.56365185546875,9.765707015991211,0.005383851006627083,0.04785645380616188
1772656655564531000,2.573531005859375,9.765707015991211,0.005383851006627083,0.05024927482008934
1772656655574410000,2.583409912109375,9.763314247131348,0.007178467698395252,0.04307080805301666
1772656655584288800,2.593288818359375,9.760921478271484,0.01196411345154047,0.05024927482008934
1772656655594168000,2.60316796875,9.768099784851074,0.005383851006627083,0.04785645380616188
1772656655604046800,2.613046875,9.765707015991211,0.0005982056609354913,0.04785645380616188
1772656655613926000,2.62292578125,9.763314247131348,0.005383851006627083,0.04785645380616188
1772656655623805000,2.632804931640625,9.765707015991211,0.012562318705022335,0.04785645380616188
1772656655633684000,2.64268408203125,9.763314247131348,0.0023928226437419653,0.04307080805301666
1772656655643563000,2.65256298828125,9.763314247131348,0.0029910283628851175,0.0526420995593071
1772656655653442000,2.662442138671875,9.758528709411621,0.010169495828449726,0.05024927482008934
1772656655663321000,2.672321044921875,9.772886276245117,0.0077766734175384045,0.05024927482008934
1772656655673200000,2.6822001953125,9.760921478271484,0.0023928226437419653,0.04307080805301666
1772656655683079200,2.6920791015625,9.758528709411621,0.012562318705022335,0.04785645380616188
1772656655692958200,2.701958251953125,9.765707015991211,0.010169495828449726,0.05503492057323456
1772656655702837200,2.711837158203125,9.768099784851074,0.005383851006627083,0.05024927482008934
1772656655712716300,2.72171630859375,9.758528709411621,0.009571290574967861,0.04546362906694412
1772656655722595300,2.73159521484375,9.768099784851074,0.0077766734175384045,0.04785645380616188
1772656655732474400,2.741474365234375,9.763314247131348,0.009571290574967861,0.04307080805301666
1772656655742353400,2.751353515625,9.763314247131348,0.005383851006627083,0.04307080805301666
1772656655752232400,2.761232421875,9.768099784851074,0.0029910283628851175,0.05024927482008934
1772656655762111500,2.771111572265625,9.770493507385254,0.005383851006627083,0.04546362906694412
1772656655771990300,2.780990234375,9.765707015991211,0.01196411345154047,0.04307080805301666
1772656655781869600,2.79086962890625,9.765707015991211,0.010169495828449726,0.05024927482008934
1772656655791748400,2.800748291015625,9.763314247131348,0.005383851006627083,0.04546362906694412
1772656655801627400,2.81062744140625,9.756135940551758,0.0029910283628851175,0.0526420995593071
1772656655811506400,2.82050634765625,9.758528709411621,0.009571290574967861,0.04785645380616188
1772656655821385500,2.830385498046875,9.763314247131348,0.007178467698395252,0.04546362906694412
1772656655831264500,2.840264404296875,9.765707015991211,0.014955141581594944,0.0526420995593071
1772656655841143600,2.8501435546875,9.763314247131348,0.0077766734175384045,0.04785645380616188
1772656655851022600,2.860022705078125,9.765707015991211,0.014955141581594944,0.0526420995593071
1772656655860901600,2.869901611328125,9.763314247131348,0.012562318705022335,0.05024927482008934
1772656655870780700,2.87978076171875,9.760921478271484,0.01196411345154047,0.04307080805301666
1772656655880659700,2.88965966796875,9.763314247131348,0.01196411345154047,0.04307080805301666
1772656655890538800,2.899538818359375,9.760921478271484,0.0023928226437419653,0.040677983313798904
1772656655900417800,2.909417724609375,9.763314247131348,0.012562318705022335,0.04546362906694412
1772656655910296800,2.919296875,9.763314247131348,0.0077766734175384045,0.04307080805301666
1772656655920175900,2.92917578125,9.758528709411621,0.004785645287483931,0.04546362906694412
1772656655930055000,2.939054931640625,9.768099784851074,0.01196411345154047,0.04307080805301666
1772656655939934000,2.948933837890625,9.770493507385254,0.0077766734175384045,0.04785645380616188
1772656655949813000,2.95881298828125,9.768099784851074,0.019142581149935722,0.04007977992296219
1772656655959692000,2.968692138671875,9.768099784851074,0.010169495828449726,0.05503492057323456
1772656655969571000,2.978571044921875,9.760921478271484,0.0077766734175384045,0.05503492057323456
1772656655979449900,2.988449951171875,9.760921478271484,0.0005982056609354913,0.05024927482008934
1772656655989329200,2.9983291015625,9.763314247131348,0.005383851006627083,0.05503492057323456
1772656655999208000,3.0082080078125,9.765707015991211,0.010169495828449726,0.04546362906694412
1772656656009087000,3.0180869140625,9.765707015991211,0.01196411345154047,0.04785645380616188
1772656656018966000,3.027966064453125,9.770493507385254,0.014955141581594944,0.05024927482008934
1772656656028845000,3.037844970703125,9.760921478271484,0.005383851006627083,0.05024927482008934
1772656656038724000,3.04772412109375,9.760921478271484,0.009571290574967861,0.04307080805301666
1772656656048603100,3.05760302734375,9.760921478271484,0.010169495828449726,0.05742774158716202
1772656656058482200,3.067482177734375,9.763314247131348,0.010169495828449726,0.04785645380616188
1772656656068361200,3.077361328125,9.765707015991211,0.0077766734175384045,0.04546362906694412
1772656656078240300,3.087240234375,9.763314247131348,0.0029910283628851175,0.04785645380616188
1772656656088119300,3.097119384765625,9.765707015991211,0.014955141581594944,0.04546362906694412
1772656656097998300,3.106998291015625,9.768099784851074,0.0029910283628851175,0.04546362906694412
1772656656107877400,3.11687744140625,9.765707015991211,0.005383851006627083,0.05024927482008934
1772656656117756400,3.12675634765625,9.760921478271484,0.01196411345154047,0.04785645380616188
1772656656127635500,3.136635498046875,9.760921478271484,0.007178467698395252,0.04307080805301666
1772656656137514500,3.146514404296875,9.770493507385254,0.0077766734175384045,0.040677983313798904
1772656656147393500,3.1563935546875,9.763314247131348,0.012562318705022335,0.05024927482008934
1772656656157272600,3.1662724609375,9.768099784851074,0.014356935396790504,0.04785645380616188
1772656656167151600,3.176151611328125,9.768099784851074,0.019740786403417587,0.05024927482008934
1772656656177030700,3.18603076171875,9.763314247131348,0.012562318705022335,0.05024927482008934
1772656656186909400,3.195909423828125,9.760921478271484,0.01196411345154047,0.05024927482008934
1772656656196788700,3.205788818359375,9.765707015991211,0.0077766734175384045,0.05024927482008934
1772656656206667500,3.21566748046875,9.760921478271484,0.01196411345154047,0.04307080805301666
1772656656216546600,3.225546630859375,9.763314247131348,0.0077766734175384045,0.05742774158716202
1772656656226425600,3.235425537109375,9.768099784851074,0.0077766734175384045,0.05024927482008934
1772656656236304600,3.2453046875,9.763314247131348,0.0077766734175384045,0.04785645380616188
1772656656246183700,3.25518359375,9.770493507385254,0.01196411345154047,0.04546362906694412
1772656656256062700,3.265062744140625,9.758528709411621,0.009571290574967861,0.04307080805301666
1772656656265941800,3.274941650390625,9.765707015991211,0.014356935396790504,0.035892341285943985
1772656656275820800,3.28482080078125,9.770493507385254,0.012562318705022335,0.04546362906694412
1772656656285699800,3.294699951171875,9.763314247131348,0.0023928226437419653,0.035892341285943985
1772656656295579000,3.304578857421875,9.763314247131348,0.012562318705022335,0.04785645380616188
1772656656305458000,3.3144580078125,9.765707015991211,0.010169495828449726,0.05024927482008934
1772656656315337000,3.3243369140625,9.758528709411621,0.010169495828449726,0.05024927482008934
1772656656325216000,3.334216064453125,9.765707015991211,0.005383851006627083,0.04785645380616188
1772656656335095000,3.344094970703125,9.768099784851074,0.0077766734175384045,0.04785645380616188
1772656656344974000,3.35397412109375,9.768099784851074,0.005383851006627083,0.04546362906694412
1772656656354853000,3.36385302734375,9.765707015991211,0.010169495828449726,0.0526420995593071
1772656656364732200,3.373732177734375,9.765707015991211,0.007178467698395252,0.04307080805301666
1772656656374611200,3.383611083984375,9.758528709411621,0.012562318705022335,0.05503492057323456
1772656656384490200,3.393490234375,9.768099784851074,0.014356935396790504,0.04546362906694412
1772656656394369000,3.403369140625,9.770493507385254,0.014955141581594944,0.05024927482008934
1772656656404248300,3.413248291015625,9.756135940551758,0.009571290574967861,0.04307080805301666
1772656656414127000,3.423127197265625,9.760921478271484,0.007178467698395252,0.04307080805301666
1772656656424006100,3.433006103515625,9.765707015991211,0.01196411345154047,0.04546362906694412
1772656656433885200,3.44288525390625,9.760921478271484,0.005383851006627083,0.05024927482008934
1772656656443764200,3.45276416015625,9.763314247131348,0.005383851006627083,0.04785645380616188
1772656656453643300,3.462643310546875,9.768099784851074,0.01734796352684498,0.047258246690034866
1772656656463522300,3.472522216796875,9.765707015991211,0.010169495828449726,0.05503492057323456
1772656656473401300,3.4824013671875,9.768099784851074,0.004785645287483931,0.04307080805301666
1772656656483280400,3.4922802734375,9.753743171691895,0.01196411345154047,0.0526420995593071
1772656656493159400,3.502159423828125,9.768099784851074,0.019142581149935722,0.049651071429252625
1772656656503038500,3.51203857421875,9.760921478271484,0.010169495828449726,0.04785645380616188
1772656656512917500,3.52191748046875,9.768099784851074,0.010169495828449726,0.04785645380616188
1772656656522796500,3.531796630859375,9.760921478271484,0.009571290574967861,0.04785645380616188
1772656656532675600,3.541675537109375,9.763314247131348,0.01196411345154047,0.04785645380616188
1772656656542554600,3.5515546875,9.763314247131348,0.014356935396790504,0.04546362906694412
1772656656552433700,3.56143359375,9.758528709411621,0.0023928226437419653,0.04546362906694412
1772656656562312700,3.571312744140625,9.768099784851074,0.010169495828449726,0.04546362906694412
1772656656572191700,3.581191650390625,9.772886276245117,0.012562318705022335,0.04785645380616188
1772656656582070800,3.59107080078125,9.770493507385254,0.0077766734175384045,0.05024927482008934
1772656656591949800,3.60094970703125,9.763314247131348,0.012562318705022335,0.04785645380616188
1772656656601828600,3.61082861328125,9.772886276245117,0.005383851006627083,0.04785645380616188
1772656656611708000,3.6207080078125,9.765707015991211,0.012562318705022335,0.04546362906694412
1772656656621586700,3.630586669921875,9.756135940551758,0.009571290574967861,0.040677983313798904
1772656656631465700,3.6404658203125,9.765707015991211,0.005383851006627083,0.04785645380616188
1772656656641344800,3.6503447265625,9.760921478271484,0.007178467698395252,0.04307080805301666
1772656656651223800,3.660223876953125,9.758528709411621,0.0023928226437419653,0.04546362906694412
1772656656661102800,3.670102783203125,9.768099784851074,0.007178467698395252,0.04307080805301666
1772656656670982000,3.67998193359375,9.763314247131348,0.009571290574967861,0.04546362906694412
1772656656680861000,3.68986083984375,9.758528709411621,0.014356935396790504,0.04307080805301666
1772656656690740000,3.699739990234375,9.765707015991211,0.01196411345154047,0.04785645380616188
1772656656700619000,3.709618896484375,9.768099784851074,0.005383851006627083,0.05024927482008934
1772656656710498000,3.719498046875,9.760921478271484,0.004785645287483931,0.04546362906694412
1772656656720377000,3.729377197265625,9.765707015991211,0.014955141581594944,0.049651071429252625
1772656656730256100,3.739256103515625,9.768099784851074,0.014955141581594944,0.05503492057323456
1772656656740135200,3.74913525390625,9.765707015991211,0.010169495828449726,0.04546362906694412
1772656656750014200,3.75901416015625,9.770493507385254,0.014356935396790504,0.04546362906694412
1772656656759893200,3.768893310546875,9.758528709411621,0.0077766734175384045,0.05024927482008934
1772656656769772300,3.778772216796875,9.760921478271484,0.0029910283628851175,0.04546362906694412
1772656656779651300,3.7886513671875,9.768099784851074,0.0077766734175384045,0.04546362906694412
1772656656789530400,3.7985302734375,9.765707015991211,0.005383851006627083,0.04307080805301666
1772656656799409400,3.808409423828125,9.760921478271484,0.005383851006627083,0.0526420995593071
1772656656809288400,3.818288330078125,9.765707015991211,0.0029910283628851175,0.04546362906694412
1772656656819167500,3.82816748046875,9.760921478271484,0.007178467698395252,0.040677983313798904
1772656656829046300,3.83804638671875,9.760921478271484,0.007178467698395252,0.04307080805301666
1772656656838925600,3.847925537109375,9.768099784851074,0.01734796352684498,0.05024927482008934
1772656656848804400,3.857804443359375,9.760921478271484,0.010169495828449726,0.05503492057323456
1772656656858683400,3.867683349609375,9.763314247131348,0.010169495828449726,0.0526420995593071
1772656656868562400,3.8775625,9.756135940551758,0.01196411345154047,0.05024927482008934
1772656656878441500,3.88744140625,9.768099784851074,0.005383851006627083,0.04785645380616188
1772656656888320500,3.897320556640625,9.760921478271484,0.007178467698395252,0.04546362906694412
1772656656898199600,3.907199462890625,9.765707015991211,0.012562318705022335,0.049651071429252625
1772656656908078600,3.91707861328125,9.760921478271484,0.010169495828449726,0.05024927482008934
1772656656917957600,3.92695751953125,9.758528709411621,0.0023928226437419653,0.040677983313798904
1772656656927836700,3.936836669921875,9.763314247131348,0.014955141581594944,0.04546362906694412
1772656656937715700,3.9467158203125,9.763314247131348,0.01734796352684498,0.04486542567610741
1772656656947594800,3.9565947265625,9.765707015991211,0.0029910283628851175,0.04307080805301666
1772656656957473800,3.966473876953125,9.760921478271484,0.009571290574967861,0.04546362906694412
1772656656967352800,3.976352783203125,9.760921478271484,0.0077766734175384045,0.05024927482008934
1772656656977232000,3.98623193359375,9.765707015991211,0.0077766734175384045,0.04307080805301666
1772656656987111000,3.99611083984375,9.758528709411621,0.010169495828449726,0.04546362906694412
1772656656996990000,4.005989990234375,9.760921478271484,0.010169495828449726,0.04546362906694412
1772656657006869000,4.015868896484375,9.760921478271484,0.010169495828449726,0.0526420995593071
1772656657016748000,4.025748046875,9.760921478271484,0.0077766734175384045,0.0526420995593071
1772656657026627000,4.035626953125,9.772886276245117,0.0029910283628851175,0.04307080805301666
1772656657036506000,4.045506103515625,9.760921478271484,0.007178467698395252,0.04546362906694412
1772656657046385200,4.05538525390625,9.765707015991211,0.019740786403417587,0.06161518394947052
1772656657056264000,4.065263916015625,9.768099784851074,0.005383851006627083,0.04546362906694412
1772656657066143200,4.075143310546875,9.765707015991211,0.0077766734175384045,0.05024927482008934
1772656657076022000,4.08502197265625,9.758528709411621,0.0077766734175384045,0.0526420995593071
1772656657085901000,4.094901123046875,9.763314247131348,0.0029910283628851175,0.04785645380616188
1772656657095780000,4.104780029296875,9.768099784851074,0.010169495828449726,0.04546362906694412
1772656657105659100,4.1146591796875,9.768099784851074,0.0029910283628851175,0.05024927482008934
1772656657115538200,4.1245380859375,9.768099784851074,0.005383851006627083,0.04546362906694412
1772656657125417200,4.134417236328125,9.763314247131348,0.0029910283628851175,0.040677983313798904
1772656657135296300,4.144296142578125,9.765707015991211,0.012562318705022335,0.0526420995593071
1772656657145175300,4.15417529296875,9.758528709411621,0.012562318705022335,0.0526420995593071
1772656657155054300,4.164054443359375,9.756135940551758,0.005383851006627083,0.05024927482008934
1772656657164933400,4.173933349609375,9.760921478271484,0.0023928226437419653,0.04307080805301666
1772656657174812400,4.1838125,9.765707015991211,0.01734796352684498,0.05024927482008934
1772656657184691500,4.19369140625,9.765707015991211,0.0077766734175384045,0.05742774158716202
1772656657194570500,4.203570556640625,9.763314247131348,0.010169495828449726,0.04546362906694412
1772656657204449500,4.213449462890625,9.765707015991211,0.0077766734175384045,0.04785645380616188
1772656657214328600,4.22332861328125,9.763314247131348,0.010169495828449726,0.04307080805301666
1772656657224207600,4.23320751953125,9.760921478271484,0.005383851006627083,0.04785645380616188
1772656657234086700,4.243086669921875,9.770493507385254,0.009571290574967861,0.04546362906694412
1772656657243965700,4.252965576171875,9.760921478271484,0.01196411345154047,0.04785645380616188
1772656657253844700,4.2628447265625,9.770493507385254,0.010169495828449726,0.0526420995593071
1772656657263723800,4.272723876953125,9.763314247131348,0.005383851006627083,0.04785645380616188
1772656657273602600,4.2826025390625,9.760921478271484,0.009571290574967861,0.040677983313798904
1772656657283481600,4.292481689453125,9.765707015991211,0.010169495828449726,0.04546362906694412
1772656657293360600,4.302360595703125,9.763314247131348,0.0029910283628851175,0.04785645380616188
1772656657303239700,4.31223974609375,9.760921478271484,0.004785645287483931,0.040677983313798904
1772656657313118700,4.32211865234375,9.763314247131348,0.019142581149935722,0.04785645380616188
1772656657322997800,4.331997802734375,9.763314247131348,0.009571290574967861,0.04546362906694412
1772656657332876800,4.341876708984375,9.758528709411621,0.009571290574967861,0.038285162299871445
1772656657342755800,4.351755859375,9.753743171691895,0.007178467698395252,0.04307080805301666
1772656657352635000,4.361634765625,9.768099784851074,0.010169495828449726,0.04785645380616188
1772656657362514000,4.371513916015625,9.763314247131348,0.009571290574967861,0.04785645380616188
1772656657372393000,4.38139306640625,9.763314247131348,0.0077766734175384045,0.05024927482008934
1772656657382272000,4.39127197265625,9.758528709411621,0.014356935396790504,0.04546362906694412
1772656657392151000,4.401151123046875,9.777671813964844,0.005383851006627083,0.05024927482008934
1772656657402030000,4.411030029296875,9.763314247131348,0.0023928226437419653,0.031106693670153618
1772656657411909000,4.4209091796875,9.765707015991211,0.005383851006627083,0.05024927482008934
1772656657421788200,4.4307880859375,9.765707015991211,0.014955141581594944,0.0526420995593071
1772656657431667200,4.440667236328125,9.760921478271484,0.0023928226437419653,0.04546362906694412
1772656657441546200,4.450546142578125,9.765707015991211,0.007178467698395252,0.04546362906694412
1772656657451425300,4.46042529296875,9.765707015991211,0.005383851006627083,0.0526420995593071
1772656657461304300,4.47030419921875,9.765707015991211,0.012562318705022335,0.05024927482008934
1772656657471183400,4.480183349609375,9.760921478271484,0.010169495828449726,0.05503492057323456
1772656657481062400,4.4900625,9.763314247131348,0.016749758273363113,0.04546362906694412
1772656657490941400,4.49994140625,9.760921478271484,0.0077766734175384045,0.04307080805301666
1772656657500820200,4.5098203125,9.758528709411621,0.009571290574967861,0.040677983313798904
1772656657510699300,4.51969921875,9.760921478271484,0.0023928226437419653,0.040677983313798904
1772656657520578300,4.529578369140625,9.768099784851074,0.014955141581594944,0.04546362906694412
1772656657530457300,4.539457275390625,9.760921478271484,0.005383851006627083,0.04307080805301666
1772656657540336400,4.54933642578125,9.772886276245117,0.005383851006627083,0.04546362906694412
1772656657550215400,4.55921533203125,9.770493507385254,0.004785645287483931,0.040677983313798904
1772656657560094500,4.569094482421875,9.765707015991211,0.010169495828449726,0.04785645380616188
1772656657569973500,4.578973388671875,9.765707015991211,0.0077766734175384045,0.0526420995593071
1772656657579852500,4.5888525390625,9.760921478271484,0.010169495828449726,0.04307080805301666
1772656657589731600,4.598731689453125,9.763314247131348,0.0077766734175384045,0.04546362906694412
1772656657599610600,4.608610595703125,9.768099784851074,0.005383851006627083,0.04546362906694412
1772656657609489700,4.61848974609375,9.760921478271484,0.010169495828449726,0.05503492057323456
1772656657619368700,4.62836865234375,9.760921478271484,-0.0023928226437419653,0.04546362906694412
1772656657629247700,4.638247802734375,9.765707015991211,0.010169495828449726,0.04307080805301666
1772656657639126800,4.648126708984375,9.763314247131348,0.01196411345154047,0.04546362906694412
1772656657649005800,4.658005859375,9.760921478271484,0.010169495828449726,0.0526420995593071
1772656657658884900,4.667884765625,9.765707015991211,0.01734796352684498,0.052043892443180084
1772656657668764000,4.677763916015625,9.770493507385254,0.014955141581594944,0.049651071429252625
1772656657678643000,4.687642822265625,9.758528709411621,0.0077766734175384045,0.04785645380616188
1772656657688521700,4.697521728515625,9.765707015991211,0.012562318705022335,0.04785645380616188
1772656657698401000,4.707401123046875,9.760921478271484,0.0077766734175384045,0.05503492057323456
1772656657708279800,4.71727978515625,9.763314247131348,0.010169495828449726,0.0526420995593071
1772656657718158800,4.727158935546875,9.760921478271484,0.0077766734175384045,0.04785645380616188
1772656657728038000,4.737037841796875,9.758528709411621,0.0077766734175384045,0.0526420995593071
1772656657737917000,4.7469169921875,9.756135940551758,0.0077766734175384045,0.05503492057323456
1772656657747796000,4.7567958984375,9.760921478271484,0.0077766734175384045,0.05024927482008934
1772656657757675000,4.766675048828125,9.760921478271484,0.0077766734175384045,0.04546362906694412
1772656657767554000,4.776553955078125,9.758528709411621,0,0.04307080805301666
1772656657777433000,4.78643310546875,9.760921478271484,0.010169495828449726,0.05024927482008934
1772656657787312000,4.79631201171875,9.768099784851074,0.019740786403417587,0.04486542567610741
1772656657797191200,4.806191162109375,9.763314247131348,-0.001794616924598813,0.05024927482008934
1772656657807070200,4.8160703125,9.758528709411621,0.01196411345154047,0.04546362906694412
1772656657816949200,4.82594921875,9.760921478271484,0.0029910283628851175,0.04785645380616188
1772656657826828300,4.835828369140625,9.765707015991211,0.0077766734175384045,0.04785645380616188
1772656657836707300,4.845707275390625,9.763314247131348,0.0005982056609354913,0.05024927482008934
1772656657846586400,4.85558642578125,9.758528709411621,0.01734796352684498,0.05024927482008934
1772656657856465400,4.86546533203125,9.763314247131348,0.0005982056609354913,0.04307080805301666
1772656657866344400,4.875344482421875,9.760921478271484,0.007178467698395252,0.038285162299871445
1772656657876223500,4.885223388671875,9.758528709411621,0.009571290574967861,0.04546362906694412
1772656657886102500,4.8951025390625,9.763314247131348,0.007178467698395252,0.04546362906694412
1772656657895981300,4.904981201171875,9.760921478271484,0.010169495828449726,0.05024927482008934
1772656657905860400,4.9148603515625,9.756135940551758,0.01196411345154047,0.040677983313798904
1772656657915739400,4.924739501953125,9.763314247131348,0.016749758273363113,0.049651071429252625
1772656657925618400,4.934618408203125,9.763314247131348,0.010169495828449726,0.04785645380616188
1772656657935497500,4.94449755859375,9.763314247131348,0.005383851006627083,0.04785645380616188
1772656657945376500,4.95437646484375,9.760921478271484,0.010169495828449726,0.04785645380616188
1772656657955255600,4.964255615234375,9.760921478271484,0.009571290574967861,0.038285162299871445
1772656657965134600,4.974134521484375,9.763314247131348,0.005383851006627083,0.0526420995593071
1772656657975013600,4.984013671875,9.765707015991211,0.010169495828449726,0.04785645380616188
1772656657984892700,4.993892578125,9.758528709411621,0.0005982056609354913,0.04785645380616188
1772656657994771700,5.003771728515625,9.758528709411621,0.007178467698395252,0.04307080805301666
1772656658004650800,5.013650634765625,9.758528709411621,0.004785645287483931,0.04307080805301666
1772656658014529800,5.02352978515625,9.765707015991211,0.009571290574967861,0.04546362906694412
1772656658024408800,5.033408935546875,9.758528709411621,0.007178467698395252,0.038285162299871445
1772656658034287900,5.043287841796875,9.763314247131348,0.005383851006627083,0.04546362906694412
1772656658044167000,5.0531669921875,9.763314247131348,0.010169495828449726,0.0526420995593071
1772656658054046000,5.0630458984375,9.760921478271484,0.0077766734175384045,0.04785645380616188
1772656658063925000,5.072925048828125,9.758528709411621,0.012562318705022335,0.0526420995593071
1772656658073804000,5.082803955078125,9.763314247131348,0.0077766734175384045,0.0526420995593071
1772656658083683000,5.09268310546875,9.765707015991211,0.010169495828449726,0.0526420995593071
1772656658093561900,5.102561767578125,9.763314247131348,0.004785645287483931,0.04546362906694412
1772656658103441000,5.11244091796875,9.765707015991211,0.004785645287483931,0.04546362906694412
1772656658113320000,5.12231982421875,9.763314247131348,0.0077766734175384045,0.05024927482008934
1772656658123199000,5.132198974609375,9.758528709411621,0.012562318705022335,0.04546362906694412
1772656658133078000,5.142078125,9.760921478271484,0.007178467698395252,0.04307080805301666
1772656658142957000,5.15195703125,9.758528709411621,0.009571290574967861,0.04546362906694412
1772656658152836000,5.161836181640625,9.758528709411621,0.0023928226437419653,0.04546362906694412
1772656658162715100,5.171715087890625,9.765707015991211,0.009571290574967861,0.04785645380616188
1772656658172594200,5.18159423828125,9.768099784851074,0.010169495828449726,0.04785645380616188
1772656658182473200,5.19147314453125,9.760921478271484,0.0077766734175384045,0.05024927482008934
1772656658192352300,5.201352294921875,9.768099784851074,0.005383851006627083,0.05024927482008934
1772656658202231300,5.211231201171875,9.770493507385254,0.005383851006627083,0.05024927482008934
1772656658212110300,5.2211103515625,9.768099784851074,-0.001794616924598813,0.04785645380616188
1772656658221989400,5.2309892578125,9.760921478271484,0.004785645287483931,0.035892341285943985
1772656658231868400,5.240868408203125,9.760921478271484,0.0029910283628851175,0.04785645380616188
1772656658241747500,5.25074755859375,9.760921478271484,0.0029910283628851175,0.04307080805301666
1772656658251626500,5.26062646484375,9.770493507385254,0.01196411345154047,0.040677983313798904
1772656658261505300,5.27050537109375,9.768099784851074,0.005383851006627083,0.04307080805301666
1772656658271384600,5.280384521484375,9.765707015991211,0.010169495828449726,0.04546362906694412
1772656658281263400,5.290263427734375,9.763314247131348,0.010169495828449726,0.04785645380616188
1772656658291142400,5.300142333984375,9.758528709411621,0.0077766734175384045,0.05024927482008934
1772656658301021400,5.310021484375,9.765707015991211,0.0029910283628851175,0.05024927482008934
1772656658310900500,5.319900390625,9.760921478271484,0.010169495828449726,0.05024927482008934
1772656658320779500,5.329779541015625,9.751350402832031,0.01196411345154047,0.05024927482008934
1772656658330658600,5.339658447265625,9.765707015991211,0.0077766734175384045,0.04785645380616188
1772656658340537600,5.34953759765625,9.763314247131348,0.01196411345154047,0.04546362906694412
1772656658350416600,5.359416748046875,9.765707015991211,0.009571290574967861,0.04546362906694412
1772656658360295700,5.369295654296875,9.763314247131348,0.0029910283628851175,0.04785645380616188
1772656658370174700,5.3791748046875,9.756135940551758,0.0077766734175384045,0.0526420995593071
1772656658380053800,5.3890537109375,9.758528709411621,0.012562318705022335,0.05503492057323456
1772656658389932800,5.398932861328125,9.760921478271484,0.01734796352684498,0.05024927482008934
1772656658399811800,5.408811767578125,9.758528709411621,0.007178467698395252,0.04307080805301666
1772656658409691000,5.41869091796875,9.768099784851074,0.0023928226437419653,0.038285162299871445
1772656658419570000,5.42856982421875,9.760921478271484,0.009571290574967861,0.04546362906694412
1772656658429449000,5.438448974609375,9.758528709411621,0.0029910283628851175,0.04785645380616188
1772656658439328000,5.448327880859375,9.758528709411621,0.009571290574967861,0.04785645380616188
1772656658449206800,5.458206787109375,9.765707015991211,0.005383851006627083,0.0526420995593071
1772656658459085800,5.4680859375,9.765707015991211,0.009571290574967861,0.04307080805301666
1772656658468964900,5.47796484375,9.768099784851074,0.007178467698395252,0.04307080805301666
1772656658478844000,5.487843994140625,9.758528709411621,0.004785645287483931,0.04546362906694412
1772656658488723000,5.497722900390625,9.765707015991211,0.012562318705022335,0.0526420995593071
1772656658498602000,5.50760205078125,9.763314247131348,0.014356935396790504,0.04546362906694412
1772656658508481000,5.51748095703125,9.758528709411621,0.01196411345154047,0.04785645380616188
1772656658518360000,5.527360107421875,9.760921478271484,0.009571290574967861,0.04785645380616188
1772656658528239000,5.537239013671875,9.763314247131348,0.010169495828449726,0.05024927482008934
1772656658538118100,5.5471181640625,9.758528709411621,0.0029910283628851175,0.04785645380616188
1772656658547997200,5.5569970703125,9.765707015991211,0.0077766734175384045,0.04546362906694412
1772656658557876200,5.566876220703125,9.760921478271484,-0.0023928226437419653,0.038285162299871445
1772656658567755300,5.57675537109375,9.758528709411621,0.0077766734175384045,0.04546362906694412
1772656658577634300,5.58663427734375,9.760921478271484,0.010169495828449726,0.0526420995593071
1772656658587513300,5.596513427734375,9.760921478271484,0.014356935396790504,0.040677983313798904
1772656658597392400,5.606392333984375,9.756135940551758,0.004785645287483931,0.038285162299871445
1772656658607271200,5.616271240234375,9.756135940551758,0.007178467698395252,0.038285162299871445
1772656658617150200,5.626150146484375,9.760921478271484,0.0023928226437419653,0.040677983313798904
1772656658627029200,5.636029296875,9.763314247131348,0.0077766734175384045,0.05503492057323456
1772656658636908300,5.645908203125,9.756135940551758,0,0.04307080805301666
1772656658646787300,5.655787353515625,9.758528709411621,0.019740786403417587,0.049651071429252625
1772656658656666400,5.665666259765625,9.763314247131348,0.010169495828449726,0.05024927482008934
1772656658666545400,5.67554541015625,9.763314247131348,0.009571290574967861,0.04546362906694412
1772656658676424400,5.685424560546875,9.768099784851074,0.012562318705022335,0.04546362906694412
1772656658686303500,5.695303466796875,9.768099784851074,0.0029910283628851175,0.04785645380616188
1772656658696182500,5.7051826171875,9.768099784851074,0.004785645287483931,0.040677983313798904
1772656658706061600,5.7150615234375,9.760921478271484,0.014955141581594944,0.0526420995593071
1772656658715940600,5.724940673828125,9.763314247131348,0.01196411345154047,0.04785645380616188
1772656658725819600,5.734819580078125,9.765707015991211,0.007178467698395252,0.038285162299871445
1772656658735698700,5.74469873046875,9.768099784851074,0.004785645287483931,0.04307080805301666
1772656658745577700,5.75457763671875,9.760921478271484,0.0023928226437419653,0.04307080805301666
1772656658755456800,5.764456787109375,9.763314247131348,0.009571290574967861,0.04307080805301666
1772656658765335600,5.77433544921875,9.758528709411621,0.014356935396790504,0.04785645380616188
1772656658775214600,5.784214599609375,9.760921478271484,0.010169495828449726,0.05024927482008934
1772656658785093600,5.79409375,9.760921478271484,0.010169495828449726,0.05024927482008934
1772656658794972700,5.80397265625,9.765707015991211,0.0029910283628851175,0.05503492057323456
1772656658804851700,5.813851806640625,9.765707015991211,0.010169495828449726,0.0526420995593071
1772656658814730800,5.823730712890625,9.756135940551758,0.0077766734175384045,0.05024927482008934
1772656658824609800,5.83360986328125,9.758528709411621,0.0077766734175384045,0.04546362906694412
1772656658834488800,5.84348876953125,9.758528709411621,0.007178467698395252,0.04307080805301666
1772656658844368000,5.853367919921875,9.753743171691895,0.01196411345154047,0.04546362906694412
1772656658854247000,5.863246826171875,9.760921478271484,0.007178467698395252,0.04546362906694412
1772656658864126000,5.8731259765625,9.770493507385254,0.0005982056609354913,0.04307080805301666
1772656658874005000,5.8830048828125,9.760921478271484,0.007178467698395252,0.04307080805301666
1772656658883884000,5.892884033203125,9.758528709411621,0.009571290574967861,0.04307080805301666
1772656658893763000,5.90276318359375,9.758528709411621,0.01196411345154047,0.038285162299871445
1772656658903641900,5.912641845703125,9.760921478271484,0.0077766734175384045,0.04785645380616188
1772656658913521000,5.92252099609375,9.760921478271484,0.005383851006627083,0.04546362906694412
1772656658923400000,5.93239990234375,9.758528709411621,0.009571290574967861,0.04546362906694412
1772656658933279000,5.942279052734375,9.758528709411621,0.005383851006627083,0.0526420995593071
1772656658943158000,5.952157958984375,9.760921478271484,0.010169495828449726,0.0526420995593071
1772656658953037000,5.962037109375,9.760921478271484,0.014955141581594944,0.052043892443180084
1772656658962916000,5.971916015625,9.756135940551758,0.010169495828449726,0.05024927482008934
1772656658972795100,5.981795166015625,9.758528709411621,0.0077766734175384045,0.05024927482008934
1772656658982674200,5.991674072265625,9.760921478271484,0.0029910283628851175,0.04546362906694412
1772656658992553200,6.00155322265625,9.763314247131348,0.0077766734175384045,0.04546362906694412
1772656659002432300,6.011432373046875,9.760921478271484,0.0023928226437419653,0.038285162299871445
1772656659012311300,6.021311279296875,9.760921478271484,0.005383851006627083,0.04785645380616188
1772656659022190300,6.0311904296875,9.763314247131348,0.012562318705022335,0.04546362906694412
1772656659032069400,6.0410693359375,9.756135940551758,0.0029910283628851175,0.05503492057323456
1772656659041948400,6.050948486328125,9.753743171691895,0.0005982056609354913,0.05024927482008934
1772656659051827200,6.0608271484375,9.760921478271484,0.004785645287483931,0.040677983313798904
1772656659061706200,6.070706298828125,9.760921478271484,0.005383851006627083,0.04546362906694412
1772656659071585300,6.080585205078125,9.758528709411621,0.007178467698395252,0.04546362906694412
1772656659081464300,6.09046435546875,9.763314247131348,0.005383851006627083,0.0526420995593071
1772656659091343400,6.10034326171875,9.756135940551758,0.0005982056609354913,0.0526420995593071
1772656659101222400,6.110222412109375,9.758528709411621,0.0077766734175384045,0.05503492057323456
1772656659111101400,6.120101318359375,9.760921478271484,0.014356935396790504,0.04307080805301666
1772656659120980500,6.12998046875,9.760921478271484,0.012562318705022335,0.05024927482008934
1772656659130859500,6.139859619140625,9.763314247131348,0.01734796352684498,0.04546362906694412
1772656659140738600,6.149738525390625,9.756135940551758,0.007178467698395252,0.04546362906694412
1772656659150617600,6.15961767578125,9.758528709411621,0.0023928226437419653,0.040677983313798904
1772656659160496600,6.16949658203125,9.760921478271484,0.005383851006627083,0.04546362906694412
1772656659170375700,6.179375732421875,9.756135940551758,0.005383851006627083,0.04785645380616188
1772656659180254500,6.18925439453125,9.763314247131348,0.014955141581594944,0.0526420995593071
1772656659190133500,6.199133544921875,9.753743171691895,0.0023928226437419653,0.04546362906694412
1772656659200012500,6.209012451171875,9.770493507385254,0.010169495828449726,0.04785645380616188
1772656659209891600,6.2188916015625,9.763314247131348,0.0077766734175384045,0.04785645380616188
1772656659219770600,6.2287705078125,9.763314247131348,0.010169495828449726,0.04785645380616188
1772656659229649700,6.238649658203125,9.763314247131348,0.010169495828449726,0.04546362906694412
1772656659239528700,6.24852880859375,9.756135940551758,0.009571290574967861,0.04546362906694412
1772656659249407700,6.25840771484375,9.763314247131348,0.01196411345154047,0.04546362906694412
1772656659259286800,6.268286865234375,9.763314247131348,0.014955141581594944,0.047258246690034866
1772656659269165800,6.278165771484375,9.765707015991211,0.009571290574967861,0.04307080805301666
1772656659279044900,6.288044921875,9.770493507385254,0.005383851006627083,0.04307080805301666
1772656659288924000,6.297923828125,9.758528709411621,0.0005982056609354913,0.04785645380616188
1772656659298803000,6.307802978515625,9.763314247131348,0.014955141581594944,0.05024927482008934
1772656659308681700,6.317681640625,9.760921478271484,0.0077766734175384045,0.05024927482008934
1772656659318560800,6.327560791015625,9.765707015991211,0.0077766734175384045,0.05024927482008934
1772656659328439800,6.337439697265625,9.756135940551758,0.007178467698395252,0.040677983313798904
1772656659338318800,6.34731884765625,9.763314247131348,0.0029910283628851175,0.05024927482008934
1772656659348198000,6.357197998046875,9.753743171691895,0.014356935396790504,0.04785645380616188
1772656659358077000,6.367076904296875,9.765707015991211,0.010169495828449726,0.05742774158716202
1772656659367956000,6.3769560546875,9.758528709411621,0.009571290574967861,0.04785645380616188
1772656659377835000,6.3868349609375,9.756135940551758,0.005383851006627083,0.04785645380616188
1772656659387714000,6.396714111328125,9.758528709411621,0.007178467698395252,0.04785645380616188
1772656659397593000,6.406593017578125,9.760921478271484,0.004785645287483931,0.04307080805301666
1772656659407472000,6.41647216796875,9.758528709411621,0.0077766734175384045,0.05503492057323456
1772656659417351200,6.42635107421875,9.756135940551758,0.0029910283628851175,0.05024927482008934
1772656659427230200,6.436230224609375,9.758528709411621,0.004785645287483931,0.04785645380616188
1772656659437109000,6.44610888671875,9.760921478271484,0.014356935396790504,0.04785645380616188
1772656659446988000,6.455988037109375,9.758528709411621,0.009571290574967861,0.04546362906694412
1772656659456867000,6.4658671875,9.765707015991211,0.010169495828449726,0.05024927482008934
1772656659466746000,6.47574609375,9.748957633972168,0.009571290574967861,0.04546362906694412
1772656659476625200,6.485625244140625,9.758528709411621,0.004785645287483931,0.04546362906694412
1772656659486504200,6.495504150390625,9.760921478271484,0.0029910283628851175,0.05024927482008934
1772656659496383200,6.50538330078125,9.763314247131348,0.010169495828449726,0.0526420995593071
1772656659506262300,6.51526220703125,9.753743171691895,0.007178467698395252,0.04546362906694412
1772656659516141300,6.525141357421875,9.770493507385254,0.007178467698395252,0.04307080805301666
1772656659526020400,6.535020263671875,9.763314247131348,0.010169495828449726,0.04785645380616188
1772656659535899400,6.5448994140625,9.756135940551758,0.010169495828449726,0.05503492057323456
1772656659545778400,6.5547783203125,9.753743171691895,0.012562318705022335,0.04785645380616188
1772656659555657200,6.5646572265625,9.758528709411621,0.004785645287483931,0.04307080805301666
1772656659565536300,6.574536376953125,9.763314247131348,0.0077766734175384045,0.05024927482008934
1772656659575415300,6.584415283203125,9.758528709411621,0.0029910283628851175,0.04307080805301666
1772656659585294300,6.59429443359375,9.758528709411621,0.007178467698395252,0.038285162299871445
1772656659595173400,6.60417333984375,9.760921478271484,0.014955141581594944,0.05024927482008934
1772656659605052400,6.614052490234375,9.760921478271484,0.010169495828449726,0.0526420995593071
1772656659614931500,6.623931396484375,9.760921478271484,0.0029910283628851175,0.04546362906694412
1772656659624810500,6.633810546875,9.760921478271484,0.009571290574967861,0.04546362906694412
1772656659634689500,6.643689453125,9.765707015991211,0.007178467698395252,0.04546362906694412
1772656659644568600,6.653568603515625,9.760921478271484,0.007178467698395252,0.04546362906694412
1772656659654447400,6.663447265625,9.765707015991211,0.010169495828449726,0.05024927482008934
1772656659664326400,6.673326416015625,9.763314247131348,0.014955141581594944,0.05024927482008934
1772656659674205400,6.683205322265625,9.760921478271484,0.01196411345154047,0.04546362906694412
1772656659684084500,6.69308447265625,9.758528709411621,0.0029910283628851175,0.04785645380616188
1772656659693963500,6.702963623046875,9.763314247131348,0.010169495828449726,0.04546362906694412
1772656659703842600,6.712842529296875,9.763314247131348,0.009571290574967861,0.04546362906694412
1772656659713721600,6.7227216796875,9.765707015991211,0.005383851006627083,0.04785645380616188
1772656659723600600,6.7326005859375,9.758528709411621,0.0029910283628851175,0.04307080805301666
1772656659733479700,6.742479736328125,9.760921478271484,0.005383851006627083,0.05024927482008934
1772656659743358700,6.752358642578125,9.760921478271484,0.016749758273363113,0.047258246690034866
1772656659753237800,6.76223779296875,9.758528709411621,0.0077766734175384045,0.04546362906694412
1772656659763116800,6.77211669921875,9.758528709411621,0.009571290574967861,0.04546362906694412
1772656659772995600,6.78199560546875,9.763314247131348,0.010169495828449726,0.04546362906694412
1772656659782874600,6.79187451171875,9.758528709411621,0.007178467698395252,0.04546362906694412
1772656659792753700,6.801753662109375,9.760921478271484,0.007178467698395252,0.040677983313798904
1772656659802632700,6.8116328125,9.758528709411621,0.005383851006627083,0.0526420995593071
1772656659812511700,6.82151171875,9.758528709411621,0.009571290574967861,0.04785645380616188
1772656659822390800,6.831390869140625,9.758528709411621,0.007178467698395252,0.04546362906694412
1772656659832269800,6.841269775390625,9.763314247131348,0.007178467698395252,0.04307080805301666
1772656659842148900,6.85114892578125,9.763314247131348,0.0023928226437419653,0.040677983313798904
1772656659852028000,6.86102783203125,9.768099784851074,0.0077766734175384045,0.0526420995593071
1772656659861907000,6.870906982421875,9.760921478271484,0.0077766734175384045,0.05024927482008934
1772656659871786000,6.880785888671875,9.756135940551758,0.0077766734175384045,0.0526420995593071
1772656659881664800,6.890664794921875,9.758528709411621,0.010169495828449726,0.04785645380616188
1772656659891543800,6.900543701171875,9.758528709411621,0.014356935396790504,0.05024927482008934
1772656659901422800,6.9104228515625,9.758528709411621,0.004785645287483931,0.04785645380616188
1772656659911302000,6.920302001953125,9.760921478271484,0.01734796352684498,0.04546362906694412
1772656659921181000,6.930180908203125,9.756135940551758,0.007178467698395252,0.04307080805301666
1772656659931060000,6.94006005859375,9.765707015991211,0.010169495828449726,0.05024927482008934
1772656659940939000,6.94993896484375,9.758528709411621,0.0029910283628851175,0.05024927482008934
1772656659950818000,6.959818115234375,9.758528709411621,0.010169495828449726,0.0526420995593071
1772656659960697000,6.969697021484375,9.765707015991211,0.0029910283628851175,0.05024927482008934
1772656659970576100,6.979576171875,9.758528709411621,0.007178467698395252,0.04307080805301666
1772656659980455000,6.989454833984375,9.756135940551758,0.005383851006627083,0.04307080805301666
1772656659990334000,6.999333984375,9.756135940551758,0.016749758273363113,0.05024927482008934
1772656660000213000,7.009212890625,9.758528709411621,0.012562318705022335,0.05503492057323456
1772656660010092000,7.019092041015625,9.760921478271484,0.0029910283628851175,0.04546362906694412
1772656660019971000,7.02897119140625,9.760921478271484,0.014356935396790504,0.04546362906694412
1772656660029850000,7.03885009765625,9.760921478271484,0.01196411345154047,0.04546362906694412
1772656660039729200,7.048729248046875,9.765707015991211,0.01196411345154047,0.04546362906694412
1772656660049608200,7.058608154296875,9.763314247131348,0.019740786403417587,0.0526420995593071
1772656660059487200,7.0684873046875,9.758528709411621,0.01196411345154047,0.04307080805301666
1772656660069366300,7.0783662109375,9.756135940551758,0.0029910283628851175,0.05024927482008934
1772656660079245300,7.088245361328125,9.765707015991211,0.007178467698395252,0.04546362906694412
1772656660089124000,7.0981240234375,9.760921478271484,0.0077766734175384045,0.05503492057323456
1772656660099003100,7.108003173828125,9.758528709411621,0.014356935396790504,0.04546362906694412
1772656660108882200,7.117882080078125,9.756135940551758,0.0029910283628851175,0.0526420995593071
1772656660118761200,7.12776123046875,9.756135940551758,0.007178467698395252,0.04785645380616188
1772656660128640300,7.13764013671875,9.758528709411621,0.0029910283628851175,0.04546362906694412
1772656660138519300,7.147519287109375,9.758528709411621,0.01196411345154047,0.04546362906694412
1772656660148398300,7.1573984375,9.760921478271484,0.0077766734175384045,0.04307080805301666
1772656660158277400,7.16727734375,9.763314247131348,0.0077766734175384045,0.04546362906694412
1772656660168156400,7.177156494140625,9.758528709411621,0.0077766734175384045,0.04546362906694412
1772656660178035500,7.187035400390625,9.756135940551758,0.01196411345154047,0.05024927482008934
1772656660187914200,7.196914306640625,9.760921478271484,0.010169495828449726,0.05024927482008934
1772656660197793300,7.206793212890625,9.763314247131348,0.005383851006627083,0.04785645380616188
1772656660207672300,7.21667236328125,9.758528709411621,0.014356935396790504,0.04546362906694412
1772656660217551400,7.22655126953125,9.758528709411621,0.009571290574967861,0.04307080805301666
1772656660227430400,7.236430419921875,9.768099784851074,0.005383851006627083,0.04785645380616188
1772656660237309400,7.246309326171875,9.756135940551758,0.005383851006627083,0.05024927482008934
1772656660247188500,7.2561884765625,9.765707015991211,0.007178467698395252,0.040677983313798904
1772656660257067500,7.266067626953125,9.756135940551758,0.007178467698395252,0.04546362906694412
1772656660266946600,7.275946533203125,9.765707015991211,0.0077766734175384045,0.0526420995593071
1772656660276825300,7.285825439453125,9.763314247131348,0.014955141581594944,0.052043892443180084
1772656660286704400,7.295704345703125,9.758528709411621,0.016749758273363113,0.04307080805301666
1772656660296583400,7.30558349609375,9.763314247131348,0.004785645287483931,0.038285162299871445
1772656660306462500,7.31546240234375,9.763314247131348,0.0023928226437419653,0.038285162299871445
1772656660316341500,7.325341552734375,9.758528709411621,0.004785645287483931,0.04307080805301666
1772656660326220500,7.335220458984375,9.758528709411621,0.005383851006627083,0.05024927482008934
1772656660336099600,7.345099609375,9.770493507385254,0.012562318705022335,0.04785645380616188
1772656660345978600,7.354978515625,9.763314247131348,0.005383851006627083,0.04785645380616188
1772656660355857700,7.364857666015625,9.756135940551758,0.014356935396790504,0.04785645380616188
1772656660365736700,7.37473681640625,9.760921478271484,0.014356935396790504,0.038285162299871445
1772656660375615500,7.384615478515625,9.760921478271484,0.004785645287483931,0.040677983313798904
1772656660385494500,7.39449462890625,9.760921478271484,0.0077766734175384045,0.04785645380616188
1772656660395373600,7.40437353515625,9.763314247131348,0.005383851006627083,0.04546362906694412
1772656660405252600,7.414252685546875,9.760921478271484,0.004785645287483931,0.040677983313798904
1772656660415131600,7.424131591796875,9.756135940551758,0.004785645287483931,0.04546362906694412
1772656660425010700,7.4340107421875,9.760921478271484,0.0077766734175384045,0.040677983313798904
1772656660434889700,7.4438896484375,9.763314247131348,0.0077766734175384045,0.04785645380616188
1772656660444768800,7.453768798828125,9.760921478271484,0.0077766734175384045,0.05503492057323456
1772656660454647800,7.463647705078125,9.770493507385254,0.010169495828449726,0.05024927482008934
1772656660464526600,7.473526611328125,9.751350402832031,0.005383851006627083,0.0526420995593071
1772656660474405600,7.483405517578125,9.758528709411621,0.01196411345154047,0.04307080805301666
1772656660484284700,7.49328466796875,9.760921478271484,0.010169495828449726,0.04307080805301666
1772656660494163700,7.503163818359375,9.760921478271484,0.004785645287483931,0.04307080805301666
1772656660504042800,7.513042724609375,9.765707015991211,0.0029910283628851175,0.05024927482008934
1772656660513921800,7.522921875,9.763314247131348,0.004785645287483931,0.040677983313798904
1772656660523800800,7.53280078125,9.765707015991211,0.0077766734175384045,0.04307080805301666
1772656660533679900,7.542679931640625,9.753743171691895,0.02153540402650833,0.04486542567610741
1772656660543558700,7.55255859375,9.765707015991211,0.0077766734175384045,0.040677983313798904
1772656660553437700,7.562437744140625,9.758528709411621,0.009571290574967861,0.04307080805301666
1772656660563316700,7.572316650390625,9.758528709411621,0.0077766734175384045,0.05742774158716202
1772656660573195800,7.58219580078125,9.763314247131348,0.010169495828449726,0.05024927482008934
1772656660583074800,7.59207470703125,9.760921478271484,0.012562318705022335,0.04785645380616188
1772656660592953900,7.601953857421875,9.758528709411621,0.0005982056609354913,0.04546362906694412
1772656660602833000,7.6118330078125,9.756135940551758,0.010169495828449726,0.04785645380616188
1772656660612712000,7.6217119140625,9.763314247131348,0.010169495828449726,0.0526420995593071
1772656660622591000,7.631591064453125,9.756135940551758,0.014955141581594944,0.04307080805301666
1772656660632469800,7.6414697265625,9.758528709411621,0.0029910283628851175,0.05024927482008934
1772656660642348800,7.651348876953125,9.763314247131348,0.0077766734175384045,0.0526420995593071
1772656660652227800,7.661227783203125,9.758528709411621,0.005383851006627083,0.04307080805301666
1772656660662107000,7.67110693359375,9.760921478271484,0.0077766734175384045,0.05024927482008934
1772656660671986000,7.68098583984375,9.758528709411621,0.009571290574967861,0.040677983313798904
1772656660681865000,7.690864990234375,9.760921478271484,0.0029910283628851175,0.04546362906694412
1772656660691744000,7.700743896484375,9.758528709411621,0.005383851006627083,0.04546362906694412
1772656660701623000,7.710623046875,9.760921478271484,0.012562318705022335,0.054436713457107544
1772656660711502000,7.720502197265625,9.770493507385254,0.005383851006627083,0.04546362906694412
1772656660721380900,7.730380859375,9.760921478271484,0.010169495828449726,0.04307080805301666
1772656660731260000,7.740260009765625,9.763314247131348,0.0029910283628851175,0.040677983313798904
1772656660741139000,7.750138916015625,9.760921478271484,0.014955141581594944,0.04785645380616188
1772656660751018000,7.76001806640625,9.760921478271484,0.005383851006627083,0.04785645380616188
1772656660760897000,7.76989697265625,9.753743171691895,0.012562318705022335,0.04785645380616188
1772656660770776000,7.779776123046875,9.758528709411621,0.0077766734175384045,0.04785645380616188
1772656660780655000,7.789655029296875,9.756135940551758,0.012562318705022335,0.0526420995593071
1772656660790534100,7.7995341796875,9.758528709411621,0.0077766734175384045,0.04785645380616188
1772656660800413000,7.809412841796875,9.765707015991211,0.005383851006627083,0.05503492057323456
1772656660810292000,7.8192919921875,9.763314247131348,0.005383851006627083,0.04546362906694412
1772656660820171000,7.8291708984375,9.760921478271484,0.010169495828449726,0.04307080805301666
1772656660830050000,7.839050048828125,9.758528709411621,0.010169495828449726,0.04785645380616188
1772656660839929000,7.84892919921875,9.758528709411621,0.014955141581594944,0.054436713457107544
1772656660849808100,7.85880810546875,9.753743171691895,0.0029910283628851175,0.04546362906694412
1772656660859687200,7.868687255859375,9.765707015991211,0.014955141581594944,0.047258246690034866
1772656660869566200,7.878566162109375,9.768099784851074,0.010169495828449726,0.04785645380616188
1772656660879445200,7.8884453125,9.763314247131348,0.014955141581594944,0.052043892443180084
1772656660889324000,7.898323974609375,9.763314247131348,0.005383851006627083,0.04546362906694412
1772656660899203000,7.908203125,9.772886276245117,0.014955141581594944,0.052043892443180084
1772656660909082000,7.91808203125,9.763314247131348,0.012562318705022335,0.047258246690034866
1772656660918961200,7.927961181640625,9.756135940551758,0.004785645287483931,0.040677983313798904
1772656660928840200,7.937840087890625,9.756135940551758,0.005383851006627083,0.04785645380616188
1772656660938719200,7.94771923828125,9.748957633972168,0.014356935396790504,0.05024927482008934
1772656660948598300,7.957598388671875,9.760921478271484,0.005383851006627083,0.0526420995593071
1772656660958477300,7.967477294921875,9.748957633972168,0.005383851006627083,0.05024927482008934
1772656660968356400,7.9773564453125,9.758528709411621,0.010169495828449726,0.04546362906694412
1772656660978235100,7.987235107421875,9.758528709411621,0.0077766734175384045,0.04546362906694412
1772656660988114200,7.9971142578125,9.758528709411621,0.010169495828449726,0.0526420995593071
1772656660997993200,8.0069931640625,9.760921478271484,0.01196411345154047,0.040677983313798904
1772656661007872300,8.016872314453124,9.756135940551758,0.010169495828449726,0.0526420995593071
1772656661017751300,8.026751220703124,9.753743171691895,0.010169495828449726,0.05024927482008934
1772656661027630300,8.03663037109375,9.765707015991211,0.012562318705022335,0.047258246690034866
1772656661037509400,8.04650927734375,9.760921478271484,0.014955141581594944,0.047258246690034866
1772656661047388200,8.05638818359375,9.753743171691895,0.0029910283628851175,0.04307080805301666
1772656661057267200,8.06626708984375,9.758528709411621,0.0077766734175384045,0.05024927482008934
1772656661067146200,8.076146240234374,9.760921478271484,0.010169495828449726,0.04785645380616188
1772656661077025300,8.086025390625,9.768099784851074,0.010169495828449726,0.04785645380616188
1772656661086904300,8.095904296875,9.758528709411621,0.005383851006627083,0.04785645380616188
1772656661096783400,8.105783447265624,9.760921478271484,0.0077766734175384045,0.04307080805301666
1772656661106662400,8.115662353515624,9.763314247131348,0.005383851006627083,0.0526420995593071
1772656661116541400,8.12554150390625,9.765707015991211,0.005383851006627083,0.0526420995593071
1772656661126420200,8.135420166015624,9.758528709411621,0.014955141581594944,0.04307080805301666
1772656661136299300,8.14529931640625,9.751350402832031,0.0077766734175384045,0.05024927482008934
1772656661146178300,8.15517822265625,9.758528709411621,0.005383851006627083,0.05503492057323456
1772656661156057300,8.165057373046874,9.758528709411621,0.010169495828449726,0.04546362906694412
1772656661165936400,8.174936279296874,9.758528709411621,0.016749758273363113,0.04247260093688965
1772656661175815400,8.1848154296875,9.758528709411621,0.0029910283628851175,0.04546362906694412
1772656661185694500,8.194694580078124,9.756135940551758,0.0077766734175384045,0.0526420995593071
1772656661195573200,8.2045732421875,9.763314247131348,0.0077766734175384045,0.05742774158716202
1772656661205452300,8.214452392578124,9.753743171691895,0.0077766734175384045,0.05024927482008934
1772656661215331300,8.224331298828124,9.758528709411621,0.010169495828449726,0.040677983313798904
1772656661225210400,8.23421044921875,9.765707015991211,0.012562318705022335,0.052043892443180084
1772656661235089400,8.24408935546875,9.758528709411621,0.010169495828449726,0.04307080805301666
1772656661244968400,8.253968505859374,9.760921478271484,-0.001794616924598813,0.04307080805301666
1772656661254847500,8.263847412109374,9.763314247131348,0.004785645287483931,0.040677983313798904
1772656661264726300,8.273726318359374,9.760921478271484,0.012562318705022335,0.049651071429252625
1772656661274605300,8.283605224609374,9.760921478271484,0.0077766734175384045,0.0526420995593071
1772656661284484400,8.293484375,9.760921478271484,0.010169495828449726,0.0526420995593071
1772656661294363400,8.30336328125,9.758528709411621,0.010169495828449726,0.05024927482008934
1772656661304242400,8.313242431640624,9.765707015991211,0.012562318705022335,0.049651071429252625
1772656661314121500,8.32312158203125,9.765707015991211,0.014356935396790504,0.04546362906694412
1772656661324000500,8.33300048828125,9.758528709411621,0.005383851006627083,0.05024927482008934
1772656661333879600,8.342879638671874,9.756135940551758,0.01196411345154047,0.04307080805301666
1772656661343758600,8.352758544921874,9.758528709411621,0.014955141581594944,0.054436713457107544
1772656661353637400,8.362637451171874,9.763314247131348,0.012562318705022335,0.047258246690034866
1772656661363516400,8.372516357421874,9.758528709411621,0.005383851006627083,0.04307080805301666
1772656661373395500,8.3823955078125,9.765707015991211,0.005383851006627083,0.0526420995593071
1772656661383274500,8.3922744140625,9.758528709411621,0.009571290574967861,0.04546362906694412
1772656661393153500,8.402153564453124,9.758528709411621,0.010169495828449726,0.04546362906694412
1772656661403032600,8.412032470703124,9.765707015991211,0.010169495828449726,0.05024927482008934
1772656661412911600,8.42191162109375,9.753743171691895,0.009571290574967861,0.04307080805301666
1772656661422790400,8.431790283203124,9.758528709411621,0.012562318705022335,0.0526420995593071
1772656661432669400,8.44166943359375,9.760921478271484,0.004785645287483931,0.04307080805301666
1772656661442548500,8.451548583984374,9.758528709411621,0.016749758273363113,0.04486542567610741
1772656661452427500,8.461427490234374,9.758528709411621,0.012562318705022335,0.05024927482008934
1772656661462306600,8.471306640625,9.763314247131348,0.010169495828449726,0.04546362906694412
1772656661472185600,8.481185546875,9.763314247131348,0.012562318705022335,0.04307080805301666
1772656661482064400,8.491064453125,9.765707015991211,0.016749758273363113,0.04007977992296219
1772656661491943400,8.500943359375,9.760921478271484,0.010169495828449726,0.05024927482008934
1772656661501822500,8.510822509765624,9.756135940551758,0.014955141581594944,0.05024927482008934
1772656661511701500,8.520701416015624,9.756135940551758,0.010169495828449726,0.04785645380616188
1772656661521580500,8.53058056640625,9.763314247131348,0.0029910283628851175,0.05024927482008934
1772656661531459600,8.54045947265625,9.760921478271484,0.005383851006627083,0.040677983313798904
1772656661541338600,8.550338623046875,9.760921478271484,0.010169495828449726,0.04785645380616188
1772656661551217400,8.560217529296875,9.753743171691895,0.0029910283628851175,0.04307080805301666
1772656661561096400,8.570096435546875,9.753743171691895,0.009571290574967861,0.04546362906694412
1772656661570975500,8.5799755859375,9.763314247131348,0.005383851006627083,0.04785645380616188
1772656661580854500,8.5898544921875,9.760921478271484,0.010169495828449726,0.04785645380616188
1772656661590733600,8.599733642578125,9.758528709411621,0.0077766734175384045,0.05503492057323456
1772656661600612600,8.609612548828125,9.753743171691895,0.005383851006627083,0.04785645380616188
1772656661610491600,8.61949169921875,9.758528709411621,0.005383851006627083,0.04546362906694412
1772656661620370400,8.629370361328125,9.760921478271484,0.005383851006627083,0.04546362906694412
1772656661630249500,8.63924951171875,9.763314247131348,0.0077766734175384045,0.04546362906694412
1772656661640128500,8.64912841796875,9.760921478271484,0.010169495828449726,0.05024927482008934
1772656661650007600,8.659007568359375,9.758528709411621,0.005383851006627083,0.05024927482008934
1772656661659886600,8.668886474609375,9.753743171691895,0.010169495828449726,0.04546362906694412
1772656661669765600,8.678765625,9.756135940551758,0.0077766734175384045,0.04307080805301666
1772656661679644700,8.688644775390625,9.765707015991211,0.012562318705022335,0.040677983313798904
1772656661689523500,8.6985234375,9.760921478271484,0.012562318705022335,0.04785645380616188
1772656661699402500,8.708402587890625,9.765707015991211,0.0077766734175384045,0.040677983313798904
1772656661709281500,8.718281494140625,9.763314247131348,0.0077766734175384045,0.04785645380616188
1772656661719160600,8.72816064453125,9.753743171691895,0.010169495828449726,0.04307080805301666
1772656661729039600,8.73803955078125,9.763314247131348,0.01734796352684498,0.052043892443180084
1772656661738918700,8.747918701171875,9.758528709411621,0.0077766734175384045,0.04785645380616188
1772656661748797700,8.757797607421875,9.756135940551758,0.0077766734175384045,0.04785645380616188
1772656661758676500,8.767676513671875,9.760921478271484,0.014955141581594944,0.04546362906694412
1772656661768555500,8.777555419921875,9.763314247131348,0.010169495828449726,0.04785645380616188
1772656661778434600,8.7874345703125,9.758528709411621,0.0005982056609354913,0.05742774158716202
1772656661788313600,8.797313720703125,9.751350402832031,0.007178467698395252,0.04785645380616188
1772656661798192600,8.807192626953125,9.753743171691895,0.007178467698395252,0.038285162299871445
1772656661808071700,8.81707177734375,9.756135940551758,0.007178467698395252,0.04307080805301666
1772656661817950700,8.82695068359375,9.758528709411621,0.005383851006627083,0.0526420995593071
1772656661827829500,8.83682958984375,9.763314247131348,0.0077766734175384045,0.04785645380616188
1772656661837708500,8.84670849609375,9.765707015991211,0.005383851006627083,0.0526420995593071
1772656661847587600,8.856587646484375,9.756135940551758,0.010169495828449726,0.04785645380616188
1772656661857466600,8.866466552734375,9.760921478271484,0.0029910283628851175,0.04307080805301666
1772656661867345700,8.876345703125,9.760921478271484,0.0077766734175384045,0.05024927482008934
1772656661877224400,8.886224365234375,9.758528709411621,0.010169495828449726,0.0526420995593071
1772656661887103500,8.896103515625,9.758528709411621,0.010169495828449726,0.05024927482008934
1772656661896982500,8.905982421875,9.757930755615234,0.010169495828449726,0.04546362906694412
1772656661906861600,8.915861572265625,9.762716293334961,0.012562318705022335,0.047258246690034866
1772656661916740600,8.92574072265625,9.755537986755371,0.0077766734175384045,0.0526420995593071
1772656661926619600,8.93561962890625,9.755537986755371,0,0.035892341285943985
1772656661936498700,8.945498779296875,9.760323524475098,0.012562318705022335,0.04307080805301666
1772656661946377500,8.95537744140625,9.760323524475098,0.005383851006627083,0.04546362906694412
1772656661956256500,8.965256591796875,9.755537986755371,0.0077766734175384045,0.0526420995593071
1772656661966135600,8.975135498046875,9.760323524475098,0.0005982056609354913,0.05503492057323456
1772656661976014600,8.9850146484375,9.762716293334961,0.0029910283628851175,0.05024927482008934
1772656661985893600,8.9948935546875,9.765109062194824,0.010169495828449726,0.049651071429252625
1772656661995772700,9.004772705078125,9.765109062194824,0.005383851006627083,0.04785645380616188
1772656662005651700,9.014651611328125,9.753145217895508,0.005383851006627083,0.04785645380616188
1772656662015530500,9.024530517578125,9.760323524475098,0.005383851006627083,0.0526420995593071
1772656662025409500,9.034409423828125,9.762716293334961,0.0005982056609354913,0.04307080805301666
1772656662035288600,9.04428857421875,9.762716293334961,0.005383851006627083,0.04546362906694412
1772656662045167600,9.054167724609375,9.765109062194824,0.0077766734175384045,0.0526420995593071
1772656662055046700,9.064046630859375,9.757930755615234,0.012562318705022335,0.04486542567610741
1772656662064925700,9.07392578125,9.755537986755371,0.0029910283628851175,0.04785645380616188
1772656662074804500,9.083804443359375,9.757930755615234,0.0077766734175384045,0.0526420995593071
1772656662084683500,9.09368359375,9.760323524475098,0.012562318705022335,0.04785645380616188
1772656662094562600,9.1035625,9.760323524475098,0.010169495828449726,0.0526420995593071
1772656662104441600,9.113441650390625,9.753743171691895,0.005383851006627083,0.04546362906694412
1772656662114320600,9.123320556640625,9.757930755615234,0.01196411345154047,0.04307080805301666
1772656662124199700,9.13319970703125,9.760323524475098,0.010169495828449726,0.04785645380616188
1772656662134078500,9.143078369140625,9.758528709411621,0.0077766734175384045,0.05024927482008934
1772656662143957500,9.15295751953125,9.760323524475098,0.012562318705022335,0.04307080805301666
1772656662153836500,9.16283642578125,9.760921478271484,0.0005982056609354913,0.04785645380616188
1772656662163715600,9.172715576171875,9.762716293334961,0.010169495828449726,0.04546362906694412
1772656662173594600,9.1825947265625,9.753743171691895,0.0023928226437419653,0.04307080805301666
1772656662183473700,9.1924736328125,9.762716293334961,0.010169495828449726,0.04486542567610741
1772656662193352400,9.2023525390625,9.757930755615234,0.010169495828449726,0.04307080805301666
1772656662203231500,9.2122314453125,9.755537986755371,0.012562318705022335,0.04785645380616188
1772656662213110500,9.222110595703125,9.760323524475098,0.007178467698395252,0.035892341285943985
1772656662222989600,9.231989501953125,9.763314247131348,0.0029910283628851175,0.04546362906694412
1772656662232868600,9.24186865234375,9.756135940551758,0.005383851006627083,0.04307080805301666
1772656662242747600,9.25174755859375,9.757930755615234,0.0077766734175384045,0.04546362906694412
1772656662252626400,9.26162646484375,9.762716293334961,0.012562318705022335,0.04486542567610741
1772656662262505500,9.27150537109375,9.763314247131348,0.005383851006627083,0.05024927482008934
1772656662272384500,9.281384521484375,9.757930755615234,0.012562318705022335,0.049651071429252625
1772656662282263600,9.291263671875,9.757930755615234,0.0029910283628851175,0.04785645380616188
1772656662292142600,9.301142578125,9.757930755615234,0.0029910283628851175,0.04785645380616188
1772656662302021400,9.311021484375,9.757930755615234,0.0029910283628851175,0.038285162299871445
1772656662311900400,9.320900390625,9.757930755615234,0.005383851006627083,0.05742774158716202
1772656662321779500,9.330779541015625,9.760323524475098,0.0077766734175384045,0.05024927482008934
1772656662331658500,9.340658447265625,9.757930755615234,0.012562318705022335,0.04546362906694412
1772656662341537500,9.35053759765625,9.757930755615234,0.0077766734175384045,0.04785645380616188
1772656662351416600,9.36041650390625,9.753145217895508,0.012562318705022335,0.0568295381963253
1772656662361295600,9.370295654296875,9.765109062194824,0.0005982056609354913,0.04785645380616188
1772656662371174400,9.38017431640625,9.755537986755371,0.01734796352684498,0.049651071429252625
1772656662381053400,9.390053466796875,9.755537986755371,0.010169495828449726,0.04546362906694412
1772656662390932500,9.399932373046875,9.755537986755371,0.010169495828449726,0.04546362906694412
1772656662400811500,9.4098115234375,9.753145217895508,0.010169495828449726,0.05024927482008934
1772656662410690600,9.419690673828125,9.748359680175781,0.007178467698395252,0.04307080805301666
1772656662420569300,9.4295693359375,9.757930755615234,0.0029910283628851175,0.05024927482008934
1772656662430448400,9.439448486328125,9.755537986755371,0.010169495828449726,0.04307080805301666
1772656662440327400,9.449327392578125,9.760323524475098,0.012562318705022335,0.04785645380616188
1772656662450206500,9.45920654296875,9.757930755615234,0.012562318705022335,0.04247260093688965
1772656662460085500,9.46908544921875,9.760323524475098,0.012562318705022335,0.047258246690034866
1772656662469964300,9.47896435546875,9.757930755615234,0.010169495828449726,0.04307080805301666
1772656662479843300,9.48884326171875,9.762716293334961,0.010169495828449726,0.04307080805301666
1772656662489722400,9.498722412109375,9.760323524475098,0.010169495828449726,0.04546362906694412
1772656662499601400,9.508601318359375,9.757930755615234,0.010169495828449726,0.04486542567610741
1772656662509480400,9.51848046875,9.765109062194824,0.0077766734175384045,0.04546362906694412
1772656662519359500,9.528359375,9.760323524475098,0.014955141581594944,0.04486542567610741
1772656662529238500,9.538238525390625,9.760323524475098,0.0077766734175384045,0.04546362906694412
1772656662539117300,9.548117431640625,9.762716293334961,0.0077766734175384045,0.04546362906694412
1772656662548996400,9.557996337890625,9.757930755615234,0.0029910283628851175,0.040677983313798904
1772656662558875400,9.56787548828125,9.760323524475098,0.014955141581594944,0.054436713457107544
1772656662568754400,9.57775439453125,9.757930755615234,0.012562318705022335,0.04546362906694412
1772656662578633500,9.587633544921875,9.757930755615234,0.010169495828449726,0.05024927482008934
1772656662588512300,9.59751220703125,9.757930755615234,0.005383851006627083,0.04785645380616188
1772656662598391300,9.607391357421875,9.755537986755371,0.016749758273363113,0.04007977992296219
1772656662608270300,9.617270263671875,9.753145217895508,0.014356935396790504,0.04307080805301666
1772656662618149400,9.6271494140625,9.760323524475098,0.0005982056609354913,0.04307080805301666
1772656662628028400,9.6370283203125,9.760323524475098,0.012562318705022335,0.038285162299871445
1772656662637907200,9.6469072265625,9.757930755615234,0.010169495828449726,0.04785645380616188
1772656662647786200,9.6567861328125,9.755537986755371,0.005383851006627083,0.04785645380616188
1772656662657665300,9.666665283203125,9.755537986755371,0.010169495828449726,0.04785645380616188
1772656662667544300,9.67654443359375,9.753145217895508,0.010169495828449726,0.04546362906694412
1772656662677423400,9.68642333984375,9.757930755615234,0.0077766734175384045,0.04785645380616188
1772656662687302100,9.69630224609375,9.757930755615234,0.0077766734175384045,0.04785645380616188
1772656662697181200,9.70618115234375,9.760323524475098,0.0077766734175384045,0.04546362906694412
1772656662707060200,9.716060302734375,9.762716293334961,0.004785645287483931,0.038285162299871445
1772656662716939300,9.725939208984375,9.765109062194824,0.010169495828449726,0.04486542567610741
1772656662726818300,9.735818359375,9.755537986755371,0.01196411345154047,0.038285162299871445
1772656662736697300,9.745697265625,9.760323524475098,0.0005982056609354913,0.05024927482008934
1772656662746576100,9.755576171875,9.755537986755371,0.010169495828449726,0.0526420995593071
1772656662756455200,9.765455078125,9.755537986755371,0.01196411345154047,0.04247260093688965
1772656662766334200,9.775334228515625,9.765109062194824,0.014955141581594944,0.05024927482008934
1772656662776213200,9.785213134765625,9.760323524475098,0.012562318705022335,0.04486542567610741
1772656662786092300,9.79509228515625,9.762716293334961,0.0077766734175384045,0.04307080805301666
1772656662795971000,9.80497119140625,9.762716293334961,0.005383851006627083,0.04785645380616188
1772656662805850000,9.81485009765625,9.755537986755371,0.005383851006627083,0.04307080805301666
1772656662815729200,9.824729248046875,9.760323524475098,0.0029910283628851175,0.040677983313798904
1772656662825608200,9.834608154296875,9.753145217895508,0.0077766734175384045,0.04546362906694412
1772656662835487200,9.8444873046875,9.757930755615234,0.010169495828449726,0.0568295381963253
1772656662845366000,9.854365966796875,9.753145217895508,0.010169495828449726,0.04785645380616188
1772656662855245000,9.8642451171875,9.750752449035645,0.009571290574967861,0.04307080805301666
1772656662865124000,9.8741240234375,9.755537986755371,0.01196411345154047,0.04307080805301666
1772656662875003100,9.884003173828125,9.760323524475098,0.012562318705022335,0.049651071429252625
1772656662884882200,9.893882080078125,9.765109062194824,0.005383851006627083,0.040677983313798904
1772656662894761200,9.90376123046875,9.753145217895508,0.005383851006627083,0.04546362906694412
1772656662904640000,9.913639892578125,9.757930755615234,0.010169495828449726,0.052043892443180084
1772656662914519000,9.92351904296875,9.760323524475098,0.0029910283628851175,0.038285162299871445
1772656662924398000,9.933398193359375,9.760323524475098,0.012562318705022335,0.04785645380616188
1772656662934277000,9.943277099609375,9.765109062194824,0.0077766734175384045,0.04307080805301666
1772656662944156200,9.95315625,9.755537986755371,0.010169495828449726,0.049651071429252625
1772656662954035000,9.963034912109375,9.757930755615234,0.0077766734175384045,0.04546362906694412
1772656662963914000,9.9729140625,9.757930755615234,0.0077766734175384045,0.04307080805301666
1772656662973793000,9.98279296875,9.755537986755371,0.012562318705022335,0.047258246690034866
1772656662983672000,9.992672119140625,9.760323524475098,0.005383851006627083,0.052043892443180084
1772656662993551000,10.002551025390625,9.762716293334961,0.005383851006627083,0.05024927482008934
1772656663003430000,10.012429931640625,9.760323524475098,0.005383851006627083,0.054436713457107544
1772656663013309000,10.022308837890625,9.750752449035645,0.01734796352684498,0.052043892443180084
1772656663023188000,10.03218798828125,9.753145217895508,0.0029910283628851175,0.04785645380616188
1772656663033067000,10.04206689453125,9.757930755615234,0.005383851006627083,0.038285162299871445
1772656663042945800,10.05194580078125,9.765109062194824,0.005383851006627083,0.04546362906694412
1772656663052824800,10.061824951171875,9.755537986755371,0.01196411345154047,0.038285162299871445
1772656663062703900,10.071703857421875,9.760323524475098,0.005383851006627083,0.04546362906694412
1772656663072583000,10.0815830078125,9.753145217895508,0.0005982056609354913,0.040677983313798904
1772656663082462000,10.0914619140625,9.757930755615234,0.010169495828449726,0.052043892443180084
1772656663092341000,10.101341064453125,9.765109062194824,0.0077766734175384045,0.040677983313798904
1772656663102219800,10.1112197265625,9.753145217895508,0.012562318705022335,0.04546362906694412
1772656663112098800,10.121098876953125,9.753145217895508,0.010169495828449726,0.04546362906694412
1772656663121977900,10.130977783203125,9.757930755615234,0.0077766734175384045,0.0526420995593071
1772656663131857000,10.14085693359375,9.760323524475098,0.0077766734175384045,0.049651071429252625
1772656663141736000,10.15073583984375,9.755537986755371,0.004785645287483931,0.038285162299871445
1772656663151614700,10.16061474609375,9.760323524475098,0.0077766734175384045,0.0526420995593071
1772656663161493800,10.17049365234375,9.760323524475098,0.010169495828449726,0.04546362906694412
1772656663171372800,10.180372802734375,9.760323524475098,0.005383851006627083,0.05024927482008934
1772656663181251800,10.190251953125,9.755537986755371,0.010169495828449726,0.040677983313798904
1772656663191131000,10.200130859375,9.760323524475098,0.010169495828449726,0.05503492057323456
1772656663201009700,10.210009765625,9.757930755615234,0.0077766734175384045,0.038285162299871445
1772656663210888700,10.219888671875,9.762716293334961,0.010169495828449726,0.049651071429252625
1772656663220767700,10.229767822265625,9.757930755615234,0.005383851006627083,0.04307080805301666
1772656663230646800,10.239646728515625,9.760323524475098,0.0029910283628851175,0.04785645380616188
1772656663240525800,10.24952587890625,9.760323524475098,0.010169495828449726,0.047258246690034866
1772656663250404600,10.259404541015625,9.753145217895508,0.010169495828449726,0.04307080805301666
1772656663260283600,10.26928369140625,9.762716293334961,0.010169495828449726,0.038285162299871445
1772656663270162700,10.27916259765625,9.760323524475098,0.010169495828449726,0.054436713457107544
1772656663280041700,10.289041748046875,9.757930755615234,0.005383851006627083,0.04785645380616188
1772656663289920500,10.29892041015625,9.755537986755371,0.0077766734175384045,0.04785645380616188
1772656663299799600,10.308799560546875,9.753145217895508,0.0029910283628851175,0.04546362906694412
1772656663309678600,10.3186787109375,9.757930755615234,0.0077766734175384045,0.049651071429252625
1772656663319557600,10.3285576171875,9.755537986755371,0.01734796352684498,0.052043892443180084
1772656663329436700,10.338436767578125,9.753145217895508,0.0029910283628851175,0.04546362906694412
1772656663339315500,10.3483154296875,9.757930755615234,0.0077766734175384045,0.04785645380616188
1772656663349194500,10.358194580078125,9.755537986755371,0.0029910283628851175,0.04546362906694412
1772656663359073500,10.368073486328125,9.757930755615234,0.012562318705022335,0.04546362906694412
1772656663368952600,10.37795263671875,9.755537986755371,0.0077766734175384045,0.05024927482008934
1772656663378831600,10.38783154296875,9.762716293334961,0.014955141581594944,0.04486542567610741
1772656663388710400,10.39771044921875,9.760323524475098,0.010169495828449726,0.0526420995593071
1772656663398589400,10.40758935546875,9.762716293334961,0.010169495828449726,0.05024927482008934
1772656663408468500,10.417468505859375,9.760323524475098,0.0077766734175384045,0.04785645380616188
1772656663418347500,10.427347412109375,9.757930755615234,0.0077766734175384045,0.05024927482008934
1772656663428226600,10.4372265625,9.760323524475098,0.010169495828449726,0.05024927482008934
1772656663438105300,10.447105224609375,9.760323524475098,0.0077766734175384045,0.04785645380616188
1772656663447984400,10.456984375,9.755537986755371,0.01196411345154047,0.038285162299871445
1772656663457863400,10.466863525390625,9.760323524475098,0.014955141581594944,0.047258246690034866
1772656663467742500,10.476742431640625,9.757930755615234,0.01196411345154047,0.04007977992296219
1772656663477621200,10.486621337890625,9.757930755615234,0.010169495828449726,0.05503492057323456
1772656663487500300,10.496500244140625,9.767501831054688,0.010169495828449726,0.04546362906694412
1772656663497379300,10.50637939453125,9.762716293334961,0.010169495828449726,0.052043892443180084
1772656663507258400,10.51625830078125,9.762716293334961,0.01734796352684498,0.052043892443180084
1772656663517137200,10.52613720703125,9.767501831054688,0.010169495828449726,0.04247260093688965
1772656663527016200,10.53601611328125,9.755537986755371,0.005383851006627083,0.05503492057323456
1772656663536895200,10.545895263671875,9.755537986755371,0.004785645287483931,0.038285162299871445
1772656663546774300,10.555774169921875,9.765109062194824,0.010169495828449726,0.040677983313798904
1772656663556653300,10.5656533203125,9.760323524475098,0.0077766734175384045,0.04307080805301666
1772656663566532000,10.575531982421875,9.762716293334961,0.012562318705022335,0.04486542567610741
1772656663576411100,10.5854111328125,9.762716293334961,0.0029910283628851175,0.0526420995593071
1772656663586290200,10.595290283203125,9.760323524475098,0.0077766734175384045,0.04546362906694412
1772656663596169200,10.605169189453125,9.755537986755371,0.012562318705022335,0.047258246690034866
1772656663606048300,10.61504833984375,9.760323524475098,0.010169495828449726,0.04546362906694412
1772656663615927000,10.624927001953125,9.765109062194824,0.014955141581594944,0.04247260093688965
1772656663625806000,10.63480615234375,9.757930755615234,0.010169495828449726,0.047258246690034866
1772656663635685000,10.64468505859375,9.760323524475098,0.010169495828449726,0.04307080805301666
1772656663645564200,10.654564208984375,9.750752449035645,0.010169495828449726,0.04307080805301666
1772656663655443000,10.66444287109375,9.760323524475098,0.005383851006627083,0.04546362906694412
1772656663665322000,10.674322021484375,9.760323524475098,0.007178467698395252,0.03349951654672623
1772656663675201000,10.684200927734375,9.757930755615234,0.0077766734175384045,0.04546362906694412
1772656663685080000,10.694080078125,9.757930755615234,0.0029910283628851175,0.0526420995593071
1772656663694959000,10.703958984375,9.760323524475098,0.012562318705022335,0.05024927482008934
1772656663704838000,10.713837890625,9.760323524475098,0.0077766734175384045,0.04785645380616188
1772656663714717000,10.723717041015625,9.760323524475098,0.012562318705022335,0.040677983313798904
1772656663724596000,10.733595947265625,9.755537986755371,0.005383851006627083,0.04546362906694412
1772656663734475000,10.74347509765625,9.753145217895508,0.0005982056609354913,0.04546362906694412
1772656663744353800,10.753353759765625,9.760323524475098,0.010169495828449726,0.04486542567610741
1772656663754232800,10.76323291015625,9.750752449035645,0.005383851006627083,0.04785645380616188
1772656663764112000,10.77311181640625,9.757930755615234,0.012562318705022335,0.04785645380616188
1772656663773991000,10.782990966796875,9.755537986755371,0.0077766734175384045,0.04307080805301666
1772656663783870000,10.792869873046875,9.765109062194824,0.0077766734175384045,0.04486542567610741
1772656663793748700,10.802748779296875,9.757930755615234,0.014955141581594944,0.04486542567610741
1772656663803627800,10.812627685546875,9.760323524475098,0.010169495828449726,0.04486542567610741
1772656663813506800,10.8225068359375,9.765109062194824,0.0029910283628851175,0.04546362906694412
1772656663823385900,10.8323857421875,9.765109062194824,0.005383851006627083,0.04785645380616188
1772656663833264600,10.8422646484375,9.762716293334961,0.014955141581594944,0.052043892443180084
1772656663843143700,10.852143798828125,9.760323524475098,0.010169495828449726,0.04247260093688965
1772656663853022700,10.862022705078125,9.757930755615234,0.014955141581594944,0.04486542567610741
1772656663862901800,10.87190185546875,9.760323524475098,0.005383851006627083,0.040677983313798904
1772656663872780500,10.881780517578125,9.767501831054688,0.014955141581594944,0.047258246690034866
