time,seconds_elapsed,z,y,x
1772556604855213800,0.0752138671875,0.532194321078062,-1.945514474326372,-1.1098019013315439
1772556604865197800,0.08519775390625,0.21319559143483638,-1.953103029759228,-0.9729434073850511
1772556604875181800,0.095181884765625,-0.40899347334504127,-2.1756834123939273,-1.1404992374122143
1772556604885166800,0.105166748046875,-1.2885516178071499,-1.8782187614277004,-1.242434448146075
1772556604895150800,0.11515087890625,-2.6590537890702484,-0.8284323528587818,-0.9988542398415505
1772556604905134800,0.125134765625,-4.331933810043335,0.18098755853027104,-0.4824968087121844
1772556604915118800,0.135118896484375,-5.382359393298626,0.7187941665321588,0.1027187623269856
1772556604925103900,0.145103759765625,-5.328754644361138,1.030417691232264,0.35743279745578765
1772556604935087900,0.155087890625,-4.455609289550781,1.3081158577159047,0.21896409183368085
1772556604945071900,0.16507177734375,-2.6120816100150344,1.4538292737692593,0.337981954793632
1772556604955055900,0.175055908203125,-0.14746201328635214,1.5557275134935975,0.6792533065214753
1772556604965041000,0.185041015625,1.6117033754765986,1.6844500472575425,1.107294448555261
1772556604975025000,0.19502490234375,2.0844173335820435,1.3140712589889765,1.593326591786742
1772556604985009000,0.2050087890625,1.812632775056362,0.8924462676078081,1.8467947185076772
1772556604994992600,0.21499267578125,1.2511720274835825,0.2750008902236819,1.729616053673625
1772556605004978000,0.22497802734375,0.5778565865784883,-0.28024434383511543,1.597315953683853
1772556605014962000,0.2349619140625,0.275614345946908,-0.7000210770010947,1.5487291790388524
1772556605024945700,0.244945556640625,0.23388474372029303,-1.061917868128419,1.4588529471501708
1772556605034929700,0.2549296875,0.15714754099845885,-1.0402458422854541,1.4663639073021708
1772556605044914700,0.264914794921875,-0.04366261611580848,-0.6699833738729357,1.603791287177801
1772556605054898700,0.274898681640625,-0.3380927216917276,-0.4332274586305022,1.5866902225121855
1772556605064882700,0.284882568359375,-0.8612415665268898,-0.31521804206073284,1.59943382262066
1772556605074866700,0.29486669921875,-1.0115431871533394,-0.23507366124391554,1.4467238256782293
1772556605084851700,0.304851806640625,-0.7058183651030063,-0.10169424158483743,1.030907374445349
1772556605094835700,0.314835693359375,-0.21730419579744337,-0.08093114728033542,0.47575975554212924
1772556605104819700,0.32481982421875,0.14897066428363323,-0.1394543556585908,-0.11717588835507631
1772556605114803700,0.3348037109375,0.45465456980168817,-0.13400748842954635,-0.5069605111002922
1772556605124788700,0.344788818359375,0.665497460630536,-0.10836305182427167,-0.6328973596684634
1772556605134772700,0.354772705078125,0.757056384909153,-0.14777911641150712,-0.530145717985183
1772556605144756700,0.3647568359375,0.8795043684482574,-0.17280542111843825,-0.253955033455044
1772556605154740700,0.37474072265625,0.8535346454113721,-0.2220239177957177,-0.043403380657732485
1772556605164725800,0.384725830078125,0.6613865181803703,-0.2848351787567138,0.23871172548532485
1772556605174709800,0.394709716796875,0.2970978634804487,-0.39556262162476774,0.5743674292884766
1772556605184693800,0.40469384765625,-0.06645721624791621,-0.46688013738542794,1.3225984104461967
1772556605194677800,0.414677734375,0.8880980092704296,-0.11018559107631444,1.573131798889488
1772556605204662800,0.424662841796875,2.51876502841413,0.09975362891107797,1.3854928196460008
1772556605214646800,0.434646728515625,1.7578151431977749,0.18218992005735635,1.3363164085447787
1772556605224630800,0.444630859375,1.909929950726032,0.16426584857106208,1.2096559218771754
1772556605234614800,0.45461474609375,1.97558228033185,0.1924906570583582,1.0987070913434027
1772556605244599800,0.464599853515625,1.9042834692716597,0.28440935456007715,1.043998765078187
1772556605254583800,0.474583740234375,2.0077537806183097,0.2781710446923971,1.053635923603922
1772556605264567800,0.48456787109375,2.085639568853378,0.2131537981197238,0.99320907356143
1772556605274551800,0.4945517578125,1.9332079504609108,0.2422264556080103,0.9536486320674419
1772556605284536800,0.504536865234375,1.6712345918536184,0.093410689625144,0.9478513439655304
1772556605294520800,0.514520751953125,1.5897586701720952,0.02285188327729702,0.9700291273735463
1772556605304504800,0.5245048828125,1.4608745161056518,0.037625089517235755,0.9126716017737984
1772556605314488800,0.53448876953125,1.1631272488057613,-0.06712824737727642,0.8071566328570247
1772556605324473900,0.544473876953125,0.9853232887476682,-0.21476707853525875,0.6156333595260978
1772556605334457300,0.554457275390625,0.732982850882411,-0.3557318387567997,0.4617323261681944
1772556605344441300,0.56444140625,0.36770635418891906,-0.58454877769351,0.5603451875463128
1772556605354425300,0.57442529296875,0.03547755609452724,-0.7891559890031814,0.7065802893862128
1772556605364410400,0.584410400390625,-0.1583095705151558,-1.0094713493153453,0.7559338106200099
1772556605374394400,0.594394287109375,-0.27093583274185656,-1.1503867174372076,0.8006295691758394
1772556605384378400,0.60437841796875,-0.3796738553583622,-1.2307540933549403,0.8783063908353448
1772556605394362400,0.6143623046875,-0.2745113531410694,-1.2619818830505012,0.8800474623490124
1772556605404347400,0.624347412109375,-0.03237316033840179,-1.3592562623664737,0.7763429769203066
1772556605414331400,0.634331298828125,0.1578121423870325,-1.4509493344187736,0.5883802456151693
1772556605424315400,0.6443154296875,-0.06831891846656798,-1.067766301895678,0.33762568870186804
1772556605434299400,0.65429931640625,-0.7686632360726594,-0.28070757743269203,0.1606043669214472
1772556605444284400,0.664284423828125,-1.5325012439459562,-0.015666063426434992,-0.059095820634439584
1772556605454268400,0.674268310546875,-2.3026304609179498,-0.20391542965322731,-0.25835977122001347
1772556605464252400,0.68425244140625,-3.224374719202518,0.11103986981809139,-0.27937945236777884
1772556605474236400,0.694236328125,-3.7857723384112116,0.6359513404116034,-0.30135533826183525
1772556605484221400,0.704221435546875,-3.65158832437098,0.9221846955284476,-0.5210782856388018
1772556605494205400,0.714205322265625,-3.836371475791931,0.760603555996716,-1.387812494765222
1772556605504189400,0.724189453125,-2.398897124496102,0.7367305129781365,-1.4920722029238938
1772556605514173400,0.73417333984375,-2.2071815434634683,1.1388514702051877,-1.5655201548419893
1772556605524158500,0.744158447265625,-1.4746113650351762,1.3850789781481028,-1.67002419315055
1772556605534142500,0.754142578125,-1.2528034280776976,1.5815712720632553,-1.6753515256531535
1772556605544126500,0.76412646484375,-1.1462480101972818,1.4054060191228985,-1.5687264035373925
1772556605554110500,0.7741103515625,-1.1725614321053028,1.081681137740612,-1.302851507446915
1772556605564095500,0.784095458984375,-1.3821388330429791,0.6341703022137284,-0.7886287502586841
1772556605574079500,0.79407958984375,-1.3300842361569405,0.18586685500442982,-0.1697106699734926
1772556605584063500,0.8040634765625,-1.1105354763031006,-0.10978928523510693,0.2884390484675765
1772556605594047500,0.814047607421875,-0.9828794027268886,-0.5117559286832809,0.5159430051095784
1772556605604032500,0.824032470703125,-0.947439840555191,-0.6839210060715675,0.47045814200267194
1772556605614016500,0.8340166015625,-0.8231114500969647,-0.8190297337412834,0.38626463192552324
1772556605624000500,0.84400048828125,-0.5531336487323045,-1.0000380427986384,0.39752486160844563
1772556605633984500,0.853984619140625,-0.39084640675783155,-1.0951011758059264,0.419428650380671
1772556605643968500,0.863968505859375,-0.23902561374008655,-1.019335740725696,0.3722334762245416
1772556605653953500,0.87395361328125,0.04099485821127891,-0.829981920388341,0.29930472587496043
1772556605663937500,0.8839375,0.2978501431524753,-0.570481089374423,0.12919190484136342
1772556605673921300,0.89392138671875,0.49388124929666516,-0.2921533928155899,-0.18841069426834584
1772556605683905300,0.9039052734375,0.5984019464790821,0.07509674203842878,-0.5842249525666237
1772556605693890600,0.913890625,0.8987561814069748,0.31717385230362416,-1.0495251272842288
1772556605703874300,0.923874267578125,1.1224825192064045,0.5167784330204129,-1.4598711842820047
1772556605713858300,0.9338583984375,1.2960925347059964,0.3854796190276742,-1.7010034149125217
1772556605723842300,0.94384228515625,1.3758768500387668,0.27811346928626296,-1.744401827134192
1772556605733827300,0.953827392578125,1.5684335580706597,0.2224997186139226,-1.7908675179719924
1772556605743811300,0.963811279296875,1.944149615713954,-0.02742050636708736,-1.9346642867490649
1772556605753795300,0.97379541015625,2.206473687455058,-0.1839002311065793,-1.8783049784064292
1772556605763779300,0.983779296875,2.3171698584020137,-0.48903380926549433,-1.5876663740679622
1772556605773764400,0.993764404296875,2.532444594198465,-0.9697995564013719,-1.3603586706504225
1772556605783748400,1.003748291015625,3.1464573667854068,-1.1814046637743711,-1.4723358213186264
1772556605793732400,1.013732421875,3.3180034354925154,-0.6893561828628182,-1.5948884342759846
1772556605803716400,1.02371630859375,3.5867537408888337,-0.2690133402466774,-1.4838313210621474
1772556605813701400,1.033701416015625,3.531692947924137,-0.2108829305782914,-1.4892393175855279
1772556605823685400,1.043685302734375,3.03104527323246,-0.4289148561283946,-1.2617282005503774
1772556605833669400,1.05366943359375,2.2362439718186855,-0.41602585619986054,-0.900143251851201
1772556605843653400,1.0636533203125,1.8038199385255573,-0.3624287060469389,-0.8258560726299882
1772556605853638400,1.073638427734375,1.561871715337038,0.018062018652260304,-0.7435656196951865
1772556605863622400,1.083622314453125,1.080683358874917,0.29117431865036486,-0.48670215144753454
1772556605873606400,1.0936064453125,0.4587438849419355,0.2872448702469468,-0.580156680214405
1772556605883590400,1.10359033203125,-0.1818330694437027,0.3877899417966604,-0.5887240175515412
1772556605893575400,1.113575439453125,-0.7456511937975883,0.4827034372001886,-0.48165100553780793
1772556605903559400,1.123559326171875,-1.1570078891426323,0.5333414452865719,-0.35811522676199675
1772556605913543400,1.13354345703125,-1.6801403673648834,0.5329933625012636,-0.14516951843500137
1772556605923527400,1.14352734375,-2.0936451806545255,0.53493017578274,-0.10199673166275024
1772556605933512400,1.153512451171875,-2.186554935020208,0.5892528637312352,-0.2744675139993429
1772556605943496400,1.163496337890625,-2.228180492350459,0.6314426308155059,-0.4738935232788324
1772556605953480400,1.17348046875,-2.4387778839856384,0.49067850773259997,-0.49204088212698693
1772556605963464400,1.18346435546875,-2.7092238873839376,0.22463833807781336,-0.3271870045349002
1772556605973449500,1.193449462890625,-2.7170558961838482,0.019646072973310946,-0.16478636531382798
1772556605983433500,1.20343359375,-2.4401444961637258,-0.1701527146525681,-0.2082014364093542
1772556605993417500,1.21341748046875,-2.333115615552664,-0.36696035812720657,-0.36188422390669583
1772556606003401500,1.2234013671875,-2.4341344420939683,-0.6789250974804163,-0.2895245056167245
1772556606013386500,1.233386474609375,-2.9390263302266595,-0.9795236625581979,0.22973989900052547
1772556606023370500,1.24337060546875,-3.5738591880023476,-1.3240306352064013,0.9314233562558889
1772556606033354500,1.2533544921875,-4.016577236294746,-1.6312549020342528,1.7014496973752975
1772556606043338500,1.26333837890625,-4.278969112575054,-1.5628271163657306,2.486176179498434
1772556606053323500,1.273323486328125,-4.256415919983387,-1.2226768776223063,2.86616041598022
1772556606063307500,1.2833076171875,-3.7346845407307145,-0.8778802743777632,2.8728315643072126
1772556606073291500,1.29329150390625,-2.877314262679219,-0.3217129570379853,2.521156015203893
1772556606083275500,1.303275634765625,-1.72056122508049,0.2077931478694081,1.5943325539588926
1772556606093260500,1.313260498046875,-0.45453883446753024,0.4924918407648802,0.893863733190298
1772556606103244500,1.32324462890625,0.36053602416813374,0.68212593934834,0.3238286340177059
1772556606113228500,1.333228515625,0.7081810025811195,0.5902890749111771,-0.16500409971773625
1772556606123212500,1.343212646484375,0.9184627523958683,0.45587183663696046,-0.25495909593105315
1772556606133197600,1.353197509765625,1.133524722224474,0.3032268677547574,0.10959990014284848
1772556606143181600,1.363181640625,1.3395137432813644,0.1129740527510643,0.627291064094007
1772556606153165600,1.37316552734375,1.461113001036644,-0.1033121981754899,1.2249407309010625
1772556606163149300,1.3831494140625,1.5239946968853473,-0.1913674982473254,1.5759420340046286
1772556606173134600,1.393134521484375,1.6115513997852802,-0.2521747259095311,1.7798828903600572
1772556606183118600,1.40311865234375,1.68227270321846,-0.2634925309985876,1.831698710054159
1772556606193102300,1.413102294921875,1.6228180592089891,-0.19444325243085622,1.7693641266942024
1772556606203086300,1.42308642578125,1.4910492896169423,-0.09984598336964845,1.5839268952786922
1772556606213071400,1.4330712890625,1.3443985927134752,0.11310381661057471,1.1946569440573453
1772556606223055400,1.443055419921875,1.2303384982913732,0.4607362278029322,0.7187488660857081
1772556606233039400,1.453039306640625,1.4287608834862708,0.8401435411795973,0.21218232273906468
1772556606243023400,1.4630234375,1.5882178704708814,1.1519576200157404,-0.1821431583061814
1772556606253008400,1.47300830078125,1.6974427998214958,1.3330252580448985,-0.4385182585150003
1772556606262992400,1.482992431640625,1.888893007916212,1.3902240859515964,-0.5758136825740338
1772556606272976400,1.492976318359375,2.0266227317392826,1.3793829584635793,-0.6153706169366836
1772556606282960400,1.50296044921875,2.088679667201638,1.327756816122681,-0.6361670289888978
1772556606292945400,1.5129453125,2.045446674674749,1.2650655282795429,-0.5956774899512529
1772556606302929400,1.522929443359375,1.9220634561121464,1.1552268509447574,-0.4905485977426171
1772556606312913400,1.532913330078125,1.7568384071201084,1.0223119800575078,-0.35902474282234903
1772556606322897400,1.5428974609375,1.6027251192510128,0.8346275542370974,-0.26687837404459713
1772556606332882400,1.55288232421875,1.5667033732771873,0.6563530540578066,-0.21774287947565316
1772556606342866400,1.562866455078125,1.5451660797297955,0.5301030478872358,-0.19576047250926493
1772556606352850400,1.572850341796875,1.4634335529386997,0.39599049164801836,-0.2769835884734988
1772556606362834400,1.58283447265625,1.3461790463894605,0.2958407030262053,-0.35391485246270893
1772556606372819500,1.5928193359375,1.2466852374583481,0.2268630283899605,-0.41174540240168567
1772556606382803500,1.602803466796875,1.3537018431097267,0.169389182934165,-0.6026265784367919
1772556606392787500,1.612787353515625,1.4232044184029102,0.09982508671209216,-0.7345216047570109
1772556606402771500,1.622771484375,1.3899977298498152,-0.07964403007924556,-0.7597673974335193
1772556606412756500,1.632756591796875,1.342667823398113,-0.32354280281364917,-0.7195648586437106
1772556606422740500,1.642740478515625,1.1686024653464555,-0.5240662519410252,-0.5546802936524152
1772556606432724500,1.652724365234375,0.8718494697809219,-0.6911392668873071,-0.306120251108706
1772556606442708500,1.66270849609375,0.5522855074703693,-0.8713513110004365,-0.052636196166276926
1772556606452693500,1.672693603515625,0.35611470059454436,-1.006460330931097,0.18866320772469042
1772556606462677500,1.682677490234375,0.161817286375165,-1.175647707682848,0.3612462182641029
1772556606472661500,1.69266162109375,0.01316869365274906,-1.3179840485185383,0.36297874114513395
1772556606482645500,1.7026455078125,-0.09902034620046615,-1.3124202769115567,0.29451836838126183
1772556606492630500,1.712630615234375,0.0019698387682437896,-1.215473668245226,0.1534226752564311
1772556606502614500,1.722614501953125,0.11034136615991592,-1.0676856378749013,0.024686405228078363
1772556606512598500,1.7325986328125,0.17933833001852034,-0.9355103333085775,-0.027798984290659426
1772556606522583600,1.74258349609375,0.1196142214179039,-0.8470753862693905,0.012535948707163333
1772556606532567600,1.752567626953125,-0.10178279665112495,-0.8184400972850621,0.13907061703801155
1772556606542551600,1.762551513671875,-0.4610609297126531,-0.917693959980458,0.293615282061696
1772556606552535600,1.77253564453125,-0.9702800333946943,-1.0618033018380404,0.6028089492663741
1772556606562520600,1.7825205078125,-1.6045681167691945,-1.1204622654251755,1.0382631440356374
1772556606572504600,1.792504638671875,-2.142669616064429,-1.217238047569245,1.3321698102593422
1772556606582488600,1.802488525390625,-2.4379174677640196,-1.2458074317105114,1.4049267111733554
1772556606592472600,1.81247265625,-2.6378561027407645,-1.0089230677828191,1.538163799752295
1772556606602457600,1.82245751953125,-3.091397742864489,-0.5427493251010775,1.8300439285844563
1772556606612441600,1.832441650390625,-3.334576384630799,-0.19540069928616285,1.9044395366162061
1772556606622425600,1.842425537109375,-3.120460755741596,0.08246493271887302,1.3992305453583598
1772556606632409600,1.85240966796875,-2.6308751578122376,0.6354812386818229,0.574798660312593
1772556606642394600,1.86239453125,-1.9462112244188785,1.2725073687180877,-0.23264058887809513
1772556606652378600,1.872378662109375,-1.2936720295608042,1.8478391129940748,-0.9436001162618398
1772556606662362600,1.882362548828125,-0.7712643584817648,2.2043640018247066,-1.5528943358942866
1772556606672346400,1.892346435546875,-0.38042905763983725,2.3474504303753374,-1.8989859473854303
1772556606682331600,1.90233154296875,-0.37893034351468086,2.2482839537024497,-1.860667907167971
1772556606692315600,1.912315673828125,-0.7545797656625509,1.965968064290285,-1.5231591228440402
1772556606702299400,1.92229931640625,-1.117142327222228,1.5679542501211166,-1.0880118020668625
1772556606712283400,1.932283447265625,-1.1763906350046396,1.067281440988183,-0.5456622899383307
1772556606722268700,1.9422685546875,-0.972893430763483,0.5014446702882647,-0.11608780085742473
1772556606732252400,1.95225244140625,-0.7515244697451591,-0.08354366786628961,-0.07832184156477451
1772556606742236400,1.962236328125,-0.721255588209629,-0.672538026791811,-0.06699672995209693
1772556606752220400,1.972220458984375,-0.8249047632545232,-1.1310557017624379,0.0752832045212388
1772556606762205400,1.982205322265625,-0.8624035960435866,-1.5218015707552432,0.18793197084069252
1772556606772189400,1.992189453125,-0.7324082658648491,-1.7343576952427624,0.13398469207584857
1772556606782173400,2.00217333984375,-0.4648118066787719,-1.7383508565321564,-0.04997895965576172
1772556606792157400,2.012157470703125,-0.17586685451567172,-1.6291855484142899,-0.24169512521028516
1772556606802142500,2.022142578125,0.07178688683807849,-1.5254428498670458,-0.40675767711699007
1772556606812126500,2.03212646484375,0.26336744331419465,-1.3985755885809659,-0.5090519304215908
1772556606822110500,2.0421103515625,0.4633358889073133,-1.1767059845641255,-0.6564733194366097
1772556606832094500,2.052094482421875,0.5750006126254796,-0.9252715556278824,-0.844789905680716
1772556606842079500,2.06207958984375,0.6066209087699651,-0.6834589415177702,-1.0520540612399578
1772556606852063500,2.0720634765625,0.5868260749757289,-0.44404812785238024,-1.2851572991937399
1772556606862047500,2.082047607421875,0.6381330683648586,-0.250929109762609,-1.4801663688138127
1772556606872031500,2.092031494140625,0.69706456528306,-0.13336129948049782,-1.6549965737581251
1772556606882016500,2.1020166015625,0.8126619522750377,-0.07036299151480198,-1.764519317011535
1772556606892000500,2.11200048828125,1.0687778170257807,-0.05743190601021051,-1.7374007162004708
1772556606901984500,2.121984619140625,1.2905927682459353,-0.05240092610567808,-1.7077160642936824
1772556606911969500,2.131969482421875,1.3615630780041217,-0.09697276602089404,-1.6326406573042274
1772556606921953500,2.14195361328125,1.4811059877514838,-0.21663228788524866,-1.4822481435239314
1772556606931937500,2.1519375,1.627280883836746,-0.3181003194987774,-1.3487564956620335
1772556606941921500,2.161921630859375,1.7030027720361947,-0.3892629369586706,-1.2174120889618991
1772556606951906600,2.171906494140625,1.6788754619956014,-0.4436261030480265,-1.0924556297332049
1772556606961890600,2.181890625,1.6796511225432156,-0.47668256947547194,-1.0499234789520502
1772556606971874600,2.19187451171875,1.6413199305832384,-0.47340837011039255,-1.073161438937485
1772556606981858600,2.201858642578125,1.5786165139108896,-0.39128012199997897,-1.1137056307718156
1772556606991843600,2.211843505859375,1.5196388397634029,-0.29949557227194307,-1.1915101704642177
1772556607001827600,2.22182763671875,1.2856915522009134,-0.2735506914153695,-1.2073866617709397
1772556607011811600,2.2318115234375,0.9580524199843407,-0.3279468829914927,-1.1383154636323451
1772556607021795600,2.241795654296875,0.6279653100937604,-0.35243455077707764,-0.9721341368287801
1772556607031780600,2.251780517578125,0.12064005733430384,-0.41161417723745103,-0.6723454268291592
1772556607041764600,2.2617646484375,-0.36491760025322434,-0.42914778810143467,-0.3291550897374749
1772556607051748600,2.27174853515625,-0.9503770630508661,-0.30988106494694945,0.028731296704709527
1772556607061732600,2.281732666015625,-1.234096974042058,-0.1746758911654353,0.24934184057116507
1772556607071717400,2.29171728515625,-1.2506558946549893,0.015910685837268828,0.19783231034725904
1772556607081701600,2.30170166015625,-1.2256447875171899,0.2181853625461459,0.0038859015226364135
1772556607091685600,2.311685546875,-1.1270856290876865,0.3934443142965436,-0.102689097841084
1772556607101669600,2.321669677734375,-1.0477484730005264,0.4178650543257594,-0.07852116352915764
1772556607111654400,2.331654296875,-0.9564356324374675,0.24870354266762731,-0.12151157947182654
1772556607121638700,2.341638671875,-1.0472054521650076,0.019287468793988228,-0.15261165113449096
1772556607131622700,2.35162255859375,-1.4906529837757347,-0.2082236482411623,0.10109101499468087
1772556607141606700,2.361606689453125,-2.156844271889329,-0.6171168760821223,0.5573851686969399
1772556607151591400,2.37159130859375,-2.8445933118164537,-0.8335597788751125,1.1195578639313577
1772556607161575700,2.38157568359375,-3.3332214628905055,-0.7960109694644808,1.9901491503447293
1772556607171559700,2.3915595703125,-3.414901967233419,-0.8743433324232697,2.630139244753122
1772556607181544400,2.40154443359375,-3.106016050803661,-0.9659417119294404,2.867100327178836
1772556607191528400,2.411528564453125,-2.487990535444021,-0.7922235598802566,2.8754949382975696
1772556607201512400,2.421512451171875,-1.708048949509859,-0.3771428755760193,2.42248345952779
1772556607211496400,2.431496337890625,-0.84171444375813,-0.15534487549066542,1.760974191750586
1772556607221481500,2.4414814453125,-0.20666414383947848,0.00039367549270391463,1.34071552028656
1772556607231465500,2.451465576171875,0.32421091133356095,0.13011837203651666,0.9319628699600696
1772556607241449500,2.461449462890625,0.7304752519756555,0.11391542525440454,0.5799658338174224
1772556607251433500,2.47143359375,0.9313386005818843,0.07345891170352697,0.4955956519991159
1772556607261418500,2.48141845703125,1.0652958201289175,-0.12972060489058493,0.6391138960957526
1772556607271402200,2.49140234375,1.2392512880653141,-0.2877545733347535,0.9882608035042881
1772556607281386500,2.501386474609375,1.3196189562439917,-0.2965057428061962,1.2558376812070606
1772556607291370500,2.51137060546875,1.230185938078165,-0.4049798537895083,1.4501584763020277
1772556607301355300,2.521355224609375,1.0951023448497057,-0.541955836635828,1.6926760238111018
1772556607311339300,2.53133935546875,0.9545113863766193,-0.45733810979723927,1.8709528620779514
1772556607321323500,2.541323486328125,0.7773141600400209,-0.22708587736040353,1.937032769446075
1772556607331307500,2.5513076171875,0.7040811660468578,-0.009738134682178497,1.8297116278901695
1772556607341292500,2.56129248046875,0.8072562938392162,0.08028817320168018,1.511958222132921
1772556607351276500,2.571276611328125,0.9724339965581893,0.10960574536174535,1.170514728708565
1772556607361260500,2.581260498046875,1.1181856987953185,0.14784545964598655,0.7094865322217345
1772556607371245600,2.59124560546875,1.3577321215391158,0.26630086641758677,0.036250878554582595
1772556607381229600,2.6012294921875,1.4792173975259064,0.3155129333540797,-0.6595762538880109
1772556607391213600,2.611213623046875,1.5125211167126893,0.3021997166641056,-1.2343965415105222
1772556607401197600,2.621197509765625,1.571698112824559,0.3327060602173209,-1.6463906579762697
1772556607411182600,2.6311826171875,1.6763105799436568,0.41058614936396476,-1.9361349438235163
1772556607421166600,2.64116650390625,1.7223896095514297,0.44440147133469576,-1.929372610081732
1772556607431150600,2.651150634765625,1.4053227247536182,0.3911261004820466,-1.2696966952115296
1772556607441134600,2.661134521484375,1.3030764022439718,0.25650501019880173,-0.6604480682864785
1772556607451119600,2.67111962890625,1.6100100155621766,0.296742035780102,-0.6315095585718751
1772556607461103600,2.681103515625,1.8620231211692093,0.3809977974385023,-0.7974959473252295
1772556607471087600,2.691087646484375,1.8988497537851332,0.3823265618242323,-1.000689200183749
1772556607481071400,2.7010712890625,1.7756635190993546,0.3752919870123267,-1.1053531052291392
1772556607491056600,2.711056640625,1.6487924584209919,0.33062589294239875,-1.1578764886707067
1772556607501040600,2.72104052734375,1.7566747409909962,0.2818102779775858,-1.2761907334059477
1772556607511024400,2.7310244140625,1.8996926343500613,0.3239883546240628,-1.3632611140936612
1772556607521009700,2.741009765625,2.1052491092085837,0.358604325453192,-1.5105717362105846
1772556607530993700,2.75099365234375,2.412320085170865,0.4668491577252745,-1.8031939155817032
1772556607540977400,2.760977294921875,2.7806507087379693,0.6639271425738931,-2.147985258129239
1772556607550961400,2.77096142578125,3.057884764841199,0.7671722668625414,-2.5427520532011982
1772556607560946700,2.78094677734375,3.0084441498458383,0.7238287996985018,-2.5403140123993158
1772556607570930400,2.790930419921875,2.8415432765960693,0.42432738220766186,-2.009654061281681
1772556607580914400,2.80091455078125,2.5848399673461913,-0.03935629722401499,-1.207548574334383
1772556607590898400,2.8108984375,2.187952526858449,-0.491108277451992,-0.44077918918430803
1772556607600883500,2.820883544921875,1.580969214516878,-0.9820528887748717,0.24756898567974567
1772556607610867500,2.830867431640625,0.8446230246812104,-1.4403998833537102,0.9020318420767783
1772556607620851500,2.8408515625,0.2444131519973278,-1.8022285776808857,1.4524468795001506
1772556607630835500,2.85083544921875,-0.2533189275085926,-1.900272041673213,2.035601572486758
1772556607640820500,2.860820556640625,-0.5184639018893241,-1.835261809363216,2.5436487097799776
1772556607650804500,2.870804443359375,-0.5590875887006521,-1.8269982772782445,2.7110446730703113
1772556607660788500,2.88078857421875,-0.5758008230924606,-1.6644463930182158,2.3364935675531626
1772556607670773500,2.8907734375,-0.41503275350928304,-1.7735192005470395,2.092729234853387
1772556607680757500,2.900757568359375,-0.3903291048854589,-1.8814903304442763,1.8841905293136834
1772556607690741500,2.910741455078125,-0.5857458785235882,-1.4951825900293885,2.0459177993178366
1772556607700725500,2.9207255859375,-0.9839905788391828,-0.9420353511631488,2.17000887388885
1772556607710710500,2.93071044921875,-1.6962784322172402,-0.48458515929356216,1.9560729854807257
1772556607720694500,2.940694580078125,-2.7039035691440105,0.3770226101972162,2.009768919833004
1772556607730678500,2.950678466796875,-3.6193250541478394,1.278296619644016,2.2397537335053084
1772556607740662500,2.96066259765625,-3.93592724404335,1.4505718794085085,1.9957900788411498
1772556607750647600,2.9706474609375,-3.759948745846748,1.5097911072269081,1.2938830419629812
1772556607760631600,2.980631591796875,-3.1469775912672278,1.8677270318992434,0.5962830546289682
1772556607770615600,2.990615478515625,-2.173522434967756,2.2442213804386553,-0.04406213682740927
1772556607780599600,3.000599609375,-1.593283921688795,2.389657440855354,-0.4736605913057923
1772556607790584600,3.01058447265625,-1.9242156657099723,2.3397946549251674,-0.35927696401774883
1772556607800568600,3.020568603515625,-2.440227498272061,2.00711051427871,0.016344254948943853
1772556607810552600,3.030552490234375,-2.5744834085047246,1.622260425326228,0.4987598151184618
1772556607820537600,3.04053759765625,-2.539394559466839,1.239350364525616,0.9673799280390143
1772556607830521600,3.050521484375,-2.096811535730958,0.9006146687552332,1.209524404451996
1772556607840505600,3.060505615234375,-1.3197861295044422,0.670827715742588,1.1845113976180552
1772556607850489600,3.070489501953125,-0.5749105962544679,0.5268824784055351,1.0237107409395276
1772556607860474600,3.080474609375,-0.06711363433003426,0.3539417404696345,0.7049376367457211
1772556607870458600,3.090458740234375,-0.0665495707064867,0.19574644398391244,0.45130876650512214
1772556607880442600,3.100442626953125,-0.41024785732030866,-0.11849807686954736,0.22898557350188492
1772556607890426600,3.110426513671875,-0.5171498966813087,-0.48809828198105093,-0.027494156125187873
1772556607900411600,3.12041162109375,-0.25209552319347855,-0.826236888641119,-0.3148728818848729
1772556607910395600,3.130395751953125,0.03784662331342697,-1.0514099181175232,-0.5227782579571009
1772556607920379600,3.140379638671875,0.07550619962215423,-1.280112290763855,-0.46231823629736896
1772556607930363600,3.15036376953125,0.17863222757577896,-1.6524205857902765,-0.19258520347401498
1772556607940348700,3.1603486328125,0.5915472582787275,-1.5007152358457445,-0.02317585453465581
1772556607950332700,3.170332763671875,0.9194605312615632,-1.0251184157803654,-0.027629619073122738
1772556607960316700,3.180316650390625,1.3077064001321792,-0.6778714967742562,-0.24136004803702235
1772556607970301700,3.1903017578125,1.8078028706818818,-0.6440745872430503,-0.5999453765287995
1772556607980285700,3.20028564453125,1.99395263428092,-0.5445018678568303,-0.818129204704985
1772556607990269700,3.210269775390625,1.995337951159477,-0.4685825573891401,-0.985391823939234
1772556608000253700,3.220253662109375,2.1895956178903577,-0.5828095328107475,-1.195578662012145
1772556608010238700,3.23023876953125,2.176027695786953,-0.3433794299229979,-1.2361999376706778
1772556608020222700,3.24022265625,1.9754156915932892,-0.32797464778125285,-1.2493809062831103
1772556608030206700,3.250206787109375,2.022656750717759,-0.8215852634429931,-0.5485090576715768
1772556608040190700,3.260190673828125,1.2251122880756855,-0.5607353559076785,0.0423550771811977
1772556608050175700,3.27017578125,1.062169212540984,-0.794359987387061,0.5648833789652213
1772556608060159700,3.28015966796875,1.5567641630649565,-0.6223512696042657,0.7730869707990438
1772556608070143700,3.290143798828125,2.0619646787554022,-0.23507921420186756,0.5316617120387033
1772556608080127500,3.30012744140625,2.1916800229489803,0.10570347722619772,0.1513623451931402
1772556608090112800,3.31011279296875,2.0525585525065657,0.2751186713844538,-0.053021176895871755
1772556608100096800,3.3200966796875,1.6254951694637536,0.39896161641329525,-0.10487930136173963
1772556608110080500,3.33008056640625,1.0885989543050527,0.4061094423413276,0.02090695975460112
1772556608120065800,3.340065673828125,0.21770576233565805,0.33912644865363833,0.18275109760407357
1772556608130049800,3.3500498046875,-0.03391571360528469,-0.1349772102445364,0.5400768179561942
1772556608140033500,3.360033447265625,-0.2236643784791231,-0.2298334225028753,0.7734460864350199
1772556608150017500,3.370017578125,-0.37316520411670207,0.05448153177201748,0.7851064213514327
1772556608160002800,3.3800029296875,-0.35037352659404275,0.28442367534637447,0.47916072309203445
1772556608169986600,3.389986572265625,-0.25373802970349785,0.47421296449154615,0.08364994125235825
1772556608179970600,3.399970458984375,-0.11784545817971229,0.6462903635963797,-0.29926249416843054
1772556608189954600,3.40995458984375,0.010288169780373573,0.6522872659236192,-0.43092970308214423
1772556608199939600,3.419939697265625,0.33416064293980596,0.6830167507082223,-0.1655287994452752
1772556608209923600,3.429923583984375,0.60892450953722,0.4623129756003618,0.0018195435773581264
1772556608219907600,3.439907470703125,0.6476432395100593,0.24154987152069807,0.023333291852381078
1772556608229892600,3.449892578125,0.5133849911898374,0.08648235166668891,-0.14827827983899042
1772556608239876600,3.459876708984375,0.6630909840106963,-0.36708150028884406,-0.3770920221716165
1772556608249860600,3.469860595703125,0.7727034513741731,-0.8483443832919001,-0.6765574915662408
1772556608259844600,3.4798447265625,0.527606408765912,-1.4535256146475672,-0.8376777355879544
1772556608269829600,3.48982958984375,-0.5196007969647646,-1.8690777158558367,-0.8851121253274381
1772556608279813600,3.499813720703125,-2.3245997161418197,-2.0689500075981018,-1.0982444422677158
1772556608289797600,3.509797607421875,-4.151201979839802,-1.850421238441765,-1.1933290564544499
1772556608299781600,3.51978173828125,-4.988673379200697,-0.9515487371787428,-0.9628708531167358
1772556608309766700,3.5297666015625,-5.367005172300338,0.42080899882316586,-0.8610236129272729
1772556608319750700,3.539750732421875,-5.1993368218094105,1.246685821980238,-0.5356902003698051
1772556608329734700,3.549734619140625,-4.315799836844206,1.4675529709562658,0.36448892651237547
1772556608339719200,3.55971923828125,-3.8583126739650964,0.6493500434279441,0.49948191884793336
1772556608349704000,3.569703857421875,-1.7604706261426208,0.2945513938680291,0.49845959006287155
1772556608359688000,3.57968798828125,0.11133096171915531,0.3824102945849299,0.34310412011295555
1772556608369672000,3.589671875,0.6637865650594235,0.49939738236963743,0.5042750714085996
1772556608379657000,3.599656982421875,1.1730951005905865,0.015132687202095985,0.8777274949688464
1772556608389641000,3.609640869140625,1.4054986658424138,0.10593728598207235,1.0142841564245522
1772556608399625000,3.619625,0.8254238186925649,-0.36206659473627806,1.1049369256436825
1772556608409609000,3.62960888671875,-0.4572410791635513,-0.5413625469177961,1.4577943780079483
1772556608419594000,3.639593994140625,-2.595720842322707,-1.0985244282528757,1.720394490211457
1772556608429578000,3.649577880859375,-4.0760955931901925,-1.4294175938293336,2.3478628105685115
1772556608439562000,3.65956201171875,-1.7101386152654885,-0.8383233400151133,3.125665923169255
1772556608449546000,3.6695458984375,0.5246007972091437,-0.04876052377671003,2.9950483694389463
1772556608459531000,3.679531005859375,0.8657780409127473,0.2894543629899621,2.3607743145897984
1772556608469514800,3.6895146484375,0.7344201902091503,0.3789885034427047,1.6219121964104473
1772556608479498800,3.699498779296875,0.7574749025821685,0.26941841391623017,0.5543089761219918
1772556608489484000,3.709484130859375,1.0002630837261677,-0.1100043892905116,-0.347097135271877
1772556608499467800,3.7194677734375,1.0666291145592928,-0.15845862359702587,-0.6414505223497748
1772556608509451800,3.72945166015625,1.2651876933544874,-0.0873369226694107,-0.6361101842351258
1772556608519435800,3.739435791015625,1.6363070708572864,-0.08018500508815049,-0.3968414093889296
1772556608529420800,3.7494208984375,1.8116840960294007,-0.003205518043041229,-0.05140197819620371
1772556608539404800,3.75940478515625,1.28491413808763,0.2879039186775684,0.5569860863767564
1772556608549388800,3.769388916015625,0.8324825050324202,-0.08242167809903621,0.9017864890135824
1772556608559372800,3.779372802734375,1.5547820493370295,0.03904752353578806,0.781757257054001
1772556608569357800,3.78935791015625,1.5617676704406738,-0.12494798366129398,0.6644377224445343
1772556608579341800,3.799341796875,1.8271347631394863,-0.2345116434469819,0.499922283026576
1772556608589325800,3.809325927734375,1.9241279874265194,-0.35508009684979913,0.49293812322765584
1772556608599310800,3.819310791015625,1.7813742979615925,-0.5731374491021036,0.4691586037114262
1772556608609294800,3.829294921875,1.5831021348923444,-0.7739063974231482,-0.0031824294283986088
1772556608619278800,3.83927880859375,1.3902292005181311,-0.8358502278998494,-0.23449454618170856
1772556608629262800,3.849262939453125,1.2241080794692039,-0.8640998785674572,-0.363721814597398
1772556608639248000,3.859247802734375,1.2644950349152086,-0.7038900273889303,-0.4821498949706554
1772556608649232000,3.86923193359375,1.538581440642476,-0.388003292286396,-0.5314104772239923
1772556608659216000,3.8792158203125,1.8479343900620937,-0.07946458185911179,-0.4365304456986487
1772556608669200000,3.889199951171875,1.7638737125843762,0.17906477377414703,-0.38734789711758494
1772556608679185000,3.899184814453125,1.1276648902803659,0.2461272624388337,-0.44185733980983494
1772556608689169000,3.9091689453125,0.482725064510107,0.17210837876498697,-0.3347679611831903
1772556608699153000,3.91915283203125,0.13517068699002266,-0.0940843511030078,-0.2666444191582501
1772556608709138000,3.929137939453125,0.175541860345006,-0.3088140202373266,0.1711573616504669
1772556608719122000,3.939121826171875,0.4359031075805425,-0.5097238383337855,0.8304847553439438
1772556608729106000,3.94910595703125,0.5430260962158441,-0.7480944952964782,1.1062234583228825
1772556608739090000,3.95908984375,0.42807635947763917,-0.9911258375465869,0.9772969264194369
1772556608749075000,3.969074951171875,0.31145313656926155,-1.1302490615546703,1.0778045885682106
1772556608759059000,3.979058837890625,0.5337585016548633,-1.283297642801702,1.2530877979770303
1772556608769040000,3.989039794921875,0.32679391356408594,-1.3896011317476629,1.355535926669091
1772556608779024000,3.99902392578125,0.11539806502759456,-1.4214452997758984,1.1548681006349621
1772556608789009000,4.0090087890625,0.08817045088410377,-1.2750047384917735,0.9439132738642394
1772556608798993000,4.018992919921875,0.12597148149013518,-1.0973150524631141,0.7080117834940552
1772556608808977000,4.028976806640625,0.16016133586168288,-1.2153002113744615,0.3086125063158571
1772556608818961000,4.0389609375,0.0178898769557476,-1.6852704237297176,-0.18007205112054944
1772556608828946000,4.04894580078125,-0.5959761806368827,-2.0742083665177224,-0.4606643316105008
1772556608838930000,4.058929931640625,-1.077434586212039,-2.1343729123622177,-1.1000111596792936
1772556608848914000,4.068913818359375,-1.9223913728922604,-1.650929470449686,-0.6168840171743184
1772556608858899000,4.07889892578125,-4.240863546064496,-0.7818307606816292,-0.8077666545141488
1772556608868883000,4.088883056640625,-4.93758324343264,-0.0998024364888668,-1.6654412492744624
1772556608878867000,4.098866943359375,-4.247318421292305,0.44235242985039946,-2.095917509500682
1772556608888851000,4.108850830078125,-3.613042612877488,1.2367445659413934,-2.4250107860483228
1772556608898836000,4.1188359375,-2.8133833500385284,2.2043889901354907,-2.7724998432472345
1772556608908820000,4.128820068359375,-1.8050614630192516,2.8662402032181618,-2.922226002073288
1772556608918804000,4.138803955078125,-0.9076870913594961,2.86879865552932,-3.081407094725966
1772556608928788000,4.1487880859375,-0.4241413581162691,2.8676217207044363,-2.57564777610898
1772556608938773000,4.15877294921875,-0.7632265979766846,2.400348200087249,-2.1287597486555576
1772556608948757000,4.168757080078125,-1.446923732164502,1.5537112052351236,-1.7166243240229784
1772556608958741000,4.178740966796875,-1.6026356874018906,0.759152480405569,-1.1451718323331326
1772556608968726000,4.18872607421875,-1.330172498962283,0.06499123534858227,-0.622306992071122
1772556608978710000,4.1987099609375,-0.8862345534861087,-0.4473091754749417,-0.25137634207345544
1772556608988694000,4.208694091796875,-0.5234738390058279,-0.7682251369163393,0.08196545876413583
1772556608998678000,4.218677978515625,-0.26735037547051904,-0.8669783566132188,0.355796063099429
1772556609008663000,4.2286630859375,-0.16929624395370482,-0.7817477585732936,0.5317058799739927
1772556609018647000,4.23864697265625,0.06088321550786495,-0.5214505164846778,0.608168284342438
1772556609028631000,4.248631103515625,0.44672026967108247,-0.19872429075092077,0.5300495641343296
1772556609038616000,4.258615966796875,0.6761813517302274,0.02765197703540325,0.412783147951588
1772556609048600000,4.26860009765625,0.9178209473609924,0.17017857974618672,0.2536175451289862
1772556609058584000,4.278583984375,1.096263789844513,0.3100605131670832,0.13217815411053596
1772556609068568000,4.288568115234375,1.1680220351099968,0.36050095285475253,0.08821195193827151
1772556609078553000,4.298552978515625,1.2690332628667353,0.3322442879244685,0.06549428949989378
1772556609088537000,4.308537109375,1.3031383615642784,0.29274609801173207,0.10043547369539738
1772556609098521000,4.31852099609375,1.3251169691383837,0.23132336879968643,0.11435491265021264
1772556609108505000,4.328505126953125,1.4041799844592808,0.14531915603876114,0.1012801808912307
1772556609118489900,4.33848974609375,1.5867770240128038,0.09600450551062822,0.06963511563166976
1772556609128474000,4.34847412109375,1.7438380557715891,-0.06301175196915865,0.10025390658341347
1772556609138458000,4.3584580078125,1.732241726002097,-0.2906263293787837,0.16470445918403565
1772556609148443000,4.36844287109375,1.6567559846460818,-0.44380204413682217,0.33684381760917603
1772556609158427000,4.378427001953125,1.624503820338845,-0.4935699913904071,0.5261454693678767
1772556609168411100,4.3884111328125,1.5774299344748257,-0.45949762591868637,0.6558198239639401
1772556609178395100,4.39839501953125,1.5233967309921979,-0.33682460145205256,0.6125608932781964
1772556609188380000,4.4083798828125,1.5409142675042151,-0.2064616070047021,0.5913906064122915
1772556609198366000,4.418365966796875,1.6242846246302127,-0.14492723411172628,0.5434848728340119
1772556609208350000,4.428349853515625,1.7154653632462025,-0.17358254297077655,0.3133564859725535
1772556609218335000,4.4383349609375,1.8260002061516045,-0.2461892217591405,0.04917714175358414
1772556609228319000,4.448319091796875,1.841404111510515,-0.30616116764098406,-0.10988039758466184
1772556609238303000,4.458302978515625,1.6524205857902765,-0.4734457795113325,-0.30330884694978594
1772556609248287000,4.468286865234375,1.4045494022935627,-0.38657910470217466,-0.21366993094831704
1772556609258272000,4.47827197265625,1.0522282487630843,-0.47627691128402944,-0.26096827321797605
1772556609268256000,4.488256103515625,0.5405880554139614,-0.6292345993772148,-0.3931318873465061
1772556609278240000,4.498239990234375,0.01583177538216114,-0.7587441918656229,-0.4613206035621464
1772556609288225000,4.50822509765625,-0.3606488368928432,-0.8879659073233603,-0.6325729500196874
1772556609298209000,4.518208984375,-0.7374450909882784,-0.9395318439096212,-1.0345018918059765
1772556609308193000,4.528193115234375,-0.9881465294748544,-0.7984262139126658,-1.2995198788061737
1772556609318177000,4.538177001953125,-1.2233037773489952,-0.4325570120230317,-1.1069980959571897
1772556609328162000,4.548162109375,-1.3074603164166212,-0.17758301078379155,-0.7747012010626494
1772556609338145500,4.5581455078125,-1.1154711791396141,-0.3706967681765556,-0.4782731996677816
1772556609348129500,4.568129638671875,-1.1284095711678266,-0.011189502534270286,-0.44495325999855995
1772556609358113500,4.578113525390625,-1.0687234564900399,0.23455928198099135,-0.47169966649636624
1772556609368098600,4.5880986328125,-0.6916144831836223,0.07211421909630299,-0.8055959594115615
1772556609378082600,4.59808251953125,0.012245149067044258,-0.49236967568993567,-1.3953230165258048
1772556609388066600,4.608066650390625,0.6830933230757713,-1.10024146130383,-1.821993016336858
1772556609398051600,4.618051513671875,1.1112345644831656,-1.4427476155236363,-1.9507766326382756
1772556609408035600,4.62803564453125,1.2078607090234756,-1.6696090364784002,-1.990227768538892
1772556609418019600,4.63801953125,0.7522919469863176,-1.6360554341837763,-2.0844880607306955
1772556609428003600,4.648003662109375,-0.2330237429767847,-1.125052077433467,-2.2044252304926513
1772556609437988600,4.657988525390625,-1.9317437231272458,-0.5365004938393831,-2.2137299421936274
1772556609447972600,4.66797265625,-4.32921987490952,-0.4933414433315396,-1.982643304759264
1772556609457956600,4.67795654296875,-6.051822834950685,0.3232479115203023,-1.2963330654636025
1772556609467941600,4.687941650390625,-6.33534926919639,1.885220749144256,0.05614303524345159
1772556609477925600,4.697925537109375,-3.747130180805921,2.145689548407495,1.2860875657811761
1772556609487909600,4.70790966796875,-2.444539516252279,1.985414230777323,0.8869605296730995
1772556609497893600,4.7178935546875,-3.211743785688281,3.0941634081855414,1.1284630549207328
1772556609507878700,4.727878662109375,-0.3671504738718271,1.9037541847005486,1.6705045240134
1772556609517862700,4.737862548828125,0.017609306448698042,1.4901961799189447,1.9389239900201558
1772556609527846700,4.7478466796875,0.8578203599065541,0.8843398257806897,1.9991084096089005
1772556609537831400,4.75783154296875,1.3866326373308897,0.47390959763079876,2.0125234792381526
1772556609547815700,4.767815673828125,1.7602590292185545,-0.04154723139703274,1.6539058559119701
1772556609557799700,4.777799560546875,1.9093349074423311,-0.47140609037727116,1.2120724814996122
1772556609567783400,4.787783447265625,1.8665759621679783,-0.8599535725429653,1.0072418366976081
1772556609577768400,4.7977685546875,1.8941835155397653,-0.8961056668981909,1.2724720051437615
1772556609587752700,4.807752685546875,1.3788696021139621,-0.5549152714520692,1.5844083951853214
1772556609597736400,4.817736328125,0.5350614009469747,-0.17131547482162712,1.623625576199591
1772556609607721500,4.827721435546875,-0.058980596756935115,0.03620207097679377,1.378277627570182
1772556609617705500,4.83770556640625,-0.21321838778853416,0.09809943196326494,1.0558803415298461
1772556609627689500,4.847689453125,-0.12802607593238352,0.061895899681746955,0.7928272248618304
1772556609637673500,4.857673583984375,-0.04822130233347416,0.03777238903343677,0.49006169100850816
1772556609647658200,4.867658203125,0.2647211960107088,-0.06215601192265749,0.10142419247180223
1772556609657642200,4.877642333984375,0.6653337945014238,-0.07055296112895011,-0.13218275722041725
1772556609667626500,4.88762646484375,0.9401613739848136,0.05027268190532923,-0.1860671998821199
1772556609677611300,4.897611328125,1.0843991645276545,0.15946838516145945,-0.1716008676342666
1772556609687595300,4.90759521484375,1.1890724219232798,0.3255310540214181,-0.03925765915513038
1772556609697579300,4.917579345703125,1.3349381059288978,0.42051469205170866,0.11283157554045319
1772556609707563500,4.9275634765625,1.641252126044035,0.5511038964703678,0.28297011553719637
1772556609717548300,4.93754833984375,1.9983833102047441,0.729174398510158,0.6747361213579773
1772556609727532300,4.9475322265625,2.009249572134018,0.717353904595971,0.9302784240044653
1772556609737516300,4.957516357421875,1.7003057880371808,0.4458420255318284,0.8087959244966506
1772556609747501300,4.967501220703125,1.42148884665668,0.11099632293730974,0.6425185899727046
1772556609757485300,4.9774853515625,1.3279571610003709,-0.14001111275851727,0.502894138444215
1772556609767469300,4.98746923828125,1.3696575371325015,-0.2414461188852787,0.4129252598360181
1772556609777453300,4.997453369140625,1.4669026903539895,-0.26592911049574613,0.2935756807036698
1772556609787438300,5.007438232421875,1.5110311704158783,-0.2603191616594791,0.21997809118181466
1772556609797422300,5.01742236328125,1.4179963283658026,-0.16209376522898672,0.17412234893590212
1772556609807406300,5.02740625,1.2551485298991203,-0.10017214658409357,-0.009790741652250289
1772556609817391400,5.037391357421875,1.1002736100077628,-0.1066121165037155,-0.291592690192908
1772556609827375400,5.047375244140625,0.9188672415435314,-0.08044277924150228,-0.5767920260868966
1772556609837359400,5.057359375,0.708256405904889,-0.011345862139761447,-0.8471829382970929
1772556609847343400,5.06734326171875,0.6237503227472305,0.13628303214609622,-1.0471781257666646
1772556609857328400,5.077328369140625,0.7695347582101821,0.28024229800850153,-1.1621594266869126
1772556609867312400,5.0873125,0.6905418855160474,0.3853749896094203,-1.220717998639494
1772556609877296400,5.09729638671875,0.7335556823343038,0.2885141595304012,-1.1206155562907456
1772556609887281400,5.107281494140625,0.6292161869376898,-0.2840077880218625,-1.0535855085909367
1772556609897265400,5.117265380859375,0.39596097329258917,-0.9113879917040467,-0.5526888275742531
1772556609907249400,5.12724951171875,0.014946224719285963,-1.5796858967080711,-0.11000190507248044
1772556609917233400,5.1372333984375,-0.34465281085968014,-2.0902403406471013,0.16833382866233587
1772556609927218400,5.147218505859375,-1.1836796229690312,-2.2071783285930753,0.47049452849030493
1772556609937202400,5.157202392578125,-2.411020108488202,-2.046278741584718,0.567330077997595
1772556609947186400,5.1671865234375,-3.939808469390869,-1.5658336047053336,0.1512413856945932
1772556609957170400,5.17717041015625,-5.366209053486585,-0.8932105299785733,-0.5156092431105673
1772556609967155500,5.187155517578125,-5.887447680786251,-0.21756752290874717,-1.0797570378102361
1772556609977139500,5.197139404296875,-5.542539433860778,0.4985448571935296,-1.5784417418658732
1772556609987123500,5.20712353515625,-4.578052012392878,1.0191662293776869,-1.9914146402359008
1772556609997108500,5.2171083984375,-3.3696915371537206,1.3857175683125853,-2.1586764557525515
1772556610007092500,5.227092529296875,-2.776219448292255,1.9834929073259233,-2.02216019937247
1772556610017076500,5.237076416015625,-1.8043506844013928,2.2186624301597475,-1.929296329975128
1772556610027060500,5.247060546875,-0.6383592783361673,2.0642808467432854,-1.5769564717441795
1772556610037045500,5.25704541015625,0.1104465801000595,1.8605369742646811,-1.6242096596978604
1772556610047029500,5.267029541015625,0.43423780471682544,1.6560703404694794,-1.7453643885560333
1772556610057013500,5.277013427734375,0.6429997976183891,1.5042255820542574,-1.5950646676257252
1772556610066998500,5.28699853515625,0.796695152336359,1.2631605714410543,-1.4106772375240921
1772556610076982500,5.296982421875,0.639072395041585,0.9978928474634885,-1.1413326194964348
1772556610086966500,5.306966552734375,0.15956921518743036,0.4999789816498756,-0.6479220564514399
1772556610096950500,5.316950439453125,-0.19793080228567123,0.023035130889713762,-0.2392866027638316
1772556610106935600,5.326935546875,-0.08695055370032787,-0.09338497066199779,-0.09164864838868379
1772556610116919600,5.33691943359375,0.3220727302610874,-0.078043024623394,-0.18086685476005077
1772556610126903600,5.346903564453125,0.4751759643048048,0.040516719305515286,-0.2534334937989712
1772556610136888600,5.356888671875,0.40914895616769786,0.23741963984817266,-0.08402297581583261
1772556610146872600,5.36687255859375,0.32644553851783276,0.45824061159491536,0.10879647480547427
1772556610156856600,5.376856689453125,0.3221750215917826,0.6309302973791957,0.20200901151001452
1772556610166840600,5.386840576171875,0.37975393485724923,0.7640212554857134,0.21292393488660452
1772556610176825600,5.39682568359375,0.6104471890598535,0.78277096414119,0.21523981061354278
1772556610186809600,5.4068095703125,0.8710860841929912,0.6767004071682691,0.03850800983160734
1772556610196793600,5.416793701171875,0.8426286359935998,0.6546952038481831,-0.10107450225129723
1772556610206778600,5.426778564453125,0.3994184202700853,0.5413420886516571,-0.34352862913534044
1772556610216762600,5.4367626953125,-0.10436579888164997,0.5669891556054354,-0.5791260219924151
1772556610226746600,5.44674658203125,0.032894553864002224,0.6446072328150272,-0.5781771968349814
1772556610236731600,5.456731689453125,0.6566705955743789,0.5481865477189422,-0.7469131765574216
1772556610246715600,5.466715576171875,1.1670558204263448,0.6764341574475169,-0.9988513172321021
1772556610256699600,5.47669970703125,1.3736165038913488,0.3978413802117109,-1.298666038455814
1772556610266683600,5.48668359375,1.4146043478399515,0.3341916225999594,-1.508471695191413
1772556610276668700,5.496668701171875,1.3707149372309446,0.32819618157744407,-1.46805346782431
1772556610286652700,5.506652587890625,1.300293493527174,0.32472412155270575,-1.3971024472884832
1772556610296636700,5.51663671875,1.3498656259477138,0.38764819523841143,-1.1330933450698852
1772556610306621400,5.526621337890625,1.580171342137456,0.3008823504552245,-0.8258299883406609
1772556610316605400,5.53660546875,1.8800982915639877,0.3061810413852334,-0.5066255069922656
1772556610326589400,5.54658935546875,2.3784873736739156,0.16460194865763186,-0.19650420354865492
1772556610336577500,5.55657763671875,2.5711054565042257,-0.15032821637243032,-0.02177402491271496
1772556610346562300,5.566562255859375,2.2923224173933265,-0.49556291877329345,0.22076463844962416
1772556610356546300,5.57654638671875,2.215619701462984,-1.1247452034413814,0.4053975677449256
1772556610366530300,5.5865302734375,1.7612749282628297,-1.8478303451657294,0.38336452656984327
1772556610376515300,5.596515380859375,1.5796750830531119,-2.375765839755535,0.5621754717133939
1772556610386499300,5.606499267578125,1.3079431314975023,-2.4386077881157395,0.7440214006386697
1772556610396483300,5.6164833984375,0.8640595465570687,-1.9894927322626113,0.7454018221464007
1772556610406467300,5.62646728515625,0.38190146827995775,-1.6383096428513526,0.6788055627539753
1772556610416452400,5.636452392578125,-0.1284837565720081,-1.5127309600710868,0.319604659647122
1772556610426436400,5.646436279296875,-0.5815075103014707,-1.3710960455030201,-0.04228453269563615
1772556610436420400,5.65642041015625,-0.7464993350595235,-1.1768500692099333,-0.19092216563262043
1772556610446405400,5.6664052734375,-0.8732593365788459,-1.2611790422350166,-0.2894511481195688
1772556610456389400,5.676389404296875,-1.8586364013403653,-0.13792378509044648,-0.05467500851750374
1772556610466373400,5.686373291015625,-1.2465741782993078,0.9109878864705562,0.0035373803459107876
1772556610476357400,5.696357421875,-0.7910206138312816,0.5197890130132437,-0.31883126412183044
1772556610486342400,5.70634228515625,0.013511808001995087,-0.09188216488361359,-0.9300107129789889
1772556610496326400,5.716326416015625,-0.027813889598846436,-0.8489198450922966,-1.366007928583771
1772556610506310400,5.726310302734375,0.027664836516976356,-1.4653490311712025,-1.457691356024891
1772556610516295400,5.73629541015625,-0.940848771727085,-2.0541636496156452,-1.4893877861455083
1772556610526279400,5.746279541015625,-2.2216724256306883,-2.3918746785134077,-1.351346950546652
1772556610536263400,5.756263427734375,-3.499933535569906,-2.2168904520511625,-0.9269333513602613
1772556610546248400,5.76624853515625,-4.760201308178901,-1.7645932590305804,-0.49746685269847507
1772556610556232400,5.776232421875,-5.176023750761151,-1.0138520486176013,-0.1779987519778311
1772556610566216400,5.786216552734375,-4.566090940964222,0.19852643009126186,-0.012424889548122882
1772556610576200400,5.796200439453125,-3.4144963090419767,1.3649731787085533,-0.0007082943998277187
1772556610586185500,5.806185546875,-2.452144730558991,2.2092074963331223,0.09791209269762038
1772556610596169500,5.81616943359375,-2.1221464679956434,3.270901492577791,0.7975497233390808
1772556610606153500,5.826153564453125,-1.414448280495405,3.697088677307963,1.4601045546464622
1772556610616138500,5.836138427734375,-0.18688333857059478,3.1595319524139165,1.7640512611083685
1772556610626122500,5.84612255859375,1.0050058943390845,2.3807535650402305,1.8033507135786115
1772556610636106500,5.8561064453125,1.6872218500584364,1.667876513597369,1.7716022610098123
1772556610646090200,5.86609033203125,2.015842394527793,0.982158687236905,1.6436203164801
1772556610656075500,5.876075439453125,1.989787915816903,0.35668694752454755,1.4704469388321042
1772556610666059500,5.8860595703125,1.529798999249935,-0.2354372338593006,1.1932270573846995
1772556610676043300,5.896043212890625,0.5109446123003959,-0.758925101390481,0.8893757741212844
1772556610686028500,5.906028564453125,-0.6845347540557384,-1.0587789855808019,0.8213292428553104
1772556610696012500,5.916012451171875,-0.979459949672222,-1.024085857862234,0.8059254836268722
1772556610705996300,5.925996337890625,-0.3570078500419855,-0.6941857949763536,0.5791743911787868
1772556610715980300,5.935980224609375,0.12737199593782425,-0.17786124320328234,0.22189839171990752
1772556610725965600,5.945965576171875,0.19053893846869469,0.2217693585127592,0.008421499125659464
1772556610735949300,5.95594921875,0.1368687230795622,0.36156361365020273,-0.22332637869641184
1772556610745933300,5.965933349609375,0.2993687310218811,0.36638942637145516,-0.36109789583459495
1772556610755918300,5.97591845703125,0.7211398528754711,0.3795774092465639,-0.3534999880515039
1772556610765902300,5.98590234375,0.5366320112645626,0.4538555283784866,-0.44706908310875293
1772556610775886300,5.99588623046875,0.41208559414148327,0.5252841032981872,-0.5090745806448161
1772556610785871400,6.005871337890625,0.5144131651937961,0.503286791023612,-0.5246724011406302
1772556610795855400,6.01585546875,0.7863514529764651,0.4745926114588976,-0.3389553298704326
1772556610805839400,6.02583935546875,0.9888912103623151,0.7591250078767537,-0.038229046759754415
1772556610815823400,6.0358232421875,1.2446540238916872,0.5215232894599438,-0.08963394756540656
1772556610825808400,6.045808349609375,1.3062918571591378,0.4581956034094095,-0.09871610255688429
1772556610835792400,6.05579248046875,1.3347446291834115,0.28905951845347877,0.012087766548246144
1772556610845776400,6.0657763671875,1.3609107515752314,-0.05971592529416084,-0.015774053845554588
1772556610855761400,6.075761474609375,1.394942200514674,-0.4079658838629722,0.01024798390045762
1772556610865745400,6.085745361328125,1.3942238231122492,-0.6050771864593029,0.01368351130709052
1772556610875729400,6.0957294921875,1.3094476908415555,-0.6838748288422822,-0.0069438277885317794
1772556610885713400,6.10571337890625,1.1765770974874497,-0.4846078095167875,-0.002352992866933346
1772556610895698400,6.115698486328125,1.3856108930677176,-0.19314532157480716,-0.0017798691540956495
1772556610905682400,6.125682373046875,1.4467723409950732,-0.02395370703935623,0.0672846800480038
1772556610915666400,6.13566650390625,1.053749174720049,0.08010638689398765,0.13477072788700462
1772556610925651200,6.145651123046875,0.8936462910473346,0.25972704098522664,0.20069917102046309
1772556610935635500,6.155635498046875,0.9525731117904186,0.48726913768053054,0.32915231325849886
1772556610945619500,6.165619384765625,1.1346183626800774,0.8604694131106138,0.39544922437816854
1772556610955604200,6.175604248046875,1.266657765907049,1.1161848803669214,0.5009816558863968
1772556610965588200,6.185588134765625,1.1634569191515445,1.2137690562844277,0.6175150816194713
1772556610975572200,6.195572265625,0.8999690643280744,1.0920137311846017,0.6675869802556932
1772556610985556500,6.205556396484375,0.6547761601299047,0.7857780370026827,0.6829119020942598
1772556610995541200,6.215541259765625,0.44892157910764213,0.4295037619322538,0.7003990434680134
1772556611005525200,6.225525146484375,0.14741349796950817,0.06705985831618308,0.713580085145682
1772556611015509200,6.23550927734375,-0.2556505853265524,-0.3154267163753509,0.7227883507348597
1772556611025494300,6.245494384765625,-0.510534277933836,-0.6419803914427756,0.7040515015609562
1772556611035478300,6.255478271484375,-0.6275397781580686,-0.9259446325838565,0.6946319313086569
1772556611045462300,6.265462158203125,-0.5533195266932249,-1.2761293586075306,0.7418642226047814
1772556611055446300,6.2754462890625,-0.4652075279980898,-1.8476134875446557,0.9338811246715486
1772556611065431300,6.285431396484375,-0.7746750437080859,-2.457484922543168,1.2579144874811172
1772556611075415300,6.295415283203125,-1.1406997284203768,-2.6700088983267545,1.4788222607284784
1772556611085399300,6.3053994140625,-1.5616986968576907,-2.5758815848648546,1.4025485838651657
1772556611095384300,6.31538427734375,-2.388770282757282,-2.3326643646538257,1.0339904351525009
1772556611105368300,6.325368408203125,-3.588126198285818,-1.9059920267552137,0.40494474594350904
1772556611115352300,6.335352294921875,-4.432569774746894,-1.304586806806922,-0.15308880365956573
1772556611125337300,6.34533740234375,-4.44026208281517,-0.6515133589416742,-0.6425946508836001
1772556611135321300,6.3553212890625,-3.869174844241142,-0.024628829821944236,-1.301285427173972
1772556611145305300,6.365305419921875,-3.1626182279914614,0.5411784225225448,-1.9703812045574187
1772556611155289300,6.375289306640625,-2.7463264143317936,1.2780962747663258,-2.3227368448793886
1772556611165274400,6.3852744140625,-1.793524169960618,2.2376181827813384,-2.1287167862966654
1772556611175258400,6.39525830078125,-0.34501813704073425,2.5506968747258183,-2.290633733654022
1772556611185242400,6.405242431640625,0.8711001127183436,2.623116214248538,-2.2143770079255103
1772556611195227400,6.415227294921875,1.1977344518065451,2.543687872746587,-1.941997113855183
1772556611205211400,6.42521142578125,0.8517974463552236,2.0944746172159907,-1.5418407346993683
1772556611215195400,6.4351953125,0.5387812982529402,1.5271704043120145,-1.0467770706851034
1772556611225180400,6.445180419921875,0.38767537550628184,1.0005150126606226,-0.4810460984472185
1772556611235164400,6.455164306640625,0.29859190143048764,0.44448622700870033,0.029908889116719364
1772556611245148400,6.4651484375,0.6425754347264766,-0.09174071058630942,0.3115611269883811
1772556611255132400,6.47513232421875,0.9123948306590318,-0.3787538179039955,0.4130546583693474
1772556611265117400,6.485117431640625,0.8272352520287036,-0.3882522986114025,0.4074408370755613
1772556611275101400,6.495101318359375,0.684779668727517,-0.3528267649650573,0.25190431147031483
1772556611285085400,6.50508544921875,0.7112590948522091,-0.2733569224089384,0.087656217751652
1772556611295070500,6.515070556640625,0.8730939168840646,0.0001397007316350937,-0.028308175921812652
1772556611305054500,6.525054443359375,0.9336988999724387,0.34881928288936614,-0.08370791851729154
1772556611315038500,6.53503857421875,0.9755565124928951,0.6600859569758176,-0.07177329670414329
1772556611325022500,6.5450224609375,0.9972253234654664,0.8806400944799184,-0.08833170586042105
1772556611335007500,6.555007568359375,1.0769634615689516,1.0304226596683264,-0.08121222924403845
1772556611344987100,6.564987060546875,1.1354220802783965,1.1776754141181707,-0.12935761679708957
1772556611354971100,6.57497119140625,1.0968185011178255,1.1383517039895057,-0.25634565491862593
1772556611364956200,6.5849560546875,0.8601870890378952,0.9718050510048866,-0.14539770116768777
1772556611374940200,6.594940185546875,0.6145446875065564,0.6527350096911192,0.06657682403959334
1772556611384924200,6.604924072265625,0.5183475820332766,0.2804939346820116,0.15906491892710328
1772556611394909200,6.6149091796875,0.5552390965789556,-0.03569324467182159,0.15297617359794674
1772556611404893200,6.62489306640625,0.593271597853303,-0.26370295887887474,0.18466105941124258
1772556611414877200,6.634877197265625,0.6972428444594144,-0.41038726579099893,0.19074410565197467
1772556611424861200,6.644861083984375,0.9288485373318195,-0.5202569227859377,0.10800042905695736
1772556611434846200,6.65484619140625,1.1372335136145353,-0.5714166166588663,0.03258234610967338
1772556611444830200,6.664830322265625,1.3276619774460792,-0.5851721702888608,0.019134543254598974
1772556611454814200,6.674814208984375,1.4654454772830008,-0.5199257911354304,-0.02078019156977534
1772556611464799200,6.68479931640625,1.5411118359029292,-0.612124766883254,-0.09532017650827765
1772556611474783200,6.694783203125,1.4713964946419,-0.6724760674715041,-0.06507277615219355
1772556611484767200,6.704767333984375,1.3806705140560864,-0.6880918620154262,-0.07140095626041293
1772556611494751200,6.714751220703125,1.5697276895344257,-0.789958537557721,-0.15202179548256098
1772556611504736300,6.724736328125,1.467940801230073,-0.8090604206517338,-0.20521314131356774
1772556611514720300,6.73472021484375,1.1806091294825076,-0.4120896857947111,-0.09882562734596431
1772556611524704300,6.744704345703125,1.1323474951386452,-0.6209972246468067,-0.6809503927629441
1772556611534689300,6.754689208984375,1.1648738002121448,-0.8625091022446751,-0.4893995007727295
1772556611544673300,6.76467333984375,0.9761480486452578,-0.7753226939618587,-0.24313896734304724
1772556611554657300,6.7746572265625,0.5577537097483873,-0.7233920157164335,-0.32756968370955436
1772556611564642300,6.784642333984375,0.20366496202349663,-0.8048644302666187,-0.34906803348604587
1772556611574626300,6.794626220703125,0.3073562226444483,-0.9618155719101429,-0.47832507598549123
1772556611584610300,6.8046103515625,-1.5306722749531267,-0.5067763867050409,-1.1005768307380377
1772556611594594300,6.81459423828125,-1.346855338215828,-1.069661029601097,-1.297620767186582
1772556611604579300,6.824579345703125,-1.6778677462577818,-1.067795820251107,-1.3399879366643725
1772556611614563300,6.834563232421875,-1.7431114950627087,-0.6711573860883713,-1.38296257051602
1772556611624547300,6.84454736328125,-1.6307582045584916,-0.4979448454737663,-1.5094364485703409
1772556611634532000,6.854531982421875,-1.3174024492383003,-0.3699421504169702,-1.6030324316345155
1772556611644516400,6.864516357421875,-0.8443734338343143,-0.20310908170640468,-1.640356638509035
1772556611654500400,6.874500244140625,-0.34859541100561614,-0.2829910121947527,-1.5412477372422813
1772556611664484400,6.884484375,-0.002177344039082527,-0.9218366127431392,-1.3992109638750552
1772556611674469000,6.89446923828125,-0.10149112022817135,-1.4879630140393971,-0.9880766791090368
1772556611684453400,6.904453369140625,-0.4904810854643583,-1.9090321251034736,-0.4097841853313148
1772556611694437400,6.914437255859375,-1.1934458147019147,-2.084071881145239,-0.16258626145366578
1772556611704422100,6.924422119140625,-2.0427835929453373,-1.9898744250565765,-0.07800335020013154
1772556611714406100,6.93440625,-3.2383407007128,-1.3947960700422524,0.21570242315661162
1772556611724390100,6.94439013671875,-4.359100049388409,-0.4488181187331676,0.7006747186042368
1772556611734375200,6.954375244140625,-3.966148194783926,0.3919681042641401,0.8551952720999717
1772556611744359200,6.964359130859375,-4.6018432223469015,1.573954951840639,0.7249504972048103
1772556611754343200,6.97434326171875,-3.2553596400529146,1.9750258154928684,1.084627347260341
1772556611764327200,6.9843271484375,-2.1552169629484412,2.6206138760387896,1.4341732639238238
1772556611774312200,6.994312255859375,-0.9997434437662363,2.80758021671772,1.5969968047320842
1772556611784296200,7.004296142578125,-0.02601414670050144,2.5860364836543797,1.8047388069361447
1772556611794280200,7.0142802734375,0.6416115581303835,2.209463516920805,2.0244217145636676
1772556611804265200,7.02426513671875,1.0447083746522665,1.821488281685114,1.8438412755295632
1772556611814249200,7.034249267578125,1.266051616707444,1.4509107559740542,1.6439426803022623
1772556611824233200,7.044233154296875,1.4666133520185947,1.103995845401287,1.5329726608499883
1772556611834217200,7.05421728515625,1.4821920294225215,0.8552081315815449,1.3602151705265044
1772556611844202200,7.0642021484375,1.3407026608049868,0.714554629266262,1.172558071104437
1772556611854186200,7.074186279296875,1.3461135799378157,0.6618991438776254,1.0237854136109352
1772556611864170200,7.084170166015625,1.4892659133315085,0.41874563655257224,0.8894492777489125
1772556611874155300,7.0941552734375,1.3806605771839617,0.0560837062716484,0.875743554610014
1772556611884139300,7.10413916015625,1.0567810897618533,-0.413809349194169,0.8633365660447627
1772556611894123300,7.114123291015625,0.8077461231827735,-0.7216507250070572,0.8778445454772561
1772556611904108300,7.1241083984375,0.6605997517168521,-0.5278951625794172,0.6420945924069732
1772556611914092300,7.13409228515625,0.7081511919647455,-0.22212065616846083,0.1899341409759596
1772556611924076300,7.144076171875,0.5316910477310419,0.06936404360532761,-0.31818580582514405
1772556611934060300,7.154060302734375,0.2746358563035726,0.15583938100934028,-0.7359024646561593
1772556611944045300,7.16404541015625,0.059978375622630115,0.1679553507387638,-0.8586779996491968
1772556611954029300,7.174029296875,0.015096446844935416,0.20158581766188144,-0.8183925318162888
1772556611964013300,7.184013427734375,0.013892331752181053,0.20042320362329483,-0.6454463870529085
1772556611973998300,7.193998291015625,0.07016717668175697,0.13136837209761143,-0.33327739383187144
1772556611983982300,7.203982421875,0.18284896848797796,-0.021197101807594296,-0.023242814257065765
1772556611993966300,7.21396630859375,0.31849662533998485,-0.17543138570785521,0.16210189373651518
1772556612003950300,7.223950439453125,0.4063917664140463,-0.318638079637289,0.24849759003305807
1772556612013935400,7.233935302734375,0.4259177201390266,-0.49701604019105433,0.1980372948674485
1772556612023919400,7.24391943359375,0.4314133949458599,-0.7126525950372219,0.06966985358491073
1772556612033903400,7.2539033203125,0.4689753560990095,-0.8815215534895658,-0.07434266770153772
1772556612043888400,7.263888427734375,0.5328717819482087,-0.9555541734278201,-0.1719830353522673
1772556612053872400,7.273872314453125,0.5908224511355161,-0.9217302297592163,-0.1894608974410221
1772556612063856400,7.2838564453125,0.6303314547032117,-0.8913274927109479,-0.10412229071566835
1772556612073840000,7.293840087890625,0.6929758346647024,-0.8140718190729618,0.05709441768415272
1772556612083825400,7.303825439453125,0.7744394813865423,-0.6683633714556694,0.3097077907392755
1772556612093809400,7.313809326171875,0.8438561319619416,-0.5411304917275905,0.5565812684355304
1772556612103793200,7.323793212890625,0.8524240538209676,-0.41846565056741236,0.7900877168953419
1772556612113778400,7.3337783203125,0.7434083833068609,-0.2850444375932216,1.016111956373602
1772556612123762400,7.343762451171875,0.4728308624833822,-0.15996844363808632,1.2846715615034103
1772556612133746200,7.35374609375,0.22183950113952158,-0.07429507026672363,1.4929137683145701
1772556612143731500,7.3637314453125,-0.03258534178435802,0.020840543454885483,1.5694786832094192
1772556612153715500,7.373715576171875,-0.2935036383807659,0.12041326284110546,1.5965269952632486
1772556612163699200,7.38369921875,-0.40791853758990765,0.09868599967956543,1.573993091893941
1772556612173683200,7.39368310546875,-0.4264338529676199,-0.018655016109347344,1.5117955789171158
1772556612183668500,7.40366845703125,-0.4912479781836271,-0.17488368869721888,1.4779469391986726
1772556612193652200,7.41365234375,-0.5824369001060724,-0.3777022630244493,1.4313450547605753
1772556612203636200,7.42363623046875,-0.6153823073744773,-0.512699347013235,1.2721635237164794
1772556612213621200,7.433621337890625,-0.5944055703192949,-0.6239326935768127,1.0743811899907887
1772556612223605200,7.443605224609375,-0.4557809434831142,-0.8520113813668488,0.9948450772654265
1772556612233589200,7.45358935546875,-0.30200609378814697,-1.1813421199321745,1.0424314426962287
1772556612243573200,7.4635732421875,-0.3604600363224745,-1.4208371047496795,1.15615236829184
1772556612253558300,7.473558349609375,-0.5196902288138866,-1.6132722322285173,1.1438831807620822
1772556612263542300,7.483542236328125,-0.7348819625020027,-1.7599866420179604,0.9799707487385719
1772556612273526300,7.4935263671875,-1.074422544914484,-1.736533285716176,0.753748721665889
1772556612283511000,7.503510986328125,-1.41408470788002,-1.4467179804593324,0.4861442983690649
1772556612293495300,7.513495361328125,-1.8591513651251792,-0.9717600428193807,0.2210335550514981
1772556612303479300,7.523479248046875,-2.378171731853485,-0.4048930522888899,-0.08607826437782495
1772556612313463300,7.53346337890625,-2.590643685188889,0.1505705006957054,-0.4784929433656856
1772556612323448000,7.543447998046875,-2.7506758417129515,0.6284516323059797,-0.863551889295876
1772556612333432300,7.553432373046875,-1.874506170645356,0.9200321936696767,-1.0475956935916095
1772556612343416800,7.563416748046875,-0.8289572535157204,1.0447978065013885,-1.262407414986193
1772556612353401900,7.57340185546875,-0.5082242474257945,1.0917571260750294,-1.27818643726781
1772556612363385900,7.5833857421875,0.085476974016428,1.1613172767743467,-0.802956989210099
1772556612373369900,7.593369873046875,0.8671054901242256,1.065522614622116,-0.5031419757254422
1772556612383353900,7.603353759765625,0.8684417071640491,0.83127985124439,-0.5573937903948127
1772556612393339000,7.6133388671875,0.5766939725399017,0.7268117610320448,-0.48858168158382176
1772556612403323000,7.623322998046875,0.1689706652611494,0.6111144207969308,-0.36732436913400884
1772556612413307000,7.633306884765625,-0.055339025384187696,0.4968862763315439,-0.2938851850442588
1772556612423292000,7.6432919921875,-0.06955050608813762,0.45833238153159617,-0.32401524263098835
1772556612433276000,7.65327587890625,-0.05005027132630348,0.6700374421477318,-0.3249842337936163
1772556612443260000,7.663260009765625,0.1462561446279287,0.97183603066504,-0.18144027073383331
1772556612453243600,7.67324365234375,0.12120412095785141,1.4768790177062152,-0.00044642859324812886
1772556612463229000,7.68322900390625,0.544617164799571,1.592038305541873,0.18172069511041045
1772556612473213000,7.693212890625,1.328594874382019,1.2625927084252238,0.04753799624443054
1772556612483196700,7.70319677734375,1.3706775278300045,1.1947928453966974,-0.029707009869068858
1772556612493182000,7.713181884765625,1.1952771217823028,1.2314730552792548,-0.10840806000977754
1772556612503165700,7.723165771484375,0.9182400495558977,1.1872022441372274,-0.28197686671614647
1772556612513149700,7.733149658203125,0.6553495761036873,0.944793417699635,-0.4539632265366614
1772556612523133700,7.7431337890625,0.5737304465591907,0.5809165586709976,-0.6137472535185515
1772556612533118700,7.75311865234375,0.630905455198884,0.2705027020215988,-0.6521515107147395
1772556612543102700,7.763102783203125,0.9102923054218292,0.033004443979263304,-0.6038116965681314
1772556612553086700,7.773086669921875,1.3621364939779042,-0.13473463366031646,-0.5505281424090266
1772556612563071700,7.78307177734375,1.7504747173070907,-0.18998188910782335,-0.5062361423484981
1772556612573055700,7.7930556640625,1.8821330122619866,-0.17356705314069984,-0.44682066130563614
1772556612583039700,7.803039794921875,1.6960685888588427,-0.16570026528835297,-0.3175252960897982
1772556612593023700,7.813023681640625,1.4186030620872974,-0.2518582073062658,-0.22587343283072112
1772556612603008800,7.8230087890625,1.2873510098457335,-0.4241986412614584,-0.30528438480645415
1772556612612992800,7.83299267578125,1.2412450922310352,-0.6195613466247916,-0.43551425439342856
1772556612622976800,7.842976806640625,1.3092945461064576,-0.7355506555438042,-0.5429233664937317
1772556612632961800,7.8529619140625,1.4232891740769147,-0.7472261880293488,-0.5753977952495217
1772556612642945800,7.86294580078125,1.4176643199324608,-0.7087588024690746,-0.5482682346530259
1772556612652929800,7.8729296875,1.3809668666541575,-0.6341507207304239,-0.4568501801498234
1772556612662913800,7.882913818359375,1.157215394413471,-0.5056131881445646,-0.29309359627515075
1772556612672898800,7.89289892578125,0.9545014495044946,-0.4011532812386751,-0.14520911979302764
1772556612682882800,7.9028828125,0.8738713309973478,-0.37299715407341716,-0.04984539640396833
1772556612692866800,7.91286669921875,1.1144108564317226,-0.47864247137159105,-0.1621921110369265
1772556612702850800,7.922850830078125,1.2678098585516213,-0.5452618924438953,-0.4351986125729978
1772556612712835800,7.9328359375,1.253949675503373,-0.4414534351840615,-0.5704480638876557
1772556612722819800,7.94281982421875,1.0511386999607086,-0.2781684143438935,-0.5447954439759254
1772556612732803800,7.952803955078125,0.5951917522609234,-0.19403554841279982,-0.439616429015249
1772556612742788900,7.962788818359375,0.06723229227364062,-0.15273644655793905,-0.30372488040477036
1772556612752772900,7.97277294921875,-0.386125223454833,-0.11572890441715716,-0.3058655456952751
1772556612762756900,7.9827568359375,-0.8059218303650617,-0.014933365237712859,-0.47418403065800663
1772556612772738800,7.99273876953125,-1.151301786455512,0.08867197066545486,-0.8067559431016444
1772556612782723800,8.002723876953125,-1.4104694399923086,0.17582067728638648,-1.0731835046388207
1772556612792707800,8.012707763671875,-1.4913865587472914,0.23539427150040865,-1.2443128092385827
1772556612802691800,8.02269189453125,-1.4553326640695332,0.23785014021992681,-1.3268002460502086
1772556612812675800,8.03267578125,-1.2248609436631201,0.15324819547235966,-1.2929419617205857
1772556612822660900,8.042660888671875,-0.7863035221815109,-0.06083996088802814,-1.183848988186568
1772556612832644900,8.052644775390625,-0.11974690788686275,-0.8097644772678613,-0.9897091026164591
1772556612842628900,8.06262890625,0.33135552239120003,-1.9966633545443415,-0.7500809929385781
1772556612852614000,8.07261376953125,-0.3930670054167509,-2.1673934306934473,-0.6156253223501146
1772556612862598000,8.082597900390626,-1.0127624998152256,-2.0780124349758027,-0.405924148902297
1772556612872582000,8.092581787109374,-1.363130765712261,-2.245838021855056,-0.3590643441803753
1772556612882565600,8.102565673828124,-1.9221487963080406,-2.0564014916703104,-0.37734906567260623
1772556612892551000,8.112551025390625,-2.9798341414332388,-1.315088327077031,-0.3561955107457936
1772556612902534700,8.12253466796875,-3.770890411099791,-0.5061284441903233,-0.30920170438066125
1772556612912518700,8.1325185546875,-3.7603736932605503,0.15283727658390997,0.05597556972205638
1772556612922504000,8.14250390625,-3.4561996077835557,0.7267676296293735,0.26383535308688877
1772556612932487700,8.15248779296875,-2.9681501333802935,1.5260460764572024,0.589217792417854
1772556612942471700,8.1624716796875,-1.5264210472494364,2.2772180795028802,1.0666086562931536
1772556612952455700,8.17245556640625,-0.43376258842051024,2.4868708837643263,1.172275600901246
1772556612962440700,8.182440673828125,0.6469757155120373,2.691450330284238,1.323838181374222
1772556612972424700,8.1924248046875,1.3284522510409353,2.5685128096625207,1.4263558681711554
1772556612982408700,8.20240869140625,1.5638602588057517,2.1461869765356183,1.5096984605073929
1772556612992392700,8.212392822265626,1.4064742328763007,1.5288459363088012,1.5883651699870824
1772556613002377700,8.222377685546874,1.2575368863403797,0.9643667176976799,1.5794614403024314
1772556613012361700,8.23236181640625,1.042764254847169,0.5853267763286829,1.6165819412983953
1772556613022345700,8.242345703125,0.7569377269655465,0.32982641312777994,1.767140020903945
1772556613032330800,8.252330810546875,0.4986187992125749,0.0011783961296081542,1.69372830934301
1772556613042314800,8.262314697265625,0.1425140354901552,-0.20467472358793018,1.5159090055853128
1772556613052298800,8.272298828125,-0.17023264802098273,-0.23678747942447662,1.2033454235561192
1772556613062282800,8.28228271484375,-0.4959054486006498,-0.2008186326816678,0.8247419739082456
1772556613072267800,8.292267822265625,-0.6647223846048116,-0.200144971203804,0.48144861483350393
1772556613082251800,8.302251708984375,-0.7385124279588461,-0.18587299248427153,0.22550781438872217
1772556613092235800,8.31223583984375,-0.6843623200982809,-0.18239976341575384,0.01077434586212039
1772556613102220800,8.322220703125,-0.42550154055356976,-0.12057605218738317,-0.25988120863363146
1772556613112204800,8.332204833984376,0.0029313772767782208,-0.0697732089281082,-0.47342196024432776
1772556613122188800,8.342188720703126,0.4402455206990242,-0.07291267599761486,-0.5477725600905716
1772556613132172800,8.3521728515625,0.768052410697937,-0.11568915692865848,-0.47899815294146536
1772556613142157800,8.36215771484375,0.9275772022217511,-0.1299248952910304,-0.28867373400628565
1772556613152141800,8.372141845703124,0.9695295072883366,-0.15537673193365334,-0.009548603459447622
1772556613162125800,8.382125732421875,0.9778273800343275,-0.1805330927610397,0.2827183327332139
1772556613172109800,8.39210986328125,0.9541478137612343,-0.1227142332598567,0.5593954856060445
1772556613182094800,8.4020947265625,0.9522399343132972,-0.08185060021281242,0.648253772623837
1772556613192078800,8.412078857421875,0.875012317726016,-0.04683861580342054,0.7537981137655675
1772556613202062800,8.422062744140625,0.9121341338962315,0.02539981419444084,0.8689083017624915
1772556613212048000,8.4320478515625,0.9672563016593456,0.13223726388663054,0.8741812737293541
1772556613222032000,8.442031982421875,1.086326917719841,0.2168891852557659,0.7534820335537195
1772556613232016000,8.452015869140626,1.2230851661622524,0.2629363584205508,0.6235517314352095
1772556613242000000,8.461999755859376,1.2334189286500215,0.24336802685856818,0.45360243040025233
1772556613251985000,8.47198486328125,1.1863649165302514,0.10334113200902938,0.24335341381132602
1772556613261969000,8.481968994140624,1.158189207881689,-0.04710720361173153,0.08930719982907176
1772556613271953000,8.491952880859374,1.1524123780459166,-0.12022504679262637,0.009993863008916377
1772556613281937000,8.50193701171875,1.0976952839523553,-0.19999094968587158,-0.031955811709165574
1772556613291922000,8.511921875,0.9580874912977219,-0.3428673887476325,-0.05042056594341993
1772556613301906000,8.521906005859375,0.8429127136319875,-0.5169798008114099,-0.048612347477674483
1772556613311890000,8.531889892578125,0.6911790143758059,-0.6651438248872756,0.019076748652756215
1772556613321875000,8.541875,0.5367798953026532,-0.7266308515071869,0.13044322007670997
1772556613331859000,8.55185888671875,0.35649054816961284,-0.676984192545712,0.23510756351351736
1772556613341843200,8.56184326171875,0.026368951487541196,-0.6133893799915909,0.37053763209208845
1772556613351827200,8.5718271484375,-0.28935937818288804,-0.6238806711286305,0.5076943783327936
1772556613361812200,8.581812255859376,-0.49002457386851306,-0.6290168649733067,0.6040529579780995
1772556613371796200,8.591796142578126,-0.6438567067086697,-0.6046817574009299,0.6281412511825561
1772556613381780200,8.6017802734375,-0.6678653588056563,-0.6070774203658104,0.6305743235483765
1772556613391764200,8.61176416015625,-0.7230430561482906,-0.6434159772038459,0.6649002253897488
1772556613401749200,8.621749267578124,-0.6649427493572234,-0.9297162600770592,0.8056383372485637
1772556613411733200,8.631733154296874,-0.5051216052353382,-1.5735083771169185,1.1083737682245671
1772556613421717200,8.64171728515625,-0.6330822147160768,-1.6822569211274385,1.4726016326479614
1772556613431702000,8.651701904296875,-1.098386188825965,-1.044284011760354,1.6221316843800246
1772556613441686300,8.661686279296875,-1.3996727361679075,-1.039196333232522,1.3534773867040872
1772556613451670300,8.671670166015625,-1.6276754361122845,-1.1268170412793754,0.8388169687509536
1772556613461654300,8.681654296875,-2.3086580506443974,-0.3597276303946972,0.3924925665296614
1772556613471639000,8.69163916015625,-3.1088240939617156,0.47641982688605783,-0.06407222080752253
1772556613481623300,8.701623291015625,-3.4476287633150813,0.8027274182379245,-0.6248784499943256
1772556613491607300,8.711607177734376,-3.2719284975379703,1.036676459366083,-1.1267058359898625
1772556613501591300,8.72159130859375,-2.7360546111643314,1.242073359748721,-1.5332090999543666
1772556613511576000,8.731576171875,-1.9346645790100097,1.2992200190767644,-1.8575822161123154
1772556613521560300,8.741560302734374,-1.0676017589837312,1.309912970265746,-1.9761204788617788
1772556613531544300,8.75154443359375,-0.4376952516943216,1.423441149768233,-1.8310532517574727
1772556613541529000,8.761529052734375,-0.1147603516459465,1.5705673552289605,-1.5983423741221428
1772556613551513000,8.77151318359375,0.017763035705685614,1.5746064014866947,-1.3820970397278665
1772556613561497000,8.7814970703125,0.11926233924031257,1.3889794927179813,-1.1572446205079554
1772556613571481000,8.791481201171875,0.25048574990928174,1.2114479198604822,-0.911252236495167
1772556613581466000,8.801466064453125,0.39272447558939455,1.0286471744284034,-0.6866418093375861
1772556613591449900,8.811449951171875,0.5359475361317396,0.8590376267418265,-0.4659399339258671
1772556613601434000,8.82143408203125,0.6572066021472215,0.7885214904919267,-0.24641265525147318
1772556613611418000,8.831418212890625,0.696387688934803,0.7144616902858019,-0.1372868023611605
1772556613621403000,8.84140283203125,0.6345610550969839,0.6177694947719573,-0.04662453466132283
1772556613631387000,8.851386962890626,0.5321399605423212,0.4922653385326266,0.03558591183982789
1772556613641371100,8.86137109375,0.37237376147806645,0.38126609298586844,0.07781871434822678
1772556613651355100,8.871355224609376,0.2252718136757612,0.25604279951453207,0.06102854226268828
1772556613661340000,8.88133984375,0.19807576371431349,0.1761772356390953,0.030771789556369184
1772556613671324000,8.891323974609374,0.2960439705133438,0.1726823792606592,-0.048187473129108545
1772556613681308000,8.901307861328124,0.4583738825857639,0.17344284223914144,-0.15894436128735542
1772556613691293000,8.91129296875,0.6341828694343566,0.15215806214809416,-0.2621672737441957
1772556613701277000,8.92127685546875,0.7773895633637905,0.12282500015795231,-0.3622371289975941
1772556613711261000,8.931260986328125,0.8888760079056024,0.10492401728630066,-0.4711939089313149
1772556613721245000,8.941244873046875,0.9828817408144473,0.05740443348139524,-0.5516868109248578
1772556613731230000,8.95122998046875,1.079319669306278,-0.02712181568145752,-0.6046359454978257
1772556613741214000,8.9612138671875,1.1736936510056257,-0.07930968355834483,-0.6285904562547803
1772556613751198000,8.971197998046875,1.2726678199768067,-0.10953560273498296,-0.6099256494037807
1772556613761182000,8.981181884765626,1.3537293156385422,-0.1511637904137373,-0.5553887341827154
1772556613771167000,8.9911669921875,1.3223001581519842,-0.17657500278502702,-0.46302485019676387
1772556613781151000,9.00115087890625,1.3541682915776967,-0.23325755173265933,-0.4548580564845353
1772556613791135000,9.011135009765624,1.409804838603735,-0.27452713523209094,-0.47374951169826085
1772556613801120000,9.0211201171875,1.3531471318364143,-0.3121697604060173,-0.4436669465150684
1772556613811104000,9.03110400390625,1.2907698783785104,-0.36384003414958715,-0.4017898255765438
1772556613821088000,9.041087890625,1.3105576979100704,-0.4171057603910565,-0.37888241271972656
1772556613831072000,9.051072021484375,1.3540455419808626,-0.4322802409082651,-0.3473043482817709
1772556613841057000,9.06105712890625,1.405451904091239,-0.4658469949454069,-0.29722039388157423
1772556613851041000,9.071041015625,1.501024155664444,-0.5084513341799378,-0.2093625891432166
1772556613861025000,9.08102490234375,1.5093986007779836,-0.5110647315487266,-0.15218546161167323
1772556613871009000,9.091009033203125,1.5178227302521465,-0.44942192984521384,-0.04328969115018844
1772556613880994000,9.100994140625,1.4663210910737514,-0.3918991306811571,-0.02233370462208986
1772556613890978000,9.11097802734375,1.2802163356602192,-0.36227994522601364,-0.03584332066699862
1772556613900962000,9.120962158203126,1.0511106429100037,-0.36493922756314273,-0.0807135590068996
1772556613910946000,9.130946044921876,0.6468576420903206,-0.39437691897153854,-0.10234496057853103
1772556613920931000,9.14093115234375,0.2437596565246582,-0.45029958946257825,-0.2023134012840688
1772556613930915000,9.1509150390625,-0.10650924065113067,-0.39139468829035756,-0.3712987526576966
1772556613940899000,9.160899169921874,-0.4177671469092369,-0.23669454044401644,-0.6310888489417731
1772556613950883000,9.170883056640625,-0.7931605484694242,-0.024609248338639735,-0.8795864937737583
1772556613960868000,9.1808681640625,-1.1765554701775311,0.19134879354685544,-1.0825848816473036
1772556613970852000,9.19085205078125,-1.4023995307832955,0.3155696319773793,-1.2724334266990422
1772556613980836000,9.200836181640625,-1.461141058087349,0.22855858026146889,-1.4027980285815893
1772556613990821000,9.210821044921875,-1.2684890729874372,-0.508100328785181,-1.5413444756150245
1772556614000805000,9.22080517578125,-1.1711322760850191,-1.4236556693017481,-1.6629571773737668
1772556614010789000,9.2307890625,-1.4728835183292626,-1.7035288417369125,-1.583973949290812
1772556614020773000,9.240773193359376,-1.7904174361169338,-1.8996867891311644,-1.4315798864297569
1772556614030758100,9.250758056640626,-2.374268294674158,-1.8427727695152163,-1.3437756385095416
1772556614040742100,9.2607421875,-3.2964567895948886,-1.4506994513109326,-1.3580783046282827
1772556614050726100,9.27072607421875,-4.4328252108126875,-0.7032222111299633,-1.2047634736604989
1772556614060710100,9.280710205078124,-5.070956525611877,-0.003523497951030731,-0.8934111671172081
1772556614070695200,9.290695068359375,-4.864892685753107,0.4751917463958263,-0.49180239719599483
1772556614080679200,9.30067919921875,-4.008503235432506,0.8926187015652656,-0.1715933419149369
1772556614090663200,9.3106630859375,-2.7289374726355073,1.377595928916335,0.15043006931170821
1772556614100647000,9.32064697265625,-1.2533394346505402,1.7968714345619081,0.5294141888402402
1772556614110632200,9.330632080078125,-0.1340232705205679,2.0313649578303097,0.9187833626523614
1772556614120616200,9.3406162109375,0.46519525303840636,1.9125901098459959,1.2672944563753903
1772556614130600000,9.350599853515625,0.6148112294882535,1.7685805751010775,1.588125223751366
1772556614140585200,9.360585205078126,0.665025751465559,1.5930109499663114,1.6720514611944555
1772556614150569200,9.3705693359375,0.6769266171395778,1.3130734801232815,1.55492087328583
1772556614160553000,9.380552978515626,0.7481161226063966,1.0106441924870013,1.424498842127621
1772556614170537000,9.390536865234376,0.7606903574973345,0.7184963526293635,1.3118475915901362
1772556614180522200,9.400522216796874,0.7554939578980207,0.5696402546361088,1.2613980918131769
1772556614190506000,9.410506103515624,0.7261147186785936,0.5182742245361208,1.1561864166919142
1772556614200490000,9.420489990234374,0.61634735301435,0.5739622094884514,0.9617302317142487
1772556614210474000,9.430473876953124,0.3705366091787815,0.7398892692700028,0.7043184088688343
1772556614220459000,9.440458984375,0.10552607483267784,0.899003726427257,0.37513591966778037
1772556614230443000,9.450443115234375,0.014207389050722122,0.9341516121760011,0.016330372554063798
1772556614240427000,9.460427001953125,0.05253507387936115,0.8858531529530882,-0.3055927201032638
1772556614250411000,9.470410888671875,0.2379904254734516,0.7602496279925107,-0.6022417438376695
1772556614260396000,9.48039599609375,0.5102694895178079,0.5474024116039276,-0.8243793511409312
1772556614270380000,9.490380126953125,0.8073135769844054,0.33587738372981546,-0.9492672751780599
1772556614280364000,9.500364013671875,1.0245897157311439,0.16689648933559656,-0.9474885750677436
1772556614290348000,9.51034814453125,1.1445435443669556,-0.0016430910319089889,-0.8208708315633236
1772556614300333000,9.5203330078125,1.146538517576456,-0.1402376149907708,-0.6037341012872756
1772556614310317000,9.530317138671874,1.0480863266527651,-0.21881021644622087,-0.34989487623162563
1772556614320301000,9.540301025390624,0.8746364701509475,-0.2503790746644139,-0.09238375773020088
1772556614330285000,9.55028515625,0.7260983520656824,-0.24854513723552227,0.12719189013056456
1772556614340270000,9.56027001953125,0.6061123747259378,-0.2774187650203705,0.30675379977189005
1772556614350253300,9.57025341796875,0.5014700969904661,-0.2877595417708158,0.4169324496507644
1772556614360237300,9.5802373046875,0.48816520973742006,-0.3275982156842947,0.4446824802331626
1772556614370221300,9.59022119140625,0.5320628036528825,-0.35554128462076184,0.4458551042091101
1772556614380206300,9.600206298828125,0.5161275678962469,-0.3765720899507403,0.38598449980989097
1772556614390190300,9.6101904296875,0.5838958667427301,-0.40007337704747914,0.3173000359665602
1772556614400174300,9.62017431640625,0.6207149005740881,-0.42985038341283793,0.1804506021093577
1772556614410159400,9.630159423828125,0.6388818409055471,-0.44739510019272566,0.0588042903419584
1772556614420143400,9.640143310546875,0.7468208220988511,-0.47676995549798007,-0.08913761541582643
1772556614430127400,9.65012744140625,0.8405389702379703,-0.5085752528205514,-0.2058096459019929
1772556614440111400,9.660111328125,0.8919201979070901,-0.5256359854757785,-0.2607675630141049
1772556614450096400,9.670096435546874,0.9780734637498855,-0.5110542101547122,-0.25726591156870127
1772556614460080400,9.680080322265624,1.0502186625063419,-0.45408086156696076,-0.22618622510693967
1772556614470064400,9.690064453125,1.0398445680081845,-0.3688762747511267,-0.1616399570468813
1772556614480048400,9.70004833984375,0.8724743236809969,-0.33909196186214685,-0.025781653118878603
1772556614490033400,9.710033447265625,0.6190016669154167,-0.307528364340961,0.11403846711218356
1772556614500017400,9.720017333984375,0.32738486519455906,-0.24276216991990804,0.2541326550442725
1772556614510001400,9.73000146484375,0.13817220689356327,-0.23802988070100545,0.3341941068179905
1772556614519985400,9.7399853515625,0.0408820454865694,-0.3147594846382737,0.3844306944966316
1772556614529970400,9.749970458984375,-0.12017828504145145,-0.435769836589694,0.41750250462368127
1772556614539954400,9.759954345703125,-0.24820553001761436,-0.5632949772626161,0.4073959750205278
1772556614549938400,9.7699384765625,-0.3828197521686554,-0.6244762989342212,0.3881990340542048
1772556614559922400,9.77992236328125,-0.5632435393363237,-0.6224731424182653,0.416160150104016
1772556614569907500,9.789907470703126,-0.6661252371400594,-0.6273138604477048,0.5264318120285868
1772556614579891500,9.799891357421876,-0.674505527472496,-0.6631000440999865,0.6186202663823962
1772556614589875200,9.809875244140626,-0.695283527085185,-0.8047790900707245,0.7076259990468621
1772556614599859200,9.819859130859374,-0.6035556759804487,-1.29765262362957,0.753704005741328
1772556614609844500,9.829844482421874,-0.46501638934016226,-1.858573565237224,0.8486980190351605
1772556614619828200,9.839828125,-0.6570224777519702,-1.7876842117607592,0.9955121628720313
1772556614629812200,9.849812255859375,-0.9379565574169159,-1.556895972751081,0.8206983976058662
1772556614639796200,9.859796142578125,-1.1735334920078515,-1.501689633835852,0.31159780573695894
1772556614649781200,9.86978125,-1.4613777894526718,-1.0993284381121395,-0.16588453581407664
1772556614659765200,9.87976513671875,-1.9422727159261703,-0.24398235936462878,-0.6040766311146318
1772556614669749200,9.889749267578125,-2.3925609072118994,0.5815756071016193,-1.0748719691824167
1772556614679733200,9.899733154296875,-2.44649591101706,1.0655828203767537,-1.571525094345212
1772556614689718300,9.90971826171875,-2.1468162143498657,1.346398534359038,-2.0097711117900907
1772556614699702300,9.919702392578126,-1.5874170754820107,1.5959616164654493,-2.2794114978939293
1772556614709686300,9.929686279296876,-0.8915145397156476,1.8115464411243796,-2.42030202383548
1772556614719670300,9.939670166015626,-0.22438743205666542,1.9305434074267744,-2.401124445156753
1772556614729655300,9.9496552734375,0.2934387564510107,2.0006857419282196,-2.230382970830798
1772556614739639300,9.959639404296874,0.4276408906698227,2.100097133272886,-1.8929075042545795
1772556614749623300,9.969623291015624,0.3226058142244816,1.9374851893886922,-1.4303735793799162
1772556614759608300,9.9796083984375,0.31882804925143715,1.6575789914667605,-0.9789988349664955
1772556614769592300,9.98959228515625,0.42950317741036415,1.4625760593265293,-0.6018053251817822
1772556614779576300,9.999576416015625,0.5102671514302491,1.2958762616068125,-0.23075126800015566
1772556614789560300,10.009560302734375,0.5261456885635852,1.1626105314552784,0.12862484554313122
1772556614799545300,10.01954541015625,0.4659563005387783,1.015930316196382,0.43289676537141203
1772556614809529300,10.029529296875,0.3851157541513443,0.7924804572507739,0.6241324539326131
1772556614819513300,10.039513427734375,0.3290817322403192,0.5295508208319545,0.7335292327187954
1772556614829497300,10.049497314453125,0.2559282332241535,0.24183687176853416,0.8002101747199892
1772556614839482400,10.059482421875,0.1786696369767189,-0.04760843113213777,0.8544592859756202
1772556614849466400,10.06946630859375,0.20444471422433852,-0.3103890144690871,0.8203092521578073
1772556614859450400,10.079450439453124,0.2385433831810951,-0.4913604986473918,0.7474456759989261
1772556614869434400,10.089434326171874,0.36761458425223825,-0.6436486169159412,0.6481449054218829
1772556614879419400,10.09941943359375,0.4952864399194717,-0.7305240595534443,0.4648237893775105
1772556614889403400,10.1094033203125,0.5517699591636658,-0.7210606501594186,0.27897205887697635
1772556614899387400,10.119387451171875,0.5543693280071019,-0.6693965138956904,0.06305252237096429
1772556614909371400,10.129371337890625,0.5729390039205551,-0.6184960554808377,-0.1735067012555897
1772556614919356400,10.1393564453125,0.591376577886939,-0.5291971850886941,-0.3726623691610992
1772556614929340400,10.14934033203125,0.6345885276257991,-0.42731005128026006,-0.4510342604126781
1772556614939324400,10.159324462890625,0.7326654554963111,-0.36801235139816996,-0.4853551207527518
1772556614949308400,10.169308349609375,0.8100853797852993,-0.3569809620350599,-0.5221897905446589
1772556614959293400,10.17929345703125,0.8720967225402593,-0.3627054771617055,-0.5166163012612611
1772556614969277400,10.18927734375,0.926564810308814,-0.3796370304793119,-0.45565417529828844
1772556614979261400,10.199261474609376,1.0104857870548962,-0.4157373946473002,-0.39202633725740016
1772556614989245400,10.209245361328126,1.1081915435254572,-0.4526002676203847,-0.3629924774095416
1772556614999230500,10.21923046875,1.2411907316952944,-0.49206426300257444,-0.34675518996641036
1772556615009214500,10.22921435546875,1.4004203396648167,-0.5000573075830936,-0.2851635339282453
1772556615019198500,10.239198486328124,1.4936054038405417,-0.4544894423678517,-0.1677818938679993
1772556615029182500,10.249182373046875,1.5517419509887695,-0.3830561912730336,-0.04277333912588656
1772556615039167500,10.25916748046875,1.682084487169981,-0.37381110080480573,0.02238441189602017
1772556615049151500,10.2691513671875,1.8493261366814373,-0.346217868219316,0.0794829212334007
1772556615059135500,10.279135498046875,1.9689123010486362,-0.278941444543004,0.1437257493674755
1772556615069119500,10.289119384765625,2.0073843627840278,-0.18400924443900585,0.27045513655282555
1772556615079104500,10.2991044921875,1.889614892449975,-0.07118482929170131,0.4746151155516505
1772556615089088500,10.309088623046875,1.6332055977106092,-0.04460135827064514,0.6074586747683585
1772556615099072500,10.319072509765626,1.3085557104378938,-0.11538023710995912,0.6556319001764058
1772556615109056300,10.32905615234375,0.9298439781099558,-0.23798428799360988,0.6266967514626681
1772556615119041500,10.33904150390625,0.49568625289201734,-0.3311377879872918,0.4528158831324428
1772556615129025300,10.349025390625,0.052421676632761954,-0.3920122356668114,0.14891871490068734
1772556615139009300,10.35900927734375,-0.41139878092110155,-0.41535277924388647,-0.11915222992934286
1772556615148993300,10.3689931640625,-0.8919406561732292,-0.4248942223101854,-0.3315902809951454
1772556615158978300,10.378978271484375,-1.3121277237057685,-0.36283377971649167,-0.4997133164510131
1772556615168962300,10.38896240234375,-1.5760434485524892,-0.35324586715996265,-0.6076437490116805
1772556615178946300,10.3989462890625,-1.5514391686499118,-0.6752078305229544,-0.7666169710673392
1772556615188930300,10.408930419921875,-1.2692039432585238,-1.4792097987413406,-1.046907857457921
1772556615198915300,10.418915283203125,-1.0643050555258988,-2.0361638825446366,-1.2961577088966965
1772556615208899300,10.4288994140625,-1.2119324885070324,-2.0909245235189795,-1.3725564734444022
1772556615218883300,10.43888330078125,-1.437022515875101,-2.2734917524561284,-1.4136799264714122
1772556615228867300,10.448867431640625,-1.9403215818583963,-2.236257708083093,-1.3010419738069177
1772556615238852400,10.458852294921876,-2.595047473105788,-1.8242381649151442,-1.01146237700209
1772556615248836400,10.46883642578125,-3.3064304865986105,-0.9417205861255527,-0.6195774209767579
1772556615258820400,10.4788203125,-3.7279578628242014,-0.014048983618617056,-0.3006844897955656
1772556615268804400,10.488804443359374,-3.626550913748145,0.5817854504600167,-0.07572166900373994
1772556615278789400,10.498789306640624,-2.919655859324336,0.9570765606895089,0.09195150379277765
1772556615288773400,10.5087734375,-1.8591677317380904,1.3552853129088878,0.2938113891556859
1772556615298757400,10.51875732421875,-0.8021189309507608,1.7350266805455088,0.5686700944297015
1772556615308741400,10.528741455078125,0.004981880065798759,1.9602993710041046,0.8956843727461993
1772556615318726400,10.538726318359375,0.5275105471760034,1.9317630123496055,1.1630511148296296
1772556615328710400,10.54871044921875,0.7721995935052632,1.7719620342329143,1.313716600332409
1772556615338694400,10.5586943359375,0.8081190481483936,1.5979998442947863,1.3776888678967951
1772556615348678100,10.56867822265625,0.7613947063744068,1.3304405022487042,1.3965050659172236
1772556615358663200,10.5786630859375,0.6821499047458172,1.0384589588686823,1.4056553177088498
1772556615368647200,10.588647216796875,0.6547451804697513,0.8513482412829995,1.431944189697504
1772556615378631200,10.598631103515626,0.6156769064068794,0.7618734298020601,1.4128548738241196
1772556615388615200,10.608615234375,0.36644378690719603,0.7318330963253975,1.4469488666057586
1772556615398600200,10.61860009765625,0.0455529599070549,0.7688885692611336,1.4242144722282886
1772556615408584200,10.628584228515624,-0.1312812783360481,0.8996399785041809,1.1295631981823593
1772556615418568200,10.638568115234374,-0.17408406275212765,1.0673428157866,0.6762527364660054
1772556615428552200,10.64855224609375,-0.21519290273189542,1.0428168618172406,0.24615575788095592
1772556615438537200,10.658537109375,-0.10895429571568965,0.853465964089334,-0.18445559996701777
1772556615448521200,10.668521240234375,0.16970540927648542,0.6154527422621846,-0.5739735346000642
1772556615458505200,10.678505126953125,0.49714989570379253,0.37517829750478265,-0.8470034900769591
1772556615468489200,10.6884892578125,0.827725081372261,0.11371288841962814,-0.9904183468643575
1772556615478474200,10.69847412109375,1.0249404288649557,-0.14333178161382673,-0.9457334750287234
1772556615488458200,10.708458251953125,1.060643610408902,-0.3511602930575609,-0.7688900305658578
1772556615498442200,10.718442138671875,0.9949842665404081,-0.49875996124893424,-0.5260561105839908
1772556615508426200,10.72842626953125,0.9329840297013521,-0.5720236426413059,-0.31798414577320216
1772556615518411300,10.738411376953126,0.9296516704082488,-0.6017708383902907,-0.15343202760666608
1772556615528395300,10.748395263671876,0.879824101921916,-0.5546650960832834,0.03997968981936574
1772556615538379300,10.758379150390626,0.817806913948059,-0.4919684014126658,0.2799051019433886
1772556615548363300,10.76836328125,0.8078338014662265,-0.4345537387982011,0.506679356071353
1772556615558348300,10.778348388671875,0.7936474552035331,-0.36674919959455726,0.6686036830175668
1772556615568332300,10.788332275390625,0.7982493960410356,-0.29671733973026276,0.7144595713939518
1772556615578316300,10.79831640625,0.7877285865485668,-0.27482816400527954,0.6690634094838053
1772556615588300300,10.80830029296875,0.7331026778697967,-0.23001082489639518,0.5913809618011117
1772556615598285300,10.818285400390625,0.6677741733908653,-0.14679770415872334,0.508289202420786
1772556615608269300,10.828269287109375,0.6529056900829077,-0.13401537947505712,0.3558984274953604
1772556615618253300,10.83825341796875,0.6829840174823999,-0.17462533002197742,0.12901537923067807
1772556615628237300,10.8482373046875,0.7391366973370314,-0.21149667856246232,-0.07429726222380996
1772556615638222300,10.858222412109376,0.8302993157744407,-0.32428280752599237,-0.2677544992920011
1772556615648206300,10.868206298828126,0.8919698822677135,-0.4110217643022537,-0.38174014023840425
1772556615658190300,10.8781904296875,0.8403916707217692,-0.45109424697160716,-0.3821894914411008
1772556615668174000,10.888174072265626,0.7969763073652982,-0.48090661691129205,-0.3418776470579207
1772556615678159400,10.898159423828124,0.6636521250247955,-0.4302893593519926,-0.28034787727482613
1772556615688143000,10.90814306640625,0.5161252298086881,-0.4126540416792035,-0.20441030049808323
1772556615698127000,10.918127197265624,0.40079730740785596,-0.48499856240004297,-0.16646226263679564
1772556615708111000,10.928111083984374,0.2045329770296812,-0.5946750349104404,-0.09650346800871193
1772556615718096100,10.93809619140625,-0.019382161340117453,-0.7766720627442002,-0.032162367131933566
1772556615728080100,10.948080078125,-0.19321429515779018,-0.9175392078101634,-0.03076864775121212
1772556615738064100,10.958064208984375,-0.33401743507683274,-1.0072054502099752,-0.06133052088394761
1772556615748048100,10.968048095703125,-0.44765725826025005,-0.9821712544575333,-0.11627272897027432
1772556615758033200,10.978033203125,-0.5746615899294615,-0.8643553146332502,-0.13396065361313522
1772556615768017200,10.98801708984375,-0.615429653647542,-0.8198021794185042,-0.08349529867991805
1772556615778001200,10.998001220703125,-0.5187181689113378,-1.009718017552793,-0.05739493500068783
1772556615787985200,11.007985107421876,-0.3650263213247061,-1.5190814981415868,0.08088518924675882
1772556615797970200,11.01797021484375,-0.5649269623786211,-1.487396320067346,0.4789424041662365
1772556615807954200,11.0279541015625,-0.9616332010805606,-0.8787766386955976,0.7732290096182376
1772556615817938200,11.037938232421874,-1.2278086875528096,-0.6046893561854958,0.6624830081801861
1772556615827922200,11.047922119140624,-1.4860650714635848,-0.4538637116849422,0.3957040028568357
1772556615837906200,11.05790625,-1.7558727769583462,-0.08282967437803745,0.19506679115667938
1772556615847891200,11.06789111328125,-1.978992965558171,0.4649930084645748,0.021151582165434956
1772556615857875200,11.077875244140625,-2.035900263172388,0.8817086004942655,-0.23890571368746458
1772556615867859200,11.087859130859375,-1.8475819233626125,1.1226955774351954,-0.5591622613720596
1772556615877843200,11.09784326171875,-1.4773802452266216,1.2883072876572608,-0.8988510931488126
1772556615887828200,11.107828125,-1.0178606997370718,1.411574478624761,-1.143496008075401
1772556615897812200,11.117812255859375,-0.6317454131543636,1.4601862415805458,-1.260684536716342
1772556615907796200,11.127796142578125,-0.4137953206688165,1.51360131316483,-1.2356183383904398
1772556615917780200,11.1377802734375,-0.41877836977839467,1.5422972462952136,-1.0858762513428926
1772556615927765200,11.14776513671875,-0.49572483133673667,1.4641723886072635,-0.9688488315477967
1772556615937749200,11.157749267578126,-0.4566407751828432,1.3478393808171152,-0.8371804535903036
1772556615947733200,11.167733154296876,-0.3470657172203064,1.2484116228595374,-0.6662016633771359
1772556615957717200,11.17771728515625,-0.25158932723701,1.0917103643238544,-0.51417051554434
1772556615967702300,11.187702392578124,-0.1546411111354828,0.9128782302618026,-0.4123074932638556
1772556615977686300,11.197686279296875,-0.06061258187294006,0.7338292385786771,-0.33351591529548164
1772556615987670300,11.207670166015625,-0.11331307544708251,0.48044133748710155,-0.2997653291240334
1772556615997654300,11.217654296875,-0.2645586989253759,0.14563275203257797,-0.23943419454097747
1772556616007639300,11.227639404296875,-0.3462497246623039,-0.11413871261626482,-0.07608005398735404
1772556616017623300,11.237623291015625,-0.3200952927082777,-0.22224895872324704,0.11460055797435342
1772556616027607300,11.247607177734375,-0.2110287687897682,-0.2982143002897501,0.22721081891432404
1772556616037591300,11.25759130859375,-0.09035890083909034,-0.2907236522734165,0.38278584989905357
1772556616047576000,11.267576171875,-0.0035281741261482236,-0.2550827223107219,0.610397796960175
1772556616057560300,11.277560302734376,0.07591010424792766,-0.2210220472767949,0.8286332822583615
1772556616067544300,11.28754443359375,0.20707856985926626,-0.20087240869551895,0.8798099272660911
1772556616077528300,11.2975283203125,0.3316460297703743,-0.1807104951545596,0.8095808643292636
1772556616087513000,11.30751318359375,0.41747663953006264,-0.18730097946077584,0.6368642174728214
1772556616097497300,11.317497314453124,0.5848883849114179,-0.2043535288095474,0.4765918224520981
1772556616107481300,11.3274814453125,0.7371294491678476,-0.18076777829974888,0.2407049451291561
1772556616117465000,11.337465087890624,0.8354390167504548,-0.19806378101557492,-0.0034205490332096813
1772556616127450000,11.3474501953125,0.99333942194283,-0.21952771706581115,-0.12188633106835185
1772556616137434400,11.357434326171875,1.156447332650423,-0.24615327366292475,-0.24646299719922243
1772556616147418000,11.367418212890625,1.2391145099431276,-0.2871393640458584,-0.3821273129250854
1772556616157402000,11.377402099609375,1.314915308597684,-0.30751492033749817,-0.4875029464364051
1772556616167387100,11.38738720703125,1.3891244541466234,-0.32750147731155155,-0.5238921374831348
1772556616177371100,11.39737109375,1.4349158989846706,-0.385823025637865,-0.5387570405945181
1772556616187355100,11.407355224609375,1.4580121124118566,-0.48621173758208747,-0.5153608943726867
1772556616197339100,11.417339111328126,1.6091794099569319,-0.47890170682966704,-0.38848837238959966
1772556616207323100,11.4273232421875,1.763807077088952,-0.42147856864780187,-0.2561158647507429
1772556616217308200,11.43730810546875,1.8673977999448774,-0.3480684645220637,-0.10349873372353613
1772556616227292200,11.447292236328124,1.9792700289338825,-0.3282064107105136,-0.016026859562844036
1772556616237276200,11.457276123046874,2.0166654013484715,-0.35237639084905387,0.048315994879603384
1772556616247260200,11.46726025390625,2.0812042167544362,-0.3429012910172343,0.2343104948516935
1772556616257245200,11.4772451171875,1.8169523918211459,-0.383152345123887,0.5199822705630213
1772556616267229200,11.487229248046875,0.7787526684105396,-0.6264280175238848,0.7336619922529906
1772556616277213200,11.497213134765625,0.6389280181348324,-0.6546364593982696,0.8548950470443815
1772556616287197200,11.507197265625,0.46743514091968535,-0.49861850695163007,0.8446450173173099
1772556616297182200,11.51718212890625,0.4702946220040321,-0.40648061374127864,0.8409929245505482
1772556616307166200,11.527166259765625,0.4896884737819433,-0.2876040589481592,0.6798811560962349
1772556616317150200,11.537150146484375,0.01783902355134487,-0.07888327483981847,0.42901400565393266
1772556616327134200,11.54713427734375,-0.695781539735198,-0.003940262058377266,0.00016395839005708694
