time,seconds_elapsed,z,y,x
1772556604850221800,0.070221923828125,0.17386020720005035,-0.1002642884850502,1.1565508842468262
1772556604860205800,0.080205810546875,0.16180194914340973,-0.03293904289603233,1.1211950778961182
1772556604870189800,0.09018994140625,0.17886509001255035,-0.02244671992957592,0.9394984841346741
1772556604880174800,0.1001748046875,0.2110946625471115,-0.06573081016540527,0.5861406922340393
1772556604890158800,0.110158935546875,0.2125953584909439,-0.14867709577083588,0.0572931170463562
1772556604900142800,0.120142822265625,0.18080706894397736,-0.3089144229888916,-0.580114483833313
1772556604910126800,0.130126953125,0.1432357281446457,-0.5394315123558044,-1.181671142578125
1772556604920111900,0.14011181640625,0.13858850300312042,-0.7362298369407654,-1.5874637365341187
1772556604930095900,0.150095947265625,0.19802600145339966,-0.8182263970375061,-1.6883597373962402
1772556604940079900,0.160079833984375,0.30328798294067383,-0.7426024675369263,-1.420391321182251
1772556604950063900,0.17006396484375,0.3934500813484192,-0.5045877695083618,-0.8192884922027588
1772556604960049000,0.180048828125,0.43334558606147766,-0.24448537826538086,-0.05938875675201416
1772556604970033000,0.190032958984375,0.40813902020454407,-0.09107264876365662,0.6734926700592041
1772556604980017000,0.200016845703125,0.35369256138801575,0.0013733921805396676,1.2048580646514893
1772556604990000600,0.210000732421875,0.30921778082847595,0.07143663614988327,1.47036612033844
1772556604999986000,0.21998583984375,0.23849299550056458,0.14799372851848602,1.4566476345062256
1772556605009970000,0.229969970703125,0.1625758558511734,0.2860938012599945,1.2409254312515259
1772556605019953700,0.23995361328125,0.12818139791488647,0.44465309381484985,0.932014524936676
1772556605029937700,0.249937744140625,0.11636415868997574,0.5952268838882446,0.5830157399177551
1772556605039923000,0.2599228515625,0.08540277928113937,0.692039966583252,0.2295794039964676
1772556605049906700,0.26990673828125,0.06309881061315536,0.7037749290466309,-0.08826221525669098
1772556605059890700,0.279890625,0.042277682572603226,0.5851870179176331,-0.3482770323753357
1772556605069874700,0.289874755859375,0.004189418628811836,0.43914246559143066,-0.5220237970352173
1772556605079859700,0.299859619140625,-0.03947443887591362,0.3424694538116455,-0.5924355983734131
1772556605089843700,0.30984375,-0.05505925789475441,0.3095967471599579,-0.5610231161117554
1772556605099827700,0.31982763671875,-0.007000118959695101,0.32168081402778625,-0.45319864153862
1772556605109811700,0.329811767578125,0.06345753371715546,0.36562058329582214,-0.3087719678878784
1772556605119796700,0.339796630859375,0.14707359671592712,0.4186611771583557,-0.15930044651031494
1772556605129780700,0.34978076171875,0.22464589774608612,0.48331260681152344,-0.026192454621195793
1772556605139764700,0.3597646484375,0.28245991468429565,0.5303003787994385,0.08400994539260864
1772556605149748700,0.369748779296875,0.3375415503978729,0.5286744832992554,0.16999702155590057
1772556605159733800,0.379733642578125,0.38311517238616943,0.4744506776332855,0.1979314535856247
1772556605169717800,0.3897177734375,0.4309849441051483,0.35360947251319885,0.16262060403823853
1772556605179701800,0.39970166015625,0.40070798993110657,0.4293700158596039,-0.009226521477103233
1772556605189685800,0.409685791015625,0.3243386745452881,0.34193575382232666,0.03333558514714241
1772556605199670800,0.4196708984375,0.29336610436439514,0.3817143440246582,0.21934007108211517
1772556605209654800,0.42965478515625,0.2809254229068756,0.29532378911972046,0.3642543852329254
1772556605219638800,0.439638671875,0.2864125967025757,0.2739596366882324,0.45693132281303406
1772556605229622800,0.449622802734375,0.26168620586395264,0.30526190996170044,0.4876682162284851
1772556605239606800,0.459606689453125,0.1867871880531311,0.3761017322540283,0.4800925850868225
1772556605249591800,0.469591796875,0.07162918150424957,0.4501144289970398,0.45562610030174255
1772556605259575800,0.479575927734375,-0.05218783766031265,0.5198876857757568,0.4227381944656372
1772556605269559800,0.489559814453125,-0.16490799188613892,0.515326201915741,0.3741791844367981
1772556605279543800,0.499543701171875,-0.25701582431793213,0.4933497905731201,0.32195860147476196
1772556605289528800,0.50952880859375,-0.3248630464076996,0.46586355566978455,0.27071699500083923
1772556605299512800,0.519512939453125,-0.3613816499710083,0.46283262968063354,0.21751953661441803
1772556605309496800,0.529496826171875,-0.354311466217041,0.47080880403518677,0.16169887781143188
1772556605319480800,0.539480712890625,-0.2974250316619873,0.4905968904495239,0.10860317945480347
1772556605329465900,0.5494658203125,-0.19552423059940338,0.5142518877983093,0.05360730364918709
1772556605339449300,0.559449462890625,-0.09907039254903793,0.57607501745224,-0.006452572997659445
1772556605349433300,0.569433349609375,-0.01871616393327713,0.6250255107879639,-0.06383810192346573
1772556605359417300,0.579417236328125,0.06192515417933464,0.6966350078582764,-0.0886574313044548
1772556605369402400,0.58940234375,0.13923431932926178,0.7631804943084717,-0.057188186794519424
1772556605379386400,0.599386474609375,0.21995820105075836,0.7890951633453369,0.03628663346171379
1772556605389370400,0.609370361328125,0.3158668875694275,0.809792160987854,0.2046026736497879
1772556605399354400,0.619354248046875,0.4143897294998169,0.896375298500061,0.42568472027778625
1772556605409339400,0.62933935546875,0.4806819260120392,0.9911441206932068,0.6854084730148315
1772556605419323400,0.639323486328125,0.5010026693344116,0.9983064532279968,0.9468757510185242
1772556605429307400,0.649307373046875,0.44805341958999634,0.9862977266311646,1.0960750579833984
1772556605439291400,0.65929150390625,0.3590564429759979,1.0312840938568115,1.080783486366272
1772556605449276400,0.6692763671875,0.25189268589019775,1.1148016452789307,0.9052063226699829
1772556605459260400,0.679260498046875,0.13574185967445374,1.2402719259262085,0.5608486533164978
1772556605469244400,0.689244384765625,0.03217577934265137,1.3579740524291992,0.15942667424678802
1772556605479228400,0.699228515625,-0.040284305810928345,1.47417414188385,-0.19981378316879272
1772556605489213400,0.70921337890625,-0.1445518583059311,1.3296492099761963,-0.4030689001083374
1772556605499197400,0.719197509765625,-0.10019131749868393,1.4786932468414307,-0.5354253649711609
1772556605509181400,0.729181396484375,-0.03845897689461708,1.5306334495544434,-0.5249766707420349
1772556605519165400,0.73916552734375,0.023202523589134216,1.6542643308639526,-0.4080572724342346
1772556605529150500,0.749150390625,0.07949855178594589,1.736196756362915,-0.2633541524410248
1772556605539134500,0.759134521484375,0.13095322251319885,1.7881875038146973,-0.13688381016254425
1772556605549118500,0.769118408203125,0.17276591062545776,1.8081753253936768,-0.07356689870357513
1772556605559102500,0.7791025390625,0.18948444724082947,1.778045892715454,-0.0893983244895935
1772556605569087500,0.78908740234375,0.17293183505535126,1.7804198265075684,-0.16236014664173126
1772556605579071500,0.799071533203125,0.11982414126396179,1.8388493061065674,-0.252321720123291
1772556605589055500,0.809055419921875,0.06154938042163849,1.9067224264144897,-0.35136842727661133
1772556605599039500,0.81903955078125,0.024167653173208237,1.9151943922042847,-0.45540186762809753
1772556605609024500,0.8290244140625,0.030188795179128647,1.8787612915039062,-0.5356138944625854
1772556605619008500,0.839008544921875,0.05096358060836792,1.7975863218307495,-0.5776374936103821
1772556605628992500,0.848992431640625,0.06922141462564468,1.6215177774429321,-0.590489387512207
1772556605638976500,0.8589765625,0.08492634445428848,1.3690210580825806,-0.5869652032852173
1772556605648961500,0.86896142578125,0.07950654625892639,1.1265826225280762,-0.5569154620170593
1772556605658945500,0.878945556640625,0.06404902040958405,0.9667375683784485,-0.509491503238678
1772556605668929500,0.888929443359375,0.04253441095352173,0.9208624958992004,-0.4693746864795685
1772556605678913300,0.898913330078125,0.035347871482372284,0.9491391777992249,-0.43773341178894043
1772556605688898600,0.908898681640625,0.03795510530471802,1.1024786233901978,-0.4123039245605469
1772556605698882600,0.918882568359375,0.06686078757047653,1.3304451704025269,-0.41120484471321106
1772556605708866300,0.9288662109375,0.10763857513666153,1.565390944480896,-0.4486542344093323
1772556605718850300,0.938850341796875,0.13410533964633942,1.7600008249282837,-0.5299802422523499
1772556605728835600,0.948835693359375,0.1580764502286911,1.9210896492004395,-0.6367713809013367
1772556605738819300,0.9588193359375,0.1794176995754242,2.0572831630706787,-0.7505006194114685
1772556605748803300,0.96880322265625,0.17111316323280334,2.1225080490112305,-0.8601053953170776
1772556605758787300,0.978787353515625,0.11607787013053894,2.055002450942993,-0.9511218667030334
1772556605768772400,0.9887724609375,0.06514891237020493,1.8509880304336548,-0.9750959277153015
1772556605778756400,0.99875634765625,0.06582455337047577,1.5586062669754028,-0.8569783568382263
1772556605788740400,1.008740234375,0.07655123621225357,1.2756264209747314,-0.6509471535682678
1772556605798724400,1.018724365234375,0.08841641247272491,0.899974524974823,-0.38629522919654846
1772556605808709400,1.02870947265625,0.16260063648223877,0.560977578163147,-0.10295141488313675
1772556605818693400,1.038693359375,0.21646972000598907,0.24247123301029205,0.059899818152189255
1772556605828677400,1.048677490234375,0.20519523322582245,-0.0483185313642025,0.09000072628259659
1772556605838661400,1.058661376953125,0.1722647100687027,-0.23497097194194794,0.05349704623222351
1772556605848646400,1.068646484375,0.09037117660045624,-0.26727643609046936,-0.015844743698835373
1772556605858630400,1.07863037109375,-0.03521151840686798,-0.19892267882823944,-0.13667821884155273
1772556605868614400,1.088614501953125,-0.14896631240844727,-0.07248751819133759,-0.30161258578300476
1772556605878598400,1.098598388671875,-0.2517310380935669,0.07144249230623245,-0.49463608860969543
1772556605888583400,1.10858349609375,-0.3493734300136566,0.1975008249282837,-0.6676342487335205
1772556605898567400,1.1185673828125,-0.437804251909256,0.2939424216747284,-0.7827157974243164
1772556605908551400,1.128551513671875,-0.5160066485404968,0.3156868517398834,-0.8449890613555908
1772556605918535400,1.138535400390625,-0.5695614814758301,0.288703978061676,-0.8597797155380249
1772556605928520400,1.1485205078125,-0.5536203384399414,0.2972378134727478,-0.795590341091156
1772556605938504400,1.15850439453125,-0.4765945076942444,0.30934107303619385,-0.6795740127563477
1772556605948488400,1.168488525390625,-0.32971078157424927,0.2897458076477051,-0.5373753309249878
1772556605958472400,1.178472412109375,-0.12296560406684875,0.22178752720355988,-0.36918842792510986
1772556605968457500,1.18845751953125,0.11242161691188812,0.1444202959537506,-0.14164873957633972
1772556605978441500,1.19844140625,0.374673992395401,0.12209874391555786,0.1402399241924286
1772556605988425500,1.208425537109375,0.6487526893615723,0.125093474984169,0.41361555457115173
1772556605998409500,1.218409423828125,0.9026187658309937,0.13931208848953247,0.6148908734321594
1772556606008394500,1.22839453125,1.0690034627914429,0.08685047924518585,0.694347083568573
1772556606018378500,1.23837841796875,1.1286383867263794,-0.08451967686414719,0.6545445322990417
1772556606028362500,1.248362548828125,1.0637041330337524,-0.3706531524658203,0.5451890230178833
1772556606038346500,1.258346435546875,0.8685343265533447,-0.7503262162208557,0.4159711003303528
1772556606048331500,1.26833154296875,0.5950090289115906,-1.143401861190796,0.299576073884964
1772556606058315500,1.2783154296875,0.280487596988678,-1.4387387037277222,0.26087579131126404
1772556606068299500,1.288299560546875,-0.021680794656276703,-1.5609040260314941,0.3188815712928772
1772556606078283500,1.298283447265625,-0.22067458927631378,-1.46222984790802,0.4611513614654541
1772556606088268500,1.3082685546875,-0.3511447012424469,-1.1191761493682861,0.650935709476471
1772556606098252500,1.31825244140625,-0.3940247893333435,-0.6283946633338928,0.7878069877624512
1772556606108236500,1.328236572265625,-0.32663431763648987,-0.10920371860265732,0.8298047780990601
1772556606118220500,1.338220458984375,-0.21134287118911743,0.34751376509666443,0.7938768863677979
1772556606128205600,1.34820556640625,-0.12413100153207779,0.7148512601852417,0.6973958611488342
1772556606138189600,1.358189453125,-0.09784027934074402,0.9881153106689453,0.5609146952629089
1772556606148173600,1.368173583984375,-0.1402260810136795,1.1610207557678223,0.39595720171928406
1772556606158157300,1.3781572265625,-0.23050564527511597,1.22975754737854,0.2270565927028656
1772556606168142600,1.388142578125,-0.3473542332649231,1.225818157196045,0.07924475520849228
1772556606178126600,1.398126708984375,-0.4624302089214325,1.1535866260528564,-0.06468711793422699
1772556606188110300,1.4081103515625,-0.5676061511039734,1.0064373016357422,-0.22230763733386993
1772556606198094300,1.41809423828125,-0.6265051960945129,0.7800236344337463,-0.3868214786052704
1772556606208079600,1.42807958984375,-0.631960928440094,0.48556455969810486,-0.5456345677375793
1772556606218063400,1.4380634765625,-0.5781448483467102,0.14087216556072235,-0.6727400422096252
1772556606228047400,1.44804736328125,-0.47908109426498413,-0.1590154767036438,-0.7337751984596252
1772556606238031400,1.45803125,-0.34561386704444885,-0.41936877369880676,-0.7265569567680359
1772556606248016400,1.468016357421875,-0.20032458007335663,-0.6197950839996338,-0.6696845889091492
1772556606258000400,1.47800048828125,-0.05167704448103905,-0.7292885780334473,-0.5755530595779419
1772556606267984400,1.487984375,0.09091392904520035,-0.768543004989624,-0.45097464323043823
1772556606277968400,1.497968505859375,0.2022436410188675,-0.7615002989768982,-0.3168541193008423
1772556606287953400,1.507953369140625,0.2734014391899109,-0.6985069513320923,-0.21807187795639038
1772556606297937400,1.5179375,0.302531361579895,-0.5928841233253479,-0.16780737042427063
1772556606307921400,1.52792138671875,0.28653189539909363,-0.44348689913749695,-0.1795569807291031
1772556606317905400,1.537905517578125,0.23433953523635864,-0.2704906165599823,-0.241001158952713
1772556606327890400,1.547890380859375,0.1545533537864685,-0.06079224497079849,-0.3321808874607086
1772556606337874400,1.55787451171875,0.045994654297828674,0.1779247224330902,-0.4420927166938782
1772556606347858400,1.5678583984375,-0.06724055856466293,0.4155718982219696,-0.5585466623306274
1772556606357842400,1.577842529296875,-0.17009982466697693,0.6044049263000488,-0.6572015881538391
1772556606367827500,1.587827392578125,-0.24589285254478455,0.6958299279212952,-0.708170473575592
1772556606377811500,1.5978115234375,-0.27731388807296753,0.7295511364936829,-0.6838028430938721
1772556606387795500,1.60779541015625,-0.2744901478290558,0.7068098783493042,-0.6101371049880981
1772556606397779500,1.617779541015625,-0.24319614470005035,0.6391703486442566,-0.5008915662765503
1772556606407764500,1.627764404296875,-0.19813652336597443,0.547681450843811,-0.3799438774585724
1772556606417748500,1.63774853515625,-0.16185708343982697,0.42465460300445557,-0.26942986249923706
1772556606427732500,1.647732421875,-0.1391618847846985,0.23717713356018066,-0.18120254576206207
1772556606437716500,1.657716552734375,-0.13224992156028748,-0.0004444815858732909,-0.10790356248617172
1772556606447701500,1.667701416015625,-0.13049089908599854,-0.25853702425956726,-0.05170287564396858
1772556606457685500,1.677685546875,-0.12173549085855484,-0.5041763186454773,-0.014518222771584988
1772556606467669500,1.68766943359375,-0.08941243588924408,-0.7280006408691406,0.00618039770051837
1772556606477653500,1.697653564453125,-0.025363413617014885,-0.9295244216918945,0.025774871930480003
1772556606487638500,1.707638427734375,0.06584079563617706,-1.0760185718536377,0.0808892548084259
1772556606497622500,1.71762255859375,0.16896452009677887,-1.1666091680526733,0.1770397573709488
1772556606507606500,1.7276064453125,0.296438068151474,-1.1891738176345825,0.3150213360786438
1772556606517590500,1.737590576171875,0.43566304445266724,-1.154015302658081,0.4789141118526459
1772556606527575600,1.747575439453125,0.5687475800514221,-1.062698483467102,0.6285384893417358
1772556606537559600,1.7575595703125,0.687705934047699,-0.9401286244392395,0.7293844223022461
1772556606547543600,1.76754345703125,0.7690383791923523,-0.8155278563499451,0.7444291710853577
1772556606557527600,1.777527587890625,0.773927628993988,-0.724910318851471,0.662004292011261
1772556606567512600,1.7875126953125,0.7305202484130859,-0.6763246655464172,0.5087715983390808
1772556606577496600,1.79749658203125,0.6544792652130127,-0.6511655449867249,0.3441145122051239
1772556606587480600,1.80748046875,0.504345715045929,-0.6692659854888916,0.19073958694934845
1772556606597464600,1.817464599609375,0.2594051957130432,-0.7621737718582153,0.0397772416472435
1772556606607449600,1.82744970703125,-0.016510266810655594,-0.8732116222381592,-0.10463958978652954
1772556606617433600,1.83743359375,-0.22589731216430664,-0.9146775603294373,-0.18191653490066528
1772556606627417600,1.84741748046875,-0.3395109474658966,-0.8536243438720703,-0.16375644505023956
1772556606637401600,1.857401611328125,-0.3803209662437439,-0.6544244289398193,-0.05988384038209915
1772556606647386600,1.86738671875,-0.3509652018547058,-0.32722872495651245,0.0907922238111496
1772556606657370600,1.87737060546875,-0.2448510229587555,0.09146706759929657,0.259712278842926
1772556606667354600,1.887354736328125,-0.09729006886482239,0.561572790145874,0.4027346670627594
1772556606677338400,1.89733837890625,0.05150074139237404,0.982158362865448,0.47322162985801697
1772556606687323600,1.90732373046875,0.16090339422225952,1.2593446969985962,0.44251003861427307
1772556606697307400,1.917307373046875,0.2193043828010559,1.3697644472122192,0.3251999318599701
1772556606707291400,1.92729150390625,0.21545346081256866,1.3727636337280273,0.17193074524402618
1772556606717276700,1.937276611328125,0.17823977768421173,1.300769329071045,0.02556474879384041
1772556606727260400,1.947260498046875,0.16405817866325378,1.1621859073638916,-0.0903480052947998
1772556606737244400,1.957244384765625,0.18186913430690765,0.9361128211021423,-0.19827499985694885
1772556606747228400,1.967228515625,0.19234228134155273,0.6479033827781677,-0.3118806481361389
1772556606757213400,1.97721337890625,0.1955079734325409,0.3373042643070221,-0.4140951931476593
1772556606767197400,1.987197509765625,0.19837221503257751,0.03412201628088951,-0.4713504910469055
1772556606777181400,1.997181396484375,0.19323496520519257,-0.24144910275936127,-0.45393526554107666
1772556606787165400,2.00716552734375,0.17480748891830444,-0.4843376576900482,-0.36332041025161743
1772556606797150500,2.017150390625,0.1497439593076706,-0.6805407404899597,-0.2115122526884079
1772556606807134500,2.027134521484375,0.11241442710161209,-0.7985698580741882,-0.03175899386405945
1772556606817118500,2.037118408203125,0.05066903680562973,-0.8063593506813049,0.14622804522514343
1772556606827102500,2.0471025390625,-0.020133497193455696,-0.7037339210510254,0.2850775420665741
1772556606837087500,2.05708740234375,-0.09315045177936554,-0.5321549773216248,0.35678529739379883
1772556606847071500,2.067071533203125,-0.15520024299621582,-0.29950788617134094,0.35441532731056213
1772556606857055500,2.077055419921875,-0.19558919966220856,-0.03773326426744461,0.27835360169410706
1772556606867039500,2.08703955078125,-0.2205888330936432,0.22879590094089508,0.15295439958572388
1772556606877024500,2.0970244140625,-0.22308793663978577,0.4722740650177002,0.0065226140432059765
1772556606887008500,2.107008544921875,-0.21500897407531738,0.6741454005241394,-0.10643430054187775
1772556606896992500,2.116992431640625,-0.2001623809337616,0.8102741837501526,-0.17663203179836273
1772556606906976500,2.1269765625,-0.19030337035655975,0.8642458319664001,-0.20869435369968414
1772556606916961500,2.13696142578125,-0.18327581882476807,0.8352352380752563,-0.1884908229112625
1772556606926945500,2.146945556640625,-0.18847696483135223,0.7622997760772705,-0.12751774489879608
1772556606936929500,2.156929443359375,-0.20622773468494415,0.6518712639808655,-0.03367353975772858
1772556606946913500,2.16691357421875,-0.23664849996566772,0.5285735726356506,0.06781819462776184
1772556606956898600,2.176898681640625,-0.26119378209114075,0.40542206168174744,0.1727888137102127
1772556606966882600,2.186882568359375,-0.26960164308547974,0.2895529866218567,0.2709289789199829
1772556606976866600,2.196866455078125,-0.2584898769855499,0.18302227556705475,0.3603672385215759
1772556606986850600,2.2068505859375,-0.21977336704730988,0.10928814113140106,0.43093141913414
1772556606996835600,2.216835693359375,-0.16241474449634552,0.04893052577972412,0.4632054567337036
1772556607006819600,2.226819580078125,-0.0805470421910286,-0.006036320701241493,0.46272316575050354
1772556607016803600,2.236803466796875,0.001121989800594747,-0.06157228350639343,0.42682376503944397
1772556607026787600,2.24678759765625,0.06023537740111351,-0.14535214006900787,0.35257428884506226
1772556607036772600,2.256772705078125,0.0825342908501625,-0.2587689757347107,0.25190335512161255
1772556607046756600,2.266756591796875,0.05916159227490425,-0.43641459941864014,0.13262808322906494
1772556607056740600,2.27674072265625,0.01564447395503521,-0.6240121722221375,0.06681445240974426
1772556607066725400,2.286725341796875,-0.007321562618017197,-0.7673829197883606,0.07350697368383408
1772556607076709600,2.296709716796875,0.028958147391676903,-0.8680211305618286,0.15965703129768372
1772556607086693600,2.306693603515625,0.1382841020822525,-0.924404501914978,0.31680139899253845
1772556607096677600,2.316677734375,0.2940950095653534,-0.9487085342407227,0.5206559896469116
1772556607106662400,2.326662353515625,0.5080576539039612,-0.9191165566444397,0.7221922874450684
1772556607116646700,2.336646728515625,0.744036078453064,-0.829517126083374,0.8746933937072754
1772556607126630700,2.346630615234375,0.9407768249511719,-0.7130779027938843,0.902580976486206
1772556607136614700,2.35661474609375,1.054947853088379,-0.6214388012886047,0.7925146818161011
1772556607146599400,2.366599365234375,1.0339808464050293,-0.6099603176116943,0.5795464515686035
1772556607156583400,2.37658349609375,0.8217998147010803,-0.6739379167556763,0.31710126996040344
1772556607166567700,2.386567626953125,0.4910365641117096,-0.7482641339302063,0.07095833122730255
1772556607176551700,2.3965517578125,0.11933092027902603,-0.7765753865242004,-0.1117001622915268
1772556607186536400,2.406536376953125,-0.24746918678283691,-0.7069430351257324,-0.21377380192279816
1772556607196520400,2.4165205078125,-0.5278971195220947,-0.5228666663169861,-0.22513644397258759
1772556607206504700,2.426504638671875,-0.6756980419158936,-0.22451992332935333,-0.18551313877105713
1772556607216488400,2.436488525390625,-0.7129303216934204,0.14367727935314178,-0.13994166254997253
1772556607226473500,2.446473388671875,-0.6364923119544983,0.5526783466339111,-0.10947243124246597
1772556607236457500,2.45645751953125,-0.4767596125602722,0.9478927850723267,-0.10702472180128098
1772556607246441500,2.46644140625,-0.28493374586105347,1.2754490375518799,-0.15571528673171997
1772556607256426500,2.476426513671875,-0.1027279794216156,1.5141903162002563,-0.2402549386024475
1772556607266410200,2.48641015625,-0.001365402713418007,1.6749917268753052,-0.32556983828544617
1772556607276394200,2.496394287109375,0.017834391444921494,1.7342816591262817,-0.41803213953971863
1772556607286378500,2.50637841796875,-0.011561580933630466,1.6713069677352905,-0.49264591932296753
1772556607296363300,2.51636328125,-0.08431674540042877,1.4610860347747803,-0.5446646213531494
1772556607306347300,2.52634716796875,-0.2052152007818222,1.1386544704437256,-0.5789216756820679
1772556607316331300,2.536331298828125,-0.3732321560382843,0.7541630268096924,-0.5945416688919067
1772556607326315500,2.5463154296875,-0.5594249367713928,0.37875795364379883,-0.6062893867492676
1772556607336300500,2.556300537109375,-0.7184990048408508,0.07441378384828568,-0.6036885380744934
1772556607346284500,2.566284423828125,-0.8361929059028625,-0.14771462976932526,-0.5908851623535156
1772556607356268500,2.5762685546875,-0.8956945538520813,-0.29219377040863037,-0.5715751051902771
1772556607366252500,2.58625244140625,-0.8766148686408997,-0.31177574396133423,-0.5493730902671814
1772556607376237600,2.596237548828125,-0.767274022102356,-0.2258661538362503,-0.5447242856025696
1772556607386221600,2.6062216796875,-0.6082662343978882,-0.04030933976173401,-0.5720304846763611
1772556607396205600,2.61620556640625,-0.4385400712490082,0.2366466224193573,-0.6326488256454468
1772556607406189600,2.626189453125,-0.30363765358924866,0.5944601893424988,-0.7119510769844055
1772556607416174600,2.636174560546875,-0.24395887553691864,0.9696787595748901,-0.8153629899024963
1772556607426158600,2.64615869140625,-0.27179157733917236,1.2073498964309692,-0.8940631151199341
1772556607436142600,2.656142578125,-0.35546863079071045,1.270480990409851,-0.8850352764129639
1772556607446127600,2.666127685546875,-0.44569703936576843,1.268093228340149,-0.7838205099105835
1772556607456111600,2.676111572265625,-0.5189701914787292,1.2435086965560913,-0.6272261142730713
1772556607466095600,2.686095703125,-0.5591434240341187,1.2064710855484009,-0.4767833352088928
1772556607476079600,2.69607958984375,-0.5860898494720459,1.146829605102539,-0.3671516478061676
1772556607486064600,2.706064697265625,-0.6033127903938293,1.0512924194335938,-0.29525721073150635
1772556607496048600,2.716048583984375,-0.6000794172286987,0.9512172341346741,-0.23215627670288086
1772556607506032600,2.72603271484375,-0.5885210633277893,0.8276745080947876,-0.14760516583919525
1772556607516016400,2.736016357421875,-0.5494231581687927,0.6969375610351562,-0.019245067611336708
1772556607526001700,2.746001708984375,-0.4822790324687958,0.6117914915084839,0.13353781402111053
1772556607535985700,2.755985595703125,-0.3930516839027405,0.6493862867355347,0.31137892603874207
1772556607545969400,2.765969482421875,-0.2649086117744446,0.7788190841674805,0.47637054324150085
1772556607555953400,2.775953369140625,-0.12669482827186584,0.9285361170768738,0.5959150195121765
1772556607565938400,2.7859384765625,-0.02978719025850296,1.0489996671676636,0.6593126654624939
1772556607575922400,2.79592236328125,0.011238273233175278,1.1125932931900024,0.6655002236366272
1772556607585906400,2.805906494140625,0.004604605492204428,1.095889925956726,0.5940569639205933
1772556607595890400,2.815890380859375,-0.04632435366511345,0.9558777213096619,0.43404704332351685
1772556607605875500,2.82587548828125,-0.13689206540584564,0.6848193407058716,0.18146033585071564
1772556607615859500,2.835859375,-0.2575918436050415,0.2929980456829071,-0.11162879317998886
1772556607625843500,2.845843505859375,-0.42302370071411133,-0.2074059247970581,-0.3907128870487213
1772556607635828500,2.855828369140625,-0.6184896230697632,-0.7691877484321594,-0.5989038944244385
1772556607645812500,2.8658125,-0.8013025522232056,-1.343580722808838,-0.6817532777786255
1772556607655796500,2.87579638671875,-0.8683891892433167,-1.869209885597229,-0.6516901850700378
1772556607665780500,2.885780517578125,-0.7955282926559448,-2.2903342247009277,-0.47561952471733093
1772556607675765500,2.895765625,-0.6371615529060364,-2.595226526260376,-0.18068508803844452
1772556607685749500,2.90574951171875,-0.46444571018218994,-2.7915241718292236,0.19103147089481354
1772556607695733500,2.9157333984375,-0.2893737554550171,-2.925048589706421,0.5849571824073792
1772556607705717500,2.925717529296875,-0.10039903968572617,-3.017481565475464,0.9281547665596008
1772556607715702500,2.93570263671875,0.011532552540302277,-3.1153664588928223,1.179255485534668
1772556607725686500,2.9456865234375,0.052375324070453644,-3.22865891456604,1.3102102279663086
1772556607735670500,2.95567041015625,0.12363405525684357,-3.2966113090515137,1.3710004091262817
1772556607745655600,2.965655517578125,0.2858258783817291,-3.3013296127319336,1.4181452989578247
1772556607755639600,2.9756396484375,0.5051630139350891,-3.235752582550049,1.505928874015808
1772556607765623600,2.98562353515625,0.7559366822242737,-3.0581705570220947,1.6618183851242065
1772556607775607600,2.995607666015625,0.993895411491394,-2.795546531677246,1.7976731061935425
1772556607785592600,3.005592529296875,1.15453040599823,-2.5408027172088623,1.7964200973510742
1772556607795576600,3.01557666015625,1.229403018951416,-2.3159866333007812,1.651265025138855
1772556607805560600,3.025560546875,1.2050808668136597,-2.0751712322235107,1.4032683372497559
1772556607815544600,3.035544677734375,1.0861209630966187,-1.806740403175354,1.0877907276153564
1772556607825529600,3.045529541015625,0.9057900905609131,-1.4753198623657227,0.7774158716201782
1772556607835513600,3.055513671875,0.7122930288314819,-1.094083547592163,0.5373204350471497
1772556607845497600,3.06549755859375,0.5354032516479492,-0.6972536444664001,0.3720095157623291
1772556607855481600,3.075481689453125,0.39925098419189453,-0.3330985903739929,0.24656210839748383
1772556607865466600,3.085466552734375,0.31582215428352356,-0.06222076341509819,0.08136489987373352
1772556607875450600,3.09545068359375,0.2736363410949707,0.0882241353392601,-0.18046830594539642
1772556607885434600,3.1054345703125,0.26923680305480957,0.15502341091632843,-0.4964771270751953
1772556607895419600,3.115419677734375,0.2817573845386505,0.2071758210659027,-0.8186929821968079
1772556607905403600,3.125403564453125,0.2766646146774292,0.2593434154987335,-1.1105743646621704
1772556607915387600,3.1353876953125,0.2525257170200348,0.2431948035955429,-1.3293548822402954
1772556607925371600,3.14537158203125,0.21507902443408966,0.12124387174844742,-1.4023287296295166
1772556607935356700,3.155356689453125,0.138827383518219,-0.08683502674102783,-1.3070110082626343
1772556607945340700,3.165340576171875,0.040768999606370926,-0.4340217411518097,-1.0463738441467285
1772556607955324700,3.17532470703125,-0.04933292791247368,-0.8210528492927551,-0.6799377799034119
1772556607965308700,3.18530859375,-0.0896393358707428,-1.0859034061431885,-0.28938838839530945
1772556607975293700,3.195293701171875,-0.08061228692531586,-1.2082064151763916,0.0398574024438858
1772556607985277700,3.205277587890625,-0.023991884663701057,-1.2280945777893066,0.2948148548603058
1772556607995261700,3.21526171875,0.08073745667934418,-1.1376837491989136,0.48544713854789734
1772556608005245700,3.22524560546875,0.17703549563884735,-1.0316475629806519,0.61701500415802
1772556608015230700,3.235230712890625,0.19623209536075592,-0.9519652724266052,0.6830283999443054
1772556608025214700,3.245214599609375,0.24817651510238647,-0.8208972811698914,0.6615244150161743
1772556608035198700,3.25519873046875,0.2177427113056183,-0.8281320333480835,0.5474481582641602
1772556608045183700,3.265183837890625,0.1713179498910904,-0.8143224716186523,0.43907830119132996
1772556608055167700,3.275167724609375,0.10212264209985733,-0.6557773351669312,0.4001074731349945
1772556608065151700,3.28515185546875,0.05233697220683098,-0.3992193043231964,0.4304693639278412
1772556608075135700,3.2951357421875,0.06925603747367859,-0.0967814028263092,0.4672052562236786
1772556608085120800,3.305120849609375,0.16163869202136993,0.17289294302463531,0.4726860523223877
1772556608095104800,3.315104736328125,0.28429457545280457,0.32806628942489624,0.4436812996864319
1772556608105088500,3.325088623046875,0.41066449880599976,0.36256489157676697,0.3872108459472656
1772556608115072500,3.335072509765625,0.5017736554145813,0.3109791874885559,0.2986745834350586
1772556608125057800,3.345057861328125,0.5457919836044312,0.05199715495109558,0.26127687096595764
1772556608135041500,3.35504150390625,0.5588678121566772,-0.2452917844057083,0.27789419889450073
1772556608145025500,3.365025634765625,0.5624947547912598,-0.5409681797027588,0.3461107909679413
1772556608155009500,3.375009521484375,0.5964612364768982,-0.7772622108459473,0.4297223389148712
1772556608164994600,3.38499462890625,0.6491119265556335,-0.9306328296661377,0.512938916683197
1772556608174978600,3.394978515625,0.6803769469261169,-0.9376888871192932,0.559859573841095
1772556608184962600,3.404962646484375,0.6936530470848083,-0.8222134113311768,0.5849947333335876
1772556608194947600,3.414947509765625,0.6444224119186401,-0.609389066696167,0.6095554828643799
1772556608204931600,3.424931640625,0.5584297180175781,-0.36095285415649414,0.6309129595756531
1772556608214915600,3.43491552734375,0.49102723598480225,-0.1075456365942955,0.6264119744300842
1772556608224899600,3.444899658203125,0.45096370577812195,0.10864818096160889,0.5694312453269958
1772556608234884600,3.454884521484375,0.5003552436828613,0.322628915309906,0.49313193559646606
1772556608244868600,3.46486865234375,0.6245834231376648,0.5098842978477478,0.426933228969574
1772556608254852600,3.4748525390625,0.7951509356498718,0.6273307800292969,0.29932546615600586
1772556608264836600,3.484836669921875,0.9825724959373474,0.5080301761627197,0.05174149200320244
1772556608274821600,3.494821533203125,1.125471591949463,-0.030174413695931435,-0.34762853384017944
1772556608284805600,3.5048056640625,1.095293402671814,-0.8186759352684021,-0.851776659488678
1772556608294789600,3.51478955078125,0.9037042856216431,-1.211836576461792,-1.3552621603012085
1772556608304774400,3.5247744140625,0.6588721871376038,-1.2535618543624878,-1.7729758024215698
1772556608314758700,3.534758544921875,0.40677520632743835,-1.315545916557312,-2.0002784729003906
1772556608324742700,3.54474267578125,0.13576075434684753,-1.4760972261428833,-2.026691198348999
1772556608334727200,3.55472705078125,-0.01853560097515583,-1.6219375133514404,-1.8218029737472534
1772556608344712000,3.5647119140625,0.010481669567525387,-1.111106514930725,-1.3512085676193237
1772556608354696000,3.574696044921875,0.13113299012184143,-0.4689459204673767,-0.8636415600776672
1772556608364680000,3.584679931640625,0.2455652952194214,-0.033605631440877914,-0.36768853664398193
1772556608374664200,3.594664306640625,0.357153058052063,0.3955446779727936,0.07910200953483582
1772556608384649000,3.60464892578125,0.4518963694572449,0.9166195392608643,0.4770280718803406
1772556608394633000,3.614633056640625,0.5049926042556763,1.196007251739502,0.7606059908866882
1772556608404617000,3.624616943359375,0.5383707880973816,1.0621594190597534,0.836976945400238
1772556608414601000,3.63460107421875,0.5970788598060608,0.3505132794380188,0.6156775951385498
1772556608424586000,3.6445859375,0.6652323603630066,-0.5336160063743591,0.1888442188501358
1772556608434570000,3.654570068359375,0.6150722503662109,-0.9057807326316833,0.04963812604546547
1772556608444553700,3.6645537109375,0.5343358516693115,-0.8144077062606812,0.14196538925170898
1772556608454539000,3.6745390625,0.4825163185596466,-0.7495629191398621,0.27973631024360657
1772556608464523000,3.68452294921875,0.4807354509830475,-0.6663734912872314,0.34491053223609924
1772556608474506800,3.6945068359375,0.5425088405609131,-0.3940705955028534,0.29135674238204956
1772556608484490800,3.70449072265625,0.5585759282112122,-0.0883631482720375,0.18454907834529877
1772556608494476000,3.71447607421875,0.534232497215271,0.02472185716032982,0.046191997826099396
1772556608504459800,3.724459716796875,0.4901849031448364,0.13286031782627106,-0.07537011802196503
1772556608514443800,3.73444384765625,0.46166616678237915,0.2572845220565796,-0.1472320556640625
1772556608524429000,3.744428955078125,0.45060446858406067,0.31648874282836914,-0.1716684252023697
1772556608534412800,3.754412841796875,0.38442516326904297,0.3196275234222412,-0.2578536570072174
1772556608544396800,3.764396728515625,0.3084249496459961,0.24944338202476501,-0.3466338515281677
1772556608554380800,3.774380859375,0.25184687972068787,0.19988036155700684,-0.34858009219169617
1772556608564365800,3.78436572265625,0.22878578305244446,0.11052544414997101,-0.3224560618400574
1772556608574349800,3.794349853515625,0.21869133412837982,0.08430449664592743,-0.287548691034317
1772556608584333800,3.804333740234375,0.19068633019924164,0.1178685799241066,-0.2615272104740143
1772556608594317800,3.81431787109375,0.16911472380161285,0.11662089079618454,-0.24256497621536255
1772556608604302800,3.824302734375,0.18523883819580078,0.02985296957194805,-0.22083383798599243
1772556608614286800,3.834286865234375,0.21505478024482727,-0.04439489543437958,-0.20191527903079987
1772556608624270800,3.844270751953125,0.2480366975069046,-0.15567748248577118,-0.13359375298023224
1772556608634254800,3.8542548828125,0.2896227538585663,-0.27195480465888977,0.0037081853952258825
1772556608644240000,3.864239990234375,0.3171345591545105,-0.3252369463443756,0.20670443773269653
1772556608654224000,3.874223876953125,0.3117930591106415,-0.28264448046684265,0.4369368553161621
1772556608664208000,3.884207763671875,0.2826508581638336,-0.15895476937294006,0.6255581378936768
1772556608674193000,3.89419287109375,0.28813406825065613,-0.06488365679979324,0.7019588947296143
1772556608684177000,3.904177001953125,0.3255040645599365,-0.03897962346673012,0.6836845874786377
1772556608694161000,3.914160888671875,0.4313703179359436,-0.05673651769757271,0.611109733581543
1772556608704145000,3.924144775390625,0.5152822732925415,-0.07858508825302124,0.5479949116706848
1772556608714130000,3.9341298828125,0.5424265265464783,-0.07656294852495193,0.5102382302284241
1772556608724114000,3.944114013671875,0.5553956031799316,-0.013426059857010841,0.4786249101161957
1772556608734098000,3.954097900390625,0.5679696798324585,0.022840600460767746,0.44659000635147095
1772556608744083000,3.9640830078125,0.5622881054878235,0.0746939480304718,0.3932892382144928
1772556608754067000,3.97406689453125,0.5066512227058411,0.14797641336917877,0.37857872247695923
1772556608764048000,3.9840478515625,0.4094389081001282,0.24597248435020447,0.33964091539382935
1772556608774032000,3.994031982421875,0.281498521566391,0.37757712602615356,0.29351815581321716
1772556608784016000,4.004015869140625,0.14085832238197327,0.4512161910533905,0.29723355174064636
1772556608794001000,4.0140009765625,-0.008248874917626381,0.5194671154022217,0.3609906733036041
1772556608803985000,4.02398486328125,-0.1326267570257187,0.6374196410179138,0.4522518813610077
1772556608813969000,4.033968994140625,-0.2404608130455017,0.7201483249664307,0.5337350368499756
1772556608823954000,4.043953857421875,-0.37768256664276123,0.799551248550415,0.492389976978302
1772556608833938000,4.05393798828125,-0.43783673644065857,0.5779171586036682,0.4344204366207123
1772556608843922000,4.063921875,-0.6261554956436157,0.281688392162323,0.2718357741832733
1772556608853906000,4.073906005859375,-0.8170858025550842,-0.12079086899757385,-0.16089726984500885
1772556608863891000,4.083890869140625,-0.9190877676010132,-0.44116806983947754,-0.6180019974708557
1772556608873875000,4.093875,-0.9508275985717773,-0.6032429933547974,-0.8865910768508911
1772556608883859000,4.10385888671875,-0.8799324035644531,-0.6936661005020142,-0.902733325958252
1772556608893844000,4.113843994140625,-0.679477870464325,-0.6500371098518372,-0.6631801128387451
1772556608903828000,4.123827880859375,-0.420993834733963,-0.5684919357299805,-0.25353479385375977
1772556608913812000,4.13381201171875,-0.15401087701320648,-0.3068036139011383,0.1917169690132141
1772556608923796000,4.1437958984375,0.0065412563271820545,0.02101234160363674,0.5839158892631531
1772556608933781000,4.153781005859375,0.06582535058259964,0.26609188318252563,0.8053486943244934
1772556608943765000,4.163764892578125,0.06508739292621613,0.3868691623210907,0.8031111359596252
1772556608953749000,4.1737490234375,0.022949257865548134,0.4022233486175537,0.659160315990448
1772556608963733000,4.18373291015625,-0.06690126657485962,0.358717143535614,0.4624565839767456
1772556608973718000,4.193718017578125,-0.17731459438800812,0.2935541272163391,0.2751591205596924
1772556608983702000,4.203701904296875,-0.2885556221008301,0.20023882389068604,0.11645150929689407
1772556608993686000,4.21368603515625,-0.38832908868789673,0.11291589587926865,-0.01998702436685562
1772556609003671000,4.223671142578125,-0.47461605072021484,-0.026324814185500145,-0.1252812147140503
1772556609013655000,4.233655029296875,-0.5325605869293213,-0.15222468972206116,-0.20650364458560944
1772556609023639000,4.24363916015625,-0.5446130037307739,-0.18963651359081268,-0.25031688809394836
1772556609033623000,4.253623046875,-0.5045446753501892,-0.20196375250816345,-0.24441799521446228
1772556609043608000,4.263608154296875,-0.4051506817340851,-0.15325427055358887,-0.21212051808834076
1772556609053592000,4.273592041015625,-0.2650905251502991,-0.07524415105581284,-0.15633980929851532
1772556609063576000,4.283576171875,-0.11458969861268997,0.019949207082390785,-0.09558085352182388
1772556609073560000,4.29356005859375,0.031499870121479034,0.09803708642721176,-0.033428531140089035
1772556609083545000,4.303545166015625,0.1525823473930359,0.14194568991661072,0.01902242749929428
1772556609093529000,4.313529052734375,0.2361755222082138,0.17539046704769135,0.04691983759403229
1772556609103513000,4.32351318359375,0.29290589690208435,0.19830083847045898,0.054055776447057724
1772556609113497900,4.333497802734375,0.29865461587905884,0.20686502754688263,0.05294710397720337
1772556609123482000,4.343482177734375,0.2781032621860504,0.23957104980945587,0.037760961800813675
1772556609133466000,4.353466064453125,0.2430637776851654,0.26096421480178833,-0.003608583239838481
1772556609143450000,4.3634501953125,0.22241708636283875,0.23036955296993256,-0.061358433216810226
1772556609153435000,4.373434814453125,0.21122542023658752,0.1560969203710556,-0.11705151945352554
1772556609163419100,4.383419189453125,0.208443745970726,0.09695716947317123,-0.1718420684337616
1772556609173403100,4.393403076171875,0.23506072163581848,0.025561818853020668,-0.17792606353759766
1772556609183388000,4.403387939453125,0.2672567367553711,-0.0631006732583046,-0.11072811484336853
1772556609193374000,4.4133740234375,0.3064459562301636,-0.16293086111545563,0.019542010501027107
1772556609203358000,4.42335791015625,0.35583212971687317,-0.2700490653514862,0.2027251422405243
1772556609213342000,4.433342041015625,0.404670774936676,-0.33637216687202454,0.40775659680366516
1772556609223327000,4.443326904296875,0.4343400001525879,-0.34928131103515625,0.5833028554916382
1772556609233311000,4.45331103515625,0.47565948963165283,-0.36615854501724243,0.6970962285995483
1772556609243295000,4.463294921875,0.48935532569885254,-0.403550922870636,0.7684942483901978
1772556609253280000,4.473280029296875,0.493732213973999,-0.4545547366142273,0.8070374131202698
1772556609263264000,4.483263916015625,0.4930291473865509,-0.5592137575149536,0.8022801876068115
1772556609273248000,4.493248046875,0.4655911326408386,-0.6843439936637878,0.7613559365272522
1772556609283232000,4.50323193359375,0.40336132049560547,-0.8146823048591614,0.6810331344604492
1772556609293217000,4.513217041015625,0.3393042981624603,-1.0034186840057373,0.5648018717765808
1772556609303201000,4.523200927734375,0.27624064683914185,-1.2181288003921509,0.4197368323802948
1772556609313185000,4.53318505859375,0.16731175780296326,-1.433294415473938,0.23229235410690308
1772556609323170000,4.543170166015625,0.011049188673496246,-1.6375644207000732,0.0037230991292744875
1772556609333154000,4.553154052734375,-0.08022026717662811,-1.7098442316055298,-0.21959280967712402
1772556609343137500,4.563137451171875,-0.15847592055797577,-1.7103632688522339,-0.37954065203666687
1772556609353121500,4.57312158203125,-0.21326300501823425,-1.6700350046157837,-0.45960861444473267
1772556609363106600,4.5831064453125,-0.24653467535972595,-1.561596393585205,-0.44621741771698
1772556609373090600,4.593090576171875,-0.29697707295417786,-1.3747330904006958,-0.32169309258461
1772556609383074600,4.603074462890625,-0.3756662905216217,-1.1179639101028442,-0.11434894800186157
1772556609393058600,4.61305859375,-0.48650625348091125,-0.7993462085723877,0.1300506740808487
1772556609403043600,4.623043701171875,-0.5919575691223145,-0.4438312351703644,0.36431750655174255
1772556609413027600,4.633027587890625,-0.6750133037567139,-0.13821139931678772,0.5497645735740662
1772556609423011600,4.643011474609375,-0.6997029781341553,0.1376422792673111,0.6460972428321838
1772556609432996600,4.65299658203125,-0.6178643107414246,0.27981460094451904,0.5708850622177124
1772556609442980600,4.662980712890625,-0.46702709794044495,-0.1504635363817215,0.31690603494644165
1772556609452964600,4.672964599609375,-0.33579638600349426,-0.8822232484817505,-0.024053137749433517
1772556609462948600,4.682948486328125,-0.28135737776756287,-1.2923945188522339,-0.31101247668266296
1772556609472933600,4.69293359375,-0.21336553990840912,-0.45170193910598755,-0.21695761382579803
1772556609482917600,4.702917724609375,-0.20860381424427032,0.12002760171890259,-0.4475831091403961
1772556609492901600,4.712901611328125,-0.10393838584423065,0.4479506015777588,-0.5491898655891418
1772556609502886700,4.72288671875,-0.09177839010953903,0.7470025420188904,-0.5134332180023193
1772556609512870700,4.73287060546875,-0.061039119958877563,0.7937788367271423,-0.35893580317497253
1772556609522854700,4.742854736328125,-0.06473878026008606,0.7904501557350159,-0.1625007688999176
1772556609532838700,4.752838623046875,-0.06781340390443802,0.7841233015060425,0.07165501266717911
1772556609542823700,4.76282373046875,-0.0728108212351799,0.6924029588699341,0.3230193257331848
1772556609552807700,4.7728076171875,-0.05633224919438362,0.6364638209342957,0.5616921186447144
1772556609562791400,4.78279150390625,-0.04266171157360077,0.6891728043556213,0.7616581916809082
1772556609572776400,4.7927763671875,-0.08383923768997192,0.8802229166030884,0.9277997612953186
1772556609582760400,4.802760498046875,-0.17466048896312714,0.97169429063797,1.033105731010437
1772556609592744400,4.812744384765625,-0.2670290470123291,0.836977481842041,1.0575684309005737
1772556609602728400,4.822728515625,-0.32410216331481934,0.5656226277351379,0.993145763874054
1772556609612713500,4.83271337890625,-0.344705730676651,0.31888771057128906,0.857837975025177
1772556609622697500,4.842697509765625,-0.3457565903663635,0.16864760220050812,0.6691655516624451
1772556609632681500,4.852681396484375,-0.31765758991241455,0.03175020590424538,0.4589475989341736
1772556609642666500,4.86266650390625,-0.25137391686439514,-0.0994831770658493,0.2747111916542053
1772556609652650200,4.872650146484375,-0.16063281893730164,-0.1965727061033249,0.1339559406042099
1772556609662634500,4.882634521484375,-0.05361396074295044,-0.2777954041957855,0.03299416974186897
1772556609672618500,4.892618408203125,0.060263872146606445,-0.3677116930484772,-0.03921664506196976
1772556609682603300,4.902603271484375,0.14485305547714233,-0.46644121408462524,-0.08379529416561127
1772556609692587300,4.912587158203125,0.18926580250263214,-0.5714219808578491,-0.09694252163171768
1772556609702571500,4.922571533203125,0.18663646280765533,-0.5887244939804077,-0.06897853314876556
1772556609712556300,4.932556396484375,0.1157364547252655,-0.5023598074913025,-0.00888057705014944
1772556609722540300,4.942540283203125,-0.008959938772022724,-0.39045271277427673,0.04995184764266014
1772556609732524300,4.952524169921875,-0.14173050224781036,-0.3243647515773773,0.07698266208171844
1772556609742508300,4.96250830078125,-0.2647501826286316,-0.25292733311653137,0.048952627927064896
1772556609752493300,4.972493408203125,-0.3580092787742615,-0.1698305755853653,-0.010833739303052425
1772556609762477300,4.982477294921875,-0.4294067621231079,-0.10451974719762802,-0.07262413948774338
1772556609772461300,4.99246142578125,-0.47568264603614807,-0.08343550562858582,-0.11651808768510818
1772556609782445300,5.0024453125,-0.5097636580467224,-0.09208066016435623,-0.13633334636688232
1772556609792430300,5.012430419921875,-0.5417830944061279,-0.12814944982528687,-0.14808347821235657
1772556609802414300,5.022414306640625,-0.5695577263832092,-0.1737275868654251,-0.15665459632873535
1772556609812398300,5.0323984375,-0.6155478954315186,-0.2469642460346222,-0.16492770612239838
1772556609822383400,5.04238330078125,-0.6814592480659485,-0.3188440203666687,-0.1885126531124115
1772556609832367400,5.052367431640625,-0.7617727518081665,-0.37704500555992126,-0.2367270588874817
1772556609842351400,5.062351318359375,-0.8365814685821533,-0.3969590663909912,-0.27917224168777466
1772556609852335400,5.07233544921875,-0.8665167093276978,-0.29083824157714844,-0.3008623719215393
1772556609862320400,5.0823203125,-0.9079470038414001,-0.09439734369516373,-0.27692747116088867
1772556609872304400,5.092304443359375,-0.811513364315033,0.06868558377027512,-0.17676705121994019
1772556609882288400,5.102288330078125,-0.6317188739776611,0.17725174129009247,-0.020503677427768707
1772556609892273400,5.1122734375,-0.40632060170173645,0.2911016047000885,0.1585686057806015
1772556609902257400,5.12225732421875,-0.19896049797534943,0.357147753238678,0.3108023405075073
1772556609912241400,5.132241455078125,-0.061113689094781876,0.40382418036460876,0.39273422956466675
1772556609922226400,5.142226318359375,-0.009190835058689117,0.36401844024658203,0.3478650152683258
1772556609932210400,5.15221044921875,-0.015028484165668488,0.1818036139011383,0.14878495037555695
1772556609942194400,5.1621943359375,-0.034213364124298096,-0.11305464804172516,-0.21698637306690216
1772556609952178400,5.172178466796875,-0.022540995851159096,-0.40460366010665894,-0.7072010636329651
1772556609962163500,5.18216357421875,0.005106611177325249,-0.558661937713623,-1.175379753112793
1772556609972147500,5.1921474609375,0.05084986612200737,-0.5641235709190369,-1.4911515712738037
1772556609982131500,5.20213134765625,0.12515631318092346,-0.4316909611225128,-1.5456159114837646
1772556609992115500,5.212115478515625,0.20470280945301056,-0.3006809949874878,-1.3305938243865967
1772556610002100500,5.2221005859375,0.2462015151977539,-0.3721240162849426,-0.9586559534072876
1772556610012084500,5.23208447265625,0.2426493912935257,-0.4648478329181671,-0.4879070818424225
1772556610022068500,5.242068359375,0.1794416606426239,-0.4546564519405365,-0.006118878722190857
1772556610032053500,5.252053466796875,0.12500318884849548,-0.3981010317802429,0.395217627286911
1772556610042037500,5.26203759765625,0.0778532549738884,-0.31167054176330566,0.6452533006668091
1772556610052021500,5.272021484375,0.0037699707318097353,-0.17369775474071503,0.738427996635437
1772556610062005500,5.282005615234375,-0.1138157844543457,0.0496506430208683,0.676628828048706
1772556610071990500,5.291990478515625,-0.22305890917778015,0.2798455059528351,0.511742889881134
1772556610081974500,5.301974609375,-0.26826581358909607,0.416398823261261,0.2996029555797577
1772556610091958500,5.31195849609375,-0.24936987459659576,0.4653879404067993,0.08644673973321915
1772556610101943600,5.321943603515625,-0.19247516989707947,0.5387390851974487,-0.0885184109210968
1772556610111927600,5.331927490234375,-0.104464091360569,0.6964890360832214,-0.20959024131298065
1772556610121911600,5.34191162109375,-0.021434718742966652,0.8704984188079834,-0.28385329246520996
1772556610131896600,5.351896484375,0.01918887533247471,0.9891973733901978,-0.3200291395187378
1772556610141880600,5.361880615234375,0.0068211546167731285,1.0499041080474854,-0.3215537965297699
1772556610151864600,5.371864501953125,-0.04414775222539902,1.0560376644134521,-0.2734224796295166
1772556610161848600,5.3818486328125,-0.1138639822602272,1.0212056636810303,-0.18606680631637573
1772556610171833600,5.39183349609375,-0.19520998001098633,0.9244178533554077,-0.011001517996191978
1772556610181817600,5.401817626953125,-0.26734355092048645,0.8302875757217407,0.20852258801460266
1772556610191801600,5.411801513671875,-0.31494462490081787,0.7526391744613647,0.40193891525268555
1772556610201786600,5.42178662109375,-0.3177073895931244,0.5887694954872131,0.5120614171028137
1772556610211770600,5.4317705078125,-0.28698331117630005,0.30666059255599976,0.5267263650894165
1772556610221754600,5.441754638671875,-0.2595423460006714,0.01787007786333561,0.5238131284713745
1772556610231738600,5.451738525390625,-0.25972798466682434,-0.06264553964138031,0.5338359475135803
1772556610241723600,5.4617236328125,-0.2655877470970154,-0.05319078266620636,0.5495368838310242
1772556610251707600,5.471707763671875,-0.2728336751461029,-0.016534768044948578,0.5541667938232422
1772556610261691600,5.481691650390625,-0.27298760414123535,0.054426223039627075,0.5198969841003418
1772556610271676400,5.491676513671875,-0.29166194796562195,0.122218057513237,0.4467303454875946
1772556610281660700,5.50166064453125,-0.3289339542388916,0.17802512645721436,0.3578212559223175
1772556610291644700,5.511644775390625,-0.39555823802948,0.15515683591365814,0.2995118796825409
1772556610301628400,5.52162841796875,-0.46235191822052,0.1110498234629631,0.29254984855651855
1772556610311613400,5.531613525390625,-0.5215089917182922,0.07642766088247299,0.3151758015155792
1772556610321597700,5.54159765625,-0.5612175464630127,0.14251667261123657,0.39143380522727966
1772556610331581400,5.55158154296875,-0.558217465877533,0.19713810086250305,0.442995548248291
1772556610341570300,5.5615703125,-0.5283789038658142,0.2822343409061432,0.470345675945282
1772556610351554300,5.57155419921875,-0.44534605741500854,0.3636232316493988,0.41463926434516907
1772556610361538300,5.581538330078125,-0.2998221218585968,0.3385394513607025,0.3195319175720215
1772556610371522300,5.591522216796875,-0.1474677473306656,0.2404157966375351,0.24158918857574463
1772556610381507300,5.60150732421875,-0.05055239051580429,0.13430480659008026,0.19355641305446625
1772556610391491300,5.6114912109375,-0.021830730140209198,0.016886305063962936,0.16137424111366272
1772556610401475300,5.621475341796875,-0.03580620139837265,-0.11847285181283951,0.13305525481700897
1772556610411460400,5.63146044921875,-0.022607041522860527,-0.24730299413204193,0.0759751945734024
1772556610421444400,5.6414443359375,0.01588362455368042,-0.37937048077583313,0.004845088813453913
1772556610431428400,5.651428466796875,0.03465598076581955,-0.48610731959342957,-0.017468739300966263
1772556610441412400,5.661412353515625,0.06476274877786636,-0.5747503638267517,-0.029404494911432266
1772556610451397400,5.6713974609375,-0.09214883297681808,-0.9552010297775269,0.06363517045974731
1772556610461381400,5.68138134765625,-0.33017364144325256,-1.1152477264404297,0.26542821526527405
1772556610471365400,5.691365478515625,-0.47244691848754883,-1.1069748401641846,0.5447573065757751
1772556610481350400,5.701350341796875,-0.5338354110717773,-0.8293853402137756,0.8221518993377686
1772556610491334400,5.71133447265625,-0.4807487726211548,-0.5004002451896667,1.0162265300750732
1772556610501318400,5.721318359375,-0.3418598771095276,-0.07287074625492096,1.1063692569732666
1772556610511302400,5.731302490234375,-0.1353519707918167,0.12221379578113556,1.0353437662124634
1772556610521287400,5.741287353515625,0.1221967488527298,0.09782270342111588,0.7987056970596313
1772556610531271400,5.751271484375,0.3605984151363373,-0.11672049015760422,0.42774760723114014
1772556610541255400,5.76125537109375,0.5027920007705688,-0.523393452167511,-0.029519543051719666
1772556610551240400,5.771240478515625,0.527127742767334,-0.9352787137031555,-0.47619983553886414
1772556610561224400,5.781224365234375,0.48127636313438416,-1.1099677085876465,-0.7979786396026611
1772556610571208400,5.79120849609375,0.43634963035583496,-1.0570828914642334,-0.9159108996391296
1772556610581193500,5.801193359375,0.41948407888412476,-0.9271765947341919,-0.8433890342712402
1772556610591177500,5.811177490234375,0.3541029393672943,-0.8716813921928406,-0.6634754538536072
1772556610601161500,5.821161376953125,0.24241796135902405,-0.8514650464057922,-0.3680448532104492
1772556610611145500,5.8311455078125,0.12641972303390503,-0.7514617443084717,0.006381732877343893
1772556610621130500,5.841130615234375,0.03328072652220726,-0.5446656942367554,0.3975287079811096
1772556610631114500,5.851114501953125,-0.058212172240018845,-0.2993515431880951,0.7274179458618164
1772556610641098500,5.861098388671875,-0.16209489107131958,-0.05543902516365051,0.9662901759147644
1772556610651083500,5.87108349609375,-0.27488401532173157,0.19427147507667542,1.0723724365234375
1772556610661067500,5.881067626953125,-0.363460510969162,0.3066480755805969,1.0674879550933838
1772556610671051300,5.89105126953125,-0.40128350257873535,0.23513981699943542,0.8890710473060608
1772556610681035300,5.90103515625,-0.3938623368740082,0.006821686867624521,0.5381670594215393
1772556610691020500,5.9110205078125,-0.36293265223503113,-0.17055602371692657,0.1370566487312317
1772556610701004300,5.92100439453125,-0.33183467388153076,-0.17165671288967133,-0.17061008512973785
1772556610710988300,5.93098828125,-0.3159014880657196,-0.09428948163986206,-0.3622860312461853
1772556610720973600,5.9409736328125,-0.3224845826625824,-0.028788238763809204,-0.4590213894844055
1772556610730957300,5.950957275390625,-0.3164066970348358,0.009912817738950253,-0.5044059157371521
1772556610740941300,5.96094140625,-0.3061586022377014,0.0517558716237545,-0.47536173462867737
1772556610750926600,5.970926513671875,-0.29951027035713196,0.1385490894317627,-0.3706848621368408
1772556610760910300,5.980910400390625,-0.2718600034713745,0.14452575147151947,-0.26112881302833557
1772556610770894300,5.990894287109375,-0.23014052212238312,0.10995686054229736,-0.16064932942390442
1772556610780878300,6.00087841796875,-0.1608908772468567,0.0682554841041565,-0.06536009907722473
1772556610790863400,6.01086328125,-0.10385289788246155,0.0735330730676651,0.0072896042838692665
1772556610800847400,6.020847412109375,-0.1520547717809677,0.07917951047420502,0.05206240341067314
1772556610810831400,6.030831298828125,-0.1850404292345047,0.10662684589624405,0.07626175135374069
1772556610820816400,6.04081640625,-0.2717457711696625,0.16888809204101562,0.05325017124414444
1772556610830800400,6.05080029296875,-0.39911195635795593,0.18769319355487823,0.02432025410234928
1772556610840784400,6.060784423828125,-0.5262517929077148,0.21572722494602203,-0.015420767478644848
1772556610850768400,6.070768310546875,-0.6513647437095642,0.2680428922176361,-0.07501618564128876
1772556610860753400,6.08075341796875,-0.744928240776062,0.35320279002189636,-0.14511485397815704
1772556610870737400,6.0907373046875,-0.8007259964942932,0.4197924733161926,-0.2315027266740799
1772556610880721400,6.100721435546875,-0.8238696455955505,0.479720801115036,-0.3178200423717499
1772556610890706200,6.1107060546875,-0.8532283306121826,0.6842228174209595,-0.39382079243659973
1772556610900690400,6.1206904296875,-0.8748207092285156,0.860817015171051,-0.46112287044525146
1772556610910674400,6.13067431640625,-0.8569210767745972,0.8186075091362,-0.490634948015213
1772556610920659200,6.1406591796875,-0.8082683086395264,0.6157976984977722,-0.4440267086029053
1772556610930643200,6.150643310546875,-0.7624582052230835,0.32785484194755554,-0.29513710737228394
1772556610940627500,6.16062744140625,-0.7329525351524353,0.10088613629341125,-0.09349426627159119
1772556610950611500,6.170611572265625,-0.7187229990959167,-0.01854066178202629,0.1227078065276146
1772556610960596200,6.18059619140625,-0.721915066242218,-0.07262307405471802,0.3122020959854126
1772556610970580200,6.190580322265625,-0.7115976810455322,-0.10751580446958542,0.43615201115608215
1772556610980564500,6.200564453125,-0.6743254065513611,-0.10357459634542465,0.4965527653694153
1772556610990549200,6.21054931640625,-0.6085349917411804,-0.032349418848752975,0.4967498481273651
1772556611000533200,6.220533203125,-0.5261114835739136,0.061399977654218674,0.4302603006362915
1772556611010517200,6.230517333984375,-0.4244399666786194,0.1340869665145874,0.30920177698135376
1772556611020501200,6.240501220703125,-0.31456857919692993,0.1975061446428299,0.15491901338100433
1772556611030486300,6.250486328125,-0.19452740252017975,0.26753130555152893,0.012258264236152172
1772556611040470300,6.26047021484375,-0.06990877538919449,0.38000673055648804,-0.0670221745967865
1772556611050454300,6.270454345703125,0.02960609458386898,0.4812853932380676,-0.07732594758272171
1772556611060439300,6.280439208984375,0.048602424561977386,0.4707778990268707,-0.05012814700603485
1772556611070423300,6.29042333984375,-0.025349831208586693,0.37111762166023254,0.0008964200387708843
1772556611080407300,6.3004072265625,-0.14107802510261536,0.19798977673053741,0.0256960429251194
1772556611090392300,6.310392333984375,-0.2504447400569916,-0.0729285329580307,-0.0446644052863121
1772556611100376300,6.320376220703125,-0.3230249285697937,-0.4466688334941864,-0.2647882401943207
1772556611110360300,6.3303603515625,-0.33193907141685486,-0.7988495230674744,-0.5666487812995911
1772556611120344300,6.34034423828125,-0.3055487275123596,-1.0167067050933838,-0.8370576500892639
1772556611130329300,6.350329345703125,-0.22218646109104156,-1.060256838798523,-0.9898365139961243
1772556611140313300,6.360313232421875,-0.07479008287191391,-0.9815018773078918,-0.9847264289855957
1772556611150297300,6.37029736328125,0.052494898438453674,-0.9414487481117249,-0.8423994183540344
1772556611160282400,6.380282470703125,0.10727425664663315,-0.8771935701370239,-0.5402621626853943
1772556611170266400,6.390266357421875,0.12703464925289154,-0.6814144849777222,-0.11048123985528946
1772556611180250400,6.40025048828125,0.09391850233078003,-0.35460495948791504,0.3532707095146179
1772556611190234400,6.410234375,0.02201448753476143,-0.03741341829299927,0.7363080978393555
1772556611200219400,6.420219482421875,-0.04627508670091629,0.1494251787662506,0.9428394436836243
1772556611210203400,6.430203369140625,-0.09977932274341583,0.23215387761592865,0.9700159430503845
1772556611220187400,6.4401875,-0.14911438524723053,0.2284608632326126,0.8447858691215515
1772556611230172400,6.45017236328125,-0.1734444946050644,0.1563808172941208,0.6047831177711487
1772556611240156400,6.460156494140625,-0.15467533469200134,0.10744922608137131,0.3361481726169586
1772556611250140400,6.470140380859375,-0.09430626034736633,0.07228884100914001,0.04795900359749794
1772556611260125400,6.48012548828125,-0.010479272343218327,0.010179134085774422,-0.2651275396347046
1772556611270109400,6.490109375,0.1081288680434227,-0.048107076436281204,-0.5897069573402405
1772556611280093400,6.500093505859375,0.23723864555358887,-0.06293981522321701,-0.876280665397644
1772556611290077400,6.510077392578125,0.3457353115081787,0.004205930046737194,-1.073477864265442
1772556611300062500,6.5200625,0.4165663421154022,0.0747179165482521,-1.1630793809890747
1772556611310046500,6.53004638671875,0.454281747341156,0.11031559109687805,-1.1395431756973267
1772556611320030500,6.540030517578125,0.4754387140274048,0.12575526535511017,-1.0246304273605347
1772556611330015500,6.550015380859375,0.483235627412796,0.14568662643432617,-0.8378363251686096
1772556611339995100,6.5599951171875,0.46455514430999756,0.18274904787540436,-0.6215154528617859
1772556611349979100,6.569979248046875,0.45786264538764954,0.22323068976402283,-0.4199482798576355
1772556611359964400,6.57996435546875,0.46357297897338867,0.21387793123722076,-0.2626561224460602
1772556611369948200,6.5899482421875,0.4817376136779785,0.14971545338630676,-0.15860909223556519
1772556611379932200,6.59993212890625,0.5163952112197876,0.07449181377887726,-0.10138414800167084
1772556611389916200,6.609916259765625,0.553127110004425,0.013712616637349129,-0.08643395453691483
1772556611399901200,6.619901123046875,0.5754286646842957,-0.004817924462258816,-0.11090521514415741
1772556611409885200,6.62988525390625,0.5592103004455566,0.026280872523784637,-0.15654300153255463
1772556611419869200,6.639869140625,0.5341156125068665,0.10056602209806442,-0.2072373479604721
1772556611429854200,6.649854248046875,0.5061976909637451,0.18226248025894165,-0.23451024293899536
1772556611439838200,6.659838134765625,0.4722495675086975,0.2687782049179077,-0.22342243790626526
1772556611449822200,6.669822265625,0.432879775762558,0.34038740396499634,-0.17881688475608826
1772556611459806200,6.67980615234375,0.39793166518211365,0.41568723320961,-0.09659871459007263
1772556611469791200,6.689791259765625,0.35961809754371643,0.461488276720047,0.00045593318645842373
1772556611479775200,6.699775146484375,0.32379350066185,0.4745588004589081,0.10313330590724945
1772556611489759200,6.70975927734375,0.30515751242637634,0.5987696647644043,0.1675623655319214
1772556611499744300,6.719744140625,0.22192654013633728,0.953387439250946,0.1612488031387329
1772556611509728300,6.729728271484375,0.07798215001821518,1.1268316507339478,0.21764151751995087
1772556611519712300,6.739712158203125,0.13748382031917572,1.0677717924118042,0.2805221974849701
1772556611529697300,6.749697265625,0.20861446857452393,1.0075886249542236,0.377471387386322
1772556611539681300,6.759681396484375,0.25030386447906494,0.8821952939033508,0.47169217467308044
1772556611549665300,6.769665283203125,0.259980171918869,0.7142739295959473,0.5487747192382812
1772556611559649300,6.779649169921875,0.20875801146030426,0.5832056403160095,0.6030539274215698
1772556611569634300,6.78963427734375,0.19130311906337738,0.5831201672554016,0.6395498514175415
1772556611579618300,6.799618408203125,0.032832782715559006,0.21922875940799713,0.521597146987915
1772556611589602300,6.809602294921875,-0.006511961575597525,-0.03694283589720726,0.38548165559768677
1772556611599587300,6.81958740234375,-0.04592035338282585,-0.29733046889305115,0.24411626160144806
1772556611609571300,6.8295712890625,-0.12354058027267456,-0.5165797472000122,0.12871643900871277
1772556611619555300,6.839555419921875,-0.19780468940734863,-0.6761712431907654,0.0719226598739624
1772556611629539300,6.849539306640625,-0.2209097445011139,-0.6942658424377441,0.094890296459198
1772556611639524000,6.859524169921875,-0.1977066844701767,-0.544833779335022,0.22822411358356476
1772556611649508400,6.86950830078125,-0.15933719277381897,-0.28349828720092773,0.46354395151138306
1772556611659492400,6.879492431640625,-0.07892996817827225,0.02298148162662983,0.7261686325073242
1772556611669477000,6.88947705078125,-0.00564110791310668,0.27474528551101685,0.9422343969345093
1772556611679461000,6.899461181640625,0.06269533932209015,0.45207664370536804,1.0413333177566528
1772556611689445400,6.9094453125,0.1598764806985855,0.505538821220398,0.9873642921447754
1772556611699430100,6.91943017578125,0.2647906541824341,0.42543599009513855,0.7685272693634033
1772556611709414100,6.9294140625,0.34544873237609863,0.1766301691532135,0.3937363922595978
1772556611719398100,6.939398193359375,0.34023773670196533,-0.2099071592092514,-0.056118663400411606
1772556611729382400,6.94938232421875,0.3511439263820648,-0.42135149240493774,-0.41731202602386475
1772556611739367200,6.9593671875,0.3588942289352417,-0.7706722021102905,-0.7227057218551636
1772556611749351200,6.96935107421875,0.39303144812583923,-0.737008273601532,-0.7994340658187866
1772556611759335200,6.979335205078125,0.385620653629303,-0.5722256898880005,-0.658263087272644
1772556611769320200,6.9893203125,0.38863322138786316,-0.29086512327194214,-0.340559720993042
1772556611779304200,6.99930419921875,0.4011642038822174,0.013025254011154175,0.05552477762103081
1772556611789288200,7.0092880859375,0.418715238571167,0.2883604168891907,0.44094356894493103
1772556611799272200,7.019272216796875,0.4464954733848572,0.5002998113632202,0.7348529696464539
1772556611809257200,7.02925732421875,0.4526068866252899,0.6726146340370178,0.8953054547309875
1772556611819241200,7.0392412109375,0.4136142134666443,0.8228528499603271,0.924480676651001
1772556611829225200,7.04922509765625,0.3215892016887665,0.9086620211601257,0.8299714922904968
1772556611839210200,7.059210205078125,0.19293271005153656,0.937251627445221,0.6372989416122437
1772556611849194200,7.0691943359375,0.016801349818706512,0.8959158658981323,0.4073517918586731
1772556611859178200,7.07917822265625,-0.1459641307592392,0.8764023780822754,0.16551145911216736
1772556611869163300,7.089163330078125,-0.2813773453235626,0.8240014910697937,-0.10961277782917023
1772556611879147300,7.099147216796875,-0.33435481786727905,0.725430428981781,-0.3907645642757416
1772556611889131300,7.10913134765625,-0.3030346930027008,0.5686730146408081,-0.640181303024292
1772556611899115300,7.119115234375,-0.22742995619773865,0.40911880135536194,-0.8072768449783325
1772556611909100300,7.129100341796875,-0.1384449601173401,0.3340805172920227,-0.8821697235107422
1772556611919084300,7.139084228515625,-0.04843277856707573,0.31411850452423096,-0.9219222068786621
1772556611929068300,7.149068359375,0.03442242369055748,0.34338292479515076,-0.9602549076080322
1772556611939053300,7.15905322265625,0.10302411764860153,0.39012566208839417,-0.9855839610099792
1772556611949037300,7.169037353515625,0.1576269119977951,0.42618274688720703,-0.972378671169281
1772556611959021300,7.179021240234375,0.1955481916666031,0.3953997790813446,-0.9041168093681335
1772556611969005300,7.18900537109375,0.2012455016374588,0.32287660241127014,-0.7715387940406799
1772556611978990300,7.198990234375,0.17997056245803833,0.23935692012310028,-0.5925754308700562
1772556611988974300,7.208974365234375,0.12701600790023804,0.17683495581150055,-0.38468217849731445
1772556611998958300,7.218958251953125,0.045277733355760574,0.14391322433948517,-0.18635202944278717
1772556612008943400,7.228943359375,-0.04566069692373276,0.11436519026756287,-0.0236483383923769
1772556612018927400,7.23892724609375,-0.11646535992622375,0.08733144402503967,0.07861971110105515
1772556612028911400,7.248911376953125,-0.18020546436309814,0.05765584111213684,0.13581109046936035
1772556612038895400,7.258895263671875,-0.23498187959194183,0.031323835253715515,0.16656367480754852
1772556612048880400,7.26888037109375,-0.2803136706352234,0.009268865920603275,0.19088606536388397
1772556612058864400,7.278864501953125,-0.2959373891353607,-0.02875441685318947,0.22855009138584137
1772556612068848400,7.288848388671875,-0.27508535981178284,-0.09018635004758835,0.291807621717453
1772556612078833400,7.29883349609375,-0.2287658005952835,-0.15922826528549194,0.39403998851776123
1772556612088817400,7.3088173828125,-0.1861986368894577,-0.22978685796260834,0.5311309695243835
1772556612098801400,7.318801513671875,-0.1680302768945694,-0.29557332396507263,0.6734018325805664
1772556612108786400,7.328786376953125,-0.19248129427433014,-0.3390568792819977,0.7808209657669067
1772556612118770400,7.3387705078125,-0.24760447442531586,-0.36545121669769287,0.81577068567276
1772556612128754200,7.348754150390625,-0.30904093384742737,-0.37259912490844727,0.7624965906143188
1772556612138738200,7.35873828125,-0.3640783429145813,-0.3539290428161621,0.6378228068351746
1772556612148723500,7.368723388671875,-0.4001580476760864,-0.2935922145843506,0.4611108899116516
1772556612158707200,7.378707275390625,-0.4000675082206726,-0.20733214914798737,0.2876594662666321
1772556612168691200,7.388691162109375,-0.3451099991798401,-0.11697189509868622,0.1526729017496109
1772556612178676500,7.398676513671875,-0.2594241201877594,-0.06227802112698555,0.060085441917181015
1772556612188660200,7.40866015625,-0.14287912845611572,-0.04902986064553261,0.016166185960173607
1772556612198644200,7.418644287109375,0.004375840071588755,-0.06901528686285019,0.008606803603470325
1772556612208628200,7.428628173828125,0.16324591636657715,-0.08856475353240967,0.02449895069003105
1772556612218613200,7.43861328125,0.30086183547973633,-0.08158461004495621,0.061762966215610504
1772556612228597200,7.44859716796875,0.37844717502593994,-0.048656485974788666,0.10287072509527206
1772556612238581200,7.458581298828125,0.3615320920944214,-0.04986955597996712,0.115915946662426
1772556612248566300,7.468566162109375,0.2920970916748047,-0.10610806196928024,0.08410608768463135
1772556612258550300,7.47855029296875,0.21402467787265778,-0.23740269243717194,0.0017190704820677638
1772556612268534300,7.4885341796875,0.16354072093963623,-0.42196375131607056,-0.12820830941200256
1772556612278518300,7.498518310546875,0.14242452383041382,-0.6196459531784058,-0.3016836941242218
1772556612288503300,7.50850341796875,0.1294408142566681,-0.8229582905769348,-0.5357978940010071
1772556612298487300,7.5184873046875,0.1293332278728485,-1.067731261253357,-0.8173539638519287
1772556612308471300,7.52847119140625,0.15666790306568146,-1.3274166584014893,-1.1109381914138794
1772556612318456000,7.5384560546875,0.22870615124702454,-1.6251863241195679,-1.4180067777633667
1772556612328440000,7.548440185546875,0.30268582701683044,-1.7657601833343506,-1.6309869289398193
1772556612338424300,7.55842431640625,0.36149054765701294,-1.7995679378509521,-1.6889852285385132
1772556612348408800,7.568408935546875,0.4013357162475586,-1.8702744245529175,-1.6395654678344727
1772556612358393900,7.578393798828125,0.41202136874198914,-1.8510375022888184,-1.5373278856277466
1772556612368377900,7.5883779296875,0.4065573811531067,-1.673095464706421,-1.3960071802139282
1772556612378361900,7.59836181640625,0.4186475872993469,-1.476269245147705,-1.2390012741088867
1772556612388347000,7.608346923828125,0.46399083733558655,-1.2869830131530762,-1.1152474880218506
1772556612398331000,7.618330810546875,0.5334303379058838,-1.1114747524261475,-1.0478734970092773
1772556612408315000,7.62831494140625,0.6220363974571228,-0.9330163598060608,-1.0255277156829834
1772556612418298600,7.638298583984375,0.7054117321968079,-0.7440363168716431,-1.0262736082077026
1772556612428284000,7.648283935546875,0.7671017050743103,-0.5717572569847107,-1.0431509017944336
1772556612438268000,7.658267822265625,0.7811757326126099,-0.4003237187862396,-1.0417934656143188
1772556612448251600,7.668251708984375,0.7225715517997742,-0.3114183247089386,-0.9864641427993774
1772556612458237000,7.67823681640625,0.6388659477233887,-0.1679929941892624,-0.8871886730194092
1772556612468221000,7.688220947265625,0.577704906463623,0.0641973614692688,-0.7384716868400574
1772556612478204700,7.69820458984375,0.5535649061203003,0.27199822664260864,-0.5754331946372986
1772556612488188700,7.708188720703125,0.5498186349868774,0.42616623640060425,-0.4266780912876129
1772556612498174000,7.718174072265625,0.5620676279067993,0.5274782180786133,-0.31042683124542236
1772556612508157700,7.72815771484375,0.5771682858467102,0.5456159114837646,-0.22078511118888855
1772556612518141700,7.7381416015625,0.5645012259483337,0.5204125642776489,-0.130604088306427
1772556612528127000,7.748126953125,0.5147863626480103,0.4639114737510681,-0.04117726534605026
1772556612538110700,7.75811083984375,0.44088950753211975,0.39032965898513794,0.05163842812180519
1772556612548094700,7.7680947265625,0.37645673751831055,0.3507596254348755,0.15550224483013153
1772556612558078700,7.77807861328125,0.34038475155830383,0.34232857823371887,0.25349804759025574
1772556612568063700,7.788063720703125,0.3313092291355133,0.3446905314922333,0.3131358027458191
1772556612578047700,7.7980478515625,0.324276864528656,0.3223641812801361,0.3306034803390503
1772556612588031700,7.80803173828125,0.2944878339767456,0.264273464679718,0.2996940314769745
1772556612598016800,7.818016845703125,0.25341707468032837,0.20437097549438477,0.23382367193698883
1772556612608000800,7.828000732421875,0.21119825541973114,0.1668635457754135,0.15617655217647552
1772556612617984800,7.83798486328125,0.17758676409721375,0.16840524971485138,0.08137448132038116
1772556612627968800,7.84796875,0.1368795484304428,0.18761037290096283,0.02575942501425743
1772556612637953800,7.857953857421875,0.10196684300899506,0.178275465965271,-0.003748132847249508
1772556612647937800,7.867937744140625,0.0583818182349205,0.15221457183361053,-0.008475776761770248
1772556612657921800,7.877921875,0.010598049499094486,0.06916043162345886,0.015338475815951824
1772556612667905800,7.88790576171875,-0.03732313588261604,-0.0320759117603302,0.05302859842777252
1772556612677890800,7.897890869140625,-0.0713796392083168,-0.09596088528633118,0.10503853112459183
1772556612687874800,7.907874755859375,-0.069178007543087,-0.038722626864910126,0.18151307106018066
1772556612697858800,7.91785888671875,-0.013055347837507725,0.08705846965312958,0.2882919907569885
1772556612707843800,7.92784375,0.06372012197971344,0.2703965902328491,0.4061912000179291
1772556612717827800,7.937827880859375,0.11729120463132858,0.44086313247680664,0.5146313905715942
1772556612727811800,7.947811767578125,0.13233673572540283,0.5324069261550903,0.5879614949226379
1772556612737795800,7.9577958984375,0.10790915787220001,0.5423708558082581,0.6218912601470947
1772556612747780900,7.96778076171875,0.047333694994449615,0.4939785599708557,0.6049817800521851
1772556612757764900,7.977764892578125,-0.05122430622577667,0.4065624177455902,0.5373550653457642
1772556612767746800,7.987746826171875,-0.16896691918373108,0.3155534267425537,0.41864439845085144
1772556612777730800,7.997730712890625,-0.29690438508987427,0.22880947589874268,0.2717244625091553
1772556612787715800,8.0077158203125,-0.4137319326400757,0.15505509078502655,0.13902126252651215
1772556612797699800,8.017699951171876,-0.4879467785358429,0.09769593179225922,0.05997465178370476
1772556612807683800,8.027683837890624,-0.5181273221969604,0.08169326186180115,0.09284232556819916
1772556612817668900,8.0376689453125,-0.5097798705101013,0.12335655838251114,0.25256115198135376
1772556612827652900,8.04765283203125,-0.45760032534599304,0.2589798867702484,0.541251003742218
1772556612837636900,8.057636962890625,-0.3711780607700348,0.39206844568252563,0.871660590171814
1772556612847620600,8.06762060546875,-0.2853696942329407,0.4048241972923279,1.0883833169937134
1772556612857606000,8.07760595703125,-0.22861666977405548,0.340375691652298,1.126723289489746
1772556612867590000,8.08758984375,-0.16881698369979858,0.27022749185562134,1.0110299587249756
1772556612877573600,8.09757373046875,-0.0945720449090004,0.12801602482795715,0.7527339458465576
1772556612887559000,8.107558837890625,0.01635740138590336,-0.12100019305944443,0.33587759733200073
1772556612897543000,8.11754296875,0.14001542329788208,-0.426373153924942,-0.1615966260433197
1772556612907526700,8.127526611328125,0.2170577496290207,-0.6468485593795776,-0.6151864528656006
1772556612917510700,8.1375107421875,0.2540668845176697,-0.8726387619972229,-0.9475926756858826
1772556612927496000,8.147495849609374,0.214850515127182,-0.9617167115211487,-1.0791139602661133
1772556612937479700,8.157479736328124,0.14430232346057892,-0.8646088242530823,-0.962207555770874
1772556612947463700,8.167463623046874,0.11047884076833725,-0.6494637727737427,-0.6376782059669495
1772556612957448700,8.17744873046875,0.093378946185112,-0.366899698972702,-0.19831176102161407
1772556612967432700,8.1874326171875,0.10490963608026505,-0.0647536963224411,0.24798743426799774
1772556612977416700,8.197416748046875,0.1265089362859726,0.20470866560935974,0.6060049533843994
1772556612987400700,8.207400634765625,0.14688052237033844,0.40959790349006653,0.8222025036811829
1772556612997385700,8.2173857421875,0.15630225837230682,0.5827227830886841,0.8792106509208679
1772556613007369700,8.22736962890625,0.1503511518239975,0.7046492695808411,0.8075788021087646
1772556613017353700,8.237353759765625,0.11477132141590118,0.755172610282898,0.6274247765541077
1772556613027337700,8.247337646484375,0.08496256172657013,0.7428736090660095,0.3742694854736328
1772556613037322800,8.25732275390625,0.06930184364318848,0.6878681182861328,0.05583769828081131
1772556613047306800,8.267306640625,0.07222972065210342,0.6010900735855103,-0.27978238463401794
1772556613057290800,8.277290771484376,0.09685704112052917,0.49484407901763916,-0.6138964295387268
1772556613067275800,8.28727587890625,0.11970216780900955,0.36177897453308105,-0.904753565788269
1772556613077259800,8.297259765625,0.1459079384803772,0.2060983031988144,-1.0905228853225708
1772556613087243800,8.307243896484374,0.18333174288272858,0.02395380288362503,-1.1499329805374146
1772556613097227800,8.317227783203125,0.23276427388191223,-0.1313748061656952,-1.0664982795715332
1772556613107212800,8.327212890625,0.29240843653678894,-0.2097574919462204,-0.8591208457946777
1772556613117196800,8.33719677734375,0.3502879738807678,-0.20391611754894257,-0.5501161217689514
1772556613127180800,8.347180908203125,0.39974579215049744,-0.1384742558002472,-0.19386853277683258
1772556613137164800,8.357164794921875,0.4320102632045746,-0.04752703756093979,0.13508591055870056
1772556613147149800,8.36714990234375,0.4395699203014374,0.026196716353297234,0.3957851529121399
1772556613157133800,8.3771337890625,0.4162219762802124,0.0861348882317543,0.5654881596565247
1772556613167117800,8.387117919921875,0.3572894334793091,0.12960858643054962,0.6337524652481079
1772556613177102800,8.397102783203126,0.29067176580429077,0.1491793692111969,0.6298575401306152
1772556613187086800,8.4070869140625,0.20604105293750763,0.15367451310157776,0.554702639579773
1772556613197070800,8.41707080078125,0.11197313666343689,0.1307087391614914,0.44246530532836914
1772556613207054800,8.427054931640624,0.020185695961117744,0.0969662293791771,0.32103022933006287
1772556613217040000,8.437039794921875,-0.04848817363381386,0.060321398079395294,0.20813429355621338
1772556613227024000,8.44702392578125,-0.1021234393119812,0.049861032515764236,0.11885048449039459
1772556613237008000,8.4570078125,-0.14202265441417694,0.04474669694900513,0.05372341722249985
1772556613246993000,8.466992919921875,-0.1665479689836502,0.040284838527441025,0.022041918709874153
1772556613256977000,8.476976806640625,-0.19305653870105743,0.040935713797807693,0.023811856284737587
1772556613266961000,8.4869609375,-0.24234633147716522,0.03268151357769966,0.06794043630361557
1772556613276945000,8.49694482421875,-0.30539506673812866,0.005123921670019627,0.14914527535438538
1772556613286930000,8.506929931640625,-0.36710476875305176,-0.027065172791481018,0.2390938103199005
1772556613296914000,8.516913818359376,-0.40944555401802063,-0.03773166611790657,0.3147028088569641
1772556613306898000,8.52689794921875,-0.44127219915390015,-0.02713787741959095,0.35852620005607605
1772556613316882000,8.5368818359375,-0.46362411975860596,0.005536445416510105,0.3770838975906372
1772556613326867000,8.546866943359374,-0.47665974497795105,0.026818564161658287,0.3655012845993042
1772556613336851000,8.556850830078124,-0.4776611030101776,0.023266972973942757,0.3120769262313843
1772556613346835200,8.566835205078124,-0.4555821716785431,-0.012781042605638504,0.2389683723449707
1772556613356820200,8.5768203125,-0.4179738163948059,-0.04724341258406639,0.1685115098953247
1772556613366804200,8.58680419921875,-0.36499500274658203,-0.06765840947628021,0.11077471822500229
1772556613376788200,8.596788330078125,-0.29770970344543457,-0.05299956724047661,0.0758976936340332
1772556613386772200,8.606772216796875,-0.22400806844234467,-0.025412948802113533,0.06640218943357468
1772556613396757200,8.61675732421875,-0.1321638971567154,0.04580450803041458,0.0785432755947113
1772556613406741200,8.6267412109375,-0.04192321375012398,0.17833565175533295,0.11441712081432343
1772556613416725200,8.636725341796875,0.001044225413352251,0.27756211161613464,0.15384042263031006
1772556613426709200,8.646709228515626,-0.008590558543801308,0.3265024721622467,0.14833727478981018
1772556613436694300,8.6566943359375,-0.013007943518459797,0.34399810433387756,0.09144682437181473
1772556613446678300,8.66667822265625,-0.015446866862475872,0.3347167372703552,0.0003230414295103401
1772556613456662300,8.676662353515624,-0.04211096838116646,0.25806882977485657,-0.16090047359466553
1772556613466646300,8.686646240234374,-0.06430202722549438,0.12024172395467758,-0.38596075773239136
1772556613476631000,8.696631103515625,-0.05360464006662369,-0.03464639559388161,-0.6156397461891174
1772556613486615300,8.706615234375,-0.011655324138700962,-0.16942045092582703,-0.7568722367286682
1772556613496599300,8.716599365234375,0.05964761599898338,-0.26737603545188904,-0.7535342574119568
1772556613506584000,8.726583984375,0.15962748229503632,-0.29411551356315613,-0.5960506200790405
1772556613516568000,8.736568115234375,0.2658950686454773,-0.25408339500427246,-0.31353074312210083
1772556613526552300,8.74655224609375,0.32841941714286804,-0.17853058874607086,0.012529640458524227
1772556613536536000,8.7565361328125,0.3314668834209442,-0.08514605462551117,0.3020613193511963
1772556613546521000,8.76652099609375,0.30243709683418274,0.005859486758708954,0.49648380279541016
1772556613556505000,8.776505126953126,0.26618799567222595,0.0903882160782814,0.5807480812072754
1772556613566489000,8.786489013671876,0.22265544533729553,0.18601034581661224,0.5769307017326355
1772556613576473000,8.79647314453125,0.1761063188314438,0.29226621985435486,0.5100626945495605
1772556613586458000,8.8064580078125,0.1456030011177063,0.39843764901161194,0.4167250394821167
1772556613596442000,8.816442138671874,0.12841549515724182,0.4784957468509674,0.2987139821052551
1772556613606426000,8.826426025390624,0.1366257518529892,0.5286793112754822,0.16258598864078522
1772556613616411100,8.8364111328125,0.15113359689712524,0.5468801259994507,0.0030043120495975018
1772556613626395000,8.846394775390625,0.16488216817378998,0.5551335215568542,-0.166620671749115
1772556613636379000,8.85637890625,0.169852152466774,0.5453328490257263,-0.3519361913204193
1772556613646363100,8.866363037109375,0.178537517786026,0.5155879855155945,-0.5208826065063477
1772556613656348000,8.876347900390625,0.1852947622537613,0.46347737312316895,-0.6378904581069946
1772556613666332000,8.886331787109375,0.18954943120479584,0.3961459994316101,-0.6801913380622864
1772556613676316000,8.89631591796875,0.19195611774921417,0.32036682963371277,-0.6292620897293091
1772556613686300200,8.906300048828125,0.19755621254444122,0.2275223731994629,-0.4968926012516022
1772556613696285000,8.916284912109376,0.19603314995765686,0.14204555749893188,-0.3218720555305481
1772556613706269000,8.92626904296875,0.1858457624912262,0.06490682810544968,-0.15006886422634125
1772556613716253000,8.9362529296875,0.16802522540092468,0.016331302002072334,-0.006175604183226824
1772556613726237200,8.9462373046875,0.15918166935443878,-0.004863464739173651,0.09324685484170914
1772556613736222000,8.956221923828124,0.15520742535591125,-0.00012383698776829988,0.1498989462852478
1772556613746206000,8.9662060546875,0.15980218350887299,0.024383369833230972,0.17390654981136322
1772556613756190000,8.97618994140625,0.16634343564510345,0.04742077738046646,0.17097388207912445
1772556613766175000,8.986175048828125,0.16224269568920135,0.05860365927219391,0.143813356757164
1772556613776159000,8.996158935546875,0.1585712730884552,0.08446455001831055,0.09619657695293427
1772556613786143000,9.00614306640625,0.15523405373096466,0.12237518280744553,0.031182153150439262
1772556613796127000,9.016126953125,0.15594592690467834,0.1588522344827652,-0.045346442610025406
1772556613806112000,9.026112060546875,0.15652702748775482,0.19499824941158295,-0.11171241849660873
1772556613816096000,9.036095947265625,0.16945694386959076,0.2190314084291458,-0.13524384796619415
1772556613826080000,9.046080078125,0.18219323456287384,0.2439572662115097,-0.11310231685638428
1772556613836064000,9.05606396484375,0.19968275725841522,0.2669195830821991,-0.0449693389236927
1772556613846049000,9.066049072265624,0.2173038274049759,0.30031561851501465,0.05808247625827789
1772556613856033000,9.076032958984374,0.24079875648021698,0.3321494460105896,0.1761811524629593
1772556613866017000,9.08601708984375,0.2559361755847931,0.36796683073043823,0.30272364616394043
1772556613876002000,9.096001953125,0.27783480286598206,0.4237256944179535,0.4087259769439697
1772556613885986000,9.105986083984375,0.2843417227268219,0.4753108620643616,0.47958603501319885
1772556613895970000,9.115969970703125,0.27724573016166687,0.5146252512931824,0.5059095025062561
1772556613905954000,9.1259541015625,0.24300386011600494,0.5193134546279907,0.4753449559211731
1772556613915939000,9.13593896484375,0.20038077235221863,0.4871281087398529,0.40664684772491455
1772556613925923000,9.145923095703125,0.13844949007034302,0.4219171404838562,0.3090609014034271
1772556613935907000,9.155906982421875,0.07251228392124176,0.3284127712249756,0.21089279651641846
1772556613945891000,9.16589111328125,0.006884271278977394,0.19174599647521973,0.11463657021522522
1772556613955876000,9.1758759765625,-0.06713509559631348,0.02462172321975231,0.03177231177687645
1772556613965860000,9.185860107421876,-0.13780313730239868,-0.12307825684547424,-0.02172686718404293
1772556613975844000,9.195843994140626,-0.20519469678401947,-0.2010502815246582,-0.02040167711675167
1772556613985828000,9.205828125,-0.22582034766674042,-0.18898962438106537,0.054969243705272675
1772556613995813000,9.215813232421874,-0.22651569545269012,-0.1544172763824463,0.1763068586587906
1772556614005797000,9.225797119140625,-0.2349853515625,-0.16403208673000336,0.28199973702430725
1772556614015781000,9.235781005859375,-0.2275458127260208,-0.22729307413101196,0.31587859988212585
1772556614025765000,9.24576513671875,-0.18436691164970398,-0.3512347340583801,0.20429295301437378
1772556614035750100,9.255750244140625,-0.12179434299468994,-0.5104233026504517,-0.08510956913232803
1772556614045734100,9.265734130859375,-0.08850643038749695,-0.7281261086463928,-0.5409964323043823
1772556614055718100,9.27571826171875,-0.07263718545436859,-0.9195356965065002,-1.0249015092849731
1772556614065703200,9.285703125,-0.05424007028341293,-1.0244381427764893,-1.3889503479003906
1772556614075687200,9.295687255859375,-0.028307804837822914,-1.0113037824630737,-1.4959862232208252
1772556614085671200,9.305671142578126,-0.00018562232435215265,-0.8538296818733215,-1.2824950218200684
1772556614095655200,9.3156552734375,0.039326634258031845,-0.5660527348518372,-0.8013856410980225
1772556614105640200,9.32564013671875,0.09893030673265457,-0.24122220277786255,-0.16916771233081818
1772556614115624200,9.335624267578124,0.16686461865901947,-0.005215268116444349,0.4681597352027893
1772556614125608200,9.345608154296874,0.20465673506259918,0.1279185563325882,0.9685024619102478
1772556614135592000,9.355592041015624,0.2009323090314865,0.21835310757160187,1.2724854946136475
1772556614145577200,9.3655771484375,0.1635551005601883,0.28245219588279724,1.3699105978012085
1772556614155561200,9.375561279296875,0.0967574343085289,0.3253495991230011,1.3005112409591675
1772556614165545000,9.385544921875,0.01130911335349083,0.33522966504096985,1.1050390005111694
1772556614175529000,9.395529052734375,-0.08038724958896637,0.31944191455841064,0.8230986595153809
1772556614185514000,9.405513916015625,-0.1721739023923874,0.2639229893684387,0.49568644165992737
1772556614195498000,9.415498046875,-0.25137922167778015,0.17998920381069183,0.14451031386852264
1772556614205482000,9.42548193359375,-0.3140258491039276,0.08583155274391174,-0.22199152410030365
1772556614215466000,9.435466064453125,-0.349007248878479,-0.020680511370301247,-0.5687926411628723
1772556614225451000,9.445450927734376,-0.3562651574611664,-0.11721956729888916,-0.8433336019515991
1772556614235435000,9.45543505859375,-0.3374033272266388,-0.1798160970211029,-1.0273367166519165
1772556614245419000,9.4654189453125,-0.29366037249565125,-0.19731174409389496,-1.1091362237930298
1772556614255403000,9.475403076171874,-0.2275593876838684,-0.16517244279384613,-1.0722956657409668
1772556614265388000,9.485387939453124,-0.1448567807674408,-0.09145108610391617,-0.9311494827270508
1772556614275372000,9.4953720703125,-0.05775144696235657,0.006786266807466745,-0.7131130695343018
1772556614285356000,9.50535595703125,0.022237660363316536,0.10036788135766983,-0.46630406379699707
1772556614295341000,9.515341064453125,0.08571277558803558,0.1838206946849823,-0.23995853960514069
1772556614305325000,9.525324951171875,0.13206535577774048,0.2417907863855362,-0.07272320240736008
1772556614315309000,9.53530908203125,0.14056271314620972,0.27110207080841064,0.021575866267085075
1772556614325293000,9.54529296875,0.12150539457798004,0.27383872866630554,0.06673508882522583
1772556614335278000,9.555278076171875,0.09295603632926941,0.24754801392555237,0.07035858184099197
1772556614345261300,9.56526123046875,0.04842345789074898,0.2044154554605484,0.04674513638019562
1772556614355245300,9.575245361328125,-0.009722935035824776,0.16059820353984833,0.006376406643539667
1772556614365229300,9.585229248046875,-0.08614101260900497,0.10086935758590698,-0.03161118924617767
1772556614375214300,9.59521435546875,-0.16914615035057068,0.027668911963701248,-0.0607866495847702
1772556614385198300,9.6051982421875,-0.2499387264251709,-0.04999419301748276,-0.06520962715148926
1772556614395182300,9.615182373046874,-0.32690221071243286,-0.13181795179843903,-0.03656626492738724
1772556614405166300,9.625166259765624,-0.39236459136009216,-0.19684116542339325,0.004750812891870737
1772556614415151400,9.6351513671875,-0.43212610483169556,-0.2290337234735489,0.074324831366539
1772556614425135400,9.64513525390625,-0.4410700798034668,-0.24604971706867218,0.166732519865036
1772556614435119400,9.655119384765625,-0.4313037395477295,-0.2592962682247162,0.26408252120018005
1772556614445103400,9.665103271484375,-0.42494437098503113,-0.2561289966106415,0.36070331931114197
1772556614455088400,9.67508837890625,-0.42601707577705383,-0.23044972121715546,0.4341605007648468
1772556614465072400,9.685072265625,-0.44019895792007446,-0.19458253681659698,0.47476518154144287
1772556614475056400,9.695056396484375,-0.4630659222602844,-0.1743403822183609,0.4766342043876648
1772556614485040400,9.705040283203125,-0.49234816431999207,-0.17127534747123718,0.42770153284072876
1772556614495025400,9.715025390625,-0.5210314989089966,-0.18639357388019562,0.3426036834716797
1772556614505009400,9.725009521484376,-0.5390914678573608,-0.19195425510406494,0.24944818019866943
1772556614514993400,9.734993408203126,-0.5263082981109619,-0.18890626728534698,0.1481551080942154
1772556614524978400,9.744978515625,-0.48173362016677856,-0.171306774020195,0.054602526128292084
1772556614534962400,9.75496240234375,-0.4030310809612274,-0.13749314844608307,-0.03506291285157204
1772556614544946400,9.764946533203124,-0.29799601435661316,-0.09417044371366501,-0.1009921282529831
1772556614554930400,9.774930419921875,-0.18458209931850433,-0.06354701519012451,-0.13317643105983734
1772556614564915500,9.78491552734375,-0.08848219364881516,-0.061297979205846786,-0.12131231278181076
1772556614574899500,9.7948994140625,-0.008459264412522316,-0.06782644987106323,-0.057749051600694656
1772556614584883500,9.804883544921875,0.04471180960536003,-0.07803993672132492,0.039268311113119125
1772556614594867200,9.8148671875,0.07890839874744415,-0.047025833278894424,0.1655586063861847
1772556614604852500,9.8248525390625,0.05221579968929291,-0.002662095706909895,0.2980934679508209
1772556614614836500,9.83483642578125,-0.0769381895661354,0.011862251907587051,0.39194008708000183
1772556614624820200,9.8448203125,-0.2590315639972687,-0.0003765709698200226,0.41880205273628235
1772556614634804200,9.85480419921875,-0.4311109185218811,-0.03735775873064995,0.3679548501968384
1772556614644789500,9.86478955078125,-0.5797880291938782,-0.12404178828001022,0.2610046863555908
1772556614654773200,9.874773193359376,-0.7015945911407471,-0.28188520669937134,0.09718301147222519
1772556614664757200,9.88475732421875,-0.8030911087989807,-0.48107609152793884,-0.10632537305355072
1772556614674741200,9.8947412109375,-0.8552600741386414,-0.6511173248291016,-0.29497572779655457
1772556614684726300,9.904726318359375,-0.8423807621002197,-0.7543693780899048,-0.4064897298812866
1772556614694710300,9.914710205078125,-0.7767887115478516,-0.7678670883178711,-0.397796094417572
1772556614704694300,9.9246943359375,-0.6569080948829651,-0.6903499364852905,-0.26691585779190063
1772556614714678300,9.93467822265625,-0.511675238609314,-0.5319024920463562,-0.0304548442363739
1772556614724663300,9.944663330078125,-0.3738612234592438,-0.3262505531311035,0.24350319802761078
1772556614734647300,9.954647216796875,-0.28015628457069397,-0.14118695259094238,0.4719952344894409
1772556614744631300,9.96463134765625,-0.22309859097003937,-0.006245112512260675,0.5961006879806519
1772556614754615300,9.974615234375,-0.1985522359609604,0.10454238951206207,0.6247336268424988
1772556614764600300,9.984600341796876,-0.1978643387556076,0.18839015066623688,0.5844205617904663
1772556614774584300,9.994584228515626,-0.19831176102161407,0.23663704097270966,0.5002833008766174
1772556614784568300,10.004568359375,-0.19018298387527466,0.23934334516525269,0.37519463896751404
1772556614794552300,10.01455224609375,-0.1723826825618744,0.18731023371219635,0.2138664871454239
1772556614804537300,10.024537353515624,-0.14228203892707825,0.1075136736035347,0.027936292812228203
1772556614814521300,10.034521240234374,-0.10944873094558716,0.023803599178791046,-0.17639952898025513
1772556614824505300,10.04450537109375,-0.08776873350143433,-0.038779087364673615,-0.3856837749481201
1772556614834489300,10.0544892578125,-0.0880502313375473,-0.08117794245481491,-0.5860733389854431
1772556614844474400,10.064474365234375,-0.08686459064483643,-0.11581208556890488,-0.7398272156715393
1772556614854458400,10.074458251953125,-0.09761763364076614,-0.15490037202835083,-0.8297496438026428
1772556614864442400,10.0844423828125,-0.10851982235908508,-0.19895145297050476,-0.8367870450019836
1772556614874426400,10.09442626953125,-0.11002477258443832,-0.2501792013645172,-0.7655760049819946
1772556614884411400,10.104411376953125,-0.11714500188827515,-0.29914915561676025,-0.645941972732544
1772556614894395400,10.1143955078125,-0.1210545226931572,-0.33282509446144104,-0.5051950216293335
1772556614904379400,10.12437939453125,-0.11080268025398254,-0.3429184854030609,-0.3647255003452301
1772556614914363400,10.13436328125,-0.08490770310163498,-0.3418140709400177,-0.2376818060874939
1772556614924348400,10.144348388671874,-0.056535713374614716,-0.32741302251815796,-0.1287824809551239
1772556614934332400,10.15433251953125,-0.023545272648334503,-0.30318012833595276,-0.03611619397997856
1772556614944316400,10.16431640625,0.01955425925552845,-0.2679813802242279,0.02971475198864937
1772556614954300400,10.174300537109374,0.060629259794950485,-0.22969843447208405,0.06078265607357025
1772556614964285400,10.184285400390625,0.09237360954284668,-0.1769033968448639,0.06746639311313629
1772556614974269400,10.19426953125,0.10982690006494522,-0.11637374758720398,0.05002694949507713
1772556614984253400,10.20425341796875,0.1160978451371193,-0.04700585827231407,0.028065988793969154
1772556614994238500,10.214238525390625,0.11423788964748383,0.0237058624625206,0.020803015679121017
1772556615004222500,10.224222412109375,0.10721699893474579,0.08634500950574875,0.03871357440948486
1772556615014206500,10.23420654296875,0.0968455895781517,0.13797198235988617,0.09014720469713211
1772556615024190500,10.2441904296875,0.09625037014484406,0.1748865842819214,0.15901681780815125
1772556615034174500,10.254174560546875,0.11781664937734604,0.21874593198299408,0.2564866542816162
1772556615044159500,10.264159423828126,0.15618588030338287,0.29356449842453003,0.3742103576660156
1772556615054143500,10.2741435546875,0.20647913217544556,0.4007652699947357,0.5006875991821289
1772556615064127500,10.28412744140625,0.2585013210773468,0.5326052904129028,0.6113592386245728
1772556615074112500,10.294112548828124,0.29293254017829895,0.6374648809432983,0.6983322501182556
1772556615084096500,10.304096435546874,0.3160589039325714,0.7127314209938049,0.7445740103721619
1772556615094080500,10.31408056640625,0.3185707926750183,0.7639645338058472,0.7311415672302246
1772556615104064300,10.324064208984375,0.31621575355529785,0.7722309827804565,0.6587467193603516
1772556615114049500,10.334049560546875,0.316241055727005,0.7259953022003174,0.5419666171073914
1772556615124033500,10.344033447265625,0.3130364716053009,0.6340464353561401,0.3792402744293213
1772556615134017300,10.354017333984375,0.29086700081825256,0.5029909610748291,0.18987752497196198
1772556615144001300,10.364001220703125,0.24489763379096985,0.3237953782081604,-0.024113858118653297
1772556615153986600,10.373986572265625,0.16582146286964417,0.11223146319389343,-0.22852878272533417
1772556615163970300,10.38397021484375,0.07544202357530594,-0.09707381576299667,-0.398133784532547
1772556615173954300,10.393954345703126,0.010668889619410038,-0.21830597519874573,-0.48591184616088867
1772556615183938300,10.403938232421876,0.010607103817164898,-0.2287634015083313,-0.4657447934150696
1772556615193923300,10.41392333984375,0.04084676504135132,-0.18370164930820465,-0.3464599549770355
1772556615203907300,10.4239072265625,0.09596274793148041,-0.15971456468105316,-0.1810789704322815
1772556615213891300,10.433891357421874,0.19106236100196838,-0.18188750743865967,-0.03236246854066849
1772556615223875300,10.443875244140624,0.2991637885570526,-0.270696222782135,0.020779579877853394
1772556615233860400,10.4538603515625,0.3740178048610687,-0.4063413739204407,-0.0578923262655735
1772556615243844400,10.46384423828125,0.39004549384117126,-0.5627251267433167,-0.26346704363822937
1772556615253828400,10.473828369140625,0.3805396258831024,-0.6981820464134216,-0.5298217535018921
1772556615263812400,10.483812255859375,0.38026878237724304,-0.7566890120506287,-0.7523440718650818
1772556615273797400,10.49379736328125,0.3958384096622467,-0.6898825764656067,-0.8330719470977783
1772556615283781400,10.503781494140625,0.4114333391189575,-0.49939489364624023,-0.7140589952468872
1772556615293765400,10.513765380859375,0.42700138688087463,-0.2370721995830536,-0.4155298173427582
1772556615303749400,10.523749267578125,0.4455822706222534,0.026007099077105522,-0.011122159659862518
1772556615313734400,10.533734375,0.4578847289085388,0.2316332310438156,0.397756427526474
1772556615323718400,10.543718505859376,0.458538293838501,0.3598383367061615,0.7251904606819153
1772556615333702400,10.553702392578124,0.43159613013267517,0.4299287497997284,0.9073203206062317
1772556615343686400,10.563686279296874,0.38133591413497925,0.4473783075809479,0.9394095540046692
1772556615353671200,10.573671142578124,0.31461814045906067,0.4385296702384949,0.8347856998443604
1772556615363655200,10.5836552734375,0.2258131504058838,0.4176744818687439,0.6283044219017029
1772556615373639200,10.59363916015625,0.12555979192256927,0.36781051754951477,0.35379350185394287
1772556615383623200,10.603623046875,0.01635580323636532,0.26339221000671387,0.026667296886444092
1772556615393607200,10.613607177734375,-0.09253659099340439,0.11522939056158066,-0.32611072063446045
1772556615403592200,10.62359228515625,-0.17643602192401886,-0.036805152893066406,-0.6647351384162903
1772556615413576200,10.633576171875,-0.22944490611553192,-0.15757018327713013,-0.957351803779602
1772556615423560200,10.643560302734375,-0.23517683148384094,-0.24201317131519318,-1.191964864730835
1772556615433545200,10.653545166015626,-0.19236332178115845,-0.28353264927864075,-1.3312638998031616
1772556615443529200,10.663529296875,-0.11559344083070755,-0.27076438069343567,-1.346999168395996
1772556615453513200,10.67351318359375,-0.009638512507081032,-0.2211371809244156,-1.223809838294983
1772556615463497200,10.683497314453126,0.11101147532463074,-0.1410793662071228,-0.9858050346374512
1772556615473482200,10.693482177734374,0.22162453830242157,-0.05228237807750702,-0.6875839829444885
1772556615483466200,10.70346630859375,0.30993443727493286,0.036315929144620895,-0.3824315369129181
1772556615493450200,10.7134501953125,0.36712899804115295,0.10970918834209442,-0.11349247395992279
1772556615503434200,10.723434326171875,0.4032436013221741,0.17368817329406738,0.07982692122459412
1772556615513419300,10.733419189453125,0.4231211543083191,0.24983300268650055,0.19434364140033722
1772556615523403300,10.7434033203125,0.42291370034217834,0.3044661581516266,0.23938435316085815
1772556615533387300,10.75338720703125,0.38845720887184143,0.3485332131385803,0.2315637171268463
1772556615543371300,10.763371337890625,0.3308660686016083,0.35686013102531433,0.1900346577167511
1772556615553355300,10.773355224609375,0.2565162181854248,0.3294207751750946,0.1342049390077591
1772556615563340300,10.78334033203125,0.17081941664218903,0.27959781885147095,0.06842432916164398
1772556615573324300,10.79332421875,0.0844629555940628,0.21435090899467468,0.001791242160834372
1772556615583308300,10.803308349609376,-0.006039516534656286,0.15185557305812836,-0.06307963281869888
1772556615593292300,10.813292236328126,-0.09250277280807495,0.09267667680978775,-0.12168995290994644
1772556615603277300,10.82327734375,-0.16593384742736816,0.043410059064626694,-0.13560043275356293
1772556615613261300,10.83326123046875,-0.2121087908744812,0.02034468576312065,-0.10297458618879318
1772556615623245300,10.843245361328124,-0.24174924194812775,0.025861158967018127,-0.032412800937891006
1772556615633229000,10.85322900390625,-0.24007545411586761,0.053948983550071716,0.06860116124153137
1772556615643214300,10.86321435546875,-0.22730426490306854,0.07446891069412231,0.19225652515888214
1772556615653198300,10.8731982421875,-0.21765854954719543,0.07694564759731293,0.31011417508125305
1772556615663182000,10.88318212890625,-0.2221108227968216,0.06258109211921692,0.4007095992565155
1772556615673166000,10.893166015625,-0.23532356321811676,0.034200578927993774,0.4508582651615143
1772556615683151400,10.9031513671875,-0.2609999179840088,-0.003037601476535201,0.45815104246139526
1772556615693135000,10.913135009765625,-0.2799626886844635,-0.029282255098223686,0.42614439129829407
1772556615703119000,10.923119140625,-0.29573339223861694,-0.05157371237874031,0.3504032790660858
1772556615713103000,10.93310302734375,-0.294721394777298,-0.0776473879814148,0.25267672538757324
1772556615723088100,10.943088134765626,-0.27121978998184204,-0.10401374846696854,0.13707129657268524
1772556615733072100,10.953072021484376,-0.21475064754486084,-0.13558658957481384,0.02263607084751129
1772556615743056100,10.96305615234375,-0.1358526349067688,-0.160548135638237,-0.07315437495708466
1772556615753040100,10.9730400390625,-0.05878182500600815,-0.1719573736190796,-0.1451880782842636
1772556615763025200,10.983025146484374,0.016458336263895035,-0.1722516566514969,-0.1695307046175003
1772556615773009200,10.993009033203125,0.09699685126543045,-0.13877466320991516,-0.1300663948059082
1772556615782993200,11.0029931640625,0.1526409387588501,-0.07707267999649048,-0.05356495827436447
1772556615792977200,11.01297705078125,0.12872175872325897,-0.057368483394384384,0.019963854923844337
1772556615802962200,11.022962158203125,0.02413436397910118,-0.06988321244716644,0.06441067904233932
1772556615812946200,11.0329462890625,-0.07795844972133636,-0.11565389484167099,0.07205554842948914
1772556615822930200,11.04293017578125,-0.17242982983589172,-0.1735725849866867,0.02195589803159237
1772556615832914200,11.0529140625,-0.25729358196258545,-0.24078410863876343,-0.06184232980012894
1772556615842899200,11.062899169921875,-0.3313446342945099,-0.31545889377593994,-0.16237026453018188
1772556615852883200,11.07288330078125,-0.37702637910842896,-0.3972850441932678,-0.2451370507478714
1772556615862867200,11.0828671875,-0.3838658928871155,-0.45714545249938965,-0.2785216271877289
1772556615872851200,11.092851318359376,-0.3492554724216461,-0.4761849045753479,-0.2454337328672409
1772556615882836200,11.102836181640624,-0.29092344641685486,-0.44685766100883484,-0.14771808683872223
1772556615892820200,11.1128203125,-0.22939564287662506,-0.39240747690200806,-0.013251356780529022
1772556615902804200,11.12280419921875,-0.19310501217842102,-0.312801331281662,0.11851385980844498
1772556615912788200,11.132788330078125,-0.19879218935966492,-0.24063710868358612,0.1994507908821106
1772556615922773200,11.142773193359375,-0.23926851153373718,-0.1791958510875702,0.20734147727489471
1772556615932757200,11.15275732421875,-0.28854256868362427,-0.10558554530143738,0.1602940708398819
1772556615942741200,11.1627412109375,-0.3408907353878021,-0.02564197964966297,0.09430626034736633
1772556615952725200,11.172725341796875,-0.3780255913734436,0.04235145077109337,0.018576348200440407
1772556615962710000,11.1827099609375,-0.37667563557624817,0.09234005212783813,-0.05336921662092209
1772556615972694300,11.1926943359375,-0.3471856415271759,0.12324230372905731,-0.11664139479398727
1772556615982678300,11.20267822265625,-0.27652508020401,0.1627926379442215,-0.19694848358631134
1772556615992662300,11.212662353515626,-0.1775425672531128,0.18789133429527283,-0.30582889914512634
1772556616002647000,11.22264697265625,-0.07678665965795517,0.1967245191335678,-0.41239580512046814
1772556616012631300,11.23263134765625,0.0004138552176300436,0.19541344046592712,-0.4896506667137146
1772556616022615300,11.242615234375,0.07250162959098816,0.20279066264629364,-0.5274153351783752
1772556616032599300,11.252599365234374,0.12251845747232437,0.19525738060474396,-0.5192671418190002
1772556616042583300,11.262583251953124,0.1448645144701004,0.1712266057729721,-0.4684572219848633
1772556616052568300,11.272568359375,0.1354592889547348,0.11348528414964676,-0.3793103098869324
1772556616062552300,11.28255224609375,0.10908334702253342,0.046549126505851746,-0.26352137327194214
1772556616072536300,11.292536376953125,0.07214130461215973,-0.024448618292808533,-0.13556848466396332
1772556616082520300,11.302520263671875,0.018677014857530594,-0.09596860408782959,-0.011633486486971378
1772556616092505300,11.31250537109375,-0.033842384815216064,-0.12874306738376617,0.09408708661794662
1772556616102489300,11.3224892578125,-0.0637102723121643,-0.13589870929718018,0.1713280826807022
1772556616112473300,11.332473388671875,-0.05735010653734207,-0.14462882280349731,0.20999345183372498
1772556616122457000,11.34245703125,-0.03784644976258278,-0.1474059671163559,0.22528718411922455
1772556616132442000,11.352442138671876,-0.017371000722050667,-0.14041650295257568,0.21838825941085815
1772556616142426000,11.362426025390626,0.004107926040887833,-0.12527509033679962,0.18771237134933472
1772556616152410000,11.37241015625,0.023990821093320847,-0.10128800570964813,0.148855522274971
1772556616162394000,11.38239404296875,0.05318625643849373,-0.0690203458070755,0.09754732996225357
1772556616172379100,11.392379150390624,0.09144949167966843,-0.02388775534927845,0.050224822014570236
1772556616182363100,11.402363037109374,0.13960476219654083,0.04135223478078842,0.010845989920198917
1772556616192347100,11.41234716796875,0.18253305554389954,0.13424596190452576,0.007743673399090767
1772556616202331100,11.4223310546875,0.23202738165855408,0.22854208946228027,0.05718472599983215
1772556616212316200,11.432316162109375,0.2893338203430176,0.3157598376274109,0.1473740041255951
1772556616222300200,11.442300048828125,0.354798823595047,0.4041155278682709,0.26944079995155334
1772556616232284200,11.4522841796875,0.4184108376502991,0.48316240310668945,0.4037908911705017
1772556616242268200,11.46226806640625,0.4714093506336212,0.5731140971183777,0.5320644378662109
1772556616252253000,11.4722529296875,0.5034181475639343,0.5909333229064941,0.622843861579895
1772556616262237200,11.4822373046875,0.5115420818328857,0.5448628067970276,0.5707753300666809
1772556616272221200,11.49222119140625,0.4787096083164215,0.5525076389312744,0.47515639662742615
1772556616282205200,11.502205078125,0.41739538311958313,0.5692070126533508,0.386547714471817
1772556616292190000,11.51218994140625,0.35786813497543335,0.6046499609947205,0.3581453561782837
1772556616302174200,11.52217431640625,0.2939717173576355,0.6042941212654114,0.37997183203697205
1772556616312158200,11.532158203125,0.21542975306510925,0.5273551344871521,0.37534433603286743
1772556616322142200,11.54214208984375,0.13781432807445526,0.3717530369758606,0.28374701738357544
1772556616332127000,11.552126953125,0.055142082273960114,0.15787671506404877,0.11168232560157776
