time,seconds_elapsed,z,y,x
1772656641398098700,-0.0109013671875,-0.03667259216308594,-0.027557790279388428,-0.0951976552605629
1772656641417857000,0.00885693359375,-0.04146575927734375,-0.033387795090675354,-0.09140472859144211
1772656641437615000,0.028614990234375,-0.03548240661621094,-0.03200782835483551,-0.08642737567424774
1772656641457373200,0.048373291015625,-0.04506492614746094,-0.03092869184911251,-0.09686648845672607
1772656641477131300,0.06813134765625,-0.035495758056640625,-0.02862725593149662,-0.09283265471458435
1772656641496889600,0.0878896484375,-0.040287017822265625,-0.02860255539417267,-0.09507423639297485
1772656641674712800,0.265712890625,-0.043786048889160156,0.0008979178965091705,-0.00034168362617492676
1772656641694471200,0.28547119140625,-0.03540611267089844,-0.0013364627957344055,0.0008831843733787537
1772656641714229200,0.305229248046875,-0.04258918762207031,-0.00016058608889579773,-0.0038178712129592896
1772656641733987300,0.3249873046875,-0.040195465087890625,0.0011379607021808624,0.003333456814289093
1772656641753745700,0.34474560546875,-0.034209251403808594,-0.002533465623855591,-0.0037616565823554993
1772656641773503700,0.364503662109375,-0.03540802001953125,0.0034622065722942352,0.0023107901215553284
1772656641793261800,0.38426171875,-0.040195465087890625,-0.0035919547080993652,-0.002449706196784973
1772656641813020200,0.404020263671875,-0.041393280029296875,0.002462424337863922,-0.002421744167804718
1772656641832778200,0.4237783203125,-0.0366058349609375,0.00247284397482872,-0.0035904869437217712
1772656641852536300,0.443536376953125,-0.03660392761230469,0.001344967633485794,-0.000030703842639923096
1772656641872294400,0.46329443359375,-0.03780174255371094,-0.0058854855597019196,-0.00832211971282959
1772656641892052700,0.483052734375,-0.03780078887939453,0.003641977906227112,-0.004880055785179138
1772656641911810800,0.502810791015625,-0.03301239013671875,0.0000017099082469940186,0.002270631492137909
1772656641931569000,0.52256884765625,-0.04139137268066406,0.0010908357799053192,0.002061702311038971
1772656641951327200,0.5423271484375,-0.03899574279785156,0.0011330470442771912,0.0031683146953582764
1772656641971085300,0.562085205078125,-0.03899574279785156,0.0010787509381771088,-0.0016550570726394653
1772656641990843400,0.581843505859375,-0.04019355773925781,0.0008124485611915588,-0.001692257821559906
1772656642010601500,0.6016015625,-0.03779888153076172,-0.006306946277618408,-0.002985060214996338
1772656642030359800,0.62135986328125,-0.041390419006347656,0.0011455528438091278,0.0030809417366981506
1772656642050118000,0.641117919921875,-0.0294189453125,-0.0024418793618679047,-0.0018620416522026062
1772656642069876000,0.6608759765625,-0.0377960205078125,-0.0013311952352523804,-0.0007604882121086121
1772656642089634000,0.680634033203125,-0.04378223419189453,0.004716351628303528,-0.0019345134496688843
1772656642109392400,0.700392333984375,-0.04138755798339844,-0.0034189820289611816,0.004013359546661377
1772656642129150500,0.720150390625,-0.03420543670654297,-0.0026357360184192657,-0.0007522180676460266
1772656642148908500,0.739908447265625,-0.03660011291503906,-0.002631865441799164,-0.003123261034488678
1772656642168666600,0.75966650390625,-0.04498100280761719,-0.004812814295291901,0.0017462670803070068
1772656642188425000,0.779425048828125,-0.034206390380859375,0.0009672865271568298,-0.002959415316581726
1772656642208183000,0.79918310546875,-0.041390419006347656,-0.006329197436571121,-0.0077829062938690186
1772656642227941000,0.818941162109375,-0.03779792785644531,-0.005036711692810059,-0.003030523657798767
1772656642247699200,0.83869921875,-0.03779792785644531,-0.0003042742609977722,0.0016613751649856567
1772656642267457500,0.85845751953125,-0.040192604064941406,0.0007453262805938721,-0.006694398820400238
1772656642287215600,0.878215576171875,-0.03660106658935547,0.0007474943995475769,-0.005592375993728638
1772656642306973700,0.8979736328125,-0.03420448303222656,-0.00017761066555976868,-0.0020371824502944946
1772656642326732000,0.91773193359375,-0.035401344299316406,0.000814288854598999,-0.002073138952255249
1772656642346490000,0.937489990234375,-0.038992881774902344,-0.0014576539397239685,-0.0021092891693115234
1772656642366248200,0.957248291015625,-0.037795066833496094,-0.0001995079219341278,-0.0008902773261070251
1772656642386006300,0.97700634765625,-0.04258251190185547,0.001059316098690033,-0.0010453835129737854
1772656642405764400,0.996764404296875,-0.03420257568359375,0.0023177489638328552,-0.0035346075892448425
1772656642425522700,1.016522705078125,-0.040187835693359375,-0.006173733621835709,-0.007100678980350494
1772656642445280800,1.03628076171875,-0.035400390625,-0.003775089979171753,-0.008213549852371216
1772656642465038800,1.056038818359375,-0.038992881774902344,0.0021536685526371002,-0.0045393407344818115
1772656642484797000,1.075796875,-0.040187835693359375,0.001077551394701004,-0.001044049859046936
1772656642504555000,1.095554931640625,-0.03779411315917969,-0.0036463402211666107,-0.008141756057739258
1772656642524313300,1.115313232421875,-0.035399436950683594,-0.004690311849117279,-0.001055791974067688
1772656642544071400,1.135071533203125,-0.03420066833496094,0.0037185736000537872,-0.006028532981872559
1772656642563829500,1.15482958984375,-0.03898906707763672,0.00018993765115737915,-0.008365988731384277
1772656642583587600,1.174587646484375,-0.03659534454345703,0.0037825927138328552,-0.006006717681884766
1772656642603346000,1.194345947265625,-0.0413818359375,0.0015102438628673553,-0.006041012704372406
1772656642623104000,1.21410400390625,-0.04018211364746094,-0.000761769711971283,-0.008527867496013641
1772656642642862000,1.233862060546875,-0.03419780731201172,0.0004971660673618317,-0.006109230220317841
1772656642662620200,1.2536201171875,-0.03539466857910156,0.0016979575157165527,-0.004946500062942505
1772656642682378500,1.27337841796875,-0.03539466857910156,0.0027783773839473724,-0.00025440752506256104
1772656642702136600,1.293136474609375,-0.03180217742919922,0.000328846275806427,-0.0039396509528160095
1772656642721894700,1.312894775390625,-0.03898429870605469,0.0018267631530761719,-0.0016413256525993347
1772656642741652700,1.33265283203125,-0.038985252380371094,-0.0007454901933670044,-0.0038934946060180664
1772656642761410800,1.352410888671875,-0.04137897491455078,0.003985706716775894,-0.001476101577281952
1772656642781169200,1.372169189453125,-0.034195899963378906,0.0003381073474884033,-0.00031594187021255493
1772656642800927200,1.39192724609375,-0.038985252380371094,0.003990069031715393,-0.00627598911523819
1772656642820685300,1.411685302734375,-0.036589622497558594,0.0005184151232242584,-0.0015840530395507812
1772656642840443400,1.431443359375,-0.04137897491455078,-0.0016900859773159027,0.0008322671055793762
1772656642860201500,1.451201416015625,-0.03539466857910156,-0.0021038539707660675,-0.005069240927696228
1772656642879959800,1.470959716796875,-0.031803131103515625,-0.0008443109691143036,-0.004985474050045013
1772656642899718000,1.4907177734375,-0.038985252380371094,-0.0004235468804836273,-0.00017508864402770996
1772656642919476000,1.51047607421875,-0.030608177185058594,-0.0017347410321235657,-0.004820086061954498
1772656642939234000,1.530234130859375,-0.036742210388183594,0.004012342542409897,-0.0024613142013549805
1772656642958992400,1.549992431640625,-0.033000946044921875,-0.001969527453184128,-0.004890210926532745
1772656642978750500,1.56975048828125,-0.03539466857910156,0.0030293352901935577,-0.0001387670636177063
1772656642998508500,1.589508544921875,-0.031951904296875,0.003059089183807373,-0.004961170256137848
1772656643018266600,1.6092666015625,-0.034193992614746094,-0.001574728637933731,-0.002720549702644348
1772656643038024700,1.629024658203125,-0.029557228088378906,0.0021091140806674957,0.0032853111624717712
1772656643057783000,1.648782958984375,-0.03060626983642578,0.0030076242983341217,-0.00614745169878006
1772656643077541000,1.668541015625,-0.03539466857910156,0.0007069706916809082,-0.000021420419216156006
1772656643097299200,1.68829931640625,-0.0389862060546875,0.0005604475736618042,-0.00490289181470871
1772656643117057300,1.708057373046875,-0.03300189971923828,0.0005942396819591522,-0.000033348798751831055
1772656643136815600,1.727815673828125,-0.040184974670410156,-0.0019449368119239807,-0.004796423017978668
1772656643156573700,1.74757373046875,-0.036594390869140625,-0.00041321665048599243,0.006055258214473724
1772656643176331800,1.767331787109375,-0.035396575927734375,-0.0006235763430595398,-0.005831219255924225
1772656643196089900,1.78708984375,-0.03539562225341797,0.001980576664209366,0.0036464259028434753
1772656643215848000,1.806847900390625,-0.02956104278564453,0.004406634718179703,-0.004857197403907776
1772656643235606000,1.82660595703125,-0.03898811340332031,0.004080343991518021,0.0035735145211219788
1772656643255364400,1.8463642578125,-0.030608177185058594,0.0028252415359020233,0.0011416375637054443
1772656643275122400,1.866122314453125,-0.035396575927734375,-0.001958802342414856,-0.0023667141795158386
1772656643294880500,1.885880615234375,-0.032105445861816406,-0.003209572285413742,-0.0035391300916671753
1772656643314638600,1.905638671875,-0.0298614501953125,-0.004191149026155472,-0.003514230251312256
1772656643334397000,1.92539697265625,-0.035996437072753906,-0.0007457062602043152,-0.003430470824241638
1772656643354155000,1.945155029296875,-0.03824138641357422,0.0031734928488731384,0.0014380663633346558
1772656643373913000,1.9649130859375,-0.03719329833984375,0.0043398477137088776,-0.004580996930599213
1772656643393671200,1.984671142578125,-0.03240394592285156,0.005477938801050186,-0.0022811442613601685
1772656643413429200,2.00442919921875,-0.033600807189941406,-0.002987377345561981,-0.002316899597644806
1772656643433187300,2.024187255859375,-0.035994529724121094,0.004194952547550201,-0.0024115517735481262
1772656643452945700,2.043945556640625,-0.03479576110839844,0.00195307657122612,-0.001250244677066803
1772656643472703700,2.063703857421875,-0.03240203857421875,0.0032110027968883514,-0.001226775348186493
1772656643492461800,2.0834619140625,-0.031055450439453125,0.0020106062293052673,-0.003590419888496399
1772656643512220000,2.103219970703125,-0.028512001037597656,0.0009532086551189423,-0.00247751921415329
1772656643531978000,2.12297802734375,-0.03554534912109375,0.0010341145098209381,0.00718553364276886
1772656643551736300,2.142736328125,-0.03539562225341797,-0.00151829794049263,0.002368554472923279
1772656643571494400,2.162494384765625,-0.03329944610595703,0.006696134805679321,-0.0013080909848213196
1772656643591252500,2.18225244140625,-0.027314186096191406,0.0031530261039733887,-0.006118185818195343
1772656643611010600,2.202010498046875,-0.028512001037597656,-0.00038792937994003296,-0.00494413822889328
1772656643630768600,2.2217685546875,-0.034346580505371094,-0.00045605748891830444,0.0021505355834960938
1772656643650527000,2.24152685546875,-0.03225135803222656,0.0019267573952674866,-0.0037995874881744385
1772656643670285000,2.26128515625,-0.03344917297363281,0.0052977055311203,-0.00621458888053894
1772656643690043100,2.281043212890625,-0.0358428955078125,0.00534442812204361,-0.005039870738983154
1772656643709801200,2.30080126953125,-0.030605316162109375,0.0004873424768447876,-0.002729542553424835
1772656643729559300,2.320559326171875,-0.036590576171875,-0.006698839366436005,-0.003891095519065857
1772656643749317600,2.340317626953125,-0.03299999237060547,0.001551564782857895,-0.0014633908867835999
1772656643769075700,2.36007568359375,-0.02462291717529297,0.0003169737756252289,-0.0038219019770622253
1772656643788833800,2.379833740234375,-0.03180408477783203,0.00009826570749282837,-0.007433950901031494
1772656643808592000,2.399591796875,-0.031803131103515625,-0.0021267831325531006,0.0009173378348350525
1772656643828350200,2.41935009765625,-0.030605316162109375,0.004172898828983307,-0.0015022903680801392
1772656643848108300,2.4391083984375,-0.035393714904785156,0.0017675124108791351,-0.00027286261320114136
1772656643867866400,2.458866455078125,-0.034195899963378906,-0.0019217021763324738,-0.001436285674571991
1772656643887624400,2.47862451171875,-0.025818824768066406,0.0030644014477729797,-0.0036758780479431152
1772656643907382500,2.498382568359375,-0.03060626983642578,0.0018849000334739685,-0.0023848935961723328
1772656643927140600,2.518140625,-0.029409408569335938,0.0008564293384552002,-0.0022907555103302
1772656643946899000,2.53789892578125,-0.02701568603515625,0.0021025538444519043,-0.002374120056629181
1772656643966657000,2.557656982421875,-0.02701568603515625,0.0031109675765037537,-0.007182210683822632
1772656643986415000,2.5774150390625,-0.033000946044921875,0.002979602664709091,-0.004811108112335205
1772656644006173200,2.597173095703125,-0.02701568603515625,0.0042813681066036224,-0.0049241334199905396
1772656644025931300,2.61693115234375,-0.03299999237060547,0.002953454852104187,0.002319417893886566
1772656644045689600,2.636689697265625,-0.02701568603515625,-0.0027700066566467285,-0.002433858811855316
1772656644065447700,2.65644775390625,-0.027016639709472656,0.0018575452268123627,-0.00598704069852829
1772656644085205800,2.676205810546875,-0.029409408569335938,-0.00027805566787719727,-0.0023615509271621704
1772656644104963800,2.6959638671875,-0.036594390869140625,0.004169229418039322,-0.0034049004316329956
1772656644124722200,2.71572216796875,-0.036594390869140625,0.002841345965862274,-0.00576145201921463
1772656644144480300,2.735480224609375,-0.034201622009277344,-0.0018327049911022186,0.0014518126845359802
1772656644164238300,2.75523828125,-0.028217315673828125,0.0003122501075267792,-0.0009087398648262024
1772656644183996400,2.774996337890625,-0.023427963256835938,-0.0003254823386669159,0.0038494914770126343
1772656644203754500,2.79475439453125,-0.0330047607421875,0.005018617957830429,0.00017186999320983887
1772656644223512800,2.814512939453125,-0.02582073211669922,0.0016248971223831177,-0.00236530601978302
1772656644243271000,2.83427099609375,-0.02582263946533203,0.0015548914670944214,0.00012028217315673828
1772656644263029000,2.854029052734375,-0.03539752960205078,0.001335490494966507,-0.003494247794151306
1772656644282787000,2.873787109375,-0.02941417694091797,-0.003428332507610321,-0.0010671764612197876
1772656644302545200,2.893545166015625,-0.035400390625,-0.00005521252751350403,-0.0009746551513671875
1772656644322303500,2.913303466796875,-0.0330047607421875,-0.0035331211984157562,-0.0021960586309432983
1772656644342061600,2.9330615234375,-0.031807899475097656,0.0001664869487285614,-0.003416679799556732
1772656644361819600,2.952819580078125,-0.027019500732421875,0.0026971325278282166,-0.0011982545256614685
1772656644381577700,2.97257763671875,-0.02582073211669922,0.0003530755639076233,-0.005916424095630646
1772656644401335800,2.992335693359375,-0.034198760986328125,0.0005213990807533264,-0.004800178110599518
1772656644421094100,3.01209423828125,-0.03419780731201172,0.0004804171621799469,0.0022345036268234253
1772656644440852200,3.031852294921875,-0.035393714904785156,0.0029810331761837006,-0.002577580511569977
1772656644460610300,3.0516103515625,-0.03180217742919922,0.003444969654083252,0.004573017358779907
1772656644480368400,3.071368408203125,-0.025816917419433594,-0.0004547424614429474,-0.0014968737959861755
1772656644500126700,3.091126708984375,-0.024621009826660156,0.0010618790984153748,0.0033198893070220947
1772656644519884800,3.110884765625,-0.019829750061035156,-0.002744443714618683,-0.0004159212112426758
1772656644539643000,3.130642822265625,-0.037784576416015625,0.0031070448458194733,-0.0004421025514602661
1772656644559401000,3.15040087890625,-0.02701282501220703,-0.002643480896949768,0.0031193196773529053
1772656644579159000,3.170158935546875,-0.027011871337890625,0.0030890367925167084,0.0007567629218101501
1772656644598917400,3.18991748046875,-0.024619102478027344,0.00176287442445755,-0.0027394816279411316
1772656644618675500,3.209675537109375,-0.025819778442382812,0.0026516951620578766,0.0022561997175216675
1772656644638433500,3.22943359375,-0.02821636199951172,0.0036577843129634857,-0.004651673138141632
1772656644658191600,3.249191650390625,-0.040192604064941406,0.00920901820063591,-0.004318535327911377
1772656644677950000,3.268949951171875,-0.04019355773925781,0.0007027983665466309,-0.0018301382660865784
1772656644697708000,3.2887080078125,-0.028224945068359375,0.0017115511000156403,-0.004068560898303986
1772656644717466000,3.308466064453125,-0.03061676025390625,0.003015287220478058,0.00063333660364151
1772656644737224200,3.32822412109375,-0.02822399139404297,0.001119229942560196,0.007898323237895966
1772656644756982500,3.347982421875,-0.030617713928222656,0.00209200382232666,0.0019429028034210205
1772656644776740600,3.36774072265625,-0.02702808380126953,-0.00048837810754776,-0.005260050296783447
1772656644796498700,3.387498779296875,-0.029422760009765625,0.004493609070777893,-0.0015166178345680237
1772656644816256800,3.4072568359375,-0.02702808380126953,0.0022651702165603638,0.0009678974747657776
1772656644836015000,3.42701513671875,-0.027029037475585938,-0.0013932883739471436,0.0010579749941825867
1772656644855773200,3.446773193359375,-0.03181648254394531,0.006936781108379364,-0.00608496367931366
1772656644875531300,3.46653125,-0.03301525115966797,0.004527997225522995,-0.0012629330158233643
1772656644895289300,3.486289306640625,-0.030620574951171875,0.003734339028596878,0.0011027231812477112
1772656644915047400,3.50604736328125,-0.03540802001953125,-0.00010645389556884766,-0.006099320948123932
1772656644934805800,3.5258056640625,-0.03780078887939453,-0.0013116039335727692,-0.0013366788625717163
1772656644954563800,3.545563720703125,-0.027029037475585938,0.0057946182787418365,0.0021343231201171875
1772656644974322000,3.565322021484375,-0.02822589874267578,-0.0013947002589702606,-0.004918865859508514
1772656644994080000,3.585080078125,-0.03061962127685547,0.000060055404901504517,0.0023515447974205017
1772656645013838300,3.60483837890625,-0.028227806091308594,0.002382233738899231,0.0036353468894958496
1772656645033596400,3.624596435546875,-0.0258331298828125,0.000038020312786102295,0.0012129023671150208
1772656645053354500,3.6443544921875,-0.027031898498535156,0.003288052976131439,-0.0010885074734687805
1772656645073112600,3.664112548828125,-0.029425621032714844,-0.0001619979739189148,-0.0011137127876281738
1772656645092870700,3.68387060546875,-0.03182029724121094,0.0021297335624694824,-0.0009618028998374939
1772656645112629000,3.70362890625,-0.02942657470703125,-0.004904903471469879,-0.0009868964552879333
1772656645132387000,3.723386962890625,-0.030623435974121094,-0.005057249218225479,-0.0021488890051841736
1772656645152145200,3.743145263671875,-0.030623435974121094,0.0035762451589107513,0.003922812640666962
1772656645171903500,3.762903564453125,-0.029427528381347656,0.002365902066230774,0.003949500620365143
1772656645191661600,3.78266162109375,-0.028228759765625,0.004713363945484161,0.0014083310961723328
1772656645211419600,3.802419677734375,-0.034214019775390625,0.000935189425945282,-0.002206355333328247
1772656645231177700,3.822177734375,-0.033016204833984375,0.0010746940970420837,0.00016085058450698853
1772656645250935800,3.841935791015625,-0.03062152862548828,-0.0012677572667598724,-0.0010616853833198547
1772656645270694100,3.861694091796875,-0.03540802001953125,0.001202702522277832,-0.0011463165283203125
1772656645290452200,3.8814521484375,-0.030620574951171875,-0.0022407397627830505,-0.0035129934549331665
1772656645310210300,3.901210205078125,-0.03061962127685547,0.00030196458101272583,0.0012352541089057922
1772656645329968400,3.920968505859375,-0.03061962127685547,-0.005944930016994476,-0.0012551173567771912
1772656645349726700,3.940726806640625,-0.03181743621826172,0.002278558909893036,-0.0036837756633758545
1772656645369484800,3.96048486328125,-0.02822589874267578,-0.0037312284111976624,0.0011233389377593994
1772656645389243000,3.980242919921875,-0.02942371368408203,-0.004687730222940445,-0.001189999282360077
1772656645409001000,4.0000009765625,-0.030617713928222656,-0.0007397495210170746,0.008158355951309204
1772656645428759300,4.01975927734375,-0.034210205078125,0.003651615232229233,-0.00014149397611618042
1772656645448517400,4.039517333984375,-0.028224945068359375,-0.004574429243803024,-0.0025121569633483887
1772656645468275500,4.059275390625,-0.03301239013671875,0.00048004090785980225,0.005730196833610535
1772656645488033500,4.079033447265625,-0.03420829772949219,0.003763534128665924,-0.0025946497917175293
1772656645507792000,4.0987919921875,-0.03301048278808594,0.001483127474784851,-0.00621640682220459
1772656645527550000,4.118550048828125,-0.033011436462402344,-0.0009709224104881287,-0.011028118431568146
1772656645547308000,4.13830810546875,-0.03420543670654297,0.0016270987689495087,0.0007835179567337036
1772656645567066000,4.158066162109375,-0.031813621520996094,0.002758905291557312,-0.0027244091033935547
1772656645586824400,4.177824462890625,-0.03420448303222656,-0.0008648522198200226,-0.0052687302231788635
1772656645606582500,4.19758251953125,-0.03420543670654297,0.0004488751292228699,-0.008767493069171906
1772656645626340600,4.217340576171875,-0.03420543670654297,-0.0004825517535209656,0.0008864179253578186
1772656645646098700,4.2370986328125,-0.03420543670654297,0.0006215684115886688,-0.008716210722923279
1772656645665857000,4.25685693359375,-0.03061389923095703,0.004353910684585571,0.006796538829803467
1772656645685615000,4.276614990234375,-0.030614852905273438,-0.0016901828348636627,-0.006282530725002289
1772656645705373200,4.296373291015625,-0.037796974182128906,-0.0018392056226730347,-0.0015312284231185913
1772656645725131300,4.31613134765625,-0.0294189453125,-0.00297633558511734,-0.00736786425113678
1772656645744889600,4.3358896484375,-0.029420852661132812,-0.0017792955040931702,0.000011935830116271973
1772656645764647700,4.355647705078125,-0.0318145751953125,0.004496447741985321,0.006995193660259247
1772656645784405800,4.37540576171875,-0.03540611267089844,0.0031709372997283936,-0.003484971821308136
1772656645804163800,4.395163818359375,-0.03301048278808594,-0.00027278438210487366,-0.003578171133995056
1772656645823922200,4.414922119140625,-0.03420734405517578,0.002117577940225601,-0.00002533942461013794
1772656645843680300,4.43468017578125,-0.03420829772949219,0.0022607184946537018,0.006088748574256897
1772656645863438300,4.454438232421875,-0.031815528869628906,0.005542151629924774,0.00018253177404403687
1772656645883196400,4.474196533203125,-0.025831222534179688,0.006785478442907333,-0.008164502680301666
1772656645902954800,4.493954833984375,-0.029422760009765625,-0.000576656311750412,-0.003351569175720215
1772656645922712800,4.513712890625,-0.030620574951171875,-0.0005773864686489105,-0.003207884728908539
1772656645942471000,4.533470947265625,-0.03181743621826172,0.0004998967051506042,0.00028530508279800415
1772656645962229000,4.55322900390625,-0.03660392761230469,0.003095492720603943,0.006162486970424652
1772656645981987300,4.5729873046875,-0.036604881286621094,0.0004897378385066986,-0.0045838430523872375
1772656646001745400,4.592745361328125,-0.03540992736816406,0.0004864037036895752,-0.0008531510829925537
1772656646021503500,4.61250341796875,-0.033016204833984375,-0.0007116347551345825,-0.007884696125984192
1772656646041261800,4.63226171875,-0.03421306610107422,0.0018266625702381134,0.00523531436920166
1772656646061020000,4.65202001953125,-0.029424667358398438,0.0028659775853157043,-0.0031788796186447144
1772656646080778000,4.671778076171875,-0.034210205078125,0.0029776133596897125,-0.0008817315101623535
1772656646100536000,4.6915361328125,-0.036604881286621094,0.002970360219478607,-0.0021148622035980225
1772656646120294100,4.711294189453125,-0.03540802001953125,0.00194525346159935,-0.0008965954184532166
1772656646140052500,4.731052490234375,-0.03780174255371094,0.0008050799369812012,-0.0008746758103370667
1772656646159810600,4.750810546875,-0.033013343811035156,0.0006829984486103058,-0.0008534789085388184
1772656646179568600,4.770568603515625,-0.034210205078125,0.005517993122339249,0.00030318647623062134
1772656646199327000,4.790326904296875,-0.033011436462402344,0.004639148712158203,0.0013999491930007935
1772656646219085000,4.8100849609375,-0.036602020263671875,0.003403831273317337,-0.0010314062237739563
1772656646238843100,4.829843017578125,-0.03301048278808594,0.002260752022266388,-0.0010685548186302185
1772656646258601200,4.849601318359375,-0.03420734405517578,0.0012088045477867126,-0.0023603737354278564
1772656646278359300,4.869359375,-0.029419898986816406,0.000009641051292419434,-0.002277359366416931
1772656646298117600,4.88911767578125,-0.0294189453125,0.003502044826745987,0.00007727742195129395
1772656646317875700,4.908875732421875,-0.03660106658935547,0.0009252689778804779,0.0046994611620903015
1772656646337633800,4.9286337890625,-0.030615806579589844,-0.001468013972043991,-0.0048486292362213135
1772656646357392100,4.94839208984375,-0.03540515899658203,-0.0027799345552921295,0.0024094507098197937
1772656646377150200,4.968150146484375,-0.03061676025390625,0.0056472048163414,-0.00005488842725753784
1772656646396908300,4.987908203125,-0.033011436462402344,0.0036045387387275696,0.0024461671710014343
1772656646416666400,5.007666259765625,-0.031813621520996094,0.004641655832529068,0.004792943596839905
1772656646436424400,5.027424560546875,-0.03300952911376953,0.0010751262307167053,0.00002501159906387329
1772656646456182800,5.047182861328125,-0.03420543670654297,0.0023249201476573944,-0.0012094229459762573
1772656646475940900,5.06694091796875,-0.023433685302734375,0.007098596543073654,-0.0022643432021141052
1772656646495699000,5.086698974609375,-0.035404205322265625,0.003440413624048233,-0.004630625247955322
1772656646515457300,5.106457275390625,-0.036602020263671875,-0.002661295235157013,0.002507999539375305
1772656646535215400,5.12621533203125,-0.036602020263671875,0.0104854516685009,-0.007155187427997589
1772656646554973400,5.145973388671875,-0.03660011291503906,0.0022186897695064545,-0.0035971254110336304
1772656646574731500,5.1657314453125,-0.034206390380859375,0.0036173686385154724,0.0023454800248146057
1772656646594489900,5.18548974609375,-0.03540325164794922,-0.0035302266478538513,0.003497108817100525
1772656646614248000,5.205248046875,-0.034206390380859375,0.0008954070508480072,-0.003718242049217224
1772656646634006000,5.225006103515625,-0.03660106658935547,0.004595529288053513,0.001147441565990448
1772656646653764000,5.24476416015625,-0.03300952911376953,-0.0013904012739658356,-0.0036741048097610474
1772656646673522400,5.2645224609375,-0.033008575439453125,0.0011175945401191711,0.0023269131779670715
1772656646693280500,5.284280517578125,-0.035401344299316406,-0.0011571422219276428,-0.0036315247416496277
1772656646713038600,5.30403857421875,-0.03540229797363281,-0.0012177936732769012,-0.003724224865436554
1772656646732796700,5.323796630859375,-0.03540325164794922,0.0034444592893123627,-0.003697514533996582
1772656646752554800,5.3435546875,-0.03540229797363281,-0.002329431474208832,-0.0000859573483467102
1772656646772313000,5.36331298828125,-0.03301048278808594,-0.0002636536955833435,-0.0011423155665397644
1772656646792071200,5.3830712890625,-0.03061676025390625,-0.00014657527208328247,0.00013402104377746582
1772656646811829200,5.402829345703125,-0.03420829772949219,0.001165781170129776,-0.004566401243209839
1772656646831587600,5.422587646484375,-0.031815528869628906,0.0033732689917087555,-0.0008949488401412964
1772656646851345700,5.442345703125,-0.02822399139404297,0.0011837929487228394,0.0014574825763702393
1772656646871103700,5.462103759765625,-0.033011436462402344,0.003747791051864624,0.0027294382452964783
1772656646890861800,5.48186181640625,-0.036602020263671875,0.0037675239145755768,-0.0008399784564971924
1772656646910620200,5.5016201171875,-0.037799835205078125,0.0014876462519168854,-0.0020132288336753845
1772656646930378200,5.521378173828125,-0.036602020263671875,0.0029459260404109955,-0.0032434463500976562
1772656646950136300,5.54113623046875,-0.03540325164794922,0.0027296505868434906,-0.006920844316482544
1772656646969894400,5.560894287109375,-0.03779792785644531,-0.0007721930742263794,-0.002168230712413788
1772656646989652700,5.58065283203125,-0.033008575439453125,-0.0019081570208072662,-0.007041841745376587
1772656647009410800,5.600410888671875,-0.033008575439453125,-0.0019077770411968231,0.00004149973392486572
1772656647029169000,5.6201689453125,-0.03660011291503906,0.002663739025592804,0.001314803957939148
1772656647048927000,5.639927001953125,-0.03540229797363281,0.005164299160242081,-0.002370692789554596
1772656647068685300,5.659685302734375,-0.04018974304199219,0.009990975260734558,-0.0023467615246772766
1772656647088443400,5.679443359375,-0.03180980682373047,0.0018594451248645782,0.003594242036342621
1772656647108201500,5.699201416015625,-0.03899192810058594,0.005386631935834885,0.0011601150035858154
1772656647127959600,5.71895947265625,-0.03180885314941406,-0.003009602427482605,-0.000015221536159515381
1772656647147717600,5.738717529296875,-0.035399436950683594,0.0017529875040054321,-0.000052697956562042236
1772656647167476000,5.75847607421875,-0.031807899475097656,0.001817658543586731,0.004630222916603088
1772656647187234000,5.778234130859375,-0.03659629821777344,0.0005068741738796234,0.0009405240416526794
1772656647206992100,5.7979921875,-0.031807899475097656,-0.0016976594924926758,0.000960424542427063
1772656647226750200,5.817750244140625,-0.03539752960205078,0.0006996989250183105,-0.0026638656854629517
1772656647246508500,5.837508544921875,-0.03539752960205078,0.0020481646060943604,-0.0037730857729911804
1772656647266266600,5.8572666015625,-0.03419971466064453,0.0032168105244636536,-0.0002190917730331421
1772656647286024700,5.877024658203125,-0.03419971466064453,0.006891079246997833,-0.0013919398188591003
1772656647305782800,5.89678271484375,-0.03539752960205078,0.0009413808584213257,0.0010221228003501892
1772656647325540900,5.916540771484375,-0.03539752960205078,0.0019934214651584625,-0.00260201096534729
1772656647345299200,5.93629931640625,-0.030611038208007812,0.0030439086258411407,-0.0025163739919662476
1772656647365057300,5.956057373046875,-0.036597251892089844,0.00785309448838234,-0.002431519329547882
1772656647384815400,5.9758154296875,-0.037795066833496094,0.0030362866818904877,0.0012377947568893433
1772656647404573400,5.995573486328125,-0.03779411315917969,0.006651144474744797,0.0035280808806419373
1772656647424331800,6.015331787109375,-0.03779315948486328,0.005481012165546417,0.001153603196144104
1772656647444089900,6.03508984375,-0.03420448303222656,0.004371143877506256,-0.005877725780010223
1772656647463848000,6.054847900390625,-0.038992881774902344,0.0008137933909893036,-0.0011258497834205627
1772656647483606000,6.07460595703125,-0.03779411315917969,0.008974481374025345,-0.003610655665397644
1772656647503364400,6.0943642578125,-0.03420257568359375,0.0019748471677303314,0.0011377707123756409
1772656647523122400,6.114122314453125,-0.033005714416503906,-0.0013670139014720917,0.0010985955595970154
1772656647542880500,6.133880615234375,-0.03779315948486328,0.0056007616221904755,-0.0036612525582313538
1772656647562638600,6.153638671875,-0.035399436950683594,0.0067628733813762665,-0.006021872162818909
1772656647582396700,6.173396728515625,-0.03779315948486328,0.006727486848831177,-0.004912160336971283
1772656647602155000,6.193155029296875,-0.03899097442626953,0.003048371523618698,-0.00010249018669128418
1772656647621913000,6.2129130859375,-0.03779315948486328,0.0030196532607078552,-0.00019919872283935547
1772656647641671200,6.232671142578125,-0.03779125213623047,-0.0015799961984157562,-0.0014906972646713257
1772656647661429200,6.25242919921875,-0.031805992126464844,-0.0004651285707950592,0.002058081328868866
1772656647681187300,6.272187255859375,-0.03539752960205078,-0.0004860237240791321,-0.0027029812335968018
1772656647700945700,6.291945556640625,-0.03779125213623047,-0.001733243465423584,0.0009079352021217346
1772656647720703700,6.311703857421875,-0.03420066833496094,0.0031442977488040924,-0.0002672448754310608
1772656647740461800,6.3314619140625,-0.037792205810546875,-0.0016639530658721924,-0.006160140037536621
1772656647760220000,6.351219970703125,-0.03659629821777344,0.005603335797786713,-0.0036189481616020203
1772656647779978000,6.37097802734375,-0.0437774658203125,0.004374854266643524,-0.0037679001688957214
1772656647799736300,6.390736328125,-0.03539752960205078,0.0007002539932727814,-0.00391639769077301
1772656647819494400,6.410494384765625,-0.03659343719482422,0.00192931666970253,-0.0015573576092720032
1772656647839252500,6.43025244140625,-0.036594390869140625,0.004383295774459839,0.0056946054100990295
1772656647859010600,6.450010498046875,-0.03659534454345703,-0.0005166493356227875,0.002120792865753174
1772656647878769000,6.469768798828125,-0.035396575927734375,0.00343172624707222,-0.002699650824069977
1772656647898527000,6.48952685546875,-0.03779125213623047,0.0019394159317016602,-0.005121685564517975
1772656647918285000,6.50928515625,-0.03779125213623047,-0.0003583841025829315,-0.0014471635222434998
1772656647938043100,6.529043212890625,-0.04018592834472656,0.0011138916015625,0.0009667128324508667
1772656647957801200,6.54880126953125,-0.03659343719482422,0.0034178122878074646,-0.005045242607593536
1772656647977559600,6.5685595703125,-0.037789344787597656,0.0035068169236183167,-0.00507267564535141
1772656647997317600,6.588317626953125,-0.04137992858886719,0.0046721287071704865,-0.0027699172496795654
1772656648017075700,6.60807568359375,-0.03419685363769531,-0.00013712793588638306,-0.0017839297652244568
1772656648036833800,6.627833740234375,-0.034195899963378906,0.0034832917153835297,-0.0065375566482543945
1772656648056592000,6.647591796875,-0.038985252380371094,0.005844198167324066,-0.006561398506164551
1772656648076350200,6.66735009765625,-0.036591529846191406,0.005750939249992371,-0.002942711114883423
1772656648096108300,6.6871083984375,-0.03539466857910156,0.009301256388425827,-0.0005847960710525513
1772656648115866400,6.706866455078125,-0.04018115997314453,0.004658807069063187,-0.004205070436000824
1772656648135624400,6.72662451171875,-0.034195899963378906,0.005853261798620224,-0.0008583888411521912
1772656648155382500,6.746382568359375,-0.03778553009033203,0.0010981447994709015,-0.0008638575673103333
1772656648175140600,6.766140625,-0.04018115997314453,-0.00032832100987434387,-0.0031702741980552673
1772656648194899000,6.78589892578125,-0.040180206298828125,0.010460954159498215,0.0015771985054016113
1772656648214657000,6.805656982421875,-0.03658866882324219,0.009281616657972336,-0.003241986036300659
1772656648234415000,6.8254150390625,-0.037784576416015625,0.008223343640565872,-0.00811006873846054
1772656648254173200,6.845173095703125,-0.037784576416015625,0.002211201936006546,-0.0009044036269187927
1772656648273931300,6.86493115234375,-0.036586761474609375,0.0011664889752864838,-0.005718693137168884
1772656648293689600,6.884689697265625,-0.036586761474609375,0.00830918550491333,-0.006998077034950256
1772656648313447700,6.90444775390625,-0.042572021484375,-0.0025984980165958405,-0.007020696997642517
1772656648333205800,6.924205810546875,-0.040180206298828125,0.0031206272542476654,0.0014360323548316956
1772656648352963800,6.9439638671875,-0.0341949462890625,0.0018371641635894775,0.00020041316747665405
1772656648372722000,6.963721923828125,-0.03778553009033203,0.006588730961084366,-0.007064253091812134
1772656648392480300,6.983480224609375,-0.03898143768310547,-0.00031971558928489685,0.00013896077871322632
1772656648412238300,7.00323828125,-0.030603408813476562,0.0009112097322940826,-0.005753904581069946
1772656648431996400,7.022996337890625,-0.03419208526611328,0.0034533031284809113,-0.0033903121948242188
1772656648451754500,7.04275439453125,-0.03898143768310547,0.002169661223888397,-0.005810163915157318
1772656648471512600,7.0625126953125,-0.035388946533203125,0.006979484111070633,-0.004700332880020142
1772656648491270700,7.082270751953125,-0.034191131591796875,0.004611477255821228,-0.0047285184264183044
1772656648511029000,7.102029052734375,-0.03658580780029297,0.0035025887191295624,-0.00828089565038681
1772656648530787000,7.121787109375,-0.038979530334472656,0.007057491689920425,-0.0023869872093200684
1772656648550545200,7.141545166015625,-0.030599594116210938,0.004839073866605759,-0.0023606568574905396
1772656648570303200,7.16130322265625,-0.03778266906738281,0.004716295748949051,-0.00591769814491272
1772656648590061300,7.181061279296875,-0.03658580780029297,0.002294488251209259,-0.002300441265106201
1772656648609819400,7.2008193359375,-0.03778266906738281,0.0011909976601600647,-0.0034686103463172913
1772656648629577500,7.220577392578125,-0.03299427032470703,0.00600321963429451,-0.0034397095441818237
1772656648649335800,7.240335693359375,-0.03898143768310547,0.002502813935279846,-0.011713296175003052
1772656648669094000,7.260093994140625,-0.03898048400878906,0.0013704746961593628,0.00254860520362854
1772656648688852000,7.27985205078125,-0.0401763916015625,0.0023324191570281982,-0.002330996096134186
1772656648708610000,7.299610107421875,-0.031795501708984375,0.0013780631124973297,-0.0036170855164527893
1772656648728368000,7.3193681640625,-0.03418922424316406,0.006131216883659363,-0.001316748559474945
1772656648748126200,7.339126220703125,-0.03419017791748047,0.006127409636974335,0.004621125757694244
1772656648767884500,7.358884521484375,-0.03658485412597656,0.0070463381707668304,-0.0000864863395690918
1772656648787642600,7.378642578125,-0.038977622985839844,0.007125988602638245,-0.005020506680011749
1772656648807400700,7.398400634765625,-0.035386085510253906,0.0012351572513580322,-0.004987657070159912
1772656648827158800,7.41815869140625,-0.04017448425292969,0.006106216460466385,-0.0026256442070007324
1772656648846916900,7.437916748046875,-0.03897571563720703,0.001291383057832718,-0.009884215891361237
1772656648866675000,7.457675048828125,-0.034188270568847656,0.0001319386065006256,-0.0025558918714523315
1772656648886433300,7.477433349609375,-0.03897857666015625,0.0026080235838890076,-0.007179461419582367
1772656648906191400,7.49719140625,-0.035686492919921875,0.006354920566082001,-0.00016589462757110596
1772656648925949400,7.516949462890625,-0.03299236297607422,0.00382281094789505,-0.0011118873953819275
1772656648945707500,7.53670751953125,-0.03314208984375,0.006222739815711975,-0.004861682653427124
1772656648965465600,7.556465576171875,-0.031795501708984375,0.001542072743177414,-0.0011375397443771362
1772656648985223700,7.5762236328125,-0.03419017791748047,0.004814907908439636,-0.0012728124856948853
1772656649004981800,7.595981689453125,-0.03538703918457031,0.0038704313337802887,0.0011589974164962769
1772656649024740000,7.615739990234375,-0.03538703918457031,0.001433979719877243,0.0011370405554771423
1772656649044498200,7.635498291015625,-0.037932395935058594,0.004675868898630142,-0.009516783058643341
1772656649064256300,7.65525634765625,-0.036586761474609375,0.003431543707847595,-0.005873188376426697
1772656649084014300,7.675014404296875,-0.035538673400878906,0.002307567745447159,-0.0046266913414001465
1772656649103772400,7.6947724609375,-0.044068336486816406,0.005846124142408371,-0.008160412311553955
1772656649123530500,7.714530517578125,-0.037036895751953125,0.0010760724544525146,-0.0057136788964271545
1772656649143288600,7.73428857421875,-0.043023109436035156,0.005812220275402069,-0.003272712230682373
1772656649163047000,7.754046875,-0.035691261291503906,-0.000003382563591003418,-0.0043611302971839905
1772656649182805000,7.773804931640625,-0.038086891174316406,0.004793666303157806,0.003031417727470398
1772656649202563000,7.79356298828125,-0.038238525390625,0.004653673619031906,-0.0029076561331748962
1772656649222321200,7.813321044921875,-0.038086891174316406,0.00481308251619339,0.0016487687826156616
1772656649242079200,7.833079345703125,-0.03823661804199219,0.001090407371520996,-0.006526388227939606
1772656649261837300,7.85283740234375,-0.03928565979003906,0.0035557784140110016,-0.0028300434350967407
1772656649281595400,7.872595458984375,-0.04063129425048828,0.004761695861816406,-0.0028434693813323975
1772656649301353500,7.892353515625,-0.034198760986328125,0.0012195445597171783,-0.00040843337774276733
1772656649321111800,7.91211181640625,-0.0389862060546875,0.005982581526041031,-0.0039512887597084045
1772656649340870000,7.931869873046875,-0.037787437438964844,0.002673473209142685,0.002995915710926056
1772656649360628000,7.9516279296875,-0.04018211364746094,0.00041738152503967285,0.0007895827293395996
1772656649380386000,7.971385986328125,-0.037787437438964844,0.0026464276015758514,-0.0028155148029327393
1772656649400144100,7.99114404296875,-0.038987159729003906,-0.0009236037731170654,0.000931084156036377
1772656649419902200,8.010902099609375,-0.034198760986328125,0.006056156009435654,0.0009686648845672607
1772656649439660300,8.030660400390625,-0.0413818359375,0.008450154215097427,-0.002518489956855774
1772656649459418400,8.05041845703125,-0.03539752960205078,0.00707896426320076,-0.006056435406208038
1772656649479176700,8.0701767578125,-0.03539848327636719,0.0024538300931453705,0.000027157366275787354
1772656649498934800,8.089934814453125,-0.037044525146484375,0.004707619547843933,-0.0011866912245750427
1772656649518692900,8.10969287109375,-0.03719615936279297,0.0022993385791778564,-0.0022211000323295593
1772656649538451000,8.129450927734375,-0.033606529235839844,0.002136368304491043,-0.003370940685272217
1772656649558209000,8.149208984375,-0.03809547424316406,-0.00023814290761947632,0.0015121474862098694
1772656649577967000,8.168967041015625,-0.03600120544433594,0.004469413310289383,-0.001048654317855835
1772656649597725200,8.18872509765625,-0.031063079833984375,0.0022397898137569427,0.0002779960632324219
1772656649617483300,8.208483154296875,-0.033606529235839844,-0.0027915500104427338,-0.004520051181316376
1772656649637241600,8.22824169921875,-0.04078865051269531,0.007865581661462784,-0.003334924578666687
1772656649656999700,8.247999755859375,-0.03719806671142578,0.0043431855738162994,-0.0009583830833435059
1772656649676757800,8.2677578125,-0.043183326721191406,0.007876113057136536,-0.0021115466952323914
1772656649696515800,8.287515869140625,-0.0392913818359375,0.000862516462802887,0.00014477968215942383
1772656649716274000,8.30727392578125,-0.043183326721191406,-0.0017168596386909485,-0.0022049397230148315
1772656649736032000,8.327031982421875,-0.04078865051269531,0.0018905028700828552,-0.002219155430793762
1772656649755790000,8.3467900390625,-0.037197113037109375,0.0008621290326118469,0.0001555904746055603
1772656649775548200,8.366548095703125,-0.038394927978515625,0.004522062838077545,0.002642422914505005
1772656649795306200,8.38630615234375,-0.034804344177246094,0.0023825354874134064,0.0015998110175132751
1772656649815064300,8.406064208984375,-0.039592742919921875,0.0008725151419639587,-0.0044541135430336
1772656649834822700,8.42582275390625,-0.03959178924560547,0.0008621178567409515,-0.004463575780391693
1772656649854580700,8.445580810546875,-0.04198646545410156,0.003119412809610367,0.00030431896448135376
1772656649874338800,8.4653388671875,-0.0348052978515625,0.0007732659578323364,-0.0020460784435272217
1772656649894097000,8.485096923828126,-0.044381141662597656,0.00204535573720932,-0.002001628279685974
1772656649913855000,8.50485498046875,-0.0348052978515625,0.005702931433916092,-0.0007628127932548523
1772656649933613000,8.524613037109376,-0.045429229736328125,0.005501881241798401,0.0005319863557815552
1772656649953371100,8.54437109375,-0.031215667724609375,0.0033019185066223145,-0.001876629889011383
1772656649973129200,8.564129150390626,-0.03241252899169922,-0.0016712062060832977,-0.0006973594427108765
1772656649992887300,8.58388720703125,-0.036004066467285156,-0.0004535764455795288,-0.0042391493916511536
1772656650012645400,8.603645263671876,-0.037201881408691406,0.0016885772347450256,0.00058736652135849
1772656650032403500,8.623403564453126,-0.03361034393310547,0.006539631634950638,-0.0007183924317359924
1772656650052161500,8.64316162109375,-0.0395965576171875,0.001708291471004486,0.0005482286214828491
1772656650071919900,8.662919921875,-0.03959465026855469,0.004171337932348251,0.0005862265825271606
1772656650091678000,8.682677978515626,-0.03241252899169922,0.0029872506856918335,-0.0006287768483161926
1772656650111436000,8.70243603515625,-0.034806251525878906,0.001955736428499222,-0.0018407180905342102
1772656650131194000,8.722194091796876,-0.03360939025878906,0.00415072962641716,-0.0041854605078697205
1772656650150952200,8.7419521484375,-0.031065940856933594,0.0021569356322288513,0.0004321634769439697
1772656650170710300,8.761710205078124,-0.0348052978515625,0.006140012294054031,0.0065009817481040955
1772656650190468400,8.78146826171875,-0.035854339599609375,-0.0010188445448875427,0.004286587238311768
1772656650210226400,8.801226318359374,-0.03689861297607422,-0.0010276027023792267,0.0018094778060913086
1772656650229984500,8.820984619140624,-0.035851478576660156,0.003712128847837448,-0.0030504390597343445
1772656650249742600,8.84074267578125,-0.03944206237792969,0.001334942877292633,0.000519879162311554
1772656650269500700,8.860500732421874,-0.032260894775390625,0.00009795278310775757,-0.003024578094482422
1772656650289259000,8.880259033203124,-0.03360748291015625,0.005939967930316925,-0.0017832890152931213
1772656650309016800,8.900016845703124,-0.030017852783203125,0.006094582378864288,0.0006488114595413208
1772656650328775000,8.91977490234375,-0.036002159118652344,0.002575535327196121,-0.001761108636856079
1772656650348533200,8.939533203125,-0.03600311279296875,0.009518880397081375,0.00174742192029953
1772656650368291300,8.959291259765624,-0.0348052978515625,0.005873546004295349,0.0016330927610397339
1772656650388049400,8.97904931640625,-0.0348052978515625,-0.00227152556180954,-0.0018235519528388977
1772656650407807500,8.998807373046875,-0.03121471405029297,0.0012182965874671936,0.0005498155951499939
1772656650427565600,9.018565673828125,-0.03241157531738281,0.002131488174200058,-0.002994142472743988
1772656650447323600,9.03832373046875,-0.03600311279296875,0.0011019706726074219,-0.0005587562918663025
1772656650467081700,9.058081787109375,-0.03600311279296875,0.0025808922946453094,0.0031237974762916565
1772656650486839800,9.07783984375,-0.03241157531738281,0.0060264430940151215,-0.0018298625946044922
1772656650506598000,9.097597900390625,-0.04049205780029297,0.0013148710131645203,0.0006928592920303345
1772656650526356000,9.11735595703125,-0.038097381591796875,0.003721080720424652,0.001925446093082428
1772656650546114000,9.137114013671875,-0.03570556640625,0.002686738967895508,0.003182224929332733
1772656650565872000,9.1568720703125,-0.028822898864746094,0.0074769072234630585,0.00434943288564682
1772656650585630200,9.176630126953125,-0.039145469665527344,0.0011500008404254913,0.0008859485387802124
1772656650605388500,9.196388427734375,-0.035854339599609375,0.007315721362829208,-0.004061348736286163
1772656650625146400,9.216146484375,-0.03705120086669922,0.006065379828214645,-0.0027273520827293396
1772656650644904700,9.23590478515625,-0.03824901580810547,0.004817552864551544,-0.0037572532892227173
1772656650664662800,9.255662841796875,-0.03585338592529297,0.003957688808441162,-0.0002444908022880554
1772656650684420900,9.2754208984375,-0.038247108459472656,0.008533120155334473,-0.006304159760475159
1772656650704179000,9.295178955078125,-0.036004066467285156,0.003721296787261963,0.0032230615615844727
1772656650723937000,9.31493701171875,-0.041690826416015625,0.003459770232439041,0.0008454024791717529
1772656650743695000,9.334695068359375,-0.038399696350097656,0.004658374935388565,0.0009198933839797974
1772656650763453200,9.354453125,-0.038249969482421875,-0.00008350983262062073,0.002189360558986664
1772656650783211300,9.374211181640625,-0.03106689453125,0.00118313729763031,0.0008896887302398682
1772656650802969300,9.39396923828125,-0.03720283508300781,0.0033140070736408234,-0.003871545195579529
1772656650822727400,9.4137275390625,-0.034809112548828125,0.007977209985256195,-0.0062328726053237915
1772656650842485500,9.433485595703125,-0.04184150695800781,0.004329200834035873,-0.001600891351699829
1772656650862243600,9.45324365234375,-0.03600502014160156,0.006777800619602203,-0.004086382687091827
1772656650882001700,9.473001708984375,-0.04064369201660156,0.0008029788732528687,-0.004059247672557831
1772656650901759700,9.492759765625,-0.038397789001464844,0.0020665638148784637,-0.004150256514549255
1772656650921517800,9.512517822265625,-0.038397789001464844,-0.0002832375466823578,0.0005945414304733276
1772656650941276000,9.53227587890625,-0.03600311279296875,0.005551639944314957,-0.004433281719684601
1772656650961034000,9.552033935546875,-0.037199974060058594,0.004446994513273239,-0.0006733015179634094
1772656650980792000,9.5717919921875,-0.03600120544433594,0.0022104643285274506,0.0025430098176002502
1772656651000550100,9.591550048828125,-0.04078865051269531,0.0019794441759586334,-0.0009964928030967712
1772656651020308200,9.61130810546875,-0.03360557556152344,0.0046746619045734406,0.0012938976287841797
1772656651040066600,9.631066650390625,-0.033606529235839844,0.0009453892707824707,-0.0021554306149482727
1772656651059824400,9.650824462890625,-0.03600025177001953,0.000029150396585464478,0.00019654631614685059
1772656651079582500,9.67058251953125,-0.03360557556152344,0.0031485259532928467,-0.003427751362323761
1772656651099340800,9.6903408203125,-0.035999298095703125,0.0007073469460010529,-0.005789510905742645
1772656651119099000,9.710098876953126,-0.034804344177246094,0.003049079328775406,-0.0021156147122383118
1772656651138857000,9.72985693359375,-0.0348052978515625,0.005623511970043182,-0.0009887069463729858
1772656651158615000,9.749614990234376,-0.03839588165283203,0.0018602758646011353,-0.004460647702217102
1772656651178373000,9.769373046875,-0.03839683532714844,0.0007055886089801788,-0.0019258707761764526
1772656651198131200,9.789131103515626,-0.04198932647705078,0.004121363162994385,-0.000827983021736145
1772656651217889300,9.80888916015625,-0.03719902038574219,0.012570127844810486,0.0012224093079566956
1772656651237647400,9.8286474609375,-0.03600311279296875,0.0028810612857341766,-0.0008527562022209167
1772656651257405400,9.848405517578126,-0.03959369659423828,0.0016341619193553925,-0.0032801926136016846
1772656651277163500,9.86816357421875,-0.036002159118652344,0.002000078558921814,0.00020936131477355957
1772656651296921600,9.887921630859376,-0.03839683532714844,0.0029942356050014496,0.0014796927571296692
1772656651316679700,9.9076796875,-0.0348052978515625,0.005388788878917694,-0.0032231956720352173
1772656651336437800,9.927437744140626,-0.04079246520996094,0.004018060863018036,-0.0020622611045837402
1772656651356195800,9.94719580078125,-0.03839874267578125,0.006409093737602234,-0.003174692392349243
1772656651375954000,9.966953857421874,-0.036004066467285156,0.0016892440617084503,-0.001954980194568634
1772656651395712000,9.9867119140625,-0.04079246520996094,0.0026836805045604706,0.001649521291255951
1772656651415470000,10.006469970703124,-0.031217575073242188,0.0025721825659275055,-0.004188992083072662
1772656651435228200,10.026228271484374,-0.03600597381591797,0.0051160044968128204,0.004197441041469574
1772656651454986200,10.045986328125,-0.033611297607421875,-0.0006148219108581543,0.0028923973441123962
1772656651474744300,10.065744384765624,-0.03480720520019531,0.0026842691004276276,-0.002050168812274933
1772656651494502400,10.08550244140625,-0.031217575073242188,-0.0009197480976581573,-0.0032214969396591187
1772656651514260500,10.105260498046874,-0.037200927734375,0.003872636705636978,0.0025074705481529236
1772656651534018600,10.1250185546875,-0.036004066467285156,0.0034011900424957275,-0.0010317638516426086
1772656651553776600,10.144776611328124,-0.03959465026855469,0.0036163553595542908,-0.0010104849934577942
1772656651573534700,10.16453466796875,-0.03959465026855469,0.0034118518233299255,-0.007137976586818695
1772656651593292800,10.184292724609374,-0.0348052978515625,0.0025200694799423218,0.001255527138710022
1772656651613051000,10.20405078125,-0.03360939025878906,0.0025270432233810425,0.0024642497301101685
1772656651632809000,10.22380908203125,-0.03241252899169922,0.0037870965898036957,0.001340910792350769
1772656651652567000,10.243567138671875,-0.04438209533691406,-0.005853086709976196,0.00010125339031219482
1772656651672325000,10.2633251953125,-0.031213760375976562,-0.0006918981671333313,0.003641679883003235
1772656651692083200,10.283083251953125,-0.034804344177246094,0.006337154656648636,0.002157248556613922
1772656651711841300,10.30284130859375,-0.03839683532714844,0.0037967413663864136,0.00007969886064529419
1772656651731599400,10.322599365234375,-0.04198741912841797,0.0049044229090213776,0.002426154911518097
1772656651751357400,10.342357421875,-0.03839683532714844,0.001323312520980835,0.0001087188720703125
1772656651771115500,10.362115478515625,-0.038397789001464844,0.0061391256749629974,0.0002434849739074707
1772656651790873600,10.38187353515625,-0.038399696350097656,0.0023782551288604736,-0.0032622292637825012
1772656651810631700,10.401631591796875,-0.038249969482421875,-0.000030338764190673828,0.002733848989009857
1772656651830389800,10.4213896484375,-0.03600597381591797,0.002340458333492279,0.0015509352087974548
1772656651850147800,10.44114794921875,-0.034806251525878906,0.002405412495136261,-0.005836367607116699
1772656651869906000,10.460906005859375,-0.031215667724609375,0.0011273697018623352,-0.0023124217987060547
