time,seconds_elapsed,z,y,x
1772656641401786400,-0.007213623046875,-0.016034740954637527,-0.0036650835536420345,-0.0004581354442052543
1772656641411665400,0.00266552734375,-0.014813045971095562,-0.0036650835536420345,-0.0004581354442052543
1772656641421544700,0.012544677734375,-0.014813045971095562,-0.0030542362947016954,0.00015271181473508477
1772656641431423700,0.022423828125,-0.014202198944985867,-0.0030542362947016954,0.0007635590736754239
1772656641441302800,0.032302734375,-0.015423892997205257,-0.0036650835536420345,0.00015271181473508477
1772656641451181800,0.042181884765625,-0.014813045971095562,-0.0030542362947016954,0.00015271181473508477
1772656641461060900,0.052060791015625,-0.014202198944985867,-0.0024433890357613564,0.0007635590736754239
1772656641470940200,0.061940185546875,-0.014813045971095562,-0.0018325417768210173,0.0007635590736754239
1772656641480819200,0.071819091796875,-0.014202198944985867,-0.0024433890357613564,0.001374406274408102
1772656641490698200,0.0816982421875,-0.015423892997205257,-0.0036650835536420345,0.001374406274408102
1772656641500577300,0.091577392578125,-0.014202198944985867,-0.0036650835536420345,-0.0004581354442052543
1772656641510456300,0.101456298828125,-0.016034740954637527,-0.0036650835536420345,0.0007635590736754239
1772656641520335400,0.11133544921875,-0.015423892997205257,-0.0024433890357613564,-0.0016798300202935934
1772656641530313200,0.121313232421875,-0.014813045971095562,-0.0036650835536420345,0.00015271181473508477
1772656641579609900,0.17060986328125,-0.014813045971095562,-0.0030542362947016954,-0.0004581354442052543
1772656641599368000,0.190367919921875,-0.014202198944985867,-0.0030542362947016954,-0.0004581354442052543
1772656641609247200,0.200247314453125,-0.014202198944985867,-0.004275931045413017,0.00015271181473508477
1772656641619126300,0.210126220703125,-0.013591351918876171,-0.0036650835536420345,0.00015271181473508477
1772656641629005300,0.22000537109375,-0.014813045971095562,-0.0024433890357613564,-0.0004581354442052543
1772656641638884400,0.22988427734375,-0.014813045971095562,-0.0018325417768210173,0.001985253533348441
1772656641648763400,0.239763427734375,-0.014202198944985867,-0.0036650835536420345,0.00015271181473508477
1772656641658642400,0.249642333984375,-0.015423892997205257,-0.0036650835536420345,-0.0004581354442052543
1772656641668521500,0.259521484375,-0.013591351918876171,-0.0036650835536420345,0.00015271181473508477
1772656641678400800,0.26940087890625,-0.014202198944985867,-0.0036650835536420345,-0.0004581354442052543
1772656641688279800,0.27927978515625,-0.014813045971095562,-0.0036650835536420345,0.00015271181473508477
1772656641698158800,0.289158935546875,-0.014813045971095562,-0.0024433890357613564,0.00015271181473508477
1772656641708038000,0.299037841796875,-0.016034740954637527,-0.0030542362947016954,-0.0004581354442052543
1772656641717917000,0.3089169921875,-0.013591351918876171,-0.0024433890357613564,-0.0004581354442052543
1772656641727796000,0.3187958984375,-0.014813045971095562,-0.0036650835536420345,0.001374406274408102
1772656641737675300,0.32867529296875,-0.013591351918876171,-0.0030542362947016954,-0.0004581354442052543
1772656641747554300,0.33855419921875,-0.014813045971095562,-0.0024433890357613564,0.0007635590736754239
1772656641757433300,0.348433349609375,-0.014813045971095562,-0.0030542362947016954,-0.0010689827613532543
1772656641767312400,0.3583125,-0.014813045971095562,-0.0030542362947016954,0.00015271181473508477
1772656641777191400,0.36819140625,-0.014202198944985867,-0.0024433890357613564,0.00015271181473508477
1772656641787070500,0.378070556640625,-0.014813045971095562,-0.0030542362947016954,0.00015271181473508477
1772656641796949500,0.387949462890625,-0.015423892997205257,-0.0030542362947016954,-0.0010689827613532543
1772656641806828800,0.397828857421875,-0.015423892997205257,-0.0030542362947016954,0.00015271181473508477
1772656641816707800,0.407707763671875,-0.014202198944985867,-0.0030542362947016954,-0.0004581354442052543
1772656641826587000,0.4175869140625,-0.014813045971095562,-0.0036650835536420345,0.00015271181473508477
1772656641836466000,0.4274658203125,-0.014202198944985867,-0.0024433890357613564,0.00015271181473508477
1772656641846345000,0.437344970703125,-0.014813045971095562,-0.0030542362947016954,0.00015271181473508477
1772656641856224000,0.44722412109375,-0.014813045971095562,-0.0036650835536420345,-0.0004581354442052543
1772656641866103000,0.45710302734375,-0.014813045971095562,-0.0024433890357613564,0.00015271181473508477
1772656641875982300,0.466982421875,-0.014202198944985867,-0.0030542362947016954,0.0007635590736754239
1772656641885861400,0.476861328125,-0.014813045971095562,-0.0036650835536420345,0.00015271181473508477
1772656641895740400,0.486740478515625,-0.014202198944985867,-0.004275931045413017,0.0007635590736754239
1772656641905619500,0.496619384765625,-0.014813045971095562,-0.0036650835536420345,0.00015271181473508477
1772656641915498500,0.50649853515625,-0.014813045971095562,-0.0030542362947016954,0.0007635590736754239
1772656641925377500,0.51637744140625,-0.014813045971095562,-0.004275931045413017,0.0007635590736754239
1772656641935256600,0.526256591796875,-0.014202198944985867,-0.004275931045413017,0.0007635590736754239
1772656641945135900,0.536135986328125,-0.014813045971095562,-0.0036650835536420345,0.001374406274408102
1772656641955015000,0.546014892578125,-0.013591351918876171,-0.0036650835536420345,0.00015271181473508477
1772656641964894000,0.55589404296875,-0.015423892997205257,-0.0030542362947016954,0.0007635590736754239
1772656641974773000,0.56577294921875,-0.014202198944985867,-0.0036650835536420345,0.00015271181473508477
1772656641984652000,0.575652099609375,-0.016034740954637527,-0.0030542362947016954,0.0007635590736754239
1772656641994531000,0.585531005859375,-0.015423892997205257,-0.0036650835536420345,0.0007635590736754239
1772656642004410000,0.59541015625,-0.015423892997205257,-0.0036650835536420345,-0.0004581354442052543
1772656642014289200,0.6052890625,-0.014813045971095562,-0.0036650835536420345,0.00015271181473508477
1772656642024168400,0.61516845703125,-0.015423892997205257,-0.0030542362947016954,-0.0004581354442052543
1772656642034047500,0.625047607421875,-0.015423892997205257,-0.0024433890357613564,-0.0004581354442052543
1772656642043926500,0.634926513671875,-0.014202198944985867,-0.0036650835536420345,0.0007635590736754239
1772656642053805600,0.6448056640625,-0.015423892997205257,-0.004275931045413017,-0.0004581354442052543
1772656642063684600,0.6546845703125,-0.014813045971095562,-0.0036650835536420345,-0.0004581354442052543
1772656642073563600,0.664563720703125,-0.014202198944985867,-0.0036650835536420345,0.00015271181473508477
1772656642083442700,0.674442626953125,-0.014813045971095562,-0.0036650835536420345,-0.0004581354442052543
1772656642093321700,0.68432177734375,-0.014202198944985867,-0.0024433890357613564,0.00015271181473508477
1772656642103201000,0.694200927734375,-0.015423892997205257,-0.0036650835536420345,0.00015271181473508477
1772656642113080000,0.704080078125,-0.014202198944985867,-0.0030542362947016954,0.0007635590736754239
1772656642122959000,0.713958984375,-0.014813045971095562,-0.0030542362947016954,0.00015271181473508477
1772656642132838100,0.723838134765625,-0.014813045971095562,-0.0030542362947016954,0.001374406274408102
1772656642142717200,0.73371728515625,-0.014813045971095562,-0.0030542362947016954,-0.0004581354442052543
1772656642152596200,0.74359619140625,-0.014813045971095562,-0.0030542362947016954,0.0007635590736754239
1772656642162475300,0.753475341796875,-0.014813045971095562,-0.0024433890357613564,-0.0004581354442052543
1772656642172354600,0.7633544921875,-0.014813045971095562,-0.0030542362947016954,0.00015271181473508477
1772656642182233600,0.773233642578125,-0.014813045971095562,-0.0030542362947016954,0.0007635590736754239
1772656642192112600,0.783112548828125,-0.014202198944985867,-0.0024433890357613564,0.00015271181473508477
1772656642201991700,0.79299169921875,-0.014813045971095562,-0.0030542362947016954,0.0007635590736754239
1772656642211870700,0.80287060546875,-0.015423892997205257,-0.0036650835536420345,0.0007635590736754239
1772656642221749800,0.812749755859375,-0.014813045971095562,-0.0030542362947016954,0.0007635590736754239
1772656642231628800,0.82262890625,-0.014202198944985867,-0.0036650835536420345,0.00015271181473508477
1772656642241507800,0.8325078125,-0.014813045971095562,-0.0036650835536420345,0.0007635590736754239
1772656642251387100,0.84238720703125,-0.014813045971095562,-0.0036650835536420345,0.00015271181473508477
1772656642261266200,0.85226611328125,-0.015423892997205257,-0.0024433890357613564,0.00015271181473508477
1772656642271145200,0.862145263671875,-0.015423892997205257,-0.0036650835536420345,0.00015271181473508477
1772656642281024300,0.872024169921875,-0.016034740954637527,-0.0036650835536420345,0.00015271181473508477
1772656642290903300,0.8819033203125,-0.014813045971095562,-0.0036650835536420345,0.00015271181473508477
1772656642300782300,0.8917822265625,-0.014813045971095562,-0.0036650835536420345,-0.0004581354442052543
1772656642310661400,0.901661376953125,-0.014202198944985867,-0.0030542362947016954,-0.0004581354442052543
1772656642320540400,0.91154052734375,-0.014202198944985867,-0.0030542362947016954,0.00015271181473508477
1772656642330419700,0.921419677734375,-0.014813045971095562,-0.0036650835536420345,0.0007635590736754239
1772656642340298800,0.931298828125,-0.014813045971095562,-0.0036650835536420345,0.00015271181473508477
1772656642350177800,0.941177734375,-0.014813045971095562,-0.0030542362947016954,-0.0010689827613532543
1772656642360056800,0.951056884765625,-0.015423892997205257,-0.0024433890357613564,-0.0004581354442052543
1772656642369936000,0.960935791015625,-0.016034740954637527,-0.0036650835536420345,0.00015271181473508477
1772656642379815000,0.97081494140625,-0.016034740954637527,-0.0036650835536420345,-0.0004581354442052543
1772656642389694000,0.98069384765625,-0.014202198944985867,-0.004275931045413017,0.00015271181473508477
1772656642399573000,0.990572998046875,-0.016034740954637527,-0.0036650835536420345,0.00015271181473508477
1772656642409452300,1.000452392578125,-0.014202198944985867,-0.0036650835536420345,-0.0004581354442052543
1772656642419331300,1.010331298828125,-0.013591351918876171,-0.0036650835536420345,0.0007635590736754239
1772656642429210400,1.02021044921875,-0.014813045971095562,-0.0024433890357613564,0.0007635590736754239
1772656642439089400,1.03008935546875,-0.014813045971095562,-0.0030542362947016954,0.00015271181473508477
1772656642448968400,1.039968505859375,-0.014813045971095562,-0.0024433890357613564,0.00015271181473508477
1772656642458847500,1.049847412109375,-0.014813045971095562,-0.0024433890357613564,0.00015271181473508477
1772656642468726500,1.0597265625,-0.014813045971095562,-0.0030542362947016954,0.0007635590736754239
1772656642478605600,1.06960546875,-0.014202198944985867,-0.0036650835536420345,0.0007635590736754239
1772656642488484600,1.079484619140625,-0.016034740954637527,-0.0036650835536420345,-0.0016798300202935934
1772656642498364000,1.089364013671875,-0.014813045971095562,-0.0030542362947016954,-0.0004581354442052543
1772656642508243000,1.099242919921875,-0.014202198944985867,-0.0024433890357613564,0.00015271181473508477
1772656642518122000,1.1091220703125,-0.016034740954637527,-0.0036650835536420345,0.00015271181473508477
1772656642528001000,1.1190009765625,-0.015423892997205257,-0.0036650835536420345,0.00015271181473508477
1772656642537880000,1.128880126953125,-0.015423892997205257,-0.0030542362947016954,-0.0010689827613532543
1772656642547759000,1.138759033203125,-0.014813045971095562,-0.0036650835536420345,-0.0004581354442052543
1772656642557638100,1.14863818359375,-0.014202198944985867,-0.004275931045413017,-0.0004581354442052543
1772656642567517200,1.15851708984375,-0.015423892997205257,-0.0030542362947016954,0.00015271181473508477
1772656642577396200,1.168396240234375,-0.014813045971095562,-0.0036650835536420345,0.00015271181473508477
1772656642587275500,1.178275634765625,-0.015423892997205257,-0.0030542362947016954,0.00015271181473508477
1772656642597154600,1.188154541015625,-0.014813045971095562,-0.0036650835536420345,-0.0004581354442052543
1772656642607033600,1.19803369140625,-0.014202198944985867,-0.0030542362947016954,-0.0004581354442052543
1772656642616912600,1.20791259765625,-0.014813045971095562,-0.0036650835536420345,0.00015271181473508477
1772656642626791700,1.217791748046875,-0.014813045971095562,-0.0036650835536420345,-0.0010689827613532543
1772656642636670700,1.227670654296875,-0.014813045971095562,-0.0036650835536420345,-0.0004581354442052543
1772656642646549800,1.2375498046875,-0.015423892997205257,-0.0024433890357613564,0.00015271181473508477
1772656642656428800,1.2474287109375,-0.014202198944985867,-0.0030542362947016954,0.0007635590736754239
1772656642666307800,1.257307861328125,-0.014202198944985867,-0.0036650835536420345,-0.0004581354442052543
1772656642676187100,1.267187255859375,-0.015423892997205257,-0.0036650835536420345,0.0007635590736754239
1772656642686066200,1.277066162109375,-0.014813045971095562,-0.0036650835536420345,0.0007635590736754239
1772656642695945200,1.2869453125,-0.014202198944985867,-0.0036650835536420345,0.00015271181473508477
1772656642705824300,1.29682421875,-0.014813045971095562,-0.0036650835536420345,0.0007635590736754239
1772656642715703300,1.306703369140625,-0.015423892997205257,-0.0036650835536420345,-0.0004581354442052543
1772656642725582300,1.316582275390625,-0.015423892997205257,-0.0036650835536420345,0.0007635590736754239
1772656642735461400,1.32646142578125,-0.014813045971095562,-0.0024433890357613564,0.00015271181473508477
1772656642745340400,1.33634033203125,-0.016034740954637527,-0.0024433890357613564,-0.0010689827613532543
1772656642755219500,1.346219482421875,-0.014202198944985867,-0.0030542362947016954,0.0007635590736754239
1772656642765098800,1.3560986328125,-0.014813045971095562,-0.0030542362947016954,0.00015271181473508477
1772656642774977800,1.365977783203125,-0.015423892997205257,-0.0024433890357613564,-0.0004581354442052543
1772656642784856800,1.37585693359375,-0.014813045971095562,-0.004275931045413017,0.001374406274408102
1772656642794735900,1.38573583984375,-0.014813045971095562,-0.0036650835536420345,-0.0010689827613532543
1772656642804615000,1.395614990234375,-0.014813045971095562,-0.0024433890357613564,0.0007635590736754239
1772656642814494000,1.405493896484375,-0.016034740954637527,-0.0036650835536420345,-0.0004581354442052543
1772656642824373000,1.415373046875,-0.016034740954637527,-0.0036650835536420345,-0.0004581354442052543
1772656642834252000,1.425251953125,-0.014813045971095562,-0.0024433890357613564,0.00015271181473508477
1772656642844131000,1.435131103515625,-0.014202198944985867,-0.0036650835536420345,0.001374406274408102
1772656642854010400,1.44501025390625,-0.015423892997205257,-0.0024433890357613564,0.0007635590736754239
1772656642863889400,1.454889404296875,-0.014813045971095562,-0.0030542362947016954,0.0007635590736754239
1772656642873768400,1.4647685546875,-0.014813045971095562,-0.0024433890357613564,-0.0004581354442052543
1772656642883647500,1.4746474609375,-0.015423892997205257,-0.0030542362947016954,0.00015271181473508477
1772656642893526500,1.484526611328125,-0.014813045971095562,-0.0036650835536420345,-0.0004581354442052543
1772656642903405600,1.494405517578125,-0.015423892997205257,-0.0024433890357613564,-0.0004581354442052543
1772656642913284600,1.50428466796875,-0.014813045971095562,-0.0024433890357613564,0.0007635590736754239
1772656642923163600,1.51416357421875,-0.014813045971095562,-0.0024433890357613564,0.0007635590736754239
1772656642933042700,1.524042724609375,-0.014813045971095562,-0.0036650835536420345,-0.0004581354442052543
1772656642942921700,1.533921630859375,-0.014202198944985867,-0.0030542362947016954,0.00015271181473508477
1772656642952801000,1.543801025390625,-0.016645587980747223,-0.0036650835536420345,0.0007635590736754239
1772656642962680000,1.55368017578125,-0.014202198944985867,-0.0030542362947016954,-0.0004581354442052543
1772656642972559000,1.56355908203125,-0.014813045971095562,-0.0036650835536420345,0.00015271181473508477
1772656642982438100,1.573438232421875,-0.014813045971095562,-0.0030542362947016954,-0.0004581354442052543
1772656642992317200,1.583317138671875,-0.015423892997205257,-0.0036650835536420345,-0.0004581354442052543
1772656643002196200,1.5931962890625,-0.014202198944985867,-0.0030542362947016954,-0.0010689827613532543
1772656643012075300,1.6030751953125,-0.014813045971095562,-0.004275931045413017,0.0007635590736754239
1772656643021954300,1.612954345703125,-0.014202198944985867,-0.0036650835536420345,-0.0004581354442052543
1772656643031833300,1.622833251953125,-0.014813045971095562,-0.0030542362947016954,0.00015271181473508477
1772656643041712600,1.632712646484375,-0.014813045971095562,-0.0030542362947016954,0.0007635590736754239
1772656643051591700,1.642591796875,-0.015423892997205257,-0.0024433890357613564,0.00015271181473508477
1772656643061470700,1.652470703125,-0.015423892997205257,-0.0024433890357613564,0.00015271181473508477
1772656643071349800,1.662349853515625,-0.014202198944985867,-0.0018325417768210173,0.00015271181473508477
1772656643081228800,1.672228759765625,-0.015423892997205257,-0.0030542362947016954,0.0007635590736754239
1772656643091107800,1.68210791015625,-0.014813045971095562,-0.0036650835536420345,-0.0004581354442052543
1772656643100987000,1.69198681640625,-0.014813045971095562,-0.0036650835536420345,0.0007635590736754239
1772656643110866000,1.701865966796875,-0.014813045971095562,-0.0030542362947016954,0.0007635590736754239
1772656643120745000,1.711744873046875,-0.015423892997205257,-0.0024433890357613564,0.0007635590736754239
1772656643130624000,1.7216240234375,-0.015423892997205257,-0.0030542362947016954,0.00015271181473508477
1772656643140503300,1.73150341796875,-0.014202198944985867,-0.0030542362947016954,0.00015271181473508477
1772656643150382300,1.74138232421875,-0.014202198944985867,-0.0024433890357613564,0.0007635590736754239
1772656643160261400,1.751261474609375,-0.014813045971095562,-0.0030542362947016954,0.0007635590736754239
1772656643170140400,1.761140380859375,-0.016034740954637527,-0.0030542362947016954,-0.0010689827613532543
1772656643180019500,1.77101953125,-0.016034740954637527,-0.0024433890357613564,-0.0010689827613532543
1772656643189898500,1.7808984375,-0.016034740954637527,-0.004275931045413017,0.0007635590736754239
1772656643199777500,1.790777587890625,-0.014813045971095562,-0.0030542362947016954,-0.0010689827613532543
1772656643209656600,1.800656494140625,-0.014813045971095562,-0.0036650835536420345,0.00015271181473508477
1772656643219535600,1.81053564453125,-0.014813045971095562,-0.0024433890357613564,0.001374406274408102
1772656643229414700,1.82041455078125,-0.014813045971095562,-0.0036650835536420345,0.00015271181473508477
1772656643239294000,1.8302939453125,-0.014813045971095562,-0.0036650835536420345,0.001985253533348441
1772656643249173000,1.840173095703125,-0.014813045971095562,-0.0036650835536420345,0.001374406274408102
1772656643259052000,1.850052001953125,-0.015423892997205257,-0.0030542362947016954,-0.0004581354442052543
1772656643268931000,1.85993115234375,-0.015423892997205257,-0.0024433890357613564,0.00015271181473508477
1772656643278810000,1.86981005859375,-0.014813045971095562,-0.0030542362947016954,0.00015271181473508477
1772656643288689200,1.879689208984375,-0.014813045971095562,-0.0030542362947016954,0.00015271181473508477
1772656643298568200,1.889568115234375,-0.014813045971095562,-0.0030542362947016954,0.0007635590736754239
1772656643308447200,1.899447265625,-0.014813045971095562,-0.0030542362947016954,0.00015271181473508477
1772656643318326300,1.909326171875,-0.014202198944985867,-0.0030542362947016954,-0.0004581354442052543
1772656643328205600,1.91920556640625,-0.014813045971095562,-0.0030542362947016954,0.00015271181473508477
1772656643338084600,1.929084716796875,-0.014813045971095562,-0.0024433890357613564,0.00015271181473508477
1772656643347963600,1.938963623046875,-0.015423892997205257,-0.0024433890357613564,-0.0004581354442052543
1772656643357842700,1.9488427734375,-0.014813045971095562,-0.0030542362947016954,-0.0010689827613532543
1772656643367721700,1.9587216796875,-0.015423892997205257,-0.0036650835536420345,-0.0010689827613532543
1772656643377600800,1.968600830078125,-0.014202198944985867,-0.0030542362947016954,0.00015271181473508477
1772656643387479800,1.978479736328125,-0.014813045971095562,-0.0036650835536420345,0.00015271181473508477
1772656643397358800,1.98835888671875,-0.014202198944985867,-0.0036650835536420345,0.0007635590736754239
1772656643407238000,1.99823779296875,-0.016034740954637527,-0.0036650835536420345,0.00015271181473508477
1772656643417117000,2.008116943359375,-0.014813045971095562,-0.0030542362947016954,-0.0004581354442052543
1772656643426996000,2.017995849609375,-0.014813045971095562,-0.0036650835536420345,0.00015271181473508477
1772656643436875300,2.027875244140625,-0.015423892997205257,-0.0036650835536420345,0.00015271181473508477
1772656643446754300,2.03775439453125,-0.015423892997205257,-0.0036650835536420345,0.0007635590736754239
1772656643456633300,2.04763330078125,-0.013591351918876171,-0.0030542362947016954,-0.0004581354442052543
1772656643466512400,2.057512451171875,-0.014202198944985867,-0.0024433890357613564,0.00015271181473508477
1772656643476391400,2.067391357421875,-0.014813045971095562,-0.0036650835536420345,-0.0004581354442052543
1772656643486270500,2.0772705078125,-0.013591351918876171,-0.0024433890357613564,-0.0004581354442052543
1772656643496149500,2.0871494140625,-0.014813045971095562,-0.0036650835536420345,0.0007635590736754239
1772656643506028500,2.097028564453125,-0.014813045971095562,-0.0036650835536420345,0.0007635590736754239
1772656643515907600,2.106907470703125,-0.014813045971095562,-0.0036650835536420345,-0.0004581354442052543
1772656643525786600,2.11678662109375,-0.014813045971095562,-0.0030542362947016954,0.0007635590736754239
1772656643535666000,2.126666015625,-0.014202198944985867,-0.0024433890357613564,0.00015271181473508477
1772656643545545000,2.136544921875,-0.014813045971095562,-0.0030542362947016954,0.00015271181473508477
1772656643555424000,2.146424072265625,-0.015423892997205257,-0.0036650835536420345,0.00015271181473508477
1772656643565303000,2.156302978515625,-0.016034740954637527,-0.0036650835536420345,0.00015271181473508477
1772656643575182000,2.16618212890625,-0.014813045971095562,-0.0036650835536420345,0.00015271181473508477
1772656643585061000,2.17606103515625,-0.014202198944985867,-0.0030542362947016954,-0.0004581354442052543
1772656643594940200,2.185940185546875,-0.014813045971095562,-0.0036650835536420345,0.00015271181473508477
1772656643604819200,2.195819091796875,-0.014813045971095562,-0.0030542362947016954,-0.0004581354442052543
1772656643614698200,2.2056982421875,-0.014813045971095562,-0.0036650835536420345,0.00015271181473508477
1772656643624577300,2.215577392578125,-0.014813045971095562,-0.0036650835536420345,-0.0004581354442052543
1772656643634456300,2.225456298828125,-0.014813045971095562,-0.0036650835536420345,0.001374406274408102
1772656643644335600,2.235335693359375,-0.015423892997205257,-0.0030542362947016954,0.0007635590736754239
1772656643654214700,2.245214599609375,-0.014813045971095562,-0.0030542362947016954,-0.0004581354442052543
1772656643664093700,2.25509375,-0.012980503961443901,-0.0030542362947016954,0.0007635590736754239
1772656643673972700,2.26497265625,-0.014202198944985867,-0.0036650835536420345,0.00015271181473508477
1772656643683851800,2.274851806640625,-0.014202198944985867,-0.0036650835536420345,0.00015271181473508477
1772656643693730800,2.284730712890625,-0.014202198944985867,-0.0030542362947016954,-0.0004581354442052543
1772656643703609900,2.29460986328125,-0.014813045971095562,-0.0036650835536420345,0.00015271181473508477
1772656643713489000,2.304489013671875,-0.014813045971095562,-0.0036650835536420345,0.0007635590736754239
1772656643723368000,2.314367919921875,-0.014813045971095562,-0.0024433890357613564,0.00015271181473508477
1772656643733247200,2.324247314453125,-0.014813045971095562,-0.0036650835536420345,0.00015271181473508477
1772656643743126300,2.334126220703125,-0.014813045971095562,-0.0036650835536420345,0.0007635590736754239
1772656643753005300,2.34400537109375,-0.014813045971095562,-0.0024433890357613564,0.0007635590736754239
1772656643762884400,2.35388427734375,-0.014813045971095562,-0.0030542362947016954,0.001985253533348441
1772656643772763400,2.363763427734375,-0.014813045971095562,-0.0030542362947016954,0.00015271181473508477
1772656643782642400,2.373642333984375,-0.014813045971095562,-0.0036650835536420345,0.0007635590736754239
1772656643792521500,2.383521484375,-0.015423892997205257,-0.0030542362947016954,0.00015271181473508477
1772656643802400500,2.393400390625,-0.014813045971095562,-0.0030542362947016954,-0.0010689827613532543
1772656643812279600,2.403279541015625,-0.016034740954637527,-0.0036650835536420345,-0.0004581354442052543
1772656643822158800,2.413158935546875,-0.014813045971095562,-0.0036650835536420345,-0.0004581354442052543
1772656643832038000,2.423037841796875,-0.014813045971095562,-0.0030542362947016954,-0.0010689827613532543
1772656643841917000,2.4329169921875,-0.015423892997205257,-0.0030542362947016954,0.00015271181473508477
1772656643851796000,2.4427958984375,-0.014813045971095562,-0.0030542362947016954,0.00015271181473508477
1772656643861675000,2.452675048828125,-0.014202198944985867,-0.0030542362947016954,-0.0004581354442052543
1772656643871554000,2.462553955078125,-0.015423892997205257,-0.0030542362947016954,0.00015271181473508477
1772656643881433000,2.47243310546875,-0.013591351918876171,-0.0024433890357613564,-0.0004581354442052543
1772656643891312000,2.48231201171875,-0.014813045971095562,-0.0024433890357613564,0.00015271181473508477
1772656643901191200,2.492191162109375,-0.014813045971095562,-0.0030542362947016954,-0.0010689827613532543
1772656643911070200,2.5020703125,-0.014202198944985867,-0.0024433890357613564,-0.0004581354442052543
1772656643920949200,2.51194921875,-0.014813045971095562,-0.0024433890357613564,-0.0010689827613532543
1772656643930828500,2.52182861328125,-0.013591351918876171,-0.0030542362947016954,-0.0004581354442052543
1772656643940707600,2.53170751953125,-0.013591351918876171,-0.0036650835536420345,0.00015271181473508477
1772656643950586600,2.541586669921875,-0.014813045971095562,-0.0036650835536420345,-0.0004581354442052543
1772656643960465700,2.551465576171875,-0.014813045971095562,-0.0036650835536420345,0.00015271181473508477
1772656643970344700,2.5613447265625,-0.013591351918876171,-0.0030542362947016954,0.001985253533348441
1772656643980223700,2.5712236328125,-0.016034740954637527,-0.0036650835536420345,0.00015271181473508477
1772656643990102800,2.581102783203125,-0.014813045971095562,-0.0030542362947016954,0.001374406274408102
1772656643999981800,2.59098193359375,-0.015423892997205257,-0.0036650835536420345,-0.0004581354442052543
1772656644009860900,2.60086083984375,-0.014813045971095562,-0.0024433890357613564,-0.0004581354442052543
1772656644019740200,2.610740234375,-0.014813045971095562,-0.0036650835536420345,0.0007635590736754239
1772656644029619200,2.620619140625,-0.015423892997205257,-0.0036650835536420345,0.0007635590736754239
1772656644039498200,2.630498291015625,-0.014813045971095562,-0.0030542362947016954,0.00015271181473508477
1772656644049377300,2.640377197265625,-0.014202198944985867,-0.0030542362947016954,-0.0010689827613532543
1772656644059256300,2.65025634765625,-0.014813045971095562,-0.0030542362947016954,0.0007635590736754239
1772656644069135400,2.66013525390625,-0.014813045971095562,-0.0030542362947016954,-0.0004581354442052543
1772656644079014400,2.670014404296875,-0.015423892997205257,-0.0024433890357613564,-0.0010689827613532543
1772656644088893400,2.6798935546875,-0.014813045971095562,-0.0036650835536420345,0.00015271181473508477
1772656644098772500,2.6897724609375,-0.016034740954637527,-0.0024433890357613564,0.001374406274408102
1772656644108651500,2.699651611328125,-0.014202198944985867,-0.0024433890357613564,0.0007635590736754239
1772656644118530800,2.70953076171875,-0.014813045971095562,-0.0030542362947016954,0.001374406274408102
1772656644128409900,2.719409912109375,-0.015423892997205257,-0.0030542362947016954,0.00015271181473508477
1772656644138289000,2.729288818359375,-0.014813045971095562,-0.0024433890357613564,0.00015271181473508477
1772656644148168000,2.73916796875,-0.014813045971095562,-0.0036650835536420345,0.001985253533348441
1772656644158047000,2.749046875,-0.014813045971095562,-0.0030542362947016954,0.00015271181473508477
1772656644167926000,2.758926025390625,-0.014202198944985867,-0.0030542362947016954,-0.0004581354442052543
1772656644177805000,2.76880517578125,-0.014813045971095562,-0.0036650835536420345,-0.0004581354442052543
1772656644187684000,2.77868408203125,-0.013591351918876171,-0.0030542362947016954,-0.0004581354442052543
1772656644197563100,2.788563232421875,-0.015423892997205257,-0.0036650835536420345,0.00015271181473508477
1772656644207442400,2.7984423828125,-0.014813045971095562,-0.0036650835536420345,0.001985253533348441
1772656644217321500,2.808321533203125,-0.014813045971095562,-0.004275931045413017,0.00015271181473508477
1772656644227200500,2.818200439453125,-0.015423892997205257,-0.0036650835536420345,-0.0004581354442052543
1772656644237079600,2.82807958984375,-0.014813045971095562,-0.0024433890357613564,-0.0004581354442052543
1772656644246958600,2.83795849609375,-0.014813045971095562,-0.0030542362947016954,0.001374406274408102
1772656644256837600,2.847837646484375,-0.014813045971095562,-0.0030542362947016954,0.00015271181473508477
1772656644266716700,2.857716552734375,-0.014813045971095562,-0.0036650835536420345,0.0007635590736754239
1772656644276595700,2.867595703125,-0.016034740954637527,-0.0030542362947016954,0.0007635590736754239
1772656644286474800,2.877474853515625,-0.014813045971095562,-0.0030542362947016954,0.0007635590736754239
1772656644296353800,2.887353759765625,-0.014813045971095562,-0.0024433890357613564,0.0007635590736754239
1772656644306232800,2.89723291015625,-0.014813045971095562,-0.0030542362947016954,0.00015271181473508477
1772656644316112100,2.907112060546875,-0.014202198944985867,-0.0036650835536420345,-0.0010689827613532543
1772656644325991200,2.9169912109375,-0.014813045971095562,-0.0030542362947016954,0.00015271181473508477
1772656644335870200,2.9268701171875,-0.014202198944985867,-0.0036650835536420345,0.00015271181473508477
1772656644345749200,2.936749267578125,-0.016034740954637527,-0.0030542362947016954,-0.0010689827613532543
1772656644355628300,2.946628173828125,-0.015423892997205257,-0.0030542362947016954,-0.0004581354442052543
1772656644365507300,2.95650732421875,-0.015423892997205257,-0.0036650835536420345,0.0007635590736754239
1772656644375386400,2.966386474609375,-0.014813045971095562,-0.004275931045413017,-0.0004581354442052543
1772656644385265400,2.976265380859375,-0.014202198944985867,-0.0030542362947016954,0.00015271181473508477
1772656644395144400,2.98614453125,-0.014202198944985867,-0.0036650835536420345,-0.0004581354442052543
1772656644405023700,2.996023681640625,-0.014813045971095562,-0.0036650835536420345,-0.0010689827613532543
1772656644414902800,3.00590283203125,-0.014202198944985867,-0.004275931045413017,-0.0004581354442052543
1772656644424781800,3.01578173828125,-0.015423892997205257,-0.0036650835536420345,-0.0004581354442052543
1772656644434660900,3.025660888671875,-0.014813045971095562,-0.0036650835536420345,-0.0010689827613532543
1772656644444540000,3.035539794921875,-0.014202198944985867,-0.0030542362947016954,0.00015271181473508477
1772656644454419000,3.0454189453125,-0.014813045971095562,-0.0030542362947016954,-0.0016798300202935934
1772656644464298000,3.055298095703125,-0.014813045971095562,-0.0036650835536420345,0.00015271181473508477
1772656644474177000,3.065177001953125,-0.014813045971095562,-0.0030542362947016954,0.0007635590736754239
1772656644484056000,3.07505615234375,-0.015423892997205257,-0.004275931045413017,-0.0004581354442052543
1772656644493935400,3.084935302734375,-0.014813045971095562,-0.0030542362947016954,0.00015271181473508477
1772656644503814400,3.094814453125,-0.015423892997205257,-0.0030542362947016954,0.001374406274408102
1772656644513693400,3.104693359375,-0.014813045971095562,-0.0036650835536420345,0.00015271181473508477
1772656644523572500,3.114572509765625,-0.014813045971095562,-0.004275931045413017,0.0007635590736754239
1772656644533451500,3.124451416015625,-0.014202198944985867,-0.0030542362947016954,-0.0004581354442052543
1772656644543330600,3.13433056640625,-0.014813045971095562,-0.0036650835536420345,-0.0010689827613532543
1772656644553209600,3.144209716796875,-0.014202198944985867,-0.0036650835536420345,0.00015271181473508477
1772656644563088600,3.154088623046875,-0.014202198944985867,-0.0030542362947016954,0.0007635590736754239
1772656644572967700,3.1639677734375,-0.014813045971095562,-0.0036650835536420345,-0.0010689827613532543
1772656644582847000,3.173846923828125,-0.014813045971095562,-0.0024433890357613564,0.0007635590736754239
1772656644592726000,3.18372607421875,-0.014813045971095562,-0.0024433890357613564,0.0007635590736754239
1772656644602605000,3.19360498046875,-0.014202198944985867,-0.0030542362947016954,0.0007635590736754239
1772656644612484000,3.203484130859375,-0.014813045971095562,-0.0030542362947016954,0.001374406274408102
1772656644622363100,3.213363037109375,-0.014813045971095562,-0.0012216945178806782,0.001985253533348441
1772656644632242200,3.2232421875,-0.014813045971095562,-0.0024433890357613564,0.001374406274408102
1772656644642121200,3.233121337890625,-0.014813045971095562,-0.0012216945178806782,0.0007635590736754239
1772656644652000300,3.243000244140625,-0.014813045971095562,-0.0012216945178806782,0.00259610079228878
1772656644661879300,3.25287939453125,-0.014813045971095562,-0.0018325417768210173,0.001985253533348441
1772656644671758600,3.262758544921875,-0.013591351918876171,-0.0024433890357613564,0.00015271181473508477
1772656644681637600,3.2726376953125,-0.014202198944985867,-0.0030542362947016954,0.001374406274408102
1772656644691516700,3.2825166015625,-0.014813045971095562,-0.0024433890357613564,0.001985253533348441
1772656644701395700,3.292395751953125,-0.014202198944985867,-0.0024433890357613564,0.00015271181473508477
1772656644711274800,3.302274658203125,-0.013591351918876171,-0.0036650835536420345,-0.0004581354442052543
1772656644721153800,3.31215380859375,-0.014813045971095562,-0.0036650835536420345,-0.0004581354442052543
1772656644731032800,3.32203271484375,-0.014813045971095562,-0.0030542362947016954,-0.0004581354442052543
1772656644740911900,3.331911865234375,-0.014202198944985867,-0.0024433890357613564,0.00015271181473508477
1772656644750791000,3.341791015625,-0.014202198944985867,-0.0024433890357613564,-0.0010689827613532543
1772656644760670200,3.351670166015625,-0.016034740954637527,-0.0036650835536420345,-0.0010689827613532543
1772656644770549200,3.36154931640625,-0.014813045971095562,-0.0036650835536420345,0.001374406274408102
1772656644780428300,3.37142822265625,-0.014813045971095562,-0.0030542362947016954,0.0007635590736754239
1772656644790307300,3.381307373046875,-0.015423892997205257,-0.0030542362947016954,-0.0004581354442052543
1772656644800186400,3.391186279296875,-0.014813045971095562,-0.0018325417768210173,0.00015271181473508477
1772656644810065400,3.4010654296875,-0.014813045971095562,-0.0030542362947016954,0.00015271181473508477
1772656644819944400,3.4109443359375,-0.014813045971095562,-0.0024433890357613564,-0.0016798300202935934
1772656644829823500,3.420823486328125,-0.015423892997205257,-0.0024433890357613564,-0.0004581354442052543
1772656644839702800,3.430702880859375,-0.014813045971095562,-0.0030542362947016954,0.001374406274408102
1772656644849581800,3.440581787109375,-0.014202198944985867,-0.0030542362947016954,-0.0004581354442052543
1772656644859460900,3.4504609375,-0.016034740954637527,-0.0030542362947016954,-0.0004581354442052543
1772656644869340000,3.46033984375,-0.014813045971095562,-0.0030542362947016954,0.0007635590736754239
1772656644879219000,3.470218994140625,-0.014813045971095562,-0.0030542362947016954,-0.0004581354442052543
1772656644889098000,3.480097900390625,-0.015423892997205257,-0.0024433890357613564,-0.0004581354442052543
1772656644898977000,3.48997705078125,-0.014813045971095562,-0.004275931045413017,-0.0004581354442052543
1772656644908856000,3.49985595703125,-0.015423892997205257,-0.0030542362947016954,-0.0010689827613532543
1772656644918735400,3.5097353515625,-0.014813045971095562,-0.0036650835536420345,0.0007635590736754239
1772656644928614400,3.519614501953125,-0.014813045971095562,-0.0036650835536420345,-0.0004581354442052543
1772656644938493400,3.529493408203125,-0.015423892997205257,-0.0030542362947016954,0.0007635590736754239
1772656644948372500,3.53937255859375,-0.015423892997205257,-0.0030542362947016954,0.00015271181473508477
1772656644958251500,3.54925146484375,-0.014813045971095562,-0.0030542362947016954,0.0007635590736754239
1772656644968130600,3.559130615234375,-0.014202198944985867,-0.0036650835536420345,0.00015271181473508477
1772656644978009600,3.569009521484375,-0.014813045971095562,-0.0030542362947016954,0.00015271181473508477
1772656644987888600,3.578888671875,-0.016034740954637527,-0.0024433890357613564,-0.0004581354442052543
1772656644997767700,3.588767578125,-0.014813045971095562,-0.0030542362947016954,-0.0004581354442052543
1772656645007647000,3.59864697265625,-0.015423892997205257,-0.0030542362947016954,0.00015271181473508477
1772656645017526000,3.608526123046875,-0.014813045971095562,-0.0024433890357613564,0.0007635590736754239
1772656645027405000,3.618405029296875,-0.015423892997205257,-0.0030542362947016954,-0.0010689827613532543
1772656645037284000,3.6282841796875,-0.014202198944985867,-0.0036650835536420345,0.0007635590736754239
1772656645047163100,3.6381630859375,-0.015423892997205257,-0.0024433890357613564,0.001374406274408102
1772656645057042200,3.648042236328125,-0.014813045971095562,-0.0030542362947016954,0.0007635590736754239
1772656645066921200,3.657921142578125,-0.014202198944985867,-0.0036650835536420345,0.00015271181473508477
1772656645076800300,3.66780029296875,-0.014813045971095562,-0.0030542362947016954,0.00015271181473508477
1772656645086679300,3.67767919921875,-0.014813045971095562,-0.0024433890357613564,0.00015271181473508477
1772656645096558600,3.68755859375,-0.014813045971095562,-0.0024433890357613564,-0.0004581354442052543
1772656645106437600,3.697437744140625,-0.014202198944985867,-0.0030542362947016954,0.00015271181473508477
1772656645116316700,3.707316650390625,-0.014202198944985867,-0.0036650835536420345,0.00015271181473508477
1772656645126195700,3.71719580078125,-0.015423892997205257,-0.0024433890357613564,0.0007635590736754239
1772656645136074800,3.72707470703125,-0.014202198944985867,-0.0036650835536420345,-0.0004581354442052543
1772656645145953800,3.736953857421875,-0.014813045971095562,-0.0024433890357613564,-0.0004581354442052543
1772656645155832800,3.746832763671875,-0.014813045971095562,-0.0030542362947016954,-0.0004581354442052543
1772656645165712000,3.7567119140625,-0.015423892997205257,-0.0024433890357613564,0.00015271181473508477
1772656645175591200,3.766591064453125,-0.015423892997205257,-0.0036650835536420345,0.00015271181473508477
1772656645185470200,3.77647021484375,-0.014813045971095562,-0.0036650835536420345,-0.0010689827613532543
1772656645195349200,3.786349365234375,-0.014813045971095562,-0.004275931045413017,0.00015271181473508477
1772656645205228300,3.796228271484375,-0.014813045971095562,-0.004275931045413017,0.001374406274408102
1772656645215107300,3.806107421875,-0.013591351918876171,-0.0024433890357613564,0.0007635590736754239
1772656645224986400,3.815986328125,-0.014813045971095562,-0.0030542362947016954,0.0007635590736754239
1772656645234865400,3.825865478515625,-0.014202198944985867,-0.0036650835536420345,-0.0004581354442052543
1772656645244744400,3.835744384765625,-0.014202198944985867,-0.0030542362947016954,0.00015271181473508477
1772656645254623700,3.845623779296875,-0.015423892997205257,-0.0036650835536420345,-0.0004581354442052543
1772656645264502800,3.855502685546875,-0.014202198944985867,-0.0036650835536420345,-0.0022906772792339325
1772656645274381800,3.8653818359375,-0.015423892997205257,-0.0036650835536420345,0.00015271181473508477
1772656645284260900,3.8752607421875,-0.015423892997205257,-0.0030542362947016954,-0.0004581354442052543
1772656645294140000,3.885139892578125,-0.015423892997205257,-0.0030542362947016954,0.0007635590736754239
1772656645304019000,3.89501904296875,-0.013591351918876171,-0.0036650835536420345,0.00015271181473508477
1772656645313898000,3.90489794921875,-0.014202198944985867,-0.0030542362947016954,0.00015271181473508477
1772656645323777000,3.914777099609375,-0.014813045971095562,-0.0036650835536420345,0.0007635590736754239
1772656645333656000,3.924656005859375,-0.014202198944985867,-0.0036650835536420345,0.0007635590736754239
1772656645343535400,3.934535400390625,-0.015423892997205257,-0.0030542362947016954,-0.0004581354442052543
1772656645353414400,3.944414306640625,-0.015423892997205257,-0.0036650835536420345,0.0007635590736754239
1772656645363293400,3.95429345703125,-0.014202198944985867,-0.0030542362947016954,0.0007635590736754239
1772656645373172500,3.96417236328125,-0.014813045971095562,-0.0030542362947016954,0.001374406274408102
1772656645383051500,3.974051513671875,-0.014813045971095562,-0.0030542362947016954,-0.0010689827613532543
1772656645392930600,3.9839306640625,-0.015423892997205257,-0.0024433890357613564,-0.0010689827613532543
1772656645402809600,3.9938095703125,-0.015423892997205257,-0.004275931045413017,0.00015271181473508477
1772656645412689000,4.00368896484375,-0.014813045971095562,-0.004275931045413017,-0.0004581354442052543
1772656645422568000,4.01356787109375,-0.014813045971095562,-0.0024433890357613564,0.00015271181473508477
1772656645432447000,4.023447021484375,-0.014813045971095562,-0.0030542362947016954,-0.0004581354442052543
1772656645442326000,4.033325927734375,-0.014813045971095562,-0.0030542362947016954,0.00015271181473508477
1772656645452205000,4.043205078125,-0.015423892997205257,-0.0030542362947016954,0.00015271181473508477
1772656645462084000,4.053083984375,-0.013591351918876171,-0.0030542362947016954,0.00015271181473508477
1772656645471963100,4.062963134765625,-0.014813045971095562,-0.0030542362947016954,-0.0010689827613532543
1772656645481842200,4.07284228515625,-0.015423892997205257,-0.0036650835536420345,0.00015271181473508477
1772656645491721200,4.08272119140625,-0.015423892997205257,-0.0036650835536420345,0.00015271181473508477
1772656645501600500,4.0926005859375,-0.014813045971095562,-0.0036650835536420345,-0.0004581354442052543
1772656645511479600,4.1024794921875,-0.015423892997205257,-0.0030542362947016954,-0.0004581354442052543
1772656645521358600,4.112358642578125,-0.014813045971095562,-0.0030542362947016954,0.0007635590736754239
1772656645531237600,4.122237548828125,-0.014813045971095562,-0.0036650835536420345,0.00015271181473508477
1772656645541116700,4.13211669921875,-0.015423892997205257,-0.004275931045413017,-0.0004581354442052543
1772656645550995700,4.14199560546875,-0.014813045971095562,-0.0036650835536420345,0.00015271181473508477
1772656645560874800,4.151874755859375,-0.015423892997205257,-0.0030542362947016954,0.00015271181473508477
1772656645570753800,4.16175390625,-0.014202198944985867,-0.0024433890357613564,0.0007635590736754239
1772656645580633000,4.171633056640625,-0.015423892997205257,-0.004275931045413017,-0.0004581354442052543
1772656645590512000,4.18151220703125,-0.014813045971095562,-0.0036650835536420345,-0.0004581354442052543
1772656645600391200,4.19139111328125,-0.014202198944985867,-0.0030542362947016954,-0.0004581354442052543
1772656645610270200,4.201270263671875,-0.014202198944985867,-0.0024433890357613564,-0.0004581354442052543
1772656645620149200,4.211149169921875,-0.014813045971095562,-0.0024433890357613564,-0.0004581354442052543
1772656645630028300,4.2210283203125,-0.016034740954637527,-0.0030542362947016954,-0.0004581354442052543
1772656645639907300,4.2309072265625,-0.014813045971095562,-0.0030542362947016954,-0.0004581354442052543
1772656645649786400,4.240786376953125,-0.014202198944985867,-0.0036650835536420345,0.00015271181473508477
1772656645659665700,4.250665771484375,-0.013591351918876171,-0.0030542362947016954,0.00015271181473508477
1772656645669544700,4.260544677734375,-0.016034740954637527,-0.0036650835536420345,0.00015271181473508477
1772656645679423700,4.270423828125,-0.015423892997205257,-0.0030542362947016954,0.00015271181473508477
1772656645689302800,4.280302734375,-0.014202198944985867,-0.0024433890357613564,0.0007635590736754239
1772656645699181800,4.290181884765625,-0.014813045971095562,-0.0036650835536420345,0.00015271181473508477
1772656645709060900,4.300060791015625,-0.014813045971095562,-0.0030542362947016954,0.00015271181473508477
1772656645718940000,4.30993994140625,-0.016034740954637527,-0.0024433890357613564,-0.0004581354442052543
1772656645728819000,4.31981884765625,-0.015423892997205257,-0.0024433890357613564,0.00015271181473508477
1772656645738698200,4.3296982421875,-0.015423892997205257,-0.0018325417768210173,0.0007635590736754239
1772656645748577300,4.339577392578125,-0.014813045971095562,-0.0024433890357613564,-0.0004581354442052543
1772656645758456300,4.349456298828125,-0.014813045971095562,-0.0036650835536420345,0.00015271181473508477
1772656645768335400,4.35933544921875,-0.014813045971095562,-0.0030542362947016954,0.00015271181473508477
1772656645778214400,4.36921435546875,-0.014813045971095562,-0.0024433890357613564,-0.0010689827613532543
1772656645788093400,4.379093505859375,-0.014813045971095562,-0.0024433890357613564,-0.0004581354442052543
1772656645797972500,4.388972412109375,-0.014813045971095562,-0.0036650835536420345,0.0007635590736754239
1772656645807851500,4.3988515625,-0.015423892997205257,-0.0036650835536420345,-0.0004581354442052543
1772656645817730800,4.408730712890625,-0.014202198944985867,-0.0030542362947016954,0.00015271181473508477
1772656645827609900,4.41860986328125,-0.013591351918876171,-0.0036650835536420345,0.00015271181473508477
1772656645837489000,4.428489013671875,-0.015423892997205257,-0.0030542362947016954,-0.0004581354442052543
1772656645847368000,4.438367919921875,-0.015423892997205257,-0.0018325417768210173,0.0007635590736754239
1772656645857247000,4.4482470703125,-0.015423892997205257,-0.0024433890357613564,-0.0004581354442052543
1772656645867126000,4.4581259765625,-0.014202198944985867,-0.0030542362947016954,0.0007635590736754239
1772656645877005000,4.468005126953125,-0.014813045971095562,-0.0024433890357613564,0.00015271181473508477
1772656645886884400,4.47788427734375,-0.015423892997205257,-0.0036650835536420345,-0.0004581354442052543
1772656645896763400,4.487763427734375,-0.014813045971095562,-0.0030542362947016954,0.0007635590736754239
1772656645906642400,4.497642333984375,-0.016034740954637527,-0.0030542362947016954,0.001374406274408102
1772656645916521500,4.507521484375,-0.014202198944985867,-0.0024433890357613564,0.00015271181473508477
1772656645926400500,4.517400390625,-0.014813045971095562,-0.0024433890357613564,0.00015271181473508477
1772656645936279600,4.527279541015625,-0.013591351918876171,-0.0036650835536420345,0.0007635590736754239
1772656645946158600,4.53715869140625,-0.014202198944985867,-0.0036650835536420345,0.0007635590736754239
1772656645956037600,4.54703759765625,-0.014202198944985867,-0.004275931045413017,-0.0004581354442052543
1772656645965917000,4.5569169921875,-0.016034740954637527,-0.0030542362947016954,0.00015271181473508477
1772656645975796000,4.5667958984375,-0.014813045971095562,-0.0036650835536420345,0.00015271181473508477
1772656645985675000,4.576675048828125,-0.014813045971095562,-0.0024433890357613564,0.0007635590736754239
1772656645995554000,4.586553955078125,-0.014813045971095562,-0.0024433890357613564,0.00015271181473508477
1772656646005433000,4.59643310546875,-0.015423892997205257,-0.0024433890357613564,0.00015271181473508477
1772656646015312100,4.60631201171875,-0.015423892997205257,-0.0024433890357613564,0.0007635590736754239
1772656646025191200,4.616191162109375,-0.014202198944985867,-0.0024433890357613564,-0.0004581354442052543
1772656646035070200,4.6260703125,-0.014813045971095562,-0.0030542362947016954,0.001374406274408102
1772656646044949500,4.635949462890625,-0.015423892997205257,-0.0036650835536420345,-0.0010689827613532543
1772656646054828500,4.64582861328125,-0.016034740954637527,-0.0036650835536420345,0.00015271181473508477
1772656646064707600,4.65570751953125,-0.015423892997205257,-0.0030542362947016954,0.00015271181473508477
1772656646074586600,4.665586669921875,-0.014813045971095562,-0.0036650835536420345,0.00015271181473508477
1772656646084465700,4.675465576171875,-0.014813045971095562,-0.0036650835536420345,-0.0010689827613532543
1772656646094344700,4.6853447265625,-0.014813045971095562,-0.0036650835536420345,0.0007635590736754239
1772656646104223700,4.6952236328125,-0.015423892997205257,-0.0030542362947016954,-0.0004581354442052543
1772656646114102800,4.705102783203125,-0.015423892997205257,-0.0036650835536420345,-0.0010689827613532543
1772656646123982000,4.714982177734375,-0.014813045971095562,-0.0024433890357613564,-0.0004581354442052543
1772656646133861000,4.724861083984375,-0.014202198944985867,-0.0030542362947016954,0.00015271181473508477
1772656646143740200,4.734740234375,-0.014202198944985867,-0.0030542362947016954,-0.0004581354442052543
1772656646153619200,4.744619140625,-0.014813045971095562,-0.0036650835536420345,0.0007635590736754239
1772656646163498200,4.754498291015625,-0.015423892997205257,-0.0024433890357613564,0.0007635590736754239
1772656646173377300,4.764377197265625,-0.016034740954637527,-0.0030542362947016954,-0.0004581354442052543
1772656646183256300,4.77425634765625,-0.015423892997205257,-0.0036650835536420345,0.00015271181473508477
1772656646193135600,4.784135498046875,-0.014813045971095562,-0.0036650835536420345,-0.0016798300202935934
1772656646203014700,4.7940146484375,-0.014202198944985867,-0.0036650835536420345,0.00015271181473508477
1772656646212893700,4.803893798828125,-0.014202198944985867,-0.0030542362947016954,-0.0010689827613532543
1772656646222772700,4.813772705078125,-0.014813045971095562,-0.0036650835536420345,0.00015271181473508477
1772656646232651800,4.82365185546875,-0.014813045971095562,-0.0036650835536420345,0.0007635590736754239
1772656646242530800,4.83353076171875,-0.014202198944985867,-0.0030542362947016954,-0.0010689827613532543
1772656646252409900,4.843409912109375,-0.014813045971095562,-0.0036650835536420345,0.00015271181473508477
1772656646262289000,4.853288818359375,-0.015423892997205257,-0.0036650835536420345,0.00015271181473508477
1772656646272168000,4.86316796875,-0.015423892997205257,-0.0030542362947016954,0.00015271181473508477
1772656646282047200,4.873047119140625,-0.014202198944985867,-0.0024433890357613564,0.00015271181473508477
1772656646291926300,4.88292626953125,-0.014813045971095562,-0.0030542362947016954,0.00015271181473508477
1772656646301805300,4.892805419921875,-0.015423892997205257,-0.0036650835536420345,-0.0004581354442052543
1772656646311684400,4.902684326171875,-0.015423892997205257,-0.004275931045413017,0.001374406274408102
1772656646321563400,4.9125634765625,-0.016034740954637527,-0.0036650835536420345,0.0007635590736754239
1772656646331442400,4.9224423828125,-0.014202198944985867,-0.0024433890357613564,0.00015271181473508477
1772656646341321500,4.932321533203125,-0.014813045971095562,-0.0036650835536420345,0.00015271181473508477
1772656646351200800,4.94220068359375,-0.014202198944985867,-0.0030542362947016954,0.0007635590736754239
1772656646361079800,4.952079833984375,-0.014202198944985867,-0.0024433890357613564,0.0007635590736754239
1772656646370958800,4.961958740234375,-0.014813045971095562,-0.0024433890357613564,0.00015271181473508477
1772656646380838000,4.971837890625,-0.014813045971095562,-0.0030542362947016954,-0.0004581354442052543
1772656646390717000,4.981717041015625,-0.014202198944985867,-0.0030542362947016954,0.00015271181473508477
1772656646400596000,4.991595947265625,-0.014202198944985867,-0.0036650835536420345,-0.0004581354442052543
1772656646410475000,5.00147509765625,-0.015423892997205257,-0.0030542362947016954,0.00015271181473508477
1772656646420354000,5.01135400390625,-0.014813045971095562,-0.0036650835536420345,0.00015271181473508477
1772656646430233000,5.021233154296875,-0.014813045971095562,-0.0036650835536420345,-0.0010689827613532543
1772656646440112400,5.0311123046875,-0.014202198944985867,-0.0024433890357613564,-0.0004581354442052543
1772656646449991400,5.040991455078125,-0.015423892997205257,-0.0036650835536420345,-0.0004581354442052543
1772656646459870500,5.050870361328125,-0.014813045971095562,-0.0030542362947016954,0.00015271181473508477
1772656646469749500,5.06074951171875,-0.014813045971095562,-0.0024433890357613564,0.0007635590736754239
1772656646479628500,5.070628662109375,-0.015423892997205257,-0.0024433890357613564,-0.0004581354442052543
1772656646489507600,5.080507568359375,-0.014813045971095562,-0.0036650835536420345,0.0007635590736754239
1772656646499386600,5.09038671875,-0.014813045971095562,-0.0024433890357613564,0.00015271181473508477
1772656646509266000,5.100265869140625,-0.015423892997205257,-0.0030542362947016954,0.0007635590736754239
1772656646519145000,5.11014501953125,-0.014813045971095562,-0.0036650835536420345,0.0007635590736754239
1772656646529024000,5.12002392578125,-0.015423892997205257,-0.0030542362947016954,0.001374406274408102
1772656646538903000,5.129903076171875,-0.015423892997205257,-0.004275931045413017,-0.0010689827613532543
1772656646548782000,5.139781982421875,-0.014813045971095562,-0.0030542362947016954,0.00015271181473508477
1772656646558661000,5.1496611328125,-0.014813045971095562,-0.0036650835536420345,-0.0010689827613532543
1772656646568540200,5.1595400390625,-0.014202198944985867,-0.0036650835536420345,-0.0004581354442052543
1772656646578419200,5.169419189453125,-0.014202198944985867,-0.0030542362947016954,0.00015271181473508477
1772656646588298200,5.17929833984375,-0.015423892997205257,-0.0036650835536420345,0.0007635590736754239
1772656646598177500,5.189177490234375,-0.014813045971095562,-0.0030542362947016954,0.0007635590736754239
1772656646608056600,5.199056640625,-0.014813045971095562,-0.0036650835536420345,0.0007635590736754239
1772656646617935600,5.208935546875,-0.015423892997205257,-0.0030542362947016954,0.00015271181473508477
1772656646627814700,5.218814697265625,-0.014202198944985867,-0.0030542362947016954,-0.0004581354442052543
1772656646637693700,5.228693603515625,-0.014813045971095562,-0.0024433890357613564,-0.0004581354442052543
1772656646647572700,5.23857275390625,-0.015423892997205257,-0.0030542362947016954,0.00015271181473508477
1772656646657452000,5.2484521484375,-0.015423892997205257,-0.0036650835536420345,0.00015271181473508477
1772656646667331000,5.2583310546875,-0.015423892997205257,-0.0036650835536420345,-0.0004581354442052543
1772656646677210000,5.268210205078125,-0.014813045971095562,-0.0024433890357613564,-0.0004581354442052543
1772656646687089200,5.278089111328125,-0.013591351918876171,-0.0030542362947016954,0.00015271181473508477
1772656646696968200,5.28796826171875,-0.014813045971095562,-0.0030542362947016954,-0.0010689827613532543
1772656646706847200,5.29784716796875,-0.015423892997205257,-0.0036650835536420345,0.00015271181473508477
1772656646716726300,5.307726318359375,-0.016034740954637527,-0.0036650835536420345,0.0007635590736754239
1772656646726605300,5.317605224609375,-0.013591351918876171,-0.0036650835536420345,0.0007635590736754239
1772656646736484400,5.327484375,-0.015423892997205257,-0.0024433890357613564,0.0007635590736754239
1772656646746363600,5.33736376953125,-0.014813045971095562,-0.0030542362947016954,-0.0004581354442052543
1772656646756242700,5.34724267578125,-0.014202198944985867,-0.0030542362947016954,0.00015271181473508477
1772656646766121700,5.357121826171875,-0.014202198944985867,-0.0024433890357613564,0.001985253533348441
1772656646776000800,5.367000732421875,-0.014813045971095562,-0.0024433890357613564,0.00015271181473508477
1772656646785879800,5.3768798828125,-0.014813045971095562,-0.0024433890357613564,0.00015271181473508477
1772656646795758800,5.3867587890625,-0.014202198944985867,-0.0030542362947016954,-0.0010689827613532543
1772656646805638000,5.396637939453125,-0.013591351918876171,-0.0024433890357613564,-0.0004581354442052543
1772656646815517000,5.406516845703125,-0.014813045971095562,-0.0030542362947016954,-0.0004581354442052543
1772656646825396200,5.416396240234375,-0.015423892997205257,-0.0024433890357613564,0.0007635590736754239
1772656646835275300,5.426275146484375,-0.015423892997205257,-0.0030542362947016954,0.001374406274408102
1772656646845154300,5.436154296875,-0.014813045971095562,-0.0036650835536420345,-0.0004581354442052543
1772656646855033300,5.446033447265625,-0.014813045971095562,-0.0030542362947016954,0.00015271181473508477
1772656646864912400,5.455912353515625,-0.014813045971095562,-0.0024433890357613564,-0.0010689827613532543
1772656646874791400,5.46579150390625,-0.013591351918876171,-0.0030542362947016954,-0.0004581354442052543
1772656646884670500,5.47567041015625,-0.014813045971095562,-0.0030542362947016954,-0.0010689827613532543
1772656646894549500,5.485549560546875,-0.014202198944985867,-0.0030542362947016954,-0.0004581354442052543
1772656646904428800,5.4954287109375,-0.014202198944985867,-0.0030542362947016954,-0.0010689827613532543
1772656646914307800,5.505307861328125,-0.014813045971095562,-0.0030542362947016954,0.00015271181473508477
1772656646924187000,5.515186767578125,-0.014202198944985867,-0.0030542362947016954,-0.0010689827613532543
1772656646934066000,5.52506591796875,-0.014813045971095562,-0.0036650835536420345,0.00015271181473508477
1772656646943945000,5.534945068359375,-0.014202198944985867,-0.0036650835536420345,0.0007635590736754239
1772656646953824000,5.544823974609375,-0.016034740954637527,-0.0036650835536420345,0.00015271181473508477
1772656646963703000,5.554703125,-0.015423892997205257,-0.0024433890357613564,0.0007635590736754239
1772656646973582000,5.56458203125,-0.014813045971095562,-0.004275931045413017,0.00015271181473508477
1772656646983461000,5.574461181640625,-0.014813045971095562,-0.0036650835536420345,-0.0004581354442052543
1772656646993340400,5.58434033203125,-0.014202198944985867,-0.0036650835536420345,0.00015271181473508477
1772656647003219500,5.594219482421875,-0.014813045971095562,-0.0036650835536420345,0.00015271181473508477
1772656647013098500,5.604098388671875,-0.016034740954637527,-0.0036650835536420345,0.00015271181473508477
1772656647022977500,5.6139775390625,-0.014813045971095562,-0.0024433890357613564,0.00015271181473508477
1772656647032856600,5.623856689453125,-0.016034740954637527,-0.0030542362947016954,0.0007635590736754239
1772656647042735600,5.633735595703125,-0.014813045971095562,-0.0036650835536420345,-0.0010689827613532543
1772656647052614700,5.64361474609375,-0.015423892997205257,-0.0036650835536420345,0.00015271181473508477
1772656647062494000,5.653493896484375,-0.014813045971095562,-0.0024433890357613564,0.00015271181473508477
1772656647072373000,5.663373046875,-0.015423892997205257,-0.0036650835536420345,-0.0004581354442052543
1772656647082252000,5.673251953125,-0.014202198944985867,-0.0036650835536420345,-0.0004581354442052543
1772656647092131000,5.683131103515625,-0.014813045971095562,-0.0030542362947016954,-0.0004581354442052543
1772656647102010000,5.693010009765625,-0.016034740954637527,-0.0030542362947016954,-0.0004581354442052543
1772656647111889200,5.70288916015625,-0.014202198944985867,-0.0036650835536420345,-0.0004581354442052543
1772656647121768200,5.712768310546875,-0.014813045971095562,-0.0036650835536420345,0.0007635590736754239
1772656647131647200,5.722647216796875,-0.014813045971095562,-0.0024433890357613564,-0.0004581354442052543
1772656647141526300,5.7325263671875,-0.014813045971095562,-0.0030542362947016954,0.00015271181473508477
1772656647151405600,5.742405517578125,-0.014813045971095562,-0.0036650835536420345,0.00015271181473508477
1772656647161284600,5.75228466796875,-0.014813045971095562,-0.004275931045413017,-0.0004581354442052543
1772656647171163600,5.76216357421875,-0.014813045971095562,-0.0030542362947016954,0.001374406274408102
1772656647181042700,5.772042724609375,-0.015423892997205257,-0.004275931045413017,0.00015271181473508477
1772656647190921700,5.781921630859375,-0.014202198944985867,-0.0030542362947016954,-0.0004581354442052543
1772656647200800800,5.79180078125,-0.014813045971095562,-0.0036650835536420345,0.0007635590736754239
1772656647210679800,5.8016796875,-0.014813045971095562,-0.0024433890357613564,-0.0010689827613532543
1772656647220558800,5.811558837890625,-0.015423892997205257,-0.0030542362947016954,-0.0016798300202935934
1772656647230438000,5.82143798828125,-0.015423892997205257,-0.0036650835536420345,0.00015271181473508477
1772656647240317200,5.831317138671875,-0.015423892997205257,-0.0024433890357613564,-0.0004581354442052543
1772656647250196200,5.8411962890625,-0.014202198944985867,-0.0030542362947016954,-0.0010689827613532543
1772656647260075300,5.8510751953125,-0.014202198944985867,-0.0036650835536420345,0.0007635590736754239
1772656647269954300,5.860954345703125,-0.015423892997205257,-0.0030542362947016954,-0.0004581354442052543
1772656647279833300,5.870833251953125,-0.014202198944985867,-0.0030542362947016954,-0.0004581354442052543
1772656647289712400,5.88071240234375,-0.015423892997205257,-0.0030542362947016954,-0.0004581354442052543
1772656647299591400,5.89059130859375,-0.014202198944985867,-0.0030542362947016954,-0.0004581354442052543
1772656647309470500,5.900470458984375,-0.014813045971095562,-0.0030542362947016954,0.00015271181473508477
1772656647319349500,5.910349609375,-0.015423892997205257,-0.0030542362947016954,0.00015271181473508477
1772656647329228800,5.920228759765625,-0.014813045971095562,-0.0036650835536420345,0.001374406274408102
1772656647339107800,5.93010791015625,-0.014813045971095562,-0.0030542362947016954,0.0007635590736754239
1772656647348987000,5.93998681640625,-0.014813045971095562,-0.0024433890357613564,0.0007635590736754239
1772656647358866000,5.949865966796875,-0.015423892997205257,-0.0036650835536420345,0.00015271181473508477
1772656647368745000,5.959744873046875,-0.015423892997205257,-0.0018325417768210173,-0.0004581354442052543
1772656647378624000,5.9696240234375,-0.015423892997205257,-0.0024433890357613564,0.00015271181473508477
1772656647388503000,5.9795029296875,-0.014813045971095562,-0.0030542362947016954,0.00015271181473508477
1772656647398382000,5.989382080078125,-0.014813045971095562,-0.0036650835536420345,0.00015271181473508477
1772656647408261000,5.99926123046875,-0.015423892997205257,-0.0036650835536420345,-0.0004581354442052543
1772656647418140400,6.009140380859375,-0.014202198944985867,-0.0036650835536420345,0.00015271181473508477
1772656647428019500,6.01901953125,-0.014813045971095562,-0.0024433890357613564,-0.0004581354442052543
1772656647437898500,6.0288984375,-0.014813045971095562,-0.0024433890357613564,-0.0004581354442052543
1772656647447777500,6.038777587890625,-0.015423892997205257,-0.0024433890357613564,-0.0004581354442052543
1772656647457656600,6.048656494140625,-0.015423892997205257,-0.0030542362947016954,0.00015271181473508477
1772656647467535600,6.05853564453125,-0.016034740954637527,-0.0036650835536420345,-0.0004581354442052543
1772656647477414700,6.06841455078125,-0.016034740954637527,-0.0036650835536420345,0.001985253533348441
1772656647487293700,6.078293701171875,-0.015423892997205257,-0.0036650835536420345,0.00015271181473508477
1772656647497172700,6.0881728515625,-0.014813045971095562,-0.0030542362947016954,-0.0004581354442052543
1772656647507052000,6.098052001953125,-0.014813045971095562,-0.0036650835536420345,0.00015271181473508477
1772656647516931000,6.10793115234375,-0.014202198944985867,-0.0030542362947016954,-0.0004581354442052543
1772656647526810000,6.11781005859375,-0.014202198944985867,-0.0036650835536420345,-0.0004581354442052543
1772656647536689200,6.127689208984375,-0.014813045971095562,-0.0030542362947016954,0.00015271181473508477
1772656647546568200,6.137568115234375,-0.015423892997205257,-0.0030542362947016954,-0.0010689827613532543
1772656647556447200,6.147447265625,-0.014202198944985867,-0.0024433890357613564,0.00015271181473508477
1772656647566326300,6.157326171875,-0.014813045971095562,-0.0036650835536420345,0.00015271181473508477
1772656647576205300,6.167205322265625,-0.014813045971095562,-0.0036650835536420345,0.00015271181473508477
1772656647586084400,6.17708447265625,-0.014813045971095562,-0.0036650835536420345,0.00015271181473508477
1772656647595963600,6.186963623046875,-0.014813045971095562,-0.0030542362947016954,0.0007635590736754239
1772656647605842700,6.1968427734375,-0.015423892997205257,-0.0030542362947016954,0.00015271181473508477
1772656647615721700,6.2067216796875,-0.015423892997205257,-0.004275931045413017,0.00015271181473508477
1772656647625600800,6.216600830078125,-0.014813045971095562,-0.0030542362947016954,0.00015271181473508477
1772656647635479800,6.226479736328125,-0.015423892997205257,-0.0036650835536420345,0.00015271181473508477
1772656647645358800,6.23635888671875,-0.015423892997205257,-0.0036650835536420345,-0.0004581354442052543
1772656647655238000,6.24623779296875,-0.015423892997205257,-0.0030542362947016954,0.00015271181473508477
1772656647665117000,6.256116943359375,-0.016034740954637527,-0.0036650835536420345,0.0007635590736754239
1772656647674996000,6.265995849609375,-0.014202198944985867,-0.0030542362947016954,0.00015271181473508477
1772656647684875300,6.275875244140625,-0.014813045971095562,-0.0030542362947016954,0.00015271181473508477
1772656647694754300,6.28575439453125,-0.014202198944985867,-0.0030542362947016954,-0.0004581354442052543
1772656647704633300,6.29563330078125,-0.015423892997205257,-0.0030542362947016954,-0.0004581354442052543
1772656647714512400,6.305512451171875,-0.014813045971095562,-0.0036650835536420345,-0.0004581354442052543
1772656647724391400,6.315391357421875,-0.015423892997205257,-0.0024433890357613564,-0.0004581354442052543
1772656647734270500,6.3252705078125,-0.016034740954637527,-0.0024433890357613564,0.0007635590736754239
1772656647744149500,6.3351494140625,-0.014813045971095562,-0.0030542362947016954,-0.0004581354442052543
1772656647754028500,6.345028564453125,-0.014813045971095562,-0.0024433890357613564,-0.0004581354442052543
1772656647763907600,6.354907470703125,-0.014813045971095562,-0.0024433890357613564,-0.0004581354442052543
1772656647773786600,6.36478662109375,-0.015423892997205257,-0.0036650835536420345,0.0007635590736754239
1772656647783666000,6.374666015625,-0.014813045971095562,-0.004275931045413017,-0.0004581354442052543
1772656647793545000,6.384544921875,-0.014813045971095562,-0.004275931045413017,0.00015271181473508477
1772656647803424000,6.394424072265625,-0.015423892997205257,-0.0036650835536420345,0.0007635590736754239
1772656647813303000,6.404302978515625,-0.015423892997205257,-0.0030542362947016954,0.00015271181473508477
1772656647823182000,6.41418212890625,-0.015423892997205257,-0.0036650835536420345,-0.0004581354442052543
1772656647833061000,6.42406103515625,-0.014202198944985867,-0.004275931045413017,0.00015271181473508477
1772656647842940200,6.433940185546875,-0.014813045971095562,-0.0012216945178806782,0.0007635590736754239
1772656647852819200,6.443819091796875,-0.014813045971095562,-0.0030542362947016954,-0.0004581354442052543
1772656647862698200,6.4536982421875,-0.014813045971095562,-0.0030542362947016954,0.00015271181473508477
1772656647872577500,6.46357763671875,-0.014202198944985867,-0.0036650835536420345,-0.0004581354442052543
1772656647882456600,6.47345654296875,-0.015423892997205257,-0.0030542362947016954,-0.0016798300202935934
1772656647892335600,6.483335693359375,-0.015423892997205257,-0.0036650835536420345,0.00015271181473508477
1772656647902214700,6.493214599609375,-0.015423892997205257,-0.0030542362947016954,0.001374406274408102
1772656647912093700,6.50309375,-0.014813045971095562,-0.0036650835536420345,-0.0004581354442052543
1772656647921972700,6.51297265625,-0.015423892997205257,-0.0018325417768210173,-0.0004581354442052543
1772656647931851800,6.522851806640625,-0.015423892997205257,-0.0024433890357613564,-0.0004581354442052543
1772656647941730800,6.532730712890625,-0.013591351918876171,-0.0036650835536420345,0.0007635590736754239
1772656647951609900,6.54260986328125,-0.014202198944985867,-0.0036650835536420345,-0.0010689827613532543
1772656647961489000,6.552489013671875,-0.013591351918876171,-0.0030542362947016954,-0.0010689827613532543
1772656647971368000,6.562367919921875,-0.014813045971095562,-0.0030542362947016954,-0.0010689827613532543
1772656647981247200,6.572247314453125,-0.014813045971095562,-0.0036650835536420345,0.00015271181473508477
1772656647991126300,6.582126220703125,-0.014813045971095562,-0.0030542362947016954,0.00015271181473508477
1772656648001005300,6.59200537109375,-0.014813045971095562,-0.004275931045413017,0.00015271181473508477
1772656648010884400,6.60188427734375,-0.014202198944985867,-0.004886778071522713,0.00015271181473508477
1772656648020763400,6.611763427734375,-0.014202198944985867,-0.0036650835536420345,0.00015271181473508477
1772656648030642400,6.621642333984375,-0.014813045971095562,-0.0030542362947016954,-0.0004581354442052543
1772656648040521500,6.631521484375,-0.015423892997205257,-0.0030542362947016954,0.00015271181473508477
1772656648050400500,6.641400390625,-0.013591351918876171,-0.0030542362947016954,0.0007635590736754239
1772656648060279600,6.651279541015625,-0.014813045971095562,-0.0036650835536420345,-0.0004581354442052543
1772656648070158800,6.661158935546875,-0.014813045971095562,-0.0030542362947016954,0.0007635590736754239
1772656648080038000,6.671037841796875,-0.014813045971095562,-0.0030542362947016954,0.00015271181473508477
1772656648089917000,6.6809169921875,-0.014813045971095562,-0.0036650835536420345,0.0007635590736754239
1772656648099796000,6.6907958984375,-0.014202198944985867,-0.0030542362947016954,-0.0004581354442052543
1772656648109675000,6.700675048828125,-0.014813045971095562,-0.0030542362947016954,-0.0004581354442052543
1772656648119554000,6.710553955078125,-0.014813045971095562,-0.0036650835536420345,-0.0010689827613532543
1772656648129433000,6.72043310546875,-0.014202198944985867,-0.0036650835536420345,0.001374406274408102
1772656648139312000,6.73031201171875,-0.014813045971095562,-0.0036650835536420345,0.00015271181473508477
1772656648149191200,6.740191162109375,-0.015423892997205257,-0.004275931045413017,0.00015271181473508477
1772656648159070200,6.7500703125,-0.016034740954637527,-0.0036650835536420345,-0.0004581354442052543
1772656648168949200,6.75994921875,-0.014202198944985867,-0.0030542362947016954,0.0007635590736754239
1772656648178828500,6.76982861328125,-0.014202198944985867,-0.0024433890357613564,0.00015271181473508477
1772656648188707600,6.77970751953125,-0.014813045971095562,-0.0030542362947016954,-0.0004581354442052543
1772656648198586600,6.789586669921875,-0.014202198944985867,-0.0036650835536420345,0.00015271181473508477
1772656648208465700,6.799465576171875,-0.014813045971095562,-0.0036650835536420345,0.00015271181473508477
1772656648218344700,6.8093447265625,-0.014813045971095562,-0.0030542362947016954,-0.0004581354442052543
1772656648228223700,6.8192236328125,-0.014813045971095562,-0.0036650835536420345,-0.0004581354442052543
1772656648238102800,6.829102783203125,-0.014202198944985867,-0.0036650835536420345,-0.0010689827613532543
1772656648247981800,6.83898193359375,-0.014813045971095562,-0.0036650835536420345,0.00015271181473508477
1772656648257860900,6.84886083984375,-0.014813045971095562,-0.0024433890357613564,0.00015271181473508477
1772656648267740200,6.858740234375,-0.015423892997205257,-0.0036650835536420345,-0.0004581354442052543
1772656648277619200,6.868619140625,-0.014813045971095562,-0.0030542362947016954,-0.0010689827613532543
1772656648287498200,6.878498291015625,-0.014813045971095562,-0.0036650835536420345,-0.0004581354442052543
1772656648297377300,6.888377197265625,-0.014813045971095562,-0.0036650835536420345,0.0007635590736754239
1772656648307256300,6.89825634765625,-0.014202198944985867,-0.0024433890357613564,0.0007635590736754239
1772656648317135400,6.90813525390625,-0.014202198944985867,-0.004275931045413017,0.0007635590736754239
1772656648327014400,6.918014404296875,-0.014813045971095562,-0.0030542362947016954,0.001374406274408102
1772656648336893400,6.9278935546875,-0.015423892997205257,-0.0024433890357613564,0.001374406274408102
1772656648346772500,6.9377724609375,-0.014813045971095562,-0.0030542362947016954,0.001374406274408102
1772656648356651500,6.947651611328125,-0.016034740954637527,-0.0036650835536420345,-0.0004581354442052543
1772656648366530600,6.957530517578125,-0.015423892997205257,-0.004275931045413017,0.0007635590736754239
1772656648376409600,6.96740966796875,-0.014813045971095562,-0.0030542362947016954,-0.0004581354442052543
1772656648386289000,6.977288818359375,-0.014813045971095562,-0.0030542362947016954,-0.0016798300202935934
1772656648396168000,6.98716796875,-0.015423892997205257,-0.0030542362947016954,-0.0010689827613532543
1772656648406047000,6.997046875,-0.015423892997205257,-0.0030542362947016954,0.0007635590736754239
1772656648415926000,7.006926025390625,-0.015423892997205257,-0.0024433890357613564,-0.0010689827613532543
1772656648425805000,7.01680517578125,-0.014813045971095562,-0.0024433890357613564,-0.0010689827613532543
1772656648435684000,7.02668408203125,-0.014813045971095562,-0.004275931045413017,-0.0004581354442052543
1772656648445563100,7.036563232421875,-0.014813045971095562,-0.0036650835536420345,0.0007635590736754239
1772656648455442200,7.046442138671875,-0.015423892997205257,-0.0030542362947016954,0.00015271181473508477
1772656648465321200,7.0563212890625,-0.015423892997205257,-0.004275931045413017,0.00015271181473508477
1772656648475200300,7.0662001953125,-0.014813045971095562,-0.0030542362947016954,-0.0004581354442052543
1772656648485079300,7.076079345703125,-0.016034740954637527,-0.0036650835536420345,0.00015271181473508477
1772656648494958600,7.08595849609375,-0.014813045971095562,-0.0030542362947016954,-0.0004581354442052543
1772656648504837600,7.095837646484375,-0.015423892997205257,-0.0024433890357613564,-0.0004581354442052543
1772656648514716700,7.105716552734375,-0.014813045971095562,-0.0036650835536420345,-0.0004581354442052543
1772656648524595700,7.115595703125,-0.013591351918876171,-0.0036650835536420345,0.00015271181473508477
1772656648534474800,7.125474853515625,-0.014813045971095562,-0.0036650835536420345,0.00015271181473508477
1772656648544353800,7.135353759765625,-0.014813045971095562,-0.0030542362947016954,0.0007635590736754239
1772656648554232800,7.14523291015625,-0.015423892997205257,-0.0030542362947016954,-0.0010689827613532543
1772656648564112000,7.15511181640625,-0.014813045971095562,-0.0030542362947016954,-0.0004581354442052543
1772656648573991000,7.164990966796875,-0.014813045971095562,-0.0030542362947016954,0.00015271181473508477
1772656648583870000,7.174869873046875,-0.014813045971095562,-0.0036650835536420345,0.00015271181473508477
1772656648593749000,7.1847490234375,-0.015423892997205257,-0.0024433890357613564,0.00015271181473508477
1772656648603628000,7.1946279296875,-0.014813045971095562,-0.0030542362947016954,-0.0004581354442052543
1772656648613507000,7.204507080078125,-0.014813045971095562,-0.0030542362947016954,-0.0004581354442052543
1772656648623386000,7.21438623046875,-0.014202198944985867,-0.0030542362947016954,0.00015271181473508477
1772656648633265400,7.224265380859375,-0.015423892997205257,-0.0030542362947016954,-0.0004581354442052543
1772656648643144400,7.23414453125,-0.014813045971095562,-0.0030542362947016954,0.00015271181473508477
1772656648653023500,7.2440234375,-0.014813045971095562,-0.0024433890357613564,-0.0010689827613532543
1772656648662902500,7.253902587890625,-0.014813045971095562,-0.0036650835536420345,0.0007635590736754239
1772656648672781600,7.263781494140625,-0.015423892997205257,-0.0036650835536420345,0.00015271181473508477
1772656648682660600,7.27366064453125,-0.014202198944985867,-0.0036650835536420345,0.0007635590736754239
1772656648692539600,7.28353955078125,-0.014202198944985867,-0.0036650835536420345,0.00015271181473508477
1772656648702418700,7.293418701171875,-0.014813045971095562,-0.0036650835536420345,-0.0010689827613532543
1772656648712297700,7.303297607421875,-0.014813045971095562,-0.0036650835536420345,0.00015271181473508477
1772656648722176800,7.3131767578125,-0.014202198944985867,-0.0036650835536420345,0.00015271181473508477
1772656648732055800,7.323055908203125,-0.014813045971095562,-0.0036650835536420345,0.00015271181473508477
1772656648741935000,7.33293505859375,-0.014202198944985867,-0.004275931045413017,0.00015271181473508477
1772656648751814100,7.342814208984375,-0.014813045971095562,-0.0024433890357613564,0.001374406274408102
1772656648761693200,7.352693115234375,-0.014202198944985867,-0.0024433890357613564,0.00015271181473508477
1772656648771572200,7.362572265625,-0.016034740954637527,-0.0030542362947016954,-0.0004581354442052543
1772656648781451300,7.372451171875,-0.015423892997205257,-0.004275931045413017,-0.0004581354442052543
1772656648791330300,7.382330322265625,-0.015423892997205257,-0.0036650835536420345,-0.0004581354442052543
1772656648801209300,7.392209228515625,-0.014202198944985867,-0.0030542362947016954,-0.0010689827613532543
1772656648811088400,7.40208837890625,-0.014202198944985867,-0.0030542362947016954,0.00015271181473508477
1772656648820967400,7.411967529296875,-0.014813045971095562,-0.0036650835536420345,-0.0004581354442052543
1772656648830846500,7.421846435546875,-0.014813045971095562,-0.0030542362947016954,-0.0004581354442052543
1772656648840725500,7.4317255859375,-0.015423892997205257,-0.0036650835536420345,-0.0004581354442052543
1772656648850604500,7.4416044921875,-0.016034740954637527,-0.0036650835536420345,0.0007635590736754239
1772656648860483600,7.451483642578125,-0.014813045971095562,-0.0024433890357613564,-0.0010689827613532543
1772656648870362600,7.461362548828125,-0.013591351918876171,-0.0024433890357613564,0.0007635590736754239
1772656648880242000,7.471241943359375,-0.014813045971095562,-0.0018325417768210173,-0.0010689827613532543
1772656648890121000,7.481120849609375,-0.014813045971095562,-0.0030542362947016954,0.00015271181473508477
1772656648900000000,7.491,-0.015423892997205257,-0.0036650835536420345,0.00015271181473508477
1772656648909879000,7.500879150390625,-0.014202198944985867,-0.0030542362947016954,-0.0004581354442052543
1772656648919758000,7.510758056640625,-0.014813045971095562,-0.0024433890357613564,0.00015271181473508477
1772656648929637000,7.52063720703125,-0.014813045971095562,-0.0030542362947016954,-0.0004581354442052543
1772656648939516200,7.53051611328125,-0.014813045971095562,-0.0036650835536420345,0.00015271181473508477
1772656648949395200,7.540395263671875,-0.015423892997205257,-0.0030542362947016954,-0.0004581354442052543
1772656648959274200,7.550274169921875,-0.014813045971095562,-0.0036650835536420345,0.00015271181473508477
1772656648969153300,7.5601533203125,-0.014202198944985867,-0.0030542362947016954,0.00015271181473508477
1772656648979032300,7.5700322265625,-0.016034740954637527,-0.004275931045413017,0.0007635590736754239
1772656648988911400,7.579911376953125,-0.014202198944985867,-0.0036650835536420345,0.0007635590736754239
1772656648998790400,7.589790283203125,-0.014813045971095562,-0.0024433890357613564,0.00015271181473508477
1772656649008669400,7.59966943359375,-0.013591351918876171,-0.0036650835536420345,0.00015271181473508477
1772656649018548700,7.609548828125,-0.014813045971095562,-0.0036650835536420345,-0.0004581354442052543
1772656649028427800,7.619427734375,-0.014813045971095562,-0.0030542362947016954,0.0007635590736754239
1772656649038306800,7.629306884765625,-0.015423892997205257,-0.0024433890357613564,-0.0004581354442052543
1772656649048185900,7.639185791015625,-0.014813045971095562,-0.0030542362947016954,0.0007635590736754239
1772656649058065000,7.64906494140625,-0.015423892997205257,-0.0030542362947016954,-0.0004581354442052543
1772656649067944000,7.65894384765625,-0.014813045971095562,-0.0030542362947016954,0.0007635590736754239
1772656649077823000,7.668822998046875,-0.015423892997205257,-0.0030542362947016954,-0.0004581354442052543
1772656649087702000,7.678701904296875,-0.015423892997205257,-0.0030542362947016954,-0.0004581354442052543
1772656649097581000,7.6885810546875,-0.016034740954637527,-0.0030542362947016954,0.001374406274408102
1772656649107460000,7.698460205078125,-0.014202198944985867,-0.0030542362947016954,-0.0010689827613532543
1772656649117339100,7.708339111328125,-0.014813045971095562,-0.0030542362947016954,0.00015271181473508477
1772656649127218200,7.71821826171875,-0.014202198944985867,-0.0030542362947016954,-0.0004581354442052543
1772656649137097200,7.72809716796875,-0.014202198944985867,-0.0030542362947016954,0.0007635590736754239
1772656649146976500,7.7379765625,-0.015423892997205257,-0.0030542362947016954,-0.0004581354442052543
1772656649156855600,7.74785546875,-0.014813045971095562,-0.0030542362947016954,0.00015271181473508477
1772656649166734600,7.757734619140625,-0.014813045971095562,-0.0024433890357613564,-0.0004581354442052543
1772656649176613600,7.767613525390625,-0.015423892997205257,-0.0018325417768210173,-0.0004581354442052543
1772656649186492700,7.77749267578125,-0.014813045971095562,-0.0024433890357613564,0.00015271181473508477
1772656649196371700,7.787371826171875,-0.015423892997205257,-0.0030542362947016954,-0.0004581354442052543
1772656649206250800,7.797250732421875,-0.014202198944985867,-0.0030542362947016954,0.00015271181473508477
1772656649216129800,7.8071298828125,-0.014813045971095562,-0.0036650835536420345,0.00015271181473508477
1772656649226008800,7.8170087890625,-0.014202198944985867,-0.0036650835536420345,-0.0004581354442052543
1772656649235887900,7.826887939453125,-0.014202198944985867,-0.0024433890357613564,-0.0004581354442052543
1772656649245767000,7.836766845703125,-0.014813045971095562,-0.0036650835536420345,0.00015271181473508477
1772656649255646000,7.84664599609375,-0.014813045971095562,-0.0024433890357613564,-0.0004581354442052543
1772656649265525000,7.85652490234375,-0.014813045971095562,-0.0030542362947016954,-0.0004581354442052543
1772656649275404000,7.866404052734375,-0.015423892997205257,-0.0036650835536420345,-0.0010689827613532543
1772656649285283300,7.876283447265625,-0.014813045971095562,-0.0030542362947016954,0.0007635590736754239
1772656649295162000,7.886162109375,-0.014202198944985867,-0.0036650835536420345,0.0007635590736754239
1772656649305041400,7.89604150390625,-0.014813045971095562,-0.0024433890357613564,0.00015271181473508477
1772656649314920400,7.90592041015625,-0.015423892997205257,-0.0030542362947016954,-0.0010689827613532543
1772656649324799500,7.915799560546875,-0.014813045971095562,-0.0030542362947016954,-0.0004581354442052543
1772656649334678500,7.925678466796875,-0.014813045971095562,-0.0036650835536420345,-0.0010689827613532543
1772656649344557600,7.9355576171875,-0.014813045971095562,-0.0036650835536420345,-0.0004581354442052543
1772656649354436600,7.9454365234375,-0.014813045971095562,-0.0036650835536420345,-0.0010689827613532543
1772656649364315600,7.955315673828125,-0.014202198944985867,-0.0024433890357613564,-0.0004581354442052543
1772656649374194700,7.965194580078125,-0.016034740954637527,-0.0036650835536420345,0.001374406274408102
1772656649384073700,7.97507373046875,-0.015423892997205257,-0.0030542362947016954,0.00015271181473508477
1772656649393952800,7.984952880859375,-0.014813045971095562,-0.0024433890357613564,-0.0010689827613532543
1772656649403831800,7.994831787109375,-0.016034740954637527,-0.0024433890357613564,0.0007635590736754239
1772656649413710800,8.0047109375,-0.014202198944985867,-0.0030542362947016954,0.00015271181473508477
1772656649423590000,8.01458984375,-0.015423892997205257,-0.0030542362947016954,0.00015271181473508477
1772656649433469000,8.024468994140625,-0.014813045971095562,-0.0030542362947016954,-0.0004581354442052543
1772656649443348200,8.03434814453125,-0.016034740954637527,-0.0024433890357613564,0.00015271181473508477
1772656649453227000,8.04422705078125,-0.014813045971095562,-0.0030542362947016954,0.001374406274408102
1772656649463106300,8.054106201171875,-0.015423892997205257,-0.0030542362947016954,0.00015271181473508477
1772656649472985300,8.0639853515625,-0.015423892997205257,-0.0018325417768210173,-0.0004581354442052543
1772656649482864400,8.073864501953125,-0.015423892997205257,-0.0036650835536420345,0.00015271181473508477
1772656649492743400,8.083743408203125,-0.014813045971095562,-0.0036650835536420345,0.0007635590736754239
1772656649502622500,8.09362255859375,-0.014813045971095562,-0.0030542362947016954,-0.0010689827613532543
1772656649512501500,8.10350146484375,-0.015423892997205257,-0.0024433890357613564,-0.0004581354442052543
1772656649522380500,8.113380615234375,-0.015423892997205257,-0.0024433890357613564,0.001985253533348441
1772656649532259600,8.123259521484375,-0.015423892997205257,-0.0030542362947016954,0.0007635590736754239
1772656649542138600,8.133138671875,-0.014813045971095562,-0.0030542362947016954,0.0007635590736754239
1772656649552017700,8.143017578125,-0.015423892997205257,-0.0024433890357613564,-0.0004581354442052543
1772656649561896700,8.152896728515625,-0.015423892997205257,-0.0030542362947016954,0.00015271181473508477
1772656649571775700,8.162775634765625,-0.014813045971095562,-0.0030542362947016954,0.00015271181473508477
1772656649581654800,8.17265478515625,-0.014813045971095562,-0.0036650835536420345,-0.0010689827613532543
1772656649591533800,8.182533935546875,-0.014202198944985867,-0.0036650835536420345,-0.0004581354442052543
1772656649601412900,8.192412841796875,-0.015423892997205257,-0.0030542362947016954,0.00015271181473508477
1772656649611292000,8.2022919921875,-0.015423892997205257,-0.0036650835536420345,0.00015271181473508477
1772656649621171200,8.212171142578125,-0.016034740954637527,-0.0030542362947016954,0.0007635590736754239
1772656649631050200,8.22205029296875,-0.014813045971095562,-0.0036650835536420345,0.001374406274408102
1772656649640929300,8.23192919921875,-0.014813045971095562,-0.0030542362947016954,-0.0004581354442052543
1772656649650808300,8.241808349609375,-0.014813045971095562,-0.0030542362947016954,0.00015271181473508477
1772656649660687400,8.251687255859375,-0.015423892997205257,-0.0036650835536420345,-0.0010689827613532543
1772656649670566400,8.26156640625,-0.015423892997205257,-0.0030542362947016954,0.0007635590736754239
1772656649680445400,8.271445556640625,-0.015423892997205257,-0.0030542362947016954,-0.0004581354442052543
1772656649690324500,8.281324462890625,-0.013591351918876171,-0.004275931045413017,-0.0004581354442052543
1772656649700203500,8.29120361328125,-0.014813045971095562,-0.0036650835536420345,0.00015271181473508477
1772656649710082600,8.30108251953125,-0.015423892997205257,-0.0030542362947016954,-0.0004581354442052543
1772656649719961600,8.310961669921875,-0.014813045971095562,-0.0030542362947016954,0.0007635590736754239
1772656649729840600,8.320840576171875,-0.013591351918876171,-0.0030542362947016954,0.00015271181473508477
1772656649739719700,8.3307197265625,-0.015423892997205257,-0.0036650835536420345,-0.0004581354442052543
1772656649749598700,8.3405986328125,-0.014202198944985867,-0.0036650835536420345,-0.0004581354442052543
1772656649759477800,8.350477783203125,-0.014202198944985867,-0.0030542362947016954,0.00015271181473508477
1772656649769356800,8.360356689453125,-0.014813045971095562,-0.0024433890357613564,-0.0004581354442052543
1772656649779235800,8.37023583984375,-0.014813045971095562,-0.0030542362947016954,-0.0004581354442052543
1772656649789115000,8.380114990234375,-0.014813045971095562,-0.0024433890357613564,0.00015271181473508477
1772656649798994000,8.389993896484375,-0.014813045971095562,-0.0024433890357613564,0.00015271181473508477
1772656649808873000,8.399873046875,-0.015423892997205257,-0.0036650835536420345,-0.0016798300202935934
1772656649818752000,8.409751953125,-0.014813045971095562,-0.0036650835536420345,0.00015271181473508477
1772656649828631300,8.41963134765625,-0.015423892997205257,-0.0030542362947016954,0.0007635590736754239
1772656649838510300,8.42951025390625,-0.014813045971095562,-0.0036650835536420345,0.0007635590736754239
1772656649848389400,8.439389404296875,-0.014813045971095562,-0.0030542362947016954,0.00015271181473508477
1772656649858268400,8.449268310546875,-0.014813045971095562,-0.0036650835536420345,-0.0004581354442052543
1772656649868147500,8.4591474609375,-0.016034740954637527,-0.0036650835536420345,0.00015271181473508477
1772656649878026500,8.469026611328125,-0.015423892997205257,-0.0024433890357613564,0.0007635590736754239
1772656649887905500,8.478905517578125,-0.014202198944985867,-0.0030542362947016954,-0.0004581354442052543
1772656649897784600,8.48878466796875,-0.014813045971095562,-0.0030542362947016954,-0.0004581354442052543
1772656649907663600,8.49866357421875,-0.014813045971095562,-0.0030542362947016954,-0.0004581354442052543
1772656649917542700,8.508542724609375,-0.014202198944985867,-0.0030542362947016954,-0.0004581354442052543
1772656649927421700,8.518421630859375,-0.013591351918876171,-0.0024433890357613564,0.00015271181473508477
1772656649937300700,8.52830078125,-0.015423892997205257,-0.0030542362947016954,0.00015271181473508477
1772656649947179800,8.5381796875,-0.013591351918876171,-0.0036650835536420345,-0.0004581354442052543
1772656649957058800,8.548058837890625,-0.014813045971095562,-0.0030542362947016954,0.001374406274408102
1772656649966937900,8.557937744140625,-0.014813045971095562,-0.0030542362947016954,-0.0004581354442052543
1772656649976817000,8.56781689453125,-0.014813045971095562,-0.0036650835536420345,0.0007635590736754239
1772656649986696000,8.577696044921876,-0.015423892997205257,-0.0030542362947016954,0.00015271181473508477
1772656649996575000,8.587574951171876,-0.014813045971095562,-0.0030542362947016954,-0.0004581354442052543
1772656650006454000,8.5974541015625,-0.014813045971095562,-0.0030542362947016954,0.00015271181473508477
1772656650016333000,8.6073330078125,-0.014813045971095562,-0.0030542362947016954,0.0007635590736754239
1772656650026212000,8.617212158203126,-0.015423892997205257,-0.0024433890357613564,0.00015271181473508477
1772656650036091400,8.62709130859375,-0.015423892997205257,-0.0036650835536420345,-0.0010689827613532543
1772656650045970200,8.63697021484375,-0.014813045971095562,-0.0036650835536420345,0.00015271181473508477
1772656650055849500,8.646849365234376,-0.014813045971095562,-0.0036650835536420345,0.00015271181473508477
1772656650065728500,8.656728515625,-0.014813045971095562,-0.0036650835536420345,-0.0010689827613532543
1772656650075607600,8.666607666015626,-0.015423892997205257,-0.0024433890357613564,0.00015271181473508477
1772656650085486600,8.676486572265626,-0.014813045971095562,-0.0036650835536420345,0.00015271181473508477
1772656650095365600,8.68636572265625,-0.014813045971095562,-0.0030542362947016954,-0.0004581354442052543
1772656650105244700,8.69624462890625,-0.014202198944985867,-0.0030542362947016954,-0.0004581354442052543
1772656650115123700,8.706123779296876,-0.014813045971095562,-0.0036650835536420345,0.00015271181473508477
1772656650125002800,8.716002685546876,-0.014813045971095562,-0.0036650835536420345,-0.0004581354442052543
1772656650134881800,8.7258818359375,-0.015423892997205257,-0.0024433890357613564,0.0007635590736754239
1772656650144760800,8.7357607421875,-0.015423892997205257,-0.0030542362947016954,-0.0010689827613532543
1772656650154640000,8.745639892578126,-0.015423892997205257,-0.0036650835536420345,-0.0016798300202935934
1772656650164519000,8.755518798828126,-0.014813045971095562,-0.0030542362947016954,-0.0010689827613532543
1772656650174398000,8.76539794921875,-0.014813045971095562,-0.0024433890357613564,-0.0016798300202935934
1772656650184277000,8.775277099609376,-0.014202198944985867,-0.0030542362947016954,0.00015271181473508477
1772656650194156000,8.785156005859376,-0.014202198944985867,-0.0030542362947016954,-0.0004581354442052543
1772656650204035000,8.79503515625,-0.015423892997205257,-0.0036650835536420345,-0.0004581354442052543
1772656650213914000,8.8049140625,-0.014202198944985867,-0.0036650835536420345,-0.0010689827613532543
1772656650223793200,8.814793212890624,-0.015423892997205257,-0.0030542362947016954,0.00015271181473508477
1772656650233672200,8.824672119140626,-0.014813045971095562,-0.004275931045413017,0.00015271181473508477
1772656650243551200,8.83455126953125,-0.014813045971095562,-0.0036650835536420345,0.00015271181473508477
1772656650253430300,8.84443017578125,-0.014813045971095562,-0.0030542362947016954,-0.0004581354442052543
1772656650263309300,8.854309326171874,-0.015423892997205257,-0.0030542362947016954,0.0007635590736754239
1772656650273188400,8.864188232421874,-0.014813045971095562,-0.0030542362947016954,-0.0004581354442052543
1772656650283067600,8.874067626953124,-0.014813045971095562,-0.0036650835536420345,-0.0004581354442052543
1772656650292946700,8.88394677734375,-0.014202198944985867,-0.0024433890357613564,0.00015271181473508477
1772656650302825700,8.89382568359375,-0.014813045971095562,-0.0030542362947016954,-0.0004581354442052543
1772656650312704800,8.903704833984374,-0.015423892997205257,-0.0030542362947016954,0.00015271181473508477
1772656650322583800,8.913583740234374,-0.016034740954637527,-0.0036650835536420345,-0.0010689827613532543
1772656650332462800,8.923462890625,-0.014813045971095562,-0.0030542362947016954,0.00015271181473508477
1772656650342342000,8.933341796875,-0.014813045971095562,-0.0036650835536420345,0.001374406274408102
1772656650352221000,8.943220947265624,-0.014202198944985867,-0.0036650835536420345,0.0007635590736754239
1772656650362100000,8.953099853515624,-0.015423892997205257,-0.0024433890357613564,0.00015271181473508477
1772656650371979000,8.96297900390625,-0.015423892997205257,-0.0036650835536420345,0.00015271181473508477
1772656650381858000,8.972858154296874,-0.014813045971095562,-0.0036650835536420345,0.00015271181473508477
1772656650391737000,8.982737060546874,-0.014813045971095562,-0.0030542362947016954,-0.0010689827613532543
1772656650401616100,8.9926162109375,-0.014202198944985867,-0.0030542362947016954,0.00015271181473508477
1772656650411495200,9.0024951171875,-0.015423892997205257,-0.0036650835536420345,0.0007635590736754239
1772656650421374200,9.012374267578124,-0.014813045971095562,-0.0036650835536420345,0.00015271181473508477
1772656650431253200,9.022253173828124,-0.014202198944985867,-0.0024433890357613564,-0.0004581354442052543
1772656650441132300,9.03213232421875,-0.014202198944985867,-0.0024433890357613564,-0.0004581354442052543
1772656650451011300,9.04201123046875,-0.014813045971095562,-0.0036650835536420345,0.00015271181473508477
1772656650460890400,9.051890380859374,-0.015423892997205257,-0.0024433890357613564,-0.0004581354442052543
1772656650470769400,9.061769287109374,-0.014202198944985867,-0.0030542362947016954,-0.0010689827613532543
1772656650480648400,9.0716484375,-0.016034740954637527,-0.0030542362947016954,0.00015271181473508477
1772656650490527500,9.081527587890625,-0.015423892997205257,-0.0036650835536420345,-0.0004581354442052543
1772656650500406500,9.091406494140625,-0.014202198944985867,-0.0036650835536420345,0.00015271181473508477
1772656650510285600,9.10128564453125,-0.014813045971095562,-0.0030542362947016954,-0.0010689827613532543
1772656650520164600,9.11116455078125,-0.013591351918876171,-0.0036650835536420345,-0.0004581354442052543
1772656650530043600,9.121043701171875,-0.014813045971095562,-0.0024433890357613564,0.00015271181473508477
1772656650539922700,9.130922607421875,-0.014813045971095562,-0.0024433890357613564,-0.0004581354442052543
1772656650549801700,9.1408017578125,-0.015423892997205257,-0.0018325417768210173,0.00015271181473508477
1772656650559680800,9.1506806640625,-0.014813045971095562,-0.0036650835536420345,-0.0004581354442052543
1772656650569559800,9.160559814453125,-0.014813045971095562,-0.0030542362947016954,0.00015271181473508477
1772656650579439000,9.170439208984375,-0.014813045971095562,-0.0030542362947016954,0.00015271181473508477
1772656650589318000,9.18031787109375,-0.015423892997205257,-0.0036650835536420345,0.00015271181473508477
1772656650599197200,9.190197265625,-0.014813045971095562,-0.0030542362947016954,-0.0010689827613532543
1772656650609076200,9.200076171875,-0.014202198944985867,-0.0036650835536420345,-0.0010689827613532543
1772656650618955300,9.209955322265625,-0.014813045971095562,-0.0030542362947016954,0.001374406274408102
1772656650628834300,9.219834228515625,-0.014202198944985867,-0.0036650835536420345,-0.0010689827613532543
1772656650638713300,9.22971337890625,-0.014813045971095562,-0.0024433890357613564,-0.0004581354442052543
1772656650648592400,9.23959228515625,-0.014813045971095562,-0.0024433890357613564,0.0007635590736754239
1772656650658471400,9.249471435546875,-0.014813045971095562,-0.0036650835536420345,-0.0010689827613532543
1772656650668350500,9.2593505859375,-0.015423892997205257,-0.0036650835536420345,-0.0010689827613532543
1772656650678229500,9.2692294921875,-0.014813045971095562,-0.0036650835536420345,0.00015271181473508477
1772656650688108500,9.279108642578125,-0.014813045971095562,-0.0036650835536420345,0.00015271181473508477
1772656650697987600,9.288987548828125,-0.014813045971095562,-0.0036650835536420345,0.00015271181473508477
1772656650707866600,9.29886669921875,-0.014813045971095562,-0.0030542362947016954,0.001374406274408102
1772656650717745700,9.30874560546875,-0.013591351918876171,-0.0024433890357613564,0.0007635590736754239
1772656650727624700,9.318624755859375,-0.014202198944985867,-0.0036650835536420345,0.00015271181473508477
1772656650737503700,9.328503662109375,-0.015423892997205257,-0.0030542362947016954,-0.0004581354442052543
1772656650747382800,9.3383828125,-0.014813045971095562,-0.0024433890357613564,0.00015271181473508477
1772656650757261800,9.34826171875,-0.014202198944985867,-0.0030542362947016954,0.001374406274408102
1772656650767140900,9.358140869140625,-0.013591351918876171,-0.0024433890357613564,-0.0004581354442052543
1772656650777020000,9.36802001953125,-0.015423892997205257,-0.0036650835536420345,-0.0004581354442052543
1772656650786899000,9.37789892578125,-0.014202198944985867,-0.0036650835536420345,-0.0004581354442052543
1772656650796778000,9.387778076171875,-0.015423892997205257,-0.0030542362947016954,0.0007635590736754239
1772656650806657000,9.397656982421875,-0.014813045971095562,-0.0030542362947016954,0.00015271181473508477
1772656650816536000,9.4075361328125,-0.014813045971095562,-0.0024433890357613564,0.0007635590736754239
1772656650826415000,9.4174150390625,-0.015423892997205257,-0.0036650835536420345,0.00015271181473508477
1772656650836294100,9.427294189453125,-0.014202198944985867,-0.004275931045413017,-0.0004581354442052543
1772656650846173200,9.437173095703125,-0.016034740954637527,-0.0036650835536420345,0.0007635590736754239
1772656650856052200,9.44705224609375,-0.016645587980747223,-0.0036650835536420345,-0.0004581354442052543
1772656650865931300,9.45693115234375,-0.014813045971095562,-0.0036650835536420345,-0.0004581354442052543
1772656650875810300,9.466810302734375,-0.016034740954637527,-0.0030542362947016954,-0.0004581354442052543
1772656650885689300,9.476689453125,-0.014813045971095562,-0.0030542362947016954,0.00015271181473508477
1772656650895568400,9.486568359375,-0.016034740954637527,-0.0036650835536420345,-0.0004581354442052543
1772656650905447400,9.496447509765625,-0.014813045971095562,-0.0036650835536420345,-0.0004581354442052543
1772656650915326500,9.506326416015625,-0.015423892997205257,-0.0030542362947016954,-0.0004581354442052543
1772656650925205500,9.51620556640625,-0.015423892997205257,-0.0036650835536420345,0.001374406274408102
1772656650935084500,9.52608447265625,-0.014813045971095562,-0.0036650835536420345,0.00015271181473508477
1772656650944963600,9.535963623046875,-0.015423892997205257,-0.0036650835536420345,-0.0004581354442052543
1772656650954842600,9.545842529296875,-0.014813045971095562,-0.0036650835536420345,0.00015271181473508477
1772656650964722000,9.555721923828125,-0.015423892997205257,-0.0024433890357613564,0.00015271181473508477
1772656650974600700,9.5656005859375,-0.014813045971095562,-0.004275931045413017,-0.0004581354442052543
1772656650984480000,9.57547998046875,-0.014813045971095562,-0.004275931045413017,0.00015271181473508477
1772656650994359000,9.585359130859375,-0.014813045971095562,-0.0030542362947016954,-0.0004581354442052543
1772656651004237800,9.59523779296875,-0.014202198944985867,-0.004275931045413017,-0.0004581354442052543
1772656651014117000,9.6051171875,-0.014813045971095562,-0.004275931045413017,-0.0010689827613532543
1772656651023996000,9.614995849609375,-0.014813045971095562,-0.0030542362947016954,0.0007635590736754239
1772656651033875200,9.624875244140625,-0.014813045971095562,-0.0024433890357613564,-0.0004581354442052543
1772656651043754200,9.634754150390625,-0.014202198944985867,-0.0024433890357613564,0.00015271181473508477
1772656651053633300,9.64463330078125,-0.014813045971095562,-0.0030542362947016954,-0.0010689827613532543
1772656651063512300,9.65451220703125,-0.015423892997205257,-0.0036650835536420345,-0.0004581354442052543
1772656651073391400,9.664391357421875,-0.016034740954637527,-0.0036650835536420345,0.0007635590736754239
1772656651083270400,9.6742705078125,-0.014202198944985867,-0.0030542362947016954,0.0007635590736754239
1772656651093149400,9.6841494140625,-0.014202198944985867,-0.0030542362947016954,0.00015271181473508477
1772656651103028500,9.694028564453125,-0.014813045971095562,-0.0030542362947016954,0.00015271181473508477
1772656651112907500,9.703907470703125,-0.014813045971095562,-0.0030542362947016954,0.0007635590736754239
1772656651122786600,9.71378662109375,-0.013591351918876171,-0.0024433890357613564,-0.0004581354442052543
1772656651132665600,9.72366552734375,-0.015423892997205257,-0.0030542362947016954,0.00015271181473508477
1772656651142544600,9.733544677734375,-0.014202198944985867,-0.0024433890357613564,0.0007635590736754239
1772656651152423700,9.743423583984375,-0.014813045971095562,-0.0030542362947016954,-0.0004581354442052543
1772656651162302700,9.753302734375,-0.014813045971095562,-0.0036650835536420345,-0.0010689827613532543
1772656651172181800,9.763181640625,-0.015423892997205257,-0.0024433890357613564,0.00015271181473508477
1772656651182060800,9.773060791015626,-0.014813045971095562,-0.0024433890357613564,0.0007635590736754239
1772656651191939800,9.78293994140625,-0.015423892997205257,-0.0036650835536420345,0.0007635590736754239
1772656651201819000,9.79281884765625,-0.015423892997205257,-0.0036650835536420345,0.0007635590736754239
1772656651211698000,9.802697998046876,-0.014813045971095562,-0.0030542362947016954,-0.0004581354442052543
1772656651221577000,9.812576904296876,-0.014813045971095562,-0.0036650835536420345,-0.0022906772792339325
1772656651231456000,9.8224560546875,-0.016034740954637527,-0.0024433890357613564,0.00015271181473508477
1772656651241335000,9.8323349609375,-0.014202198944985867,-0.0036650835536420345,0.0007635590736754239
1772656651251214000,9.842214111328126,-0.015423892997205257,-0.0030542362947016954,0.00015271181473508477
1772656651261093000,9.852093017578126,-0.014202198944985867,-0.0036650835536420345,0.00015271181473508477
1772656651270972200,9.86197216796875,-0.014813045971095562,-0.004275931045413017,0.00015271181473508477
1772656651280851200,9.871851318359376,-0.016034740954637527,-0.0030542362947016954,-0.0010689827613532543
1772656651290730200,9.881730224609376,-0.014813045971095562,-0.0030542362947016954,0.00015271181473508477
1772656651300609300,9.891609375,-0.014813045971095562,-0.0024433890357613564,0.00015271181473508477
1772656651310488300,9.90148828125,-0.014202198944985867,-0.0030542362947016954,-0.0004581354442052543
1772656651320367400,9.911367431640626,-0.014813045971095562,-0.0024433890357613564,0.00015271181473508477
1772656651330246400,9.921246337890626,-0.014202198944985867,-0.0036650835536420345,0.00015271181473508477
1772656651340125400,9.93112548828125,-0.014813045971095562,-0.0030542362947016954,0.001374406274408102
1772656651350004500,9.94100439453125,-0.015423892997205257,-0.0024433890357613564,-0.0010689827613532543
1772656651359883500,9.950883544921876,-0.014813045971095562,-0.0030542362947016954,0.0007635590736754239
1772656651369762600,9.960762451171876,-0.014813045971095562,-0.0030542362947016954,-0.0010689827613532543
1772656651379641600,9.9706416015625,-0.014813045971095562,-0.0030542362947016954,0.00015271181473508477
1772656651389520600,9.980520751953126,-0.014813045971095562,-0.0036650835536420345,0.00015271181473508477
1772656651399399700,9.990399658203126,-0.015423892997205257,-0.0024433890357613564,0.00015271181473508477
1772656651409278700,10.00027880859375,-0.016034740954637527,-0.0024433890357613564,0.00015271181473508477
1772656651419157800,10.01015771484375,-0.013591351918876171,-0.0024433890357613564,0.0007635590736754239
1772656651429036800,10.020036865234376,-0.015423892997205257,-0.0030542362947016954,0.00015271181473508477
1772656651438915800,10.029915771484376,-0.014813045971095562,-0.0030542362947016954,-0.0004581354442052543
1772656651448795000,10.039794921875,-0.014813045971095562,-0.0036650835536420345,0.00015271181473508477
1772656651458674000,10.049673828125,-0.015423892997205257,-0.0036650835536420345,0.00015271181473508477
1772656651468553000,10.059552978515624,-0.014202198944985867,-0.0030542362947016954,-0.0004581354442052543
1772656651478432000,10.069431884765624,-0.014813045971095562,-0.004886778071522713,0.00015271181473508477
1772656651488311000,10.07931103515625,-0.014813045971095562,-0.0030542362947016954,0.0007635590736754239
1772656651498190000,10.089190185546874,-0.015423892997205257,-0.0030542362947016954,0.0007635590736754239
1772656651508069000,10.099069091796874,-0.014202198944985867,-0.0036650835536420345,-0.0004581354442052543
1772656651517948200,10.1089482421875,-0.014813045971095562,-0.0036650835536420345,0.00015271181473508477
1772656651527827200,10.1188271484375,-0.014813045971095562,-0.0036650835536420345,0.00015271181473508477
1772656651537706200,10.128706298828124,-0.014202198944985867,-0.0036650835536420345,0.001374406274408102
1772656651547585300,10.138585205078124,-0.013591351918876171,-0.0036650835536420345,-0.0004581354442052543
1772656651557464300,10.14846435546875,-0.013591351918876171,-0.0024433890357613564,-0.0004581354442052543
1772656651567343400,10.15834326171875,-0.015423892997205257,-0.004275931045413017,-0.0004581354442052543
1772656651577222400,10.168222412109374,-0.014813045971095562,-0.0036650835536420345,0.0007635590736754239
1772656651587101400,10.178101318359374,-0.015423892997205257,-0.0024433890357613564,0.0007635590736754239
1772656651596980500,10.18798046875,-0.015423892997205257,-0.0036650835536420345,-0.0010689827613532543
1772656651606859500,10.197859619140624,-0.014813045971095562,-0.0030542362947016954,0.0007635590736754239
1772656651616738600,10.207738525390624,-0.014813045971095562,-0.0030542362947016954,-0.0010689827613532543
1772656651626617600,10.21761767578125,-0.014813045971095562,-0.0030542362947016954,-0.0010689827613532543
1772656651636496600,10.22749658203125,-0.014813045971095562,-0.0024433890357613564,0.00015271181473508477
1772656651646375700,10.237375732421874,-0.015423892997205257,-0.0036650835536420345,-0.0010689827613532543
1772656651656254700,10.247254638671874,-0.016034740954637527,-0.0030542362947016954,0.00015271181473508477
1772656651666133800,10.2571337890625,-0.014813045971095562,-0.0030542362947016954,-0.0004581354442052543
1772656651676012800,10.2670126953125,-0.015423892997205257,-0.0036650835536420345,-0.0004581354442052543
1772656651685891800,10.276891845703124,-0.015423892997205257,-0.0036650835536420345,0.00015271181473508477
1772656651695771000,10.28677099609375,-0.015423892997205257,-0.0024433890357613564,-0.0004581354442052543
1772656651705650000,10.29664990234375,-0.014813045971095562,-0.0030542362947016954,0.00015271181473508477
1772656651715529000,10.306529052734374,-0.015423892997205257,-0.0030542362947016954,-0.0004581354442052543
1772656651725408000,10.316407958984374,-0.014813045971095562,-0.0036650835536420345,0.00015271181473508477
1772656651735287000,10.326287109375,-0.014813045971095562,-0.0030542362947016954,-0.0010689827613532543
1772656651745166000,10.336166015625,-0.014202198944985867,-0.0030542362947016954,0.00015271181473508477
1772656651755045000,10.346045166015625,-0.015423892997205257,-0.0024433890357613564,-0.0004581354442052543
1772656651764924200,10.355924072265625,-0.015423892997205257,-0.0030542362947016954,0.00015271181473508477
1772656651774803200,10.36580322265625,-0.016034740954637527,-0.0018325417768210173,0.0007635590736754239
1772656651784682200,10.37568212890625,-0.014202198944985867,-0.0030542362947016954,0.0007635590736754239
1772656651794561300,10.385561279296875,-0.014813045971095562,-0.0024433890357613564,0.0007635590736754239
1772656651804440300,10.3954404296875,-0.015423892997205257,-0.0030542362947016954,0.0007635590736754239
1772656651814319400,10.4053193359375,-0.014202198944985867,-0.0030542362947016954,0.0007635590736754239
1772656651824198400,10.415198486328125,-0.014202198944985867,-0.0036650835536420345,-0.0004581354442052543
1772656651834077400,10.425077392578125,-0.014813045971095562,-0.0024433890357613564,-0.0010689827613532543
1772656651843956500,10.43495654296875,-0.015423892997205257,-0.004275931045413017,-0.0004581354442052543
1772656651853835500,10.44483544921875,-0.016034740954637527,-0.004275931045413017,-0.0004581354442052543
1772656651863714600,10.454714599609375,-0.015423892997205257,-0.0030542362947016954,-0.0004581354442052543
1772656651873593600,10.464593505859375,-0.015423892997205257,-0.0024433890357613564,-0.0004581354442052543
1772656651883472600,10.47447265625,-0.015423892997205257,-0.0036650835536420345,0.00015271181473508477
