time,seconds_elapsed,z,y,x
1772656641407846000,-0.001154052734375,9.768099784851074,-0.04366901144385338,0.08255238085985184
1772656641417725200,0.00872509765625,9.768099784851074,-0.046061836183071136,0.08255238085985184
1772656641427604200,0.018604248046875,9.768099784851074,-0.04127619042992592,0.08973085135221481
1772656641437483300,0.028483154296875,9.772886276245117,-0.046061836183071136,0.08733802288770676
1772656641447362300,0.0383623046875,9.772886276245117,-0.04546362906694412,0.08733802288770676
1772656641457241300,0.048241455078125,9.763314247131348,-0.046061836183071136,0.07776673883199692
1772656641467120400,0.058120361328125,9.768099784851074,-0.046061836183071136,0.07776673883199692
1772656641476999700,0.067999755859375,9.770493507385254,-0.0364905446767807,0.07776673883199692
1772656641486878700,0.077878662109375,9.770493507385254,-0.04127619042992592,0.0849452018737793
1772656641496757800,0.0877578125,9.770493507385254,-0.04127619042992592,0.07537391036748886
1772656641506636800,0.09763671875,9.765707015991211,-0.03888336941599846,0.0849452018737793
1772656641516515800,0.107515869140625,9.772886276245117,-0.04366901144385338,0.0849452018737793
1772656641526395000,0.117394775390625,9.777671813964844,-0.04127619042992592,0.08015955984592438
1772656641536274000,0.12727392578125,9.763314247131348,-0.046061836183071136,0.0849452018737793
1772656641565911300,0.156911376953125,9.770493507385254,-0.046061836183071136,0.08015955984592438
1772656641575790300,0.166790283203125,9.765707015991211,-0.0364905446767807,0.07537391036748886
1772656641595548400,0.18654833984375,9.768099784851074,-0.0364905446767807,0.0849452018737793
1772656641605427700,0.196427734375,9.768099784851074,-0.03888336941599846,0.08255238085985184
1772656641615306800,0.206306640625,9.772886276245117,-0.04127619042992592,0.0849452018737793
1772656641625185800,0.216185791015625,9.772886276245117,-0.03888336941599846,0.08255238085985184
1772656641635064800,0.22606494140625,9.770493507385254,-0.04546362906694412,0.08733802288770676
1772656641644944000,0.23594384765625,9.770493507385254,-0.04366901144385338,0.08255238085985184
1772656641654823000,0.245822998046875,9.765707015991211,-0.03888336941599846,0.0849452018737793
1772656641664702000,0.255701904296875,9.763314247131348,-0.0364905446767807,0.08733802288770676
1772656641674581200,0.265581298828125,9.765707015991211,-0.03888336941599846,0.08255238085985184
1772656641684460300,0.275460205078125,9.772886276245117,-0.04785645380616188,0.0849452018737793
1772656641694339300,0.28533935546875,9.772886276245117,-0.03888336941599846,0.0849452018737793
1772656641704218400,0.29521826171875,9.772886276245117,-0.04366901144385338,0.0849452018737793
1772656641714097400,0.305097412109375,9.760921478271484,-0.04127619042992592,0.07537391036748886
1772656641723976400,0.3149765625,9.772886276245117,-0.03888336941599846,0.0849452018737793
1772656641733855500,0.32485546875,9.765707015991211,-0.040677983313798904,0.08733802288770676
1772656641743734800,0.33473486328125,9.77527904510498,-0.0364905446767807,0.08733802288770676
1772656641753613800,0.34461376953125,9.77527904510498,-0.04366901144385338,0.08015955984592438
1772656641763492900,0.354492919921875,9.772886276245117,-0.04366901144385338,0.08255238085985184
1772656641773372000,0.364371826171875,9.777671813964844,-0.03409772366285324,0.0849452018737793
1772656641783251000,0.3742509765625,9.770493507385254,-0.048454657196998596,0.07776673883199692
1772656641793130000,0.3841298828125,9.768099784851074,-0.046061836183071136,0.08015955984592438
1772656641803009000,0.394009033203125,9.770493507385254,-0.03888336941599846,0.0849452018737793
1772656641812888300,0.403888427734375,9.765707015991211,-0.03409772366285324,0.08255238085985184
1772656641822767400,0.413767333984375,9.768099784851074,-0.03888336941599846,0.08015955984592438
1772656641832646400,0.423646484375,9.770493507385254,-0.04127619042992592,0.08255238085985184
1772656641842525400,0.433525390625,9.780064582824707,-0.03888336941599846,0.07776673883199692
1772656641852404500,0.443404541015625,9.770493507385254,-0.03888336941599846,0.08733802288770676
1772656641862283500,0.453283447265625,9.770493507385254,-0.046061836183071136,0.0849452018737793
1772656641872162800,0.463162841796875,9.772886276245117,-0.048454657196998596,0.07058826833963394
1772656641882041900,0.473041748046875,9.77527904510498,-0.04366901144385338,0.08015955984592438
1772656641891921000,0.4829208984375,9.770493507385254,-0.03170489892363548,0.07058826833963394
1772656641901800000,0.492800048828125,9.772886276245117,-0.046061836183071136,0.0849452018737793
1772656641911679000,0.502678955078125,9.777671813964844,-0.03888336941599846,0.08973085135221481
1772656641921558000,0.51255810546875,9.768099784851074,-0.04127619042992592,0.08973085135221481
1772656641931437000,0.52243701171875,9.765707015991211,-0.03888336941599846,0.0849452018737793
1772656641941316000,0.532316162109375,9.777671813964844,-0.04127619042992592,0.08255238085985184
1772656641951195400,0.5421953125,9.765707015991211,-0.040677983313798904,0.08733802288770676
1772656641961074400,0.552074462890625,9.770493507385254,-0.0364905446767807,0.08255238085985184
1772656641970953500,0.561953369140625,9.768099784851074,-0.03888336941599846,0.08255238085985184
1772656641980832500,0.57183251953125,9.772886276245117,-0.038285162299871445,0.08733802288770676
1772656641990711600,0.581711669921875,9.768099784851074,-0.04366901144385338,0.0849452018737793
1772656642000590600,0.591590576171875,9.772886276245117,-0.04366901144385338,0.07776673883199692
1772656642010469600,0.6014697265625,9.772886276245117,-0.046061836183071136,0.0849452018737793
1772656642020348700,0.6113486328125,9.765707015991211,-0.04785645380616188,0.0849452018737793
1772656642030228000,0.62122802734375,9.77527904510498,-0.0364905446767807,0.08733802288770676
1772656642040107000,0.63110693359375,9.772886276245117,-0.046061836183071136,0.08015955984592438
1772656642049986000,0.640986083984375,9.780064582824707,-0.04546362906694412,0.08255238085985184
1772656642059865000,0.650864990234375,9.772886276245117,-0.03888336941599846,0.08255238085985184
1772656642069744000,0.660744140625,9.768099784851074,-0.04127619042992592,0.0849452018737793
1772656642079623200,0.670623046875,9.770493507385254,-0.0364905446767807,0.08255238085985184
1772656642089502200,0.680502197265625,9.768099784851074,-0.03888336941599846,0.08255238085985184
1772656642099381500,0.690381591796875,9.765707015991211,-0.04546362906694412,0.08973085135221481
1772656642109260500,0.700260498046875,9.772886276245117,-0.038285162299871445,0.08733802288770676
1772656642119139600,0.7101396484375,9.765707015991211,-0.04366901144385338,0.0849452018737793
1772656642129018600,0.7200185546875,9.772886276245117,-0.04127619042992592,0.0849452018737793
1772656642138897700,0.729897705078125,9.77527904510498,-0.048454657196998596,0.08255238085985184
1772656642148776700,0.739776611328125,9.77527904510498,-0.04127619042992592,0.08255238085985184
1772656642158655700,0.74965576171875,9.770493507385254,-0.046061836183071136,0.07537391036748886
1772656642168534800,0.75953466796875,9.758528709411621,-0.048454657196998596,0.08733802288770676
1772656642178414000,0.7694140625,9.77527904510498,-0.038285162299871445,0.0849452018737793
1772656642188293000,0.779293212890625,9.772886276245117,-0.04127619042992592,0.0849452018737793
1772656642198172200,0.789172119140625,9.772886276245117,-0.04127619042992592,0.07537391036748886
1772656642208051200,0.79905126953125,9.768099784851074,-0.046061836183071136,0.08015955984592438
1772656642217930200,0.80893017578125,9.768099784851074,-0.050847481936216354,0.07537391036748886
1772656642227809300,0.818809326171875,9.770493507385254,-0.04366901144385338,0.08015955984592438
1772656642237688300,0.828688232421875,9.772886276245117,-0.04546362906694412,0.08255238085985184
1772656642247567400,0.8385673828125,9.772886276245117,-0.04307080805301666,0.08973085135221481
1772656642257446700,0.84844677734375,9.770493507385254,-0.0364905446767807,0.08255238085985184
1772656642267325700,0.85832568359375,9.770493507385254,-0.03888336941599846,0.07776673883199692
1772656642277204700,0.868204833984375,9.772886276245117,-0.046061836183071136,0.08015955984592438
1772656642287083800,0.878083740234375,9.770493507385254,-0.03409772366285324,0.07776673883199692
1772656642296962800,0.887962890625,9.772886276245117,-0.04366901144385338,0.07776673883199692
1772656642306841900,0.897841796875,9.777671813964844,-0.03888336941599846,0.08255238085985184
1772656642316721000,0.907720947265625,9.77527904510498,-0.04307080805301666,0.0849452018737793
1772656642326600000,0.917599853515625,9.772886276245117,-0.04127619042992592,0.08015955984592438
1772656642336479200,0.927479248046875,9.770493507385254,-0.04127619042992592,0.0849452018737793
1772656642346358300,0.937358154296875,9.768099784851074,-0.04366901144385338,0.08255238085985184
1772656642356237300,0.9472373046875,9.777671813964844,-0.0364905446767807,0.0849452018737793
1772656642366116400,0.957116455078125,9.772886276245117,-0.03888336941599846,0.0849452018737793
1772656642375995400,0.966995361328125,9.763314247131348,-0.04127619042992592,0.08015955984592438
1772656642385874400,0.97687451171875,9.768099784851074,-0.04366901144385338,0.08973085135221481
1772656642395753500,0.98675341796875,9.768099784851074,-0.03888336941599846,0.08255238085985184
1772656642405632500,0.996632568359375,9.777671813964844,-0.03888336941599846,0.08015955984592438
1772656642415511800,1.00651171875,9.772886276245117,-0.046061836183071136,0.07776673883199692
1772656642425390800,1.016390869140625,9.770493507385254,-0.046061836183071136,0.07537391036748886
1772656642435270000,1.026269775390625,9.768099784851074,-0.048454657196998596,0.07537391036748886
1772656642445149000,1.03614892578125,9.772886276245117,-0.04366901144385338,0.08015955984592438
1772656642455028000,1.046028076171875,9.777671813964844,-0.03888336941599846,0.08015955984592438
1772656642464907000,1.055906982421875,9.768099784851074,-0.03888336941599846,0.07537391036748886
1772656642474786000,1.0657861328125,9.768099784851074,-0.03888336941599846,0.0849452018737793
1772656642484665000,1.0756650390625,9.772886276245117,-0.03888336941599846,0.0849452018737793
1772656642494544100,1.085544189453125,9.770493507385254,-0.048454657196998596,0.07776673883199692
1772656642504423400,1.09542333984375,9.770493507385254,-0.04127619042992592,0.07776673883199692
1772656642514302500,1.105302490234375,9.770493507385254,-0.046061836183071136,0.08015955984592438
1772656642524181500,1.115181396484375,9.77527904510498,-0.04366901144385338,0.08015955984592438
1772656642534060500,1.125060546875,9.777671813964844,-0.038285162299871445,0.0891326442360878
1772656642543939600,1.134939697265625,9.777671813964844,-0.04127619042992592,0.07537391036748886
1772656642553818600,1.144818603515625,9.772886276245117,-0.046061836183071136,0.08015955984592438
1772656642563697700,1.15469775390625,9.770493507385254,-0.04127619042992592,0.07537391036748886
1772656642573576700,1.16457666015625,9.765707015991211,-0.03170489892363548,0.0729810893535614
1772656642583455700,1.174455810546875,9.777671813964844,-0.04127619042992592,0.08255238085985184
1772656642593335000,1.1843349609375,9.770493507385254,-0.04366901144385338,0.0729810893535614
1772656642603214000,1.194214111328125,9.763314247131348,-0.03888336941599846,0.08733802288770676
1772656642613093000,1.204093017578125,9.772886276245117,-0.0364905446767807,0.07058826833963394
1772656642622972200,1.21397216796875,9.768099784851074,-0.0364905446767807,0.07537391036748886
1772656642632851200,1.223851318359375,9.765707015991211,-0.048454657196998596,0.08015955984592438
1772656642642730200,1.233730224609375,9.78245735168457,-0.04127619042992592,0.08015955984592438
1772656642652609300,1.243609375,9.77527904510498,-0.04127619042992592,0.08015955984592438
1772656642662488300,1.25348828125,9.770493507385254,-0.03888336941599846,0.08015955984592438
1772656642672367400,1.263367431640625,9.772886276245117,-0.04127619042992592,0.08255238085985184
1772656642682246700,1.27324658203125,9.780064582824707,-0.03888336941599846,0.0849452018737793
1772656642692125700,1.283125732421875,9.770493507385254,-0.04127619042992592,0.08255238085985184
1772656642702004700,1.293004638671875,9.77527904510498,-0.04127619042992592,0.08015955984592438
1772656642711883800,1.3028837890625,9.77527904510498,-0.03409772366285324,0.08255238085985184
1772656642721762800,1.3127626953125,9.770493507385254,-0.04546362906694412,0.08255238085985184
1772656642731641900,1.322641845703125,9.77527904510498,-0.035892341285943985,0.0849452018737793
1772656642741521000,1.33252099609375,9.770493507385254,-0.046061836183071136,0.08255238085985184
1772656642751400000,1.34239990234375,9.768099784851074,-0.04127619042992592,0.08255238085985184
1772656642761279000,1.352279052734375,9.768099784851074,-0.0364905446767807,0.08015955984592438
1772656642771158300,1.362158203125,9.772886276245117,-0.04127619042992592,0.08733802288770676
1772656642781037300,1.372037353515625,9.772886276245117,-0.04127619042992592,0.0849452018737793
1772656642790916400,1.381916259765625,9.772886276245117,-0.0364905446767807,0.0849452018737793
1772656642800795400,1.39179541015625,9.772886276245117,-0.0364905446767807,0.07776673883199692
1772656642810674400,1.40167431640625,9.772886276245117,-0.04366901144385338,0.08015955984592438
1772656642820553500,1.411553466796875,9.770493507385254,-0.04127619042992592,0.0849452018737793
1772656642830432500,1.4214326171875,9.770493507385254,-0.04127619042992592,0.08015955984592438
1772656642840311600,1.4313115234375,9.768099784851074,-0.04307080805301666,0.09212367236614227
1772656642850190600,1.441190673828125,9.768099784851074,-0.03888336941599846,0.08255238085985184
1772656642860070000,1.45106982421875,9.780064582824707,-0.04366901144385338,0.07776673883199692
1772656642869949000,1.460948974609375,9.770493507385254,-0.050847481936216354,0.08255238085985184
1772656642879828000,1.470827880859375,9.777671813964844,-0.03888336941599846,0.08015955984592438
1772656642889707000,1.48070703125,9.777671813964844,-0.040677983313798904,0.08255238085985184
1772656642899586000,1.4905859375,9.772886276245117,-0.04546362906694412,0.0849452018737793
1772656642909465000,1.500465087890625,9.768099784851074,-0.03888336941599846,0.07537391036748886
1772656642919344000,1.51034423828125,9.777671813964844,-0.04546362906694412,0.08255238085985184
1772656642929223200,1.52022314453125,9.78245735168457,-0.035892341285943985,0.07776673883199692
1772656642939102200,1.530102294921875,9.770493507385254,-0.04127619042992592,0.0849452018737793
1772656642948981500,1.5399814453125,9.77527904510498,-0.04127619042992592,0.0849452018737793
1772656642958860500,1.549860595703125,9.780064582824707,-0.04366901144385338,0.08015955984592438
1772656642968739600,1.559739501953125,9.768099784851074,-0.04307080805301666,0.08733802288770676
1772656642978618600,1.56961865234375,9.777671813964844,-0.03888336941599846,0.08015955984592438
1772656642988497700,1.57949755859375,9.772886276245117,-0.0364905446767807,0.0849452018737793
1772656642998376700,1.589376708984375,9.777671813964844,-0.03409772366285324,0.08015955984592438
1772656643008255700,1.599255859375,9.777671813964844,-0.04366901144385338,0.08015955984592438
1772656643018134800,1.609134765625,9.777671813964844,-0.040677983313798904,0.0849452018737793
1772656643028013800,1.619013916015625,9.78245735168457,-0.04546362906694412,0.0849452018737793
1772656643037893000,1.62889306640625,9.77527904510498,-0.04307080805301666,0.08733802288770676
1772656643047772200,1.638772216796875,9.780064582824707,-0.0364905446767807,0.0849452018737793
1772656643057651200,1.648651123046875,9.777671813964844,-0.0364905446767807,0.07537391036748886
1772656643067530200,1.6585302734375,9.777671813964844,-0.04127619042992592,0.07776673883199692
1772656643077409300,1.6684091796875,9.772886276245117,-0.04366901144385338,0.0849452018737793
1772656643087288300,1.678288330078125,9.770493507385254,-0.03349951654672623,0.08733802288770676
1772656643097167400,1.68816748046875,9.768099784851074,-0.046061836183071136,0.07776673883199692
1772656643107046400,1.69804638671875,9.780064582824707,-0.040677983313798904,0.08973085135221481
1772656643116925400,1.707925537109375,9.770493507385254,-0.04366901144385338,0.0849452018737793
1772656643126804500,1.717804443359375,9.77527904510498,-0.04127619042992592,0.07776673883199692
1772656643136683800,1.727683837890625,9.768099784851074,-0.046061836183071136,0.07537391036748886
1772656643146562800,1.737562744140625,9.770493507385254,-0.038285162299871445,0.09212367236614227
1772656643156441900,1.74744189453125,9.777671813964844,-0.040677983313798904,0.08733802288770676
1772656643166321000,1.75732080078125,9.772886276245117,-0.04546362906694412,0.08733802288770676
1772656643176200000,1.767199951171875,9.77527904510498,-0.04127619042992592,0.07537391036748886
1772656643186079000,1.777078857421875,9.772886276245117,-0.04366901144385338,0.0849452018737793
1772656643195958000,1.7869580078125,9.772886276245117,-0.038285162299871445,0.08973085135221481
1772656643205837000,1.796837158203125,9.77527904510498,-0.03888336941599846,0.08015955984592438
1772656643215716000,1.806716064453125,9.78245735168457,-0.038285162299871445,0.09152546525001526
1772656643225595100,1.81659521484375,9.77527904510498,-0.03349951654672623,0.08015955984592438
1772656643235474200,1.82647412109375,9.770493507385254,-0.0364905446767807,0.08733802288770676
1772656643245353500,1.836353515625,9.77527904510498,-0.0364905446767807,0.0849452018737793
1772656643255232500,1.846232421875,9.77527904510498,-0.04307080805301666,0.08733802288770676
1772656643265111600,1.856111572265625,9.777671813964844,-0.03888336941599846,0.08255238085985184
1772656643274990600,1.865990478515625,9.77527904510498,-0.04546362906694412,0.08255238085985184
1772656643284869600,1.87586962890625,9.77527904510498,-0.04127619042992592,0.08255238085985184
1772656643294748700,1.885748779296875,9.77527904510498,-0.04785645380616188,0.0849452018737793
1772656643304627700,1.895627685546875,9.777671813964844,-0.04546362906694412,0.08015955984592438
1772656643314506800,1.9055068359375,9.781859397888184,-0.04307080805301666,0.08255238085985184
1772656643324385800,1.9153857421875,9.774680137634277,-0.04127619042992592,0.07537391036748886
1772656643334265000,1.92526513671875,9.772287368774414,-0.04127619042992592,0.0849452018737793
1772656643344144100,1.93514404296875,9.781859397888184,-0.04546362906694412,0.08255238085985184
1772656643354023200,1.945023193359375,9.765707015991211,-0.038285162299871445,0.08733802288770676
1772656643363902200,1.954902099609375,9.767501831054688,-0.03409772366285324,0.08015955984592438
1772656643373781200,1.96478125,9.774680137634277,-0.035892341285943985,0.0849452018737793
1772656643383660300,1.974660400390625,9.77707290649414,-0.04366901144385338,0.07776673883199692
1772656643393539300,1.984539306640625,9.77707290649414,-0.03170489892363548,0.08015955984592438
1772656643403418400,1.99441845703125,9.774680137634277,-0.04307080805301666,0.08733802288770676
1772656643413297400,2.00429736328125,9.77707290649414,-0.04366901144385338,0.08255238085985184
1772656643423176400,2.014176513671875,9.77707290649414,-0.04127619042992592,0.08255238085985184
1772656643433055500,2.024055419921875,9.772287368774414,-0.03888336941599846,0.0849452018737793
1772656643442934800,2.033934814453125,9.772287368774414,-0.0364905446767807,0.08015955984592438
1772656643452813800,2.043813720703125,9.772287368774414,-0.03888336941599846,0.07776673883199692
1772656643462692900,2.05369287109375,9.779465675354004,-0.04546362906694412,0.09451649338006973
1772656643472572000,2.063572021484375,9.77707290649414,-0.0364905446767807,0.08015955984592438
1772656643482451000,2.073450927734375,9.774680137634277,-0.03409772366285324,0.07776673883199692
1772656643492330000,2.083330078125,9.780064582824707,-0.04546362906694412,0.08255238085985184
1772656643502209000,2.093208984375,9.784252166748047,-0.035892341285943985,0.08733802288770676
1772656643512088000,2.103088134765625,9.780064582824707,-0.04307080805301666,0.0849452018737793
1772656643521967000,2.112967041015625,9.774680137634277,-0.03888336941599846,0.07776673883199692
1772656643531846400,2.122846435546875,9.772886276245117,-0.040677983313798904,0.09451649338006973
1772656643541725400,2.132725341796875,9.777671813964844,-0.04785645380616188,0.09212367236614227
1772656643551604500,2.1426044921875,9.772886276245117,-0.03888336941599846,0.0849452018737793
1772656643561483500,2.1524833984375,9.770493507385254,-0.040677983313798904,0.08733802288770676
1772656643571362600,2.162362548828125,9.780064582824707,-0.035892341285943985,0.0849452018737793
1772656643581241600,2.17224169921875,9.784252166748047,-0.03170489892363548,0.0729810893535614
1772656643591120600,2.18212060546875,9.780064582824707,-0.03888336941599846,0.08255238085985184
1772656643600999700,2.191999755859375,9.780064582824707,-0.04307080805301666,0.08015955984592438
1772656643610878700,2.201878662109375,9.78245735168457,-0.040677983313798904,0.0849452018737793
1772656643620757800,2.2117578125,9.780064582824707,-0.04127619042992592,0.08015955984592438
1772656643630637000,2.221636962890625,9.770493507385254,-0.04546362906694412,0.08973085135221481
1772656643640516000,2.23151611328125,9.777671813964844,-0.03888336941599846,0.08255238085985184
1772656643650395100,2.24139501953125,9.77707290649414,-0.040677983313798904,0.08015955984592438
1772656643660274200,2.251274169921875,9.777671813964844,-0.03888336941599846,0.08015955984592438
1772656643670153200,2.2611533203125,9.777671813964844,-0.04127619042992592,0.08015955984592438
1772656643680032300,2.2710322265625,9.774680137634277,-0.03170489892363548,0.08255238085985184
1772656643689911300,2.280911376953125,9.772287368774414,-0.0364905446767807,0.07776673883199692
1772656643699790300,2.290790283203125,9.77527904510498,-0.04127619042992592,0.08255238085985184
1772656643709669400,2.30066943359375,9.78245735168457,-0.03888336941599846,0.08255238085985184
1772656643719548400,2.31054833984375,9.768099784851074,-0.04366901144385338,0.07776673883199692
1772656643729427500,2.320427490234375,9.777671813964844,-0.050847481936216354,0.0849452018737793
1772656643739306800,2.330306640625,9.772886276245117,-0.04366901144385338,0.08255238085985184
1772656643749185800,2.340185791015625,9.780064582824707,-0.0364905446767807,0.08255238085985184
1772656643759064800,2.35006494140625,9.777671813964844,-0.046061836183071136,0.0849452018737793
1772656643768943900,2.35994384765625,9.787242889404297,-0.03888336941599846,0.07537391036748886
1772656643778823000,2.369822998046875,9.78245735168457,-0.040677983313798904,0.0849452018737793
1772656643788702000,2.379701904296875,9.777671813964844,-0.046061836183071136,0.07537391036748886
1772656643798581000,2.3895810546875,9.772886276245117,-0.03888336941599846,0.0849452018737793
1772656643808460000,2.3994599609375,9.780064582824707,-0.04366901144385338,0.08255238085985184
1772656643818339000,2.409339111328125,9.780064582824707,-0.038285162299871445,0.09212367236614227
1772656643828218400,2.41921826171875,9.777671813964844,-0.0364905446767807,0.08015955984592438
1772656643838097400,2.429097412109375,9.77527904510498,-0.03888336941599846,0.08255238085985184
1772656643847976400,2.4389765625,9.772886276245117,-0.04366901144385338,0.07776673883199692
1772656643857855500,2.44885546875,9.777671813964844,-0.035892341285943985,0.08973085135221481
1772656643867734500,2.458734619140625,9.777671813964844,-0.046061836183071136,0.0849452018737793
1772656643877613600,2.468613525390625,9.772886276245117,-0.04546362906694412,0.08733802288770676
1772656643887492600,2.47849267578125,9.787242889404297,-0.03409772366285324,0.08015955984592438
1772656643897371600,2.48837158203125,9.780064582824707,-0.03888336941599846,0.08255238085985184
1772656643907250700,2.498250732421875,9.780064582824707,-0.04366901144385338,0.07537391036748886
1772656643917129700,2.508129638671875,9.77527904510498,-0.04127619042992592,0.08733802288770676
1772656643927008800,2.5180087890625,9.784850120544434,-0.04127619042992592,0.08015955984592438
1772656643936888000,2.52788818359375,9.780064582824707,-0.03888336941599846,0.0849452018737793
1772656643946767000,2.53776708984375,9.78245735168457,-0.03888336941599846,0.0849452018737793
1772656643956646100,2.547646240234375,9.784850120544434,-0.03888336941599846,0.07537391036748886
1772656643966525200,2.557525146484375,9.780064582824707,-0.04127619042992592,0.08015955984592438
1772656643976404200,2.567404296875,9.78245735168457,-0.0364905446767807,0.08015955984592438
1772656643986283300,2.577283203125,9.772886276245117,-0.03888336941599846,0.07776673883199692
1772656643996162300,2.587162353515625,9.777671813964844,-0.04366901144385338,0.08015955984592438
1772656644006041300,2.597041259765625,9.784850120544434,-0.03888336941599846,0.07537391036748886
1772656644015920400,2.60692041015625,9.780064582824707,-0.03170489892363548,0.0891326442360878
1772656644025799700,2.616799560546875,9.777671813964844,-0.04127619042992592,0.08733802288770676
1772656644035678700,2.6266787109375,9.77527904510498,-0.04127619042992592,0.08255238085985184
1772656644045557800,2.636557861328125,9.784850120544434,-0.04307080805301666,0.08255238085985184
1772656644055436800,2.646436767578125,9.78245735168457,-0.04366901144385338,0.0849452018737793
1772656644065315800,2.65631591796875,9.78245735168457,-0.04366901144385338,0.08015955984592438
1772656644075195000,2.66619482421875,9.78245735168457,-0.0364905446767807,0.0729810893535614
1772656644085074000,2.676073974609375,9.77527904510498,-0.046061836183071136,0.08255238085985184
1772656644094953000,2.685952880859375,9.780064582824707,-0.038285162299871445,0.08973085135221481
1772656644104832000,2.69583203125,9.772886276245117,-0.0364905446767807,0.07776673883199692
1772656644114711300,2.705711181640625,9.770493507385254,-0.0364905446767807,0.08255238085985184
1772656644124590300,2.71559033203125,9.77527904510498,-0.03888336941599846,0.07537391036748886
1772656644134469400,2.725469482421875,9.772886276245117,-0.04366901144385338,0.08255238085985184
1772656644144348400,2.735348388671875,9.77527904510498,-0.040677983313798904,0.0849452018737793
1772656644154227500,2.7452275390625,9.780064582824707,-0.04546362906694412,0.08733802288770676
1772656644164106500,2.7551064453125,9.780064582824707,-0.04127619042992592,0.0849452018737793
1772656644173985500,2.764985595703125,9.784850120544434,-0.038285162299871445,0.0849452018737793
1772656644183864600,2.774864501953125,9.784850120544434,-0.04546362906694412,0.08733802288770676
1772656644193743600,2.78474365234375,9.784850120544434,-0.038285162299871445,0.08733802288770676
1772656644203622700,2.79462255859375,9.770493507385254,-0.03409772366285324,0.0849452018737793
1772656644213502000,2.804501953125,9.784850120544434,-0.03888336941599846,0.0849452018737793
1772656644223381000,2.814381103515625,9.780064582824707,-0.03888336941599846,0.07776673883199692
1772656644233260000,2.824260009765625,9.784850120544434,-0.04307080805301666,0.09212367236614227
1772656644243139000,2.83413916015625,9.784850120544434,-0.03888336941599846,0.07776673883199692
1772656644253018000,2.84401806640625,9.780064582824707,-0.0364905446767807,0.08255238085985184
1772656644262897200,2.853897216796875,9.770493507385254,-0.04127619042992592,0.08255238085985184
1772656644272776200,2.863776123046875,9.784850120544434,-0.04546362906694412,0.0849452018737793
1772656644282655200,2.8736552734375,9.77527904510498,-0.04127619042992592,0.0849452018737793
1772656644292534300,2.8835341796875,9.777671813964844,-0.046061836183071136,0.08015955984592438
1772656644302413300,2.893413330078125,9.770493507385254,-0.04127619042992592,0.08255238085985184
1772656644312292400,2.903292236328125,9.777671813964844,-0.04127619042992592,0.08255238085985184
1772656644322171600,2.913171630859375,9.77527904510498,-0.04366901144385338,0.08733802288770676
1772656644332050700,2.92305078125,9.777671813964844,-0.03888336941599846,0.07776673883199692
1772656644341929700,2.9329296875,9.777671813964844,-0.04366901144385338,0.0849452018737793
1772656644351808800,2.942808837890625,9.78245735168457,-0.04127619042992592,0.08255238085985184
1772656644361687800,2.952687744140625,9.780064582824707,-0.035892341285943985,0.08673982322216034
1772656644371566800,2.96256689453125,9.780064582824707,-0.04366901144385338,0.0729810893535614
1772656644381446000,2.97244580078125,9.78963565826416,-0.04307080805301666,0.08255238085985184
1772656644391325000,2.982324951171875,9.777671813964844,-0.040677983313798904,0.0849452018737793
1772656644401204000,2.992203857421875,9.777671813964844,-0.03888336941599846,0.08255238085985184
1772656644411083300,3.002083251953125,9.77527904510498,-0.03888336941599846,0.07537391036748886
1772656644420962300,3.01196240234375,9.768099784851074,-0.04127619042992592,0.08973085135221481
1772656644430841300,3.02184130859375,9.780064582824707,-0.03888336941599846,0.08015955984592438
1772656644440720400,3.031720458984375,9.777671813964844,-0.0364905446767807,0.0849452018737793
1772656644450599400,3.041599365234375,9.770493507385254,-0.04366901144385338,0.08255238085985184
1772656644460478500,3.051478515625,9.777671813964844,-0.038285162299871445,0.09212367236614227
1772656644470357500,3.061357421875,9.78245735168457,-0.04307080805301666,0.08733802288770676
1772656644480236500,3.071236572265625,9.780064582824707,-0.046061836183071136,0.08255238085985184
1772656644490115600,3.081115478515625,9.78245735168457,-0.038285162299871445,0.09212367236614227
1772656644499995000,3.090994873046875,9.784850120544434,-0.040677983313798904,0.0849452018737793
1772656644509874000,3.1008740234375,9.792028427124023,-0.040677983313798904,0.08733802288770676
1772656644519753000,3.1107529296875,9.792028427124023,-0.04546362906694412,0.0849452018737793
1772656644529632000,3.120632080078125,9.780064582824707,-0.0364905446767807,0.0849452018737793
1772656644539511000,3.130510986328125,9.770493507385254,-0.04127619042992592,0.08255238085985184
1772656644549390000,3.14039013671875,9.772886276245117,-0.04127619042992592,0.08733802288770676
1772656644559269000,3.15026904296875,9.780064582824707,-0.04785645380616188,0.08973085135221481
1772656644569148200,3.160148193359375,9.787242889404297,-0.038285162299871445,0.08255238085985184
1772656644579027200,3.170027099609375,9.78245735168457,-0.03888336941599846,0.08973085135221481
1772656644588906500,3.179906494140625,9.787242889404297,-0.03888336941599846,0.08255238085985184
1772656644598785500,3.18978564453125,9.780064582824707,-0.04127619042992592,0.0849452018737793
1772656644608664600,3.19966455078125,9.787242889404297,-0.03888336941599846,0.08733802288770676
1772656644618543600,3.209543701171875,9.780064582824707,-0.03888336941599846,0.08733802288770676
1772656644628422700,3.219422607421875,9.787242889404297,-0.03888336941599846,0.08015955984592438
1772656644638301700,3.2293017578125,9.784850120544434,-0.0364905446767807,0.08255238085985184
1772656644648180700,3.2391806640625,9.777671813964844,-0.0364905446767807,0.08015955984592438
1772656644658059800,3.249059814453125,9.756135940551758,-0.026919255033135414,0.08015955984592438
1772656644667938800,3.258938720703125,9.772886276245117,-0.03888336941599846,0.08015955984592438
1772656644677818000,3.268818115234375,9.763314247131348,-0.04127619042992592,0.0849452018737793
1772656644687697200,3.278697265625,9.780064582824707,-0.0364905446767807,0.08015955984592438
1772656644697576200,3.288576171875,9.784850120544434,-0.04366901144385338,0.08015955984592438
1772656644707455200,3.298455322265625,9.777671813964844,-0.0364905446767807,0.0849452018737793
1772656644717334300,3.308334228515625,9.78245735168457,-0.03888336941599846,0.08015955984592438
1772656644727213300,3.31821337890625,9.780064582824707,-0.035892341285943985,0.09451649338006973
1772656644737092400,3.32809228515625,9.78245735168457,-0.040677983313798904,0.08733802288770676
1772656644746971400,3.337971435546875,9.772886276245117,-0.038285162299871445,0.08973085135221481
1772656644756850400,3.347850341796875,9.780064582824707,-0.04127619042992592,0.0849452018737793
1772656644766729700,3.357729736328125,9.780064582824707,-0.0364905446767807,0.08255238085985184
1772656644776608800,3.36760888671875,9.78245735168457,-0.03888336941599846,0.08255238085985184
1772656644786487800,3.37748779296875,9.78245735168457,-0.04366901144385338,0.0729810893535614
1772656644796366800,3.387366943359375,9.777671813964844,-0.03409772366285324,0.08255238085985184
1772656644806246000,3.397245849609375,9.787242889404297,-0.038285162299871445,0.09212367236614227
1772656644816125000,3.407125,9.780064582824707,-0.04127619042992592,0.08015955984592438
1772656644826004000,3.41700390625,9.78245735168457,-0.040677983313798904,0.08973085135221481
1772656644835883000,3.426883056640625,9.780064582824707,-0.04366901144385338,0.08255238085985184
1772656644845762300,3.43676220703125,9.78245735168457,-0.0364905446767807,0.07776673883199692
1772656644855641300,3.446641357421875,9.77527904510498,-0.03409772366285324,0.08015955984592438
1772656644865520400,3.456520263671875,9.77527904510498,-0.03888336941599846,0.0849452018737793
1772656644875399400,3.4663994140625,9.777671813964844,-0.03409772366285324,0.08015955984592438
1772656644885278500,3.476278564453125,9.784850120544434,-0.035892341285943985,0.0849452018737793
1772656644895157500,3.486157470703125,9.780064582824707,-0.038285162299871445,0.0849452018737793
1772656644905036500,3.49603662109375,9.772886276245117,-0.03409772366285324,0.07537391036748886
1772656644914915600,3.50591552734375,9.77527904510498,-0.04366901144385338,0.08015955984592438
1772656644924795000,3.515794921875,9.772886276245117,-0.04366901144385338,0.08255238085985184
1772656644934674000,3.525673828125,9.765707015991211,-0.04127619042992592,0.08015955984592438
1772656644944553000,3.535552978515625,9.784850120544434,-0.03409772366285324,0.08673982322216034
1772656644954432000,3.545431884765625,9.780064582824707,-0.03888336941599846,0.08255238085985184
1772656644964311000,3.55531103515625,9.780064582824707,-0.03409772366285324,0.08733802288770676
1772656644974190000,3.565190185546875,9.78245735168457,-0.04366901144385338,0.0729810893535614
1772656644984069000,3.575069091796875,9.78245735168457,-0.04546362906694412,0.08733802288770676
1772656644993948200,3.5849482421875,9.777671813964844,-0.04127619042992592,0.0849452018737793
1772656645003827200,3.5948271484375,9.777671813964844,-0.03888336941599846,0.08015955984592438
1772656645013706500,3.60470654296875,9.78245735168457,-0.038285162299871445,0.09212367236614227
1772656645023585500,3.61458544921875,9.780064582824707,-0.04127619042992592,0.08733802288770676
1772656645033464600,3.624464599609375,9.78245735168457,-0.040677983313798904,0.08733802288770676
1772656645043343600,3.634343505859375,9.78245735168457,-0.03888336941599846,0.08255238085985184
1772656645053222700,3.64422265625,9.787242889404297,-0.0364905446767807,0.07776673883199692
1772656645063101700,3.654101806640625,9.780064582824707,-0.040677983313798904,0.08973085135221481
1772656645072980700,3.663980712890625,9.77527904510498,-0.04366901144385338,0.08015955984592438
1772656645082859800,3.67385986328125,9.78245735168457,-0.03409772366285324,0.0849452018737793
1772656645092738800,3.68373876953125,9.777671813964844,-0.0364905446767807,0.08015955984592438
1772656645102618000,3.6936181640625,9.780064582824707,-0.05024927482008934,0.0849452018737793
1772656645112497200,3.7034970703125,9.77527904510498,-0.048454657196998596,0.08255238085985184
1772656645122376200,3.713376220703125,9.784850120544434,-0.0364905446767807,0.07776673883199692
1772656645132255200,3.723255126953125,9.777671813964844,-0.050847481936216354,0.08015955984592438
1772656645142134300,3.73313427734375,9.777671813964844,-0.0364905446767807,0.0849452018737793
1772656645152013300,3.743013427734375,9.777671813964844,-0.040677983313798904,0.08973085135221481
1772656645161892400,3.752892333984375,9.784850120544434,-0.040677983313798904,0.08733802288770676
1772656645171771400,3.762771484375,9.780064582824707,-0.03888336941599846,0.0849452018737793
1772656645181650700,3.772650634765625,9.780064582824707,-0.0364905446767807,0.08733802288770676
1772656645191529700,3.78252978515625,9.780064582824707,-0.03409772366285324,0.0849452018737793
1772656645201408800,3.79240869140625,9.770493507385254,-0.04127619042992592,0.08255238085985184
1772656645211287800,3.802287841796875,9.777671813964844,-0.04127619042992592,0.08015955984592438
1772656645221166800,3.812166748046875,9.780064582824707,-0.0364905446767807,0.0849452018737793
1772656645231046000,3.8220458984375,9.77527904510498,-0.040677983313798904,0.08733802288770676
1772656645240925000,3.831925048828125,9.780064582824707,-0.03888336941599846,0.07776673883199692
1772656645250804000,3.841803955078125,9.780064582824707,-0.04366901144385338,0.08015955984592438
1772656645260683300,3.851683349609375,9.772886276245117,-0.04307080805301666,0.0849452018737793
1772656645270562300,3.861562255859375,9.777671813964844,-0.0364905446767807,0.08015955984592438
1772656645280441300,3.87144140625,9.770493507385254,-0.04546362906694412,0.08973085135221481
1772656645290320400,3.8813203125,9.780064582824707,-0.04366901144385338,0.08015955984592438
1772656645300199400,3.891199462890625,9.78245735168457,-0.040677983313798904,0.08255238085985184
1772656645310078500,3.901078369140625,9.777671813964844,-0.03888336941599846,0.07776673883199692
1772656645319957500,3.91095751953125,9.77527904510498,-0.04546362906694412,0.0849452018737793
1772656645329836500,3.92083642578125,9.78245735168457,-0.04785645380616188,0.0849452018737793
1772656645339715600,3.930715576171875,9.780064582824707,-0.04366901144385338,0.08015955984592438
1772656645349595000,3.940594970703125,9.78245735168457,-0.0364905446767807,0.08015955984592438
1772656645359474000,3.950473876953125,9.77527904510498,-0.04366901144385338,0.08015955984592438
1772656645369353000,3.96035302734375,9.780064582824707,-0.046061836183071136,0.0849452018737793
1772656645379232000,3.97023193359375,9.77527904510498,-0.04546362906694412,0.08255238085985184
1772656645389111000,3.980111083984375,9.78245735168457,-0.04366901144385338,0.08015955984592438
1772656645398990000,3.989989990234375,9.777671813964844,-0.04307080805301666,0.09451649338006973
1772656645408869000,3.999869140625,9.780064582824707,-0.04307080805301666,0.08973085135221481
1772656645418748400,4.00974853515625,9.772886276245117,-0.038285162299871445,0.08973085135221481
1772656645428627500,4.01962744140625,9.780064582824707,-0.04127619042992592,0.08255238085985184
1772656645438506500,4.029506591796875,9.77527904510498,-0.03888336941599846,0.0849452018737793
1772656645448385500,4.039385498046875,9.78245735168457,-0.04546362906694412,0.08015955984592438
1772656645458264600,4.0492646484375,9.780064582824707,-0.04785645380616188,0.0849452018737793
1772656645468143600,4.0591435546875,9.780064582824707,-0.040677983313798904,0.0891326442360878
1772656645478022700,4.069022705078125,9.772886276245117,-0.0364905446767807,0.08733802288770676
1772656645487901700,4.078901611328125,9.77527904510498,-0.0364905446767807,0.08255238085985184
1772656645497781000,4.088781005859375,9.77527904510498,-0.03409772366285324,0.07537391036748886
1772656645507660000,4.098659912109375,9.780064582824707,-0.04127619042992592,0.08015955984592438
1772656645517539000,4.1085390625,9.77527904510498,-0.04366901144385338,0.07058826833963394
1772656645527418000,4.118418212890625,9.780064582824707,-0.04366901144385338,0.0729810893535614
1772656645537297200,4.128297119140625,9.772886276245117,-0.0364905446767807,0.08015955984592438
1772656645547176200,4.13817626953125,9.77527904510498,-0.040677983313798904,0.09212367236614227
1772656645557055200,4.14805517578125,9.77527904510498,-0.04366901144385338,0.07537391036748886
1772656645566934300,4.157934326171875,9.77527904510498,-0.03409772366285324,0.08015955984592438
1772656645576813300,4.167813232421875,9.777671813964844,-0.04785645380616188,0.08015955984592438
1772656645586692600,4.177692626953125,9.777671813964844,-0.04366901144385338,0.07776673883199692
1772656645596571600,4.187571533203125,9.777671813964844,-0.0364905446767807,0.08733802288770676
1772656645606450700,4.19745068359375,9.77527904510498,-0.04127619042992592,0.07058826833963394
1772656645616329700,4.207329833984375,9.770493507385254,-0.04307080805301666,0.0849452018737793
1772656645626208800,4.217208740234375,9.77527904510498,-0.04366901144385338,0.08255238085985184
1772656645636087800,4.227087890625,9.777671813964844,-0.0364905446767807,0.07776673883199692
1772656645645966800,4.236966796875,9.77527904510498,-0.04127619042992592,0.07537391036748886
1772656645655846100,4.24684619140625,9.772886276245117,-0.04127619042992592,0.0849452018737793
1772656645665725200,4.25672509765625,9.777671813964844,-0.038285162299871445,0.09212367236614227
1772656645675604200,4.266604248046875,9.784850120544434,-0.0364905446767807,0.07537391036748886
1772656645685483300,4.276483154296875,9.777671813964844,-0.046061836183071136,0.07776673883199692
1772656645695362300,4.2863623046875,9.77527904510498,-0.04307080805301666,0.08733802288770676
1772656645705241300,4.296241455078125,9.772886276245117,-0.04366901144385338,0.08015955984592438
1772656645715120400,4.306120361328125,9.777671813964844,-0.04366901144385338,0.08255238085985184
1772656645724999400,4.31599951171875,9.772886276245117,-0.046061836183071136,0.0729810893535614
1772656645734878500,4.32587841796875,9.787242889404297,-0.04366901144385338,0.08255238085985184
1772656645744757800,4.3357578125,9.777671813964844,-0.04366901144385338,0.0849452018737793
1772656645754636800,4.34563671875,9.77527904510498,-0.03888336941599846,0.0849452018737793
1772656645764515800,4.355515869140625,9.77527904510498,-0.04546362906694412,0.08973085135221481
1772656645774395000,4.365394775390625,9.780064582824707,-0.02871387079358101,0.08673982322216034
1772656645784274000,4.37527392578125,9.772886276245117,-0.04127619042992592,0.07537391036748886
1772656645794153000,4.385153076171875,9.780064582824707,-0.04127619042992592,0.0849452018737793
1772656645804032000,4.395031982421875,9.772886276245117,-0.04127619042992592,0.07537391036748886
1772656645813911300,4.404911376953125,9.77527904510498,-0.04546362906694412,0.09212367236614227
1772656645823790300,4.414790283203125,9.77527904510498,-0.03888336941599846,0.07776673883199692
1772656645833669400,4.42466943359375,9.77527904510498,-0.03409772366285324,0.0849452018737793
1772656645843548400,4.43454833984375,9.77527904510498,-0.04546362906694412,0.08973085135221481
1772656645853427500,4.444427490234375,9.777671813964844,-0.040677983313798904,0.08973085135221481
1772656645863306500,4.454306396484375,9.77527904510498,-0.03170489892363548,0.08733802288770676
1772656645873185500,4.464185546875,9.784850120544434,-0.03888336941599846,0.07537391036748886
1772656645883064600,4.474064697265625,9.78245735168457,-0.03170489892363548,0.07776673883199692
1772656645892944000,4.48394384765625,9.777671813964844,-0.04366901144385338,0.06819544732570648
1772656645902823000,4.493822998046875,9.784850120544434,-0.03888336941599846,0.08733802288770676
1772656645912702000,4.503701904296875,9.777671813964844,-0.04127619042992592,0.08255238085985184
1772656645922581000,4.5135810546875,9.777671813964844,-0.04127619042992592,0.08015955984592438
1772656645932460000,4.5234599609375,9.780064582824707,-0.048454657196998596,0.08015955984592438
1772656645942339000,4.533339111328125,9.777671813964844,-0.04127619042992592,0.0849452018737793
1772656645952218000,4.543218017578125,9.77527904510498,-0.0364905446767807,0.08255238085985184
1772656645962097200,4.55309716796875,9.772886276245117,-0.03409772366285324,0.08733802288770676
1772656645971976400,4.5629765625,9.772886276245117,-0.04785645380616188,0.08973085135221481
1772656645981855500,4.57285546875,9.77527904510498,-0.03409772366285324,0.07537391036748886
1772656645991734500,4.582734619140625,9.770493507385254,-0.046061836183071136,0.0849452018737793
1772656646001613600,4.592613525390625,9.772886276245117,-0.04366901144385338,0.07776673883199692
1772656646011492600,4.60249267578125,9.77527904510498,-0.0364905446767807,0.0849452018737793
1772656646021371600,4.61237158203125,9.77527904510498,-0.04366901144385338,0.07537391036748886
1772656646031250700,4.622250732421875,9.78245735168457,-0.04127619042992592,0.08015955984592438
1772656646041130000,4.6321298828125,9.772886276245117,-0.04307080805301666,0.08733802288770676
1772656646051009000,4.642009033203125,9.77527904510498,-0.0364905446767807,0.0849452018737793
1772656646060888000,4.65188818359375,9.780064582824707,-0.03888336941599846,0.07776673883199692
1772656646070767000,4.66176708984375,9.780064582824707,-0.0364905446767807,0.08733802288770676
1772656646080646100,4.671646240234375,9.77527904510498,-0.03888336941599846,0.0849452018737793
1772656646090525200,4.681525146484375,9.77527904510498,-0.03888336941599846,0.07537391036748886
1772656646100404200,4.691404296875,9.770493507385254,-0.03888336941599846,0.08015955984592438
1772656646110283300,4.701283203125,9.772886276245117,-0.03888336941599846,0.0849452018737793
1772656646120162300,4.711162353515625,9.772886276245117,-0.04366901144385338,0.08255238085985184
1772656646130041600,4.72104150390625,9.780064582824707,-0.0364905446767807,0.08255238085985184
1772656646139920600,4.730920654296875,9.770493507385254,-0.04366901144385338,0.08255238085985184
1772656646149799700,4.740799560546875,9.768099784851074,-0.04127619042992592,0.08015955984592438
1772656646159678700,4.7506787109375,9.777671813964844,-0.04366901144385338,0.08255238085985184
1772656646169557800,4.760557861328125,9.77527904510498,-0.0364905446767807,0.08733802288770676
1772656646179436800,4.770436767578125,9.777671813964844,-0.03409772366285324,0.08255238085985184
1772656646189316000,4.780316162109375,9.772886276245117,-0.0364905446767807,0.07776673883199692
1772656646199195100,4.790195068359375,9.777671813964844,-0.040677983313798904,0.08973085135221481
1772656646209074200,4.80007421875,9.772886276245117,-0.0364905446767807,0.0849452018737793
1772656646218953200,4.809953125,9.777671813964844,-0.04127619042992592,0.08255238085985184
1772656646228832300,4.819832275390625,9.772886276245117,-0.03888336941599846,0.08015955984592438
1772656646238711300,4.829711181640625,9.77527904510498,-0.04127619042992592,0.0849452018737793
1772656646248590300,4.83959033203125,9.77527904510498,-0.04127619042992592,0.07537391036748886
1772656646258469400,4.849469482421875,9.777671813964844,-0.040677983313798904,0.08255238085985184
1772656646268348400,4.859348388671875,9.77527904510498,-0.0364905446767807,0.0849452018737793
1772656646278227500,4.8692275390625,9.78245735168457,-0.040677983313798904,0.0849452018737793
1772656646288106800,4.879106689453125,9.77527904510498,-0.046061836183071136,0.08255238085985184
1772656646297985800,4.88898583984375,9.78245735168457,-0.03888336941599846,0.07776673883199692
1772656646307864800,4.89886474609375,9.780064582824707,-0.03888336941599846,0.08973085135221481
1772656646317743900,4.908743896484375,9.768099784851074,-0.03888336941599846,0.08973085135221481
1772656646327623000,4.918622802734375,9.777671813964844,-0.04366901144385338,0.08255238085985184
1772656646337502000,4.928501953125,9.78245735168457,-0.04366901144385338,0.07537391036748886
1772656646347381200,4.93838134765625,9.770493507385254,-0.048454657196998596,0.08733802288770676
1772656646357260300,4.94826025390625,9.77527904510498,-0.04127619042992592,0.0849452018737793
1772656646367139300,4.958139404296875,9.77527904510498,-0.046061836183071136,0.08255238085985184
1772656646377018400,4.968018310546875,9.78245735168457,-0.0364905446767807,0.08255238085985184
1772656646386897400,4.9778974609375,9.780064582824707,-0.03349951654672623,0.0891326442360878
1772656646396776400,4.9877763671875,9.770493507385254,-0.0364905446767807,0.08255238085985184
1772656646406655500,4.997655517578125,9.777671813964844,-0.040677983313798904,0.08973085135221481
1772656646416534500,5.007534423828125,9.777671813964844,-0.03409772366285324,0.08733802288770676
1772656646426413600,5.01741357421875,9.780064582824707,-0.038285162299871445,0.08255238085985184
1772656646436292900,5.02729296875,9.777671813964844,-0.04366901144385338,0.0849452018737793
1772656646446172000,5.037171875,9.77527904510498,-0.04127619042992592,0.0849452018737793
1772656646456051000,5.047051025390625,9.772886276245117,-0.03888336941599846,0.0849452018737793
1772656646465930000,5.056929931640625,9.78245735168457,-0.04127619042992592,0.08015955984592438
1772656646475809000,5.06680908203125,9.78963565826416,-0.03409772366285324,0.07537391036748886
1772656646485688000,5.07668798828125,9.777671813964844,-0.03409772366285324,0.08733802288770676
1772656646495567000,5.086567138671875,9.772886276245117,-0.046061836183071136,0.07776673883199692
1772656646505446400,5.0964462890625,9.77527904510498,-0.03409772366285324,0.0849452018737793
1772656646515325400,5.106325439453125,9.772886276245117,-0.046061836183071136,0.08733802288770676
1772656646525204500,5.11620458984375,9.770493507385254,-0.03888336941599846,0.07776673883199692
1772656646535083500,5.12608349609375,9.772886276245117,-0.03170489892363548,0.07537391036748886
1772656646544962600,5.135962646484375,9.77527904510498,-0.0364905446767807,0.08015955984592438
1772656646554841600,5.145841552734375,9.772886276245117,-0.0364905446767807,0.0849452018737793
1772656646564720600,5.155720703125,9.772886276245117,-0.04127619042992592,0.08015955984592438
1772656646574599700,5.165599609375,9.777671813964844,-0.0364905446767807,0.08015955984592438
1772656646584478700,5.175478759765625,9.768099784851074,-0.04785645380616188,0.09690931439399719
1772656646594358000,5.18535791015625,9.77527904510498,-0.04785645380616188,0.08973085135221481
1772656646604237000,5.195237060546875,9.77527904510498,-0.04127619042992592,0.07537391036748886
1772656646614116000,5.2051162109375,9.777671813964844,-0.04127619042992592,0.08015955984592438
1772656646623995100,5.2149951171875,9.772886276245117,-0.04127619042992592,0.0849452018737793
1772656646633874200,5.224874267578125,9.770493507385254,-0.0364905446767807,0.08255238085985184
1772656646643753200,5.234753173828125,9.777671813964844,-0.03409772366285324,0.08015955984592438
1772656646653632300,5.24463232421875,9.772886276245117,-0.04366901144385338,0.0849452018737793
1772656646663511600,5.254511474609375,9.780064582824707,-0.046061836183071136,0.08255238085985184
1772656646673390600,5.264390625,9.777671813964844,-0.03888336941599846,0.08255238085985184
1772656646683269600,5.27426953125,9.77527904510498,-0.046061836183071136,0.08255238085985184
1772656646693148700,5.284148681640625,9.772886276245117,-0.03888336941599846,0.08015955984592438
1772656646703027700,5.29402783203125,9.770493507385254,-0.050847481936216354,0.0849452018737793
1772656646712906800,5.30390673828125,9.772886276245117,-0.046061836183071136,0.07776673883199692
1772656646722785800,5.313785888671875,9.77527904510498,-0.0364905446767807,0.07776673883199692
1772656646732664800,5.323664794921875,9.777671813964844,-0.0364905446767807,0.0849452018737793
1772656646742544000,5.3335439453125,9.77527904510498,-0.03888336941599846,0.07776673883199692
1772656646752423200,5.343423095703125,9.770493507385254,-0.048454657196998596,0.08255238085985184
1772656646762302200,5.35330224609375,9.777671813964844,-0.04307080805301666,0.08733802288770676
1772656646772181200,5.36318115234375,9.77527904510498,-0.04127619042992592,0.08015955984592438
1772656646782060300,5.373060302734375,9.77527904510498,-0.04366901144385338,0.08733802288770676
1772656646791939300,5.382939208984375,9.784850120544434,-0.04127619042992592,0.0849452018737793
1772656646801818400,5.392818359375,9.772886276245117,-0.04127619042992592,0.07537391036748886
1772656646811697400,5.402697509765625,9.772886276245117,-0.046061836183071136,0.07776673883199692
1772656646821576700,5.41257666015625,9.780064582824707,-0.0364905446767807,0.08733802288770676
1772656646831455700,5.422455810546875,9.77527904510498,-0.03888336941599846,0.08015955984592438
1772656646841334800,5.432334716796875,9.780064582824707,-0.04127619042992592,0.0849452018737793
1772656646851213800,5.4422138671875,9.78245735168457,-0.040677983313798904,0.08733802288770676
1772656646861092900,5.4520927734375,9.777671813964844,-0.0364905446767807,0.07776673883199692
1772656646870972000,5.461971923828125,9.77527904510498,-0.0364905446767807,0.0849452018737793
1772656646880851000,5.471850830078125,9.78245735168457,-0.04546362906694412,0.08973085135221481
1772656646890730000,5.48172998046875,9.772886276245117,-0.03888336941599846,0.08015955984592438
1772656646900609000,5.491609130859375,9.772886276245117,-0.04127619042992592,0.0849452018737793
1772656646910488300,5.50148828125,9.770493507385254,-0.04366901144385338,0.07776673883199692
1772656646920367400,5.511367431640625,9.770493507385254,-0.03170489892363548,0.08255238085985184
1772656646930246400,5.521246337890625,9.770493507385254,-0.04307080805301666,0.08255238085985184
1772656646940125400,5.53112548828125,9.772886276245117,-0.04366901144385338,0.07776673883199692
1772656646950004500,5.54100439453125,9.77527904510498,-0.0364905446767807,0.07776673883199692
1772656646959883500,5.550883544921875,9.772886276245117,-0.046061836183071136,0.0729810893535614
1772656646969762600,5.560762451171875,9.770493507385254,-0.040677983313798904,0.08733802288770676
1772656646979641600,5.5706416015625,9.772886276245117,-0.04366901144385338,0.07776673883199692
1772656646989520600,5.580520751953125,9.777671813964844,-0.04546362906694412,0.07537391036748886
1772656646999400000,5.59039990234375,9.780064582824707,-0.046061836183071136,0.07776673883199692
1772656647009279000,5.600279052734375,9.772886276245117,-0.040677983313798904,0.08733802288770676
1772656647019158000,5.610157958984375,9.772886276245117,-0.04366901144385338,0.08255238085985184
1772656647029037000,5.620037109375,9.772886276245117,-0.03888336941599846,0.08733802288770676
1772656647038916000,5.629916015625,9.777671813964844,-0.04366901144385338,0.08255238085985184
1772656647048795100,5.639795166015625,9.768099784851074,-0.03888336941599846,0.08255238085985184
1772656647058674200,5.649674072265625,9.777671813964844,-0.03170489892363548,0.0729810893535614
1772656647068553500,5.659553466796875,9.760921478271484,-0.03170489892363548,0.08255238085985184
1772656647078432500,5.6694326171875,9.780064582824707,-0.03888336941599846,0.08733802288770676
1772656647088311600,5.6793115234375,9.780064582824707,-0.04366901144385338,0.08255238085985184
1772656647098190600,5.689190673828125,9.772886276245117,-0.035892341285943985,0.09451649338006973
1772656647108069600,5.699069580078125,9.772886276245117,-0.03409772366285324,0.0849452018737793
1772656647117948700,5.70894873046875,9.770493507385254,-0.04366901144385338,0.08255238085985184
1772656647127827700,5.71882763671875,9.777671813964844,-0.048454657196998596,0.0849452018737793
1772656647137706800,5.728706787109375,9.777671813964844,-0.04366901144385338,0.07776673883199692
1772656647147585800,5.738585693359375,9.772886276245117,-0.03888336941599846,0.08973085135221481
1772656647157465000,5.748465087890625,9.772886276245117,-0.04127619042992592,0.0849452018737793
1772656647167344000,5.75834423828125,9.777671813964844,-0.040677983313798904,0.09212367236614227
1772656647177223200,5.76822314453125,9.777671813964844,-0.04127619042992592,0.08255238085985184
1772656647187102200,5.778102294921875,9.772886276245117,-0.046061836183071136,0.0849452018737793
1772656647196981200,5.787981201171875,9.777671813964844,-0.0364905446767807,0.0849452018737793
1772656647206860300,5.7978603515625,9.780064582824707,-0.040677983313798904,0.0849452018737793
1772656647216739300,5.8077392578125,9.768099784851074,-0.053240302950143814,0.08015955984592438
1772656647226618400,5.817618408203125,9.777671813964844,-0.04127619042992592,0.08015955984592438
1772656647236497400,5.827497314453125,9.777671813964844,-0.03888336941599846,0.08733802288770676
1772656647246376700,5.837376708984375,9.770493507385254,-0.04366901144385338,0.07776673883199692
1772656647256255700,5.847255859375,9.772886276245117,-0.04127619042992592,0.07537391036748886
1772656647266134800,5.857134765625,9.77527904510498,-0.03888336941599846,0.08733802288770676
1772656647276013800,5.867013916015625,9.772886276245117,-0.04366901144385338,0.0849452018737793
1772656647285892900,5.876892822265625,9.777671813964844,-0.0364905446767807,0.0849452018737793
1772656647295772000,5.88677197265625,9.77527904510498,-0.03409772366285324,0.07776673883199692
1772656647305651000,5.89665087890625,9.772886276245117,-0.04127619042992592,0.08973085135221481
1772656647315530000,5.906530029296875,9.777671813964844,-0.04366901144385338,0.0849452018737793
1772656647325409000,5.916408935546875,9.770493507385254,-0.04366901144385338,0.08015955984592438
1772656647335288300,5.926288330078125,9.77527904510498,-0.0364905446767807,0.08015955984592438
1772656647345167400,5.93616748046875,9.78245735168457,-0.04127619042992592,0.08255238085985184
1772656647355046400,5.94604638671875,9.777671813964844,-0.04127619042992592,0.08015955984592438
1772656647364925400,5.955925537109375,9.770493507385254,-0.03170489892363548,0.08015955984592438
1772656647374804500,5.965804443359375,9.772886276245117,-0.03888336941599846,0.08733802288770676
1772656647384683500,5.97568359375,9.772886276245117,-0.0364905446767807,0.0849452018737793
1772656647394562600,5.9855625,9.770493507385254,-0.04127619042992592,0.08255238085985184
1772656647404441600,5.995441650390625,9.772886276245117,-0.03409772366285324,0.08733802288770676
1772656647414320600,6.005320556640625,9.772886276245117,-0.03888336941599846,0.08973085135221481
1772656647424200000,6.015199951171875,9.768099784851074,-0.0364905446767807,0.08015955984592438
1772656647434079000,6.025078857421875,9.770493507385254,-0.03888336941599846,0.0849452018737793
1772656647443958000,6.0349580078125,9.780064582824707,-0.04127619042992592,0.07537391036748886
1772656647453837000,6.044837158203125,9.772886276245117,-0.03888336941599846,0.08015955984592438
1772656647463716000,6.054716064453125,9.770493507385254,-0.04366901144385338,0.08733802288770676
1772656647473595100,6.06459521484375,9.770493507385254,-0.0364905446767807,0.07776673883199692
1772656647483474200,6.07447412109375,9.772886276245117,-0.03409772366285324,0.08255238085985184
1772656647493353200,6.084353271484375,9.772886276245117,-0.040677983313798904,0.08255238085985184
1772656647503232500,6.094232421875,9.77527904510498,-0.0364905446767807,0.08255238085985184
1772656647513111600,6.104111572265625,9.777671813964844,-0.04546362906694412,0.0849452018737793
1772656647522990600,6.113990478515625,9.772886276245117,-0.04546362906694412,0.08733802288770676
1772656647532869600,6.12386962890625,9.770493507385254,-0.04127619042992592,0.08015955984592438
1772656647542748700,6.133748779296875,9.770493507385254,-0.0364905446767807,0.08015955984592438
1772656647552627700,6.143627685546875,9.777671813964844,-0.0364905446767807,0.07776673883199692
1772656647562506800,6.1535068359375,9.77527904510498,-0.03409772366285324,0.08255238085985184
1772656647572385800,6.1633857421875,9.772886276245117,-0.04127619042992592,0.07058826833963394
1772656647582264800,6.173264892578125,9.768099784851074,-0.029312077909708023,0.08015955984592438
1772656647592144000,6.183143798828125,9.77527904510498,-0.04366901144385338,0.0849452018737793
1772656647602023200,6.193023193359375,9.770493507385254,-0.03888336941599846,0.08255238085985184
1772656647611902200,6.202902099609375,9.768099784851074,-0.03888336941599846,0.08733802288770676
1772656647621781200,6.21278125,9.77527904510498,-0.03888336941599846,0.08255238085985184
1772656647631660300,6.222660400390625,9.770493507385254,-0.04546362906694412,0.0849452018737793
1772656647641539300,6.232539306640625,9.768099784851074,-0.048454657196998596,0.08015955984592438
1772656647651418400,6.24241845703125,9.777671813964844,-0.04127619042992592,0.08015955984592438
1772656647661297400,6.25229736328125,9.77527904510498,-0.04307080805301666,0.08973085135221481
1772656647671176400,6.262176513671875,9.780064582824707,-0.04366901144385338,0.08015955984592438
1772656647681055500,6.272055419921875,9.772886276245117,-0.046061836183071136,0.07776673883199692
1772656647690934800,6.281934814453125,9.768099784851074,-0.040677983313798904,0.08973085135221481
1772656647700813800,6.291813720703125,9.772886276245117,-0.04366901144385338,0.0849452018737793
1772656647710692900,6.30169287109375,9.780064582824707,-0.04366901144385338,0.0849452018737793
1772656647720572000,6.311572021484375,9.772886276245117,-0.03888336941599846,0.08255238085985184
1772656647730451000,6.321450927734375,9.772886276245117,-0.04127619042992592,0.08255238085985184
1772656647740330000,6.331330078125,9.77527904510498,-0.046061836183071136,0.0729810893535614
1772656647750209000,6.341208984375,9.765707015991211,-0.04366901144385338,0.08015955984592438
1772656647760088000,6.351088134765625,9.772886276245117,-0.03888336941599846,0.08015955984592438
1772656647769967000,6.360967041015625,9.770493507385254,-0.03409772366285324,0.0849452018737793
1772656647779846400,6.370846435546875,9.765707015991211,-0.03888336941599846,0.07537391036748886
1772656647789725400,6.380725341796875,9.768099784851074,-0.04366901144385338,0.08255238085985184
1772656647799604500,6.3906044921875,9.77527904510498,-0.03888336941599846,0.08255238085985184
1772656647809483500,6.4004833984375,9.777671813964844,-0.04127619042992592,0.08015955984592438
1772656647819362600,6.410362548828125,9.770493507385254,-0.04127619042992592,0.0849452018737793
1772656647829241600,6.42024169921875,9.770493507385254,-0.046061836183071136,0.07776673883199692
1772656647839120600,6.43012060546875,9.772886276245117,-0.0364905446767807,0.08973085135221481
1772656647848999700,6.439999755859375,9.77527904510498,-0.040677983313798904,0.09212367236614227
1772656647858878700,6.449878662109375,9.770493507385254,-0.04127619042992592,0.08733802288770676
1772656647868758000,6.459758056640625,9.777671813964844,-0.04546362906694412,0.08733802288770676
1772656647878637000,6.469636962890625,9.77527904510498,-0.04127619042992592,0.08255238085985184
1772656647888516000,6.47951611328125,9.768099784851074,-0.0364905446767807,0.07776673883199692
1772656647898395100,6.48939501953125,9.77527904510498,-0.04127619042992592,0.07776673883199692
1772656647908274200,6.499274169921875,9.770493507385254,-0.04127619042992592,0.07537391036748886
1772656647918153200,6.5091533203125,9.768099784851074,-0.04366901144385338,0.08733802288770676
1772656647928032300,6.5190322265625,9.772886276245117,-0.046061836183071136,0.08015955984592438
1772656647937911300,6.528911376953125,9.772886276245117,-0.04307080805301666,0.09212367236614227
1772656647947790300,6.538790283203125,9.770493507385254,-0.04127619042992592,0.07776673883199692
1772656647957669400,6.54866943359375,9.770493507385254,-0.03888336941599846,0.07776673883199692
1772656647967548400,6.55854833984375,9.770493507385254,-0.03170489892363548,0.08255238085985184
1772656647977427700,6.568427734375,9.768099784851074,-0.048454657196998596,0.07776673883199692
1772656647987306800,6.578306640625,9.780064582824707,-0.03888336941599846,0.07537391036748886
1772656647997185800,6.588185791015625,9.768099784851074,-0.04127619042992592,0.08015955984592438
1772656648007064800,6.59806494140625,9.756135940551758,-0.03888336941599846,0.08733802288770676
1772656648016943900,6.60794384765625,9.78245735168457,-0.03888336941599846,0.08255238085985184
1772656648026823000,6.617822998046875,9.787242889404297,-0.048454657196998596,0.08015955984592438
1772656648036702000,6.627701904296875,9.770493507385254,-0.04127619042992592,0.07537391036748886
1772656648046581000,6.6375810546875,9.770493507385254,-0.03409772366285324,0.08015955984592438
1772656648056460000,6.6474599609375,9.765707015991211,-0.03888336941599846,0.08015955984592438
1772656648066339000,6.657339111328125,9.777671813964844,-0.0364905446767807,0.07776673883199692
1772656648076218400,6.66721826171875,9.772886276245117,-0.03888336941599846,0.08255238085985184
1772656648086097400,6.677097412109375,9.77527904510498,-0.0364905446767807,0.08015955984592438
1772656648095976400,6.6869765625,9.772886276245117,-0.03409772366285324,0.08255238085985184
1772656648105855500,6.69685546875,9.765707015991211,-0.03409772366285324,0.0849452018737793
1772656648115734500,6.706734619140625,9.772886276245117,-0.04127619042992592,0.08015955984592438
1772656648125613600,6.716613525390625,9.768099784851074,-0.04127619042992592,0.07537391036748886
1772656648135492600,6.72649267578125,9.777671813964844,-0.031106693670153618,0.0891326442360878
1772656648145371600,6.73637158203125,9.777671813964844,-0.04785645380616188,0.08255238085985184
1772656648155250700,6.746250732421875,9.765707015991211,-0.04127619042992592,0.08255238085985184
1772656648165129700,6.756129638671875,9.770493507385254,-0.0364905446767807,0.08255238085985184
1772656648175008800,6.7660087890625,9.77527904510498,-0.04366901144385338,0.08255238085985184
1772656648184888000,6.77588818359375,9.765707015991211,-0.04127619042992592,0.08255238085985184
1772656648194767000,6.78576708984375,9.770493507385254,-0.029312077909708023,0.08733802288770676
1772656648204646100,6.795646240234375,9.772886276245117,-0.0364905446767807,0.0849452018737793
1772656648214525200,6.805525146484375,9.770493507385254,-0.03409772366285324,0.0849452018737793
1772656648224404200,6.815404296875,9.772886276245117,-0.03170489892363548,0.07537391036748886
1772656648234283300,6.825283203125,9.770493507385254,-0.0364905446767807,0.07537391036748886
1772656648244162300,6.835162353515625,9.772886276245117,-0.04366901144385338,0.08015955984592438
1772656648254041300,6.845041259765625,9.770493507385254,-0.0364905446767807,0.08255238085985184
1772656648263920400,6.85492041015625,9.77527904510498,-0.03888336941599846,0.08255238085985184
1772656648273799700,6.864799560546875,9.770493507385254,-0.04366901144385338,0.07776673883199692
1772656648283678700,6.8746787109375,9.772886276245117,-0.03888336941599846,0.07776673883199692
1772656648293557800,6.884557861328125,9.772886276245117,-0.03409772366285324,0.07776673883199692
1772656648303436800,6.894436767578125,9.770493507385254,-0.04366901144385338,0.08015955984592438
1772656648313315800,6.90431591796875,9.768099784851074,-0.048454657196998596,0.07537391036748886
1772656648323195000,6.91419482421875,9.763314247131348,-0.04366901144385338,0.08255238085985184
1772656648333074000,6.924073974609375,9.770493507385254,-0.0364905446767807,0.0849452018737793
1772656648342953000,6.933952880859375,9.777671813964844,-0.04127619042992592,0.0849452018737793
1772656648352832000,6.94383203125,9.772886276245117,-0.04366901144385338,0.08733802288770676
1772656648362711000,6.9537109375,9.772886276245117,-0.03409772366285324,0.0849452018737793
1772656648372590000,6.963590087890625,9.770493507385254,-0.04366901144385338,0.07537391036748886
1772656648382469400,6.973469482421875,9.772886276245117,-0.03409772366285324,0.08015955984592438
1772656648392348400,6.983348388671875,9.770493507385254,-0.046061836183071136,0.08255238085985184
1772656648402227500,6.9932275390625,9.77527904510498,-0.04127619042992592,0.0849452018737793
1772656648412106500,7.0031064453125,9.777671813964844,-0.04366901144385338,0.07537391036748886
1772656648421985500,7.012985595703125,9.777671813964844,-0.03888336941599846,0.08255238085985184
1772656648431864600,7.022864501953125,9.772886276245117,-0.04127619042992592,0.0849452018737793
1772656648441743600,7.03274365234375,9.772886276245117,-0.04366901144385338,0.08015955984592438
1772656648451622700,7.04262255859375,9.765707015991211,-0.03888336941599846,0.07537391036748886
1772656648461501700,7.052501708984375,9.77527904510498,-0.0364905446767807,0.08015955984592438
1772656648471380700,7.062380615234375,9.77527904510498,-0.0364905446767807,0.07776673883199692
1772656648481259800,7.072259765625,9.777671813964844,-0.03888336941599846,0.08255238085985184
1772656648491138800,7.082138916015625,9.772886276245117,-0.04127619042992592,0.08015955984592438
1772656648501018000,7.09201806640625,9.77527904510498,-0.04366901144385338,0.07776673883199692
1772656648510897200,7.101897216796875,9.772886276245117,-0.03888336941599846,0.07776673883199692
1772656648520776200,7.111776123046875,9.770493507385254,-0.0364905446767807,0.08015955984592438
1772656648530655200,7.1216552734375,9.770493507385254,-0.0364905446767807,0.08015955984592438
1772656648540534300,7.1315341796875,9.77527904510498,-0.03409772366285324,0.08015955984592438
1772656648550413300,7.141413330078125,9.777671813964844,-0.03888336941599846,0.08255238085985184
1772656648560292400,7.151292236328125,9.780064582824707,-0.040677983313798904,0.08015955984592438
1772656648570171400,7.16117138671875,9.768099784851074,-0.03888336941599846,0.08015955984592438
1772656648580050400,7.171050537109375,9.77527904510498,-0.04127619042992592,0.08255238085985184
1772656648589929500,7.180929443359375,9.768099784851074,-0.03888336941599846,0.08255238085985184
1772656648599808500,7.19080859375,9.777671813964844,-0.03888336941599846,0.08255238085985184
1772656648609687600,7.2006875,9.770493507385254,-0.046061836183071136,0.0849452018737793
1772656648619566600,7.210566650390625,9.768099784851074,-0.0364905446767807,0.07776673883199692
1772656648629446000,7.22044580078125,9.78245735168457,-0.04127619042992592,0.08015955984592438
1772656648639325000,7.230324951171875,9.768099784851074,-0.03409772366285324,0.08255238085985184
1772656648649204000,7.240203857421875,9.770493507385254,-0.04366901144385338,0.06580262631177902
1772656648659083000,7.2500830078125,9.77527904510498,-0.04546362906694412,0.08733802288770676
1772656648668962000,7.259962158203125,9.770493507385254,-0.04366901144385338,0.08255238085985184
1772656648678841000,7.269841064453125,9.765707015991211,-0.03888336941599846,0.0849452018737793
1772656648688720100,7.27972021484375,9.768099784851074,-0.04366901144385338,0.0849452018737793
1772656648698599200,7.28959912109375,9.780064582824707,-0.0364905446767807,0.07776673883199692
1772656648708478200,7.299478271484375,9.77527904510498,-0.04366901144385338,0.08015955984592438
1772656648718357200,7.309357177734375,9.780064582824707,-0.040677983313798904,0.08973085135221481
1772656648728236300,7.319236328125,9.772886276245117,-0.03888336941599846,0.08015955984592438
1772656648738115300,7.329115234375,9.772886276245117,-0.0364905446767807,0.0849452018737793
1772656648747994600,7.33899462890625,9.772886276245117,-0.038285162299871445,0.09212367236614227
1772656648757873700,7.348873779296875,9.777671813964844,-0.035892341285943985,0.08733802288770676
1772656648767752700,7.358752685546875,9.770493507385254,-0.0364905446767807,0.08255238085985184
1772656648777631700,7.3686318359375,9.77527904510498,-0.0364905446767807,0.08733802288770676
1772656648787510800,7.3785107421875,9.770493507385254,-0.03888336941599846,0.08015955984592438
1772656648797389800,7.388389892578125,9.772886276245117,-0.03409772366285324,0.07537391036748886
1772656648807268900,7.398268798828125,9.772886276245117,-0.04127619042992592,0.08015955984592438
1772656648817148000,7.40814794921875,9.772886276245117,-0.04366901144385338,0.08733802288770676
1772656648827027000,7.41802685546875,9.770493507385254,-0.03888336941599846,0.07776673883199692
1772656648836906000,7.427906005859375,9.765707015991211,-0.03888336941599846,0.08015955984592438
1772656648846785000,7.437784912109375,9.772886276245117,-0.04366901144385338,0.0729810893535614
1772656648856664000,7.4476640625,9.770493507385254,-0.04127619042992592,0.08015955984592438
1772656648866543000,7.457543212890625,9.77527904510498,-0.04366901144385338,0.08255238085985184
1772656648876422100,7.467422119140625,9.772886276245117,-0.04366901144385338,0.08255238085985184
1772656648886301400,7.477301513671875,9.772886276245117,-0.04127619042992592,0.07537391036748886
1772656648896180500,7.487180419921875,9.772886276245117,-0.040677983313798904,0.08733802288770676
1772656648906059500,7.4970595703125,9.772886276245117,-0.03888336941599846,0.08195417374372482
1772656648915938600,7.5069384765625,9.777671813964844,-0.03888336941599846,0.07776673883199692
1772656648925817600,7.516817626953125,9.772886276245117,-0.0364905446767807,0.08733802288770676
1772656648935696600,7.526696533203125,9.777671813964844,-0.04366901144385338,0.08015955984592438
1772656648945575700,7.53657568359375,9.772886276245117,-0.03888336941599846,0.08015955984592438
1772656648955454700,7.546454833984375,9.777671813964844,-0.03409772366285324,0.08434699475765228
1772656648965333800,7.556333740234375,9.780064582824707,-0.04307080805301666,0.08733802288770676
1772656648975212800,7.566212890625,9.77527904510498,-0.03888336941599846,0.07776673883199692
1772656648985091800,7.576091796875,9.77527904510498,-0.03888336941599846,0.08733802288770676
1772656648994971000,7.585970947265625,9.77527904510498,-0.038285162299871445,0.08733802288770676
1772656649004850000,7.595849853515625,9.768099784851074,-0.03888336941599846,0.08255238085985184
1772656649014729200,7.605729248046875,9.784850120544434,-0.04785645380616188,0.08255238085985184
1772656649024608300,7.615608154296875,9.772886276245117,-0.040677983313798904,0.08973085135221481
1772656649034487300,7.6254873046875,9.765707015991211,-0.03888336941599846,0.07776673883199692
1772656649044366300,7.635366455078125,9.77527904510498,-0.03888336941599846,0.08015955984592438
1772656649054245400,7.645245361328125,9.77527904510498,-0.03888336941599846,0.07537391036748886
1772656649064124400,7.65512451171875,9.770493507385254,-0.04127619042992592,0.07776673883199692
1772656649074003500,7.66500341796875,9.777671813964844,-0.0364905446767807,0.07537391036748886
1772656649083882500,7.674882568359375,9.770493507385254,-0.04366901144385338,0.08255238085985184
1772656649093761500,7.684761474609375,9.768099784851074,-0.0364905446767807,0.07776673883199692
1772656649103640600,7.694640625,9.765707015991211,-0.04366901144385338,0.08015955984592438
1772656649113519600,7.70451953125,9.772287368774414,-0.03409772366285324,0.08015955984592438
1772656649123398700,7.714398681640625,9.772287368774414,-0.04366901144385338,0.0729810893535614
1772656649133277700,7.724277587890625,9.768099784851074,-0.04127619042992592,0.08733802288770676
1772656649143156700,7.73415673828125,9.768099784851074,-0.04127619042992592,0.08255238085985184
1772656649153036000,7.7440361328125,9.767501831054688,-0.03888336941599846,0.07058826833963394
1772656649162915000,7.7539150390625,9.77527904510498,-0.04307080805301666,0.08255238085985184
1772656649172794000,7.763794189453125,9.768099784851074,-0.04127619042992592,0.0849452018737793
1772656649182673200,7.773673095703125,9.77527904510498,-0.038285162299871445,0.08973085135221481
1772656649192552200,7.78355224609375,9.772886276245117,-0.03888336941599846,0.0849452018737793
1772656649202431200,7.79343115234375,9.772287368774414,-0.04127619042992592,0.07776673883199692
1772656649212310300,7.803310302734375,9.772287368774414,-0.03170489892363548,0.08255238085985184
1772656649222189300,7.813189208984375,9.768099784851074,-0.038285162299871445,0.09391828626394272
1772656649232068400,7.823068359375,9.772886276245117,-0.04127619042992592,0.08015955984592438
1772656649241947400,7.832947509765625,9.772287368774414,-0.04127619042992592,0.0729810893535614
1772656649251826400,7.842826416015625,9.768099784851074,-0.046061836183071136,0.08015955984592438
1772656649261705500,7.85270556640625,9.772287368774414,-0.03409772366285324,0.08015955984592438
1772656649271584500,7.86258447265625,9.765707015991211,-0.048454657196998596,0.0849452018737793
1772656649281463600,7.872463623046875,9.76989459991455,-0.0364905446767807,0.08015955984592438
1772656649291342800,7.8823427734375,9.770493507385254,-0.03888336941599846,0.08015955984592438
1772656649301221600,7.8922216796875,9.77527904510498,-0.03888336941599846,0.08255238085985184
1772656649311101000,7.902100830078125,9.772886276245117,-0.04546362906694412,0.08255238085985184
1772656649320980000,7.91197998046875,9.768099784851074,-0.03888336941599846,0.08015955984592438
1772656649330859000,7.92185888671875,9.780064582824707,-0.031106693670153618,0.0891326442360878
1772656649340738000,7.931738037109375,9.770493507385254,-0.048454657196998596,0.08255238085985184
1772656649350617000,7.9416171875,9.772886276245117,-0.03888336941599846,0.08733802288770676
1772656649360496000,7.95149609375,9.768099784851074,-0.04307080805301666,0.08973085135221481
1772656649370375200,7.961375244140625,9.768099784851074,-0.04127619042992592,0.07776673883199692
1772656649380254200,7.971254150390625,9.770493507385254,-0.04307080805301666,0.0849452018737793
1772656649390133200,7.98113330078125,9.772886276245117,-0.03888336941599846,0.08255238085985184
1772656649400012300,7.99101220703125,9.770493507385254,-0.04785645380616188,0.0849452018737793
1772656649409891300,8.000891357421875,9.768099784851074,-0.04127619042992592,0.0849452018737793
1772656649419770400,8.010770263671875,9.780064582824707,-0.0364905446767807,0.08255238085985184
1772656649429649400,8.0206494140625,9.768099784851074,-0.03888336941599846,0.07776673883199692
1772656649439528400,8.030528564453125,9.768099784851074,-0.0364905446767807,0.08733802288770676
1772656649449407500,8.040407470703125,9.777671813964844,-0.03170489892363548,0.07776673883199692
1772656649459286500,8.05028662109375,9.768099784851074,-0.03888336941599846,0.0729810893535614
1772656649469165800,8.060165771484375,9.777671813964844,-0.040677983313798904,0.08973085135221481
1772656649479044900,8.070044921875,9.772886276245117,-0.03888336941599846,0.08015955984592438
1772656649488924000,8.079923828125,9.77527904510498,-0.0364905446767807,0.08015955984592438
1772656649498803000,8.089802978515625,9.772287368774414,-0.04366901144385338,0.08255238085985184
1772656649508682000,8.099681884765625,9.772287368774414,-0.03888336941599846,0.08733802288770676
1772656649518561000,8.10956103515625,9.76989459991455,-0.04127619042992592,0.07537391036748886
1772656649528440000,8.119440185546875,9.774680137634277,-0.040677983313798904,0.0849452018737793
1772656649538319000,8.129319091796875,9.774680137634277,-0.03888336941599846,0.07537391036748886
1772656649548198100,8.1391982421875,9.770493507385254,-0.04307080805301666,0.09212367236614227
1772656649558077200,8.1490771484375,9.770493507385254,-0.046061836183071136,0.0849452018737793
1772656649567956200,8.158956298828125,9.77707290649414,-0.04366901144385338,0.07537391036748886
1772656649577835300,8.168835205078125,9.76989459991455,-0.03888336941599846,0.0849452018737793
1772656649587714300,8.17871435546875,9.781859397888184,-0.03409772366285324,0.08195417374372482
1772656649597593300,8.18859326171875,9.777671813964844,-0.04307080805301666,0.0849452018737793
1772656649607472400,8.198472412109375,9.781859397888184,-0.046061836183071136,0.08015955984592438
1772656649617351400,8.208351318359375,9.772287368774414,-0.04366901144385338,0.08255238085985184
1772656649627230700,8.218230712890625,9.767501831054688,-0.0364905446767807,0.07537391036748886
1772656649637109800,8.22810986328125,9.76989459991455,-0.03409772366285324,0.08015955984592438
1772656649646988800,8.23798876953125,9.772287368774414,-0.04366901144385338,0.0849452018737793
1772656649656867800,8.247867919921875,9.774680137634277,-0.03888336941599846,0.08255238085985184
1772656649666747000,8.257746826171875,9.76989459991455,-0.0364905446767807,0.07776673883199692
1772656649676626000,8.2676259765625,9.767501831054688,-0.0364905446767807,0.0849452018737793
1772656649686505000,8.2775048828125,9.758528709411621,-0.03888336941599846,0.07776673883199692
1772656649696384000,8.287384033203125,9.772886276245117,-0.040677983313798904,0.08973085135221481
1772656649706263000,8.297262939453125,9.774680137634277,-0.04366901144385338,0.07776673883199692
1772656649716142000,8.30714208984375,9.762716293334961,-0.046061836183071136,0.08255238085985184
1772656649726021000,8.317021240234375,9.767501831054688,-0.03888336941599846,0.08255238085985184
1772656649735900200,8.326900146484375,9.76989459991455,-0.04366901144385338,0.08255238085985184
1772656649745779200,8.336779296875,9.767501831054688,-0.0364905446767807,0.0849452018737793
1772656649755658200,8.346658203125,9.774680137634277,-0.050847481936216354,0.07776673883199692
1772656649765537300,8.356537353515625,9.76989459991455,-0.038285162299871445,0.08973085135221481
1772656649775416300,8.366416259765625,9.76989459991455,-0.03888336941599846,0.0849452018737793
1772656649785295400,8.37629541015625,9.772287368774414,-0.040677983313798904,0.08733802288770676
1772656649795174400,8.38617431640625,9.77707290649414,-0.040677983313798904,0.08015955984592438
1772656649805053700,8.3960537109375,9.767501831054688,-0.038285162299871445,0.08733802288770676
1772656649814932500,8.405932373046875,9.77707290649414,-0.04366901144385338,0.07776673883199692
1772656649824811500,8.4158115234375,9.767501831054688,-0.03888336941599846,0.0729810893535614
1772656649834690800,8.42569091796875,9.76989459991455,-0.04366901144385338,0.08015955984592438
1772656649844569900,8.43556982421875,9.767501831054688,-0.038285162299871445,0.0849452018737793
1772656649854449000,8.445448974609375,9.76989459991455,-0.04366901144385338,0.08255238085985184
1772656649864328000,8.455327880859375,9.76989459991455,-0.040677983313798904,0.08973085135221481
1772656649874207000,8.46520703125,9.774680137634277,-0.04366901144385338,0.07537391036748886
1772656649884086000,8.4750859375,9.772287368774414,-0.040677983313798904,0.0849452018737793
1772656649893965000,8.484965087890625,9.762716293334961,-0.04127619042992592,0.07776673883199692
1772656649903844000,8.494843994140625,9.767501831054688,-0.04127619042992592,0.07776673883199692
1772656649913723100,8.50472314453125,9.779465675354004,-0.035892341285943985,0.0849452018737793
1772656649923602200,8.514602294921875,9.76989459991455,-0.03409772366285324,0.0849452018737793
1772656649933481200,8.524481201171875,9.760921478271484,-0.04127619042992592,0.0849452018737793
1772656649943360300,8.5343603515625,9.772287368774414,-0.0364905446767807,0.08015955984592438
1772656649953239300,8.5442392578125,9.779465675354004,-0.04307080805301666,0.0849452018737793
1772656649963118300,8.554118408203125,9.774680137634277,-0.04127619042992592,0.08015955984592438
1772656649972997400,8.563997314453125,9.779465675354004,-0.04307080805301666,0.08255238085985184
1772656649982876400,8.57387646484375,9.779465675354004,-0.048454657196998596,0.08015955984592438
1772656649992755500,8.58375537109375,9.767501831054688,-0.03888336941599846,0.07537391036748886
1772656650002634500,8.593634521484375,9.77707290649414,-0.040677983313798904,0.0849452018737793
1772656650012513500,8.603513427734375,9.76989459991455,-0.04127619042992592,0.08255238085985184
1772656650022392600,8.613392578125,9.774680137634277,-0.04366901144385338,0.0849452018737793
1772656650032272000,8.62327197265625,9.77707290649414,-0.03888336941599846,0.08255238085985184
1772656650042151000,8.63315087890625,9.76989459991455,-0.03409772366285324,0.07956135272979736
1772656650052030000,8.643030029296876,9.767501831054688,-0.04366901144385338,0.0849452018737793
1772656650061909000,8.652908935546876,9.774680137634277,-0.04127619042992592,0.0849452018737793
1772656650071788000,8.6627880859375,9.772287368774414,-0.03888336941599846,0.08255238085985184
1772656650081667000,8.6726669921875,9.76989459991455,-0.03170489892363548,0.0849452018737793
1772656650091546000,8.682546142578126,9.77707290649414,-0.04366901144385338,0.08015955984592438
1772656650101425200,8.692425048828126,9.774680137634277,-0.04366901144385338,0.08015955984592438
1772656650111304200,8.70230419921875,9.77707290649414,-0.04307080805301666,0.0849452018737793
1772656650121183200,8.712183349609376,9.76989459991455,-0.03409772366285324,0.07776673883199692
1772656650131062300,8.722062255859376,9.779465675354004,-0.04127619042992592,0.08255238085985184
1772656650140941300,8.73194140625,9.784252166748047,-0.03349951654672623,0.08195417374372482
1772656650150820400,8.7418203125,9.77527904510498,-0.046061836183071136,0.08255238085985184
1772656650160699400,8.751699462890626,9.772287368774414,-0.04366901144385338,0.08255238085985184
1772656650170578400,8.761578369140626,9.774680137634277,-0.03349951654672623,0.09152546525001526
1772656650180457500,8.77145751953125,9.772287368774414,-0.038285162299871445,0.08733802288770676
1772656650190336500,8.78133642578125,9.774680137634277,-0.04307080805301666,0.0849452018737793
1772656650200215600,8.791215576171876,9.772886276245117,-0.04785645380616188,0.08973085135221481
1772656650210094600,8.801094482421876,9.77527904510498,-0.04785645380616188,0.08255238085985184
1772656650219973600,8.8109736328125,9.768099784851074,-0.04307080805301666,0.08973085135221481
1772656650229852700,8.820852783203126,9.77707290649414,-0.03888336941599846,0.07776673883199692
1772656650239731700,8.830731689453126,9.779465675354004,-0.03409772366285324,0.08015955984592438
1772656650249610800,8.84061083984375,9.765707015991211,-0.04307080805301666,0.0849452018737793
1772656650259489800,8.85048974609375,9.76989459991455,-0.04366901144385338,0.07776673883199692
1772656650269368800,8.860368896484376,9.777671813964844,-0.04307080805301666,0.08255238085985184
1772656650279248100,8.870248046875,9.779465675354004,-0.04366901144385338,0.08015955984592438
1772656650289127200,8.880127197265624,9.77707290649414,-0.03888336941599846,0.08015955984592438
1772656650299006000,8.890005859375,9.774680137634277,-0.03170489892363548,0.0849452018737793
1772656650308885200,8.89988525390625,9.779465675354004,-0.038285162299871445,0.08733802288770676
1772656650318764300,8.909764404296874,9.779465675354004,-0.04307080805301666,0.08015955984592438
1772656650328643300,8.919643310546874,9.774680137634277,-0.04127619042992592,0.08255238085985184
1772656650338522400,8.9295224609375,9.772287368774414,-0.0364905446767807,0.08015955984592438
1772656650348401400,8.9394013671875,9.774680137634277,-0.03349951654672623,0.08733802288770676
1772656650358280400,8.949280517578124,9.767501831054688,-0.03409772366285324,0.08255238085985184
1772656650368159500,8.959159423828124,9.77707290649414,-0.03888336941599846,0.08195417374372482
1772656650378038500,8.96903857421875,9.77707290649414,-0.040677983313798904,0.08733802288770676
1772656650387917600,8.97891748046875,9.772287368774414,-0.04546362906694412,0.08255238085985184
1772656650397796600,8.988796630859374,9.774680137634277,-0.04785645380616188,0.08015955984592438
1772656650407675600,8.998675537109374,9.784252166748047,-0.040677983313798904,0.0849452018737793
1772656650417554700,9.0085546875,9.774680137634277,-0.04127619042992592,0.07776673883199692
1772656650427433700,9.018433837890624,9.77707290649414,-0.03888336941599846,0.0849452018737793
1772656650437312800,9.028312744140624,9.779465675354004,-0.040677983313798904,0.08255238085985184
1772656650447191800,9.03819189453125,9.76989459991455,-0.03888336941599846,0.08015955984592438
1772656650457070800,9.04807080078125,9.772287368774414,-0.04785645380616188,0.0849452018737793
1772656650466950000,9.057949951171874,9.772287368774414,-0.038285162299871445,0.08733802288770676
1772656650476829000,9.067828857421874,9.779465675354004,-0.03409772366285324,0.08195417374372482
1772656650486708000,9.0777080078125,9.779465675354004,-0.04307080805301666,0.08015955984592438
1772656650496587000,9.0875869140625,9.765707015991211,-0.04307080805301666,0.0849452018737793
1772656650506466000,9.097466064453124,9.772287368774414,-0.03888336941599846,0.07776673883199692
1772656650516345000,9.107344970703124,9.768099784851074,-0.03888336941599846,0.08733802288770676
1772656650526224100,9.11722412109375,9.772886276245117,-0.040677983313798904,0.0849452018737793
1772656650536103200,9.127103271484375,9.770493507385254,-0.04307080805301666,0.08733802288770676
1772656650545982200,9.136982177734374,9.772886276245117,-0.04366901144385338,0.08015955984592438
1772656650555861200,9.146861328125,9.781859397888184,-0.035892341285943985,0.09152546525001526
1772656650565740300,9.156740234375,9.779465675354004,-0.035892341285943985,0.08733802288770676
1772656650575619600,9.16661962890625,9.780064582824707,-0.03888336941599846,0.08195417374372482
1772656650585498600,9.17649853515625,9.768099784851074,-0.03888336941599846,0.0849452018737793
1772656650595377400,9.18637744140625,9.768099784851074,-0.04366901144385338,0.08255238085985184
1772656650605256700,9.196256591796875,9.76989459991455,-0.03888336941599846,0.08015955984592438
1772656650615135700,9.2061357421875,9.781859397888184,-0.03409772366285324,0.07477571070194244
1772656650625014800,9.216014892578125,9.770493507385254,-0.03888336941599846,0.08255238085985184
1772656650634893800,9.225893798828125,9.76989459991455,-0.03409772366285324,0.08015955984592438
1772656650644772900,9.23577294921875,9.772287368774414,-0.0364905446767807,0.08015955984592438
1772656650654652000,9.24565185546875,9.772886276245117,-0.04127619042992592,0.07776673883199692
1772656650664531000,9.255531005859375,9.77527904510498,-0.04307080805301666,0.0849452018737793
1772656650674410000,9.265409912109375,9.76989459991455,-0.03409772366285324,0.07776673883199692
1772656650684289000,9.2752890625,9.772287368774414,-0.03170489892363548,0.07776673883199692
1772656650694168000,9.28516796875,9.772886276245117,-0.04366901144385338,0.08015955984592438
1772656650704047000,9.295047119140625,9.774680137634277,-0.040677983313798904,0.0849452018737793
1772656650713926100,9.304926025390625,9.767501831054688,-0.0364905446767807,0.08733802288770676
1772656650723805200,9.31480517578125,9.763314247131348,-0.04366901144385338,0.08733802288770676
1772656650733684200,9.324684326171875,9.774680137634277,-0.0364905446767807,0.08015955984592438
1772656650743563300,9.334563232421875,9.774680137634277,-0.03888336941599846,0.08015955984592438
1772656650753442300,9.3444423828125,9.772287368774414,-0.04366901144385338,0.0849452018737793
1772656650763321300,9.3543212890625,9.772287368774414,-0.038285162299871445,0.08973085135221481
1772656650773200400,9.364200439453125,9.770493507385254,-0.053240302950143814,0.08015955984592438
1772656650783079400,9.374079345703125,9.77707290649414,-0.0364905446767807,0.0849452018737793
1772656650792958500,9.38395849609375,9.774680137634277,-0.040677983313798904,0.08015955984592438
1772656650802837500,9.39383740234375,9.76989459991455,-0.04127619042992592,0.08015955984592438
1772656650812716500,9.403716552734375,9.781859397888184,-0.03409772366285324,0.07776673883199692
1772656650822595600,9.413595703125,9.774680137634277,-0.0364905446767807,0.07537391036748886
1772656650832474600,9.423474609375,9.762716293334961,-0.03409772366285324,0.08255238085985184
1772656650842353700,9.433353759765625,9.770493507385254,-0.04366901144385338,0.0849452018737793
1772656650852232700,9.443232666015625,9.76989459991455,-0.0364905446767807,0.07537391036748886
1772656650862111700,9.45311181640625,9.774680137634277,-0.0364905446767807,0.08015955984592438
1772656650871990800,9.46299072265625,9.765707015991211,-0.03888336941599846,0.07537391036748886
1772656650881869800,9.472869873046875,9.77707290649414,-0.04366901144385338,0.08015955984592438
1772656650891748900,9.482748779296875,9.767501831054688,-0.04366901144385338,0.08015955984592438
1772656650901628000,9.4926279296875,9.77707290649414,-0.0364905446767807,0.08255238085985184
1772656650911507000,9.5025068359375,9.765109062194824,-0.04366901144385338,0.07776673883199692
1772656650921386000,9.512385986328125,9.772287368774414,-0.04307080805301666,0.0849452018737793
1772656650931265000,9.52226513671875,9.774680137634277,-0.04127619042992592,0.07776673883199692
1772656650941144000,9.53214404296875,9.772287368774414,-0.03170489892363548,0.07956135272979736
1772656650951023000,9.542023193359375,9.77707290649414,-0.04307080805301666,0.0849452018737793
1772656650960902100,9.551902099609375,9.76989459991455,-0.04127619042992592,0.07776673883199692
1772656650970781200,9.56178125,9.772287368774414,-0.03349951654672623,0.08673982322216034
1772656650980660200,9.57166015625,9.774680137634277,-0.04307080805301666,0.08733802288770676
1772656650990539500,9.58153955078125,9.76989459991455,-0.04127619042992592,0.08015955984592438
1772656651000418300,9.591418212890625,9.767501831054688,-0.046061836183071136,0.08255238085985184
1772656651010297600,9.601297607421875,9.76989459991455,-0.03888336941599846,0.08255238085985184
1772656651020176600,9.6111767578125,9.779465675354004,-0.038285162299871445,0.08973085135221481
1772656651030055700,9.6210556640625,9.774680137634277,-0.04127619042992592,0.08015955984592438
1772656651039934700,9.630934814453125,9.774680137634277,-0.040677983313798904,0.08733802288770676
1772656651049813800,9.640813720703125,9.772287368774414,-0.04366901144385338,0.07776673883199692
1772656651059692800,9.65069287109375,9.774680137634277,-0.040677983313798904,0.08255238085985184
1772656651069571800,9.66057177734375,9.774680137634277,-0.038285162299871445,0.0849452018737793
1772656651079451000,9.670450927734375,9.77707290649414,-0.04127619042992592,0.08015955984592438
1772656651089330000,9.680329833984375,9.774680137634277,-0.04366901144385338,0.0729810893535614
1772656651099209000,9.690208984375,9.774680137634277,-0.046061836183071136,0.08015955984592438
1772656651109088000,9.700087890625,9.77707290649414,-0.0364905446767807,0.08255238085985184
1772656651118967000,9.709967041015625,9.772287368774414,-0.04127619042992592,0.08255238085985184
1772656651128846000,9.71984619140625,9.77707290649414,-0.035892341285943985,0.08195417374372482
1772656651138725000,9.72972509765625,9.772287368774414,-0.040677983313798904,0.0849452018737793
1772656651148604200,9.739604248046875,9.767501831054688,-0.03888336941599846,0.0729810893535614
1772656651158483200,9.749483154296875,9.774680137634277,-0.03888336941599846,0.07776673883199692
1772656651168362200,9.7593623046875,9.76989459991455,-0.04366901144385338,0.0849452018737793
1772656651178241300,9.7692412109375,9.767501831054688,-0.04127619042992592,0.07776673883199692
1772656651188120300,9.779120361328125,9.77707290649414,-0.040677983313798904,0.08733802288770676
1772656651197999400,9.788999267578125,9.760323524475098,-0.04127619042992592,0.07776673883199692
1772656651207878400,9.79887841796875,9.774680137634277,-0.03409772366285324,0.08673982322216034
1772656651217757400,9.80875732421875,9.767501831054688,-0.029312077909708023,0.08673982322216034
1772656651227636500,9.818636474609375,9.77707290649414,-0.03888336941599846,0.07776673883199692
1772656651237515500,9.828515625,9.772287368774414,-0.03888336941599846,0.0849452018737793
1772656651247394600,9.83839453125,9.77707290649414,-0.04127619042992592,0.08015955984592438
1772656651257273600,9.848273681640626,9.76989459991455,-0.03888336941599846,0.08015955984592438
1772656651267152600,9.858152587890626,9.767501831054688,-0.046061836183071136,0.08015955984592438
1772656651277031700,9.86803173828125,9.76989459991455,-0.035892341285943985,0.08255238085985184
1772656651286910700,9.87791064453125,9.77707290649414,-0.040677983313798904,0.08973085135221481
1772656651296789800,9.887789794921876,9.767501831054688,-0.04127619042992592,0.0849452018737793
1772656651306668800,9.897668701171876,9.779465675354004,-0.03409772366285324,0.07776673883199692
1772656651316547800,9.9075478515625,9.767501831054688,-0.03888336941599846,0.08015955984592438
1772656651326427000,9.917427001953126,9.77707290649414,-0.04307080805301666,0.08733802288770676
1772656651336306000,9.927305908203126,9.765109062194824,-0.0364905446767807,0.07776673883199692
1772656651346185000,9.93718505859375,9.77707290649414,-0.038285162299871445,0.08255238085985184
1772656651356064000,9.94706396484375,9.767501831054688,-0.03409772366285324,0.08015955984592438
1772656651365943000,9.956943115234376,9.772287368774414,-0.04127619042992592,0.07537391036748886
1772656651375822000,9.966822021484376,9.76989459991455,-0.03888336941599846,0.08015955984592438
1772656651385701000,9.976701171875,9.774680137634277,-0.04307080805301666,0.08733802288770676
1772656651395580200,9.986580078125,9.765109062194824,-0.03409772366285324,0.0849452018737793
1772656651405459200,9.996459228515626,9.774680137634277,-0.04366901144385338,0.08255238085985184
1772656651415338200,10.006338134765626,9.77707290649414,-0.04127619042992592,0.07776673883199692
1772656651425217300,10.01621728515625,9.774680137634277,-0.0364905446767807,0.0849452018737793
1772656651435096300,10.026096435546876,9.774680137634277,-0.03888336941599846,0.0849452018737793
1772656651444975400,10.035975341796876,9.774680137634277,-0.040677983313798904,0.08973085135221481
1772656651454854400,10.0458544921875,9.77707290649414,-0.040677983313798904,0.0849452018737793
1772656651464733400,10.0557333984375,9.77707290649414,-0.04546362906694412,0.0849452018737793
1772656651474612500,10.065612548828126,9.772287368774414,-0.03888336941599846,0.08015955984592438
1772656651484491500,10.075491455078126,9.77707290649414,-0.04127619042992592,0.07776673883199692
1772656651494370600,10.08537060546875,9.779465675354004,-0.04546362906694412,0.08255238085985184
1772656651504249600,10.09524951171875,9.774680137634277,-0.03409772366285324,0.07776673883199692
1772656651514128600,10.105128662109376,9.774680137634277,-0.040677983313798904,0.09152546525001526
1772656651524007700,10.115007568359376,9.774680137634277,-0.04366901144385338,0.08255238085985184
1772656651533886700,10.12488671875,9.774680137634277,-0.03888336941599846,0.08255238085985184
1772656651543765800,10.134765869140624,9.765109062194824,-0.03349951654672623,0.08973085135221481
1772656651553644800,10.144644775390624,9.76989459991455,-0.04366901144385338,0.07776673883199692
1772656651563523800,10.15452392578125,9.772287368774414,-0.0364905446767807,0.07776673883199692
1772656651573403000,10.16440283203125,9.767501831054688,-0.04127619042992592,0.08015955984592438
1772656651583282000,10.174281982421874,9.774680137634277,-0.03409772366285324,0.07537391036748886
1772656651593161000,10.184160888671874,9.774680137634277,-0.040677983313798904,0.08733802288770676
1772656651603040000,10.1940400390625,9.77707290649414,-0.03888336941599846,0.08015955984592438
1772656651612919000,10.2039189453125,9.774680137634277,-0.04307080805301666,0.09212367236614227
1772656651622798000,10.213798095703124,9.77707290649414,-0.038285162299871445,0.08733802288770676
1772656651632677000,10.223677001953124,9.774680137634277,-0.0364905446767807,0.08015955984592438
1772656651642556200,10.23355615234375,9.77707290649414,-0.04546362906694412,0.0849452018737793
1772656651652435200,10.243435302734374,9.760323524475098,-0.04546362906694412,0.08733802288770676
1772656651662314200,10.253314208984374,9.76989459991455,-0.04785645380616188,0.08255238085985184
1772656651672193300,10.263193359375,9.77707290649414,-0.04307080805301666,0.08733802288770676
1772656651682072300,10.273072265625,9.779465675354004,-0.035892341285943985,0.08673982322216034
1772656651691951400,10.282951416015624,9.774680137634277,-0.035892341285943985,0.08434699475765228
1772656651701830400,10.292830322265624,9.76989459991455,-0.040677983313798904,0.0849452018737793
1772656651711709400,10.30270947265625,9.76989459991455,-0.03409772366285324,0.0849452018737793
1772656651721588500,10.31258837890625,9.76989459991455,-0.038285162299871445,0.08733802288770676
1772656651731467500,10.322467529296874,9.76989459991455,-0.04127619042992592,0.08255238085985184
1772656651741346600,10.3323466796875,9.76989459991455,-0.0364905446767807,0.08733802288770676
1772656651751225600,10.3422255859375,9.772287368774414,-0.046061836183071136,0.08015955984592438
1772656651761104600,10.352104736328124,9.76989459991455,-0.035892341285943985,0.08973085135221481
1772656651770983700,10.361983642578124,9.772287368774414,-0.03888336941599846,0.08255238085985184
1772656651780862700,10.37186279296875,9.76989459991455,-0.03888336941599846,0.0729810893535614
1772656651790741800,10.38174169921875,9.774680137634277,-0.040677983313798904,0.0849452018737793
1772656651800620800,10.391620849609374,9.767501831054688,-0.03409772366285324,0.08255238085985184
1772656651810499800,10.401499755859374,9.770493507385254,-0.04307080805301666,0.09212367236614227
1772656651820379000,10.41137890625,9.774680137634277,-0.04127619042992592,0.08015955984592438
1772656651830258000,10.4212578125,9.774680137634277,-0.04546362906694412,0.0849452018737793
1772656651840137000,10.431136962890625,9.76989459991455,-0.0364905446767807,0.0849452018737793
1772656651850016000,10.44101611328125,9.781859397888184,-0.04307080805301666,0.08015955984592438
1772656651859895000,10.45089501953125,9.774680137634277,-0.03170489892363548,0.07477571070194244
1772656651869774000,10.460774169921875,9.77707290649414,-0.04366901144385338,0.08015955984592438
1772656651879653000,10.470653076171875,9.76989459991455,-0.04366901144385338,0.0849452018737793
