time,seconds_elapsed,z,y,x
1772650345725750500,0.16275048828125,4.238885402679443,-8.746963500976562,-0.6305087804794312
1772650345735627800,0.172627685546875,4.267599105834961,-8.737391471862793,-0.6095715761184692
1772650345745504800,0.1825048828125,4.238885402679443,-8.73499870300293,-0.631106972694397
1772650345755382000,0.192382080078125,4.191029071807861,-8.751749038696289,-0.6376872062683105
1772650345765259000,0.202259033203125,4.17726993560791,-8.769096374511719,-0.6687939167022705
1772650345775136300,0.21213623046875,4.158127784729004,-8.766703605651855,-0.6562315821647644
1772650345785013200,0.22201318359375,4.222135543823242,-8.756534576416016,-0.6065805554389954
1772650345794890200,0.23189013671875,4.179064750671387,-8.737391471862793,-0.6065805554389954
1772650345804767500,0.241767578125,4.184448719024658,-8.73499870300293,-0.600000262260437
1772650345814644500,0.25164453125,4.212564468383789,-8.758927345275879,-0.6089733839035034
1772650345824521700,0.261521728515625,4.194019794464111,-8.761320114135742,-0.6185446381568909
1772650345834398700,0.271398681640625,4.2245283126831055,-8.773283958435059,-0.6305087804794312
1772650345844276000,0.28127587890625,4.217350006103516,-8.765507698059082,-0.6065805554389954
1772650345854153000,0.291153076171875,4.234099864959717,-8.751749038696289,-0.6119644045829773
1772650345864030200,0.3010302734375,4.212564468383789,-8.7445707321167,-0.6424728631973267
1772650345873907200,0.3109072265625,4.196412563323975,-8.773882865905762,-0.656829833984375
1772650345883784400,0.320784423828125,4.191029071807861,-8.752346992492676,-0.6711867451667786
1772650345893661400,0.330661376953125,4.179064750671387,-8.726025581359863,-0.6831508874893188
1772650345903538400,0.340538330078125,4.229313850402832,-8.711071014404297,-0.6526423692703247
1772650345913415700,0.350415771484375,4.231706619262695,-8.736793518066406,-0.6023930907249451
1772650345923292700,0.360292724609375,4.191627025604248,-8.761320114135742,-0.6329016089439392
1772650345933170000,0.370169921875,4.158127784729004,-8.773283958435059,-0.6329016089439392
1772650345943047000,0.380046875,4.25084924697876,-8.758329391479492,-0.6047859191894531
1772650345952924200,0.389924072265625,4.303491592407227,-8.763114929199219,-0.597607433795929
1772650345962801200,0.39980126953125,4.284348964691162,-8.760722160339355,-0.5928218364715576
1772650345972678400,0.409678466796875,4.229313850402832,-8.763712882995605,-0.6281159520149231
1772650345982555400,0.419555419921875,4.198805332183838,-8.761918067932129,-0.6592226624488831
1772650345992432400,0.429432373046875,4.159922122955322,-8.752346992492676,-0.6897311210632324
1772650346002309600,0.4393095703125,4.143172264099121,-8.728418350219727,-0.6735795736312866
1772650346012186600,0.4491865234375,4.214957237243652,-8.723034858703613,-0.6406782865524292
1772650346022063900,0.45906396484375,4.155734539031982,-8.761320114135742,-0.6418746709823608
1772650346031940900,0.46894091796875,4.124628067016602,-8.773882865905762,-0.6346961855888367
1772650346041818000,0.478818115234375,4.191029071807861,-8.758927345275879,-0.6424728631973267
1772650346051695000,0.488695068359375,4.18863582611084,-8.730812072753906,-0.6640082597732544
1772650346061572400,0.498572265625,4.203591346740723,-8.770891189575195,-0.6400800347328186
1772650346071449300,0.508449462890625,4.217947959899902,-8.785248756408691,-0.6424728631973267
1772650346081326300,0.518326416015625,4.184448719024658,-8.773283958435059,-0.623330295085907
1772650346091203600,0.52820361328125,4.265206336975098,-8.741579055786133,-0.5760720372200012
1772650346101080600,0.53808056640625,4.212564468383789,-8.73499870300293,-0.6071787476539612
1772650346110957800,0.547957763671875,4.191029071807861,-8.723034858703613,-0.6047859191894531
1772650346120834800,0.557834716796875,4.2245283126831055,-8.763712882995605,-0.6424728631973267
1772650346130712000,0.567712158203125,4.148556232452393,-8.775676727294922,-0.6275177597999573
1772650346140589000,0.577589111328125,4.184448719024658,-8.794819831848145,-0.646660327911377
1772650346150466300,0.58746630859375,4.165306091308594,-8.797212600708008,-0.6346961855888367
1772650346160343300,0.59734326171875,4.182055950164795,-8.790034294128418,-0.6185446381568909
1772650346170220500,0.607220458984375,4.198207378387451,-8.768498420715332,-0.6089733839035034
1772650346180097500,0.61709765625,4.194019794464111,-8.822935104370117,-0.6035895347595215
1772650346189974500,0.626974609375,4.17009162902832,-8.773283958435059,-0.6017948985099792
1772650346199851800,0.636851806640625,4.201198577880859,-8.770891189575195,-0.6472585201263428
1772650346209728800,0.646728759765625,4.25084924697876,-8.70628547668457,-0.5886343717575073
1772650346219606000,0.65660595703125,4.219742774963379,-8.72782039642334,-0.6287141442298889
1772650346229483000,0.66648291015625,4.222135543823242,-8.73918628692627,-0.5832505226135254
1772650346239360300,0.6763603515625,4.2556352615356445,-8.715258598327637,-0.5712863802909851
1772650346249237200,0.6862373046875,4.241278171539307,-8.730213165283203,-0.600000262260437
1772650346259114500,0.696114501953125,4.194019794464111,-8.770891189575195,-0.589830756187439
1772650346268991500,0.705991455078125,4.191627025604248,-8.778069496154785,-0.6329016089439392
1772650346278868500,0.715868408203125,4.155136585235596,-8.762516975402832,-0.7136593461036682
1772650346288745700,0.725745849609375,4.148556232452393,-8.788239479064941,-0.6777670383453369
1772650346298622700,0.735622802734375,4.169493675231934,-8.769096374511719,-0.6849454641342163
1772650346308500000,0.7455,4.158127784729004,-8.790034294128418,-0.6538388133049011
1772650346318377000,0.755376953125,4.23649263381958,-8.753543853759766,-0.5760720372200012
1772650346328254200,0.765254150390625,4.234099864959717,-8.743971824645996,-0.5880361795425415
1772650346338131200,0.775131103515625,4.18145751953125,-8.739784240722656,-0.6161518096923828
1772650346348008400,0.785008544921875,4.157529354095459,-8.74038314819336,-0.6520441770553589
1772650346357885400,0.794885498046875,4.141377925872803,-8.766703605651855,-0.6753742098808289
1772650346367762700,0.8047626953125,4.229313850402832,-8.730213165283203,-0.6263213157653809
1772650346377639700,0.8146396484375,4.234099864959717,-8.715856552124023,-0.6119644045829773
1772650346387517000,0.824516845703125,4.18145751953125,-8.737391471862793,-0.6376872062683105
1772650346397394000,0.834393798828125,4.174877166748047,-8.780462265014648,-0.6161518096923828
1772650346407271000,0.84427099609375,4.17427921295166,-8.751749038696289,-0.6329016089439392
1772650346417148200,0.854148193359375,4.150351047515869,-8.754739761352539,-0.6616154313087463
1772650346427025200,0.864025146484375,4.128815650939941,-8.778668403625488,-0.6873382925987244
1772650346436902400,0.87390234375,4.164707660675049,-8.770891189575195,-0.623330295085907
1772650346446779400,0.883779296875,4.217350006103516,-8.715856552124023,-0.6071787476539612
1772650346456656600,0.89365673828125,4.18145751953125,-8.749356269836426,-0.5994020700454712
1772650346466533600,0.90353369140625,4.184448719024658,-8.772686004638672,-0.5611169338226318
1772650346476411000,0.913410888671875,4.189234256744385,-8.767900466918945,-0.5665007829666138
1772650346486288000,0.923287841796875,4.195814609527588,-8.753543853759766,-0.5665007829666138
1772650346496165000,0.9331650390625,4.165306091308594,-8.763712882995605,-0.5874379873275757
1772650346506042000,0.9430419921875,4.172484397888184,-8.81396198272705,-0.6299105882644653
1772650346515919000,0.952919189453125,4.158127784729004,-8.823533058166504,-0.6323033571243286
1772650346525796400,0.96279638671875,4.155734539031982,-8.806783676147461,-0.6346961855888367
1772650346535673300,0.97267333984375,4.1629133224487305,-8.766105651855469,-0.6065805554389954
1772650346545550600,0.982550537109375,4.189234256744385,-8.770293235778809,-0.5730810165405273
1772650346555427600,0.992427490234375,4.17726993560791,-8.767900466918945,-0.5635097622871399
1772650346565304800,1.002304931640625,4.184448719024658,-8.796614646911621,-0.5802595019340515
1772650346575181800,1.012181884765625,4.17009162902832,-8.813364028930664,-0.5916253924369812
1772650346585059000,1.02205908203125,4.160520553588867,-8.82114028930664,-0.617946445941925
1772650346594936000,1.03193603515625,4.153341770172119,-8.806783676147461,-0.6227321028709412
1772650346604813000,1.04181298828125,4.184448719024658,-8.785248756408691,-0.6089733839035034
1772650346614690300,1.051690185546875,4.172484397888184,-8.775676727294922,-0.6161518096923828
1772650346624567300,1.0615673828125,4.141377925872803,-8.790034294128418,-0.6394818425178528
1772650346634444500,1.071444580078125,4.148556232452393,-8.763712882995605,-0.6185446381568909
1772650346644321500,1.081321533203125,4.1629133224487305,-8.770891189575195,-0.6041877269744873
1772650346654198800,1.09119873046875,4.182055950164795,-8.779864311218262,-0.5826523303985596
1772650346664075800,1.10107568359375,4.182055950164795,-8.766105651855469,-0.6017948985099792
1772650346673953000,1.110953125,4.184448719024658,-8.778069496154785,-0.6305087804794312
1772650346683830000,1.120830078125,4.172484397888184,-8.781061172485352,-0.6448656916618347
1772650346693707000,1.13070703125,4.1629133224487305,-8.797810554504395,-0.6610172390937805
1772650346703584300,1.140584228515625,4.17009162902832,-8.797212600708008,-0.6514459848403931
1772650346713461200,1.150461181640625,4.153341770172119,-8.794819831848145,-0.617946445941925
1772650346723338500,1.16033837890625,4.182055950164795,-8.787641525268555,-0.6089733839035034
1772650346733215500,1.170215576171875,4.191627025604248,-8.766105651855469,-0.592223584651947
1772650346743092700,1.1800927734375,4.198805332183838,-8.756534576416016,-0.5970092415809631
1772650346752969700,1.1899697265625,4.201198577880859,-8.749356269836426,-0.6047859191894531
1772650346762847000,1.199846923828125,4.182055950164795,-8.763712882995605,-0.6305087804794312
1772650346772724000,1.209723876953125,4.131806373596191,-8.757132530212402,-0.6305087804794312
1772650346782601200,1.219601318359375,4.134199142456055,-8.769096374511719,-0.6586244106292725
1772650346792478200,1.229478271484375,4.141377925872803,-8.778668403625488,-0.6538388133049011
1772650346802355200,1.239355224609375,4.165306091308594,-8.770891189575195,-0.6305087804794312
1772650346812232400,1.249232421875,4.150949001312256,-8.775676727294922,-0.6113662123680115
1772650346822109400,1.259109375,4.103092670440674,-8.759525299072266,-0.625723123550415
1772650346831986700,1.268986572265625,4.088735580444336,-8.781061172485352,-0.6514459848403931
1772650346841863700,1.27886376953125,4.105485439300537,-8.804988861083984,-0.6604190468788147
1772650346851741000,1.288740966796875,4.146163463592529,-8.833105087280273,-0.6580262184143066
1772650346861618000,1.298617919921875,4.189234256744385,-8.828319549560547,-0.6251249313354492
1772650346871495200,1.3084951171875,4.205984115600586,-8.796614646911621,-0.5994020700454712
1772650346881372200,1.3183720703125,4.23649263381958,-8.755936622619629,-0.5712863802909851
1772650346891249400,1.32824951171875,4.213162422180176,-8.748757362365723,-0.5515456199645996
1772650346901126400,1.33812646484375,4.155734539031982,-8.763712882995605,-0.5826523303985596
1772650346911003600,1.348003662109375,4.081557273864746,-8.788239479064941,-0.641276478767395
1772650346920880600,1.357880615234375,4.028914928436279,-8.784051895141602,-0.7058826684951782
1772650346930757600,1.367757568359375,4.081557273864746,-8.791230201721191,-0.727418065071106
1772650346940635000,1.377634765625,4.105485439300537,-8.795417785644531,-0.672383189201355
1772650346950511900,1.387511962890625,4.122235298156738,-8.785248756408691,-0.6083751320838928
1772650346960389000,1.39738916015625,4.1389851570129395,-8.82532787322998,-0.5700899958610535
1772650346970266000,1.40726611328125,4.110270977020264,-8.820542335510254,-0.5599204897880554
1772650346980143400,1.417143310546875,4.105485439300537,-8.81396198272705,-0.5796613097190857
1772650346990020400,1.427020263671875,4.134199142456055,-8.790034294128418,-0.5946164131164551
1772650346999897600,1.436897705078125,4.167698860168457,-8.770891189575195,-0.592223584651947
1772650347009774600,1.446774658203125,4.167698860168457,-8.758927345275879,-0.5784648656845093
1772650347019651800,1.45665185546875,4.17726993560791,-8.763114929199219,-0.5515456199645996
1772650347029528800,1.46652880859375,4.1629133224487305,-8.753543853759766,-0.5395814776420593
1772650347039405800,1.47640576171875,4.146163463592529,-8.767900466918945,-0.5491527915000916
1772650347049283000,1.486282958984375,4.11505651473999,-8.792427062988281,-0.5940182209014893
1772650347059160000,1.49616015625,4.088735580444336,-8.82114028930664,-0.6340979933738708
1772650347069037300,1.506037353515625,4.0695929527282715,-8.828917503356934,-0.6795616149902344
1772650347078914300,1.515914306640625,4.081557273864746,-8.81515884399414,-0.6963114142417908
1772650347088791600,1.52579150390625,4.0935211181640625,-8.812167167663574,-0.6628118753433228
1772650347098668500,1.53566845703125,4.118047714233398,-8.816354751586914,-0.6107679605484009
1772650347108545800,1.5455458984375,4.158127784729004,-8.815756797790527,-0.5653043389320374
1772650347118422800,1.5554228515625,4.17726993560791,-8.808578491210938,-0.5437689423561096
1772650347128300000,1.565300048828125,4.165306091308594,-8.789435386657715,-0.527019202709198
1772650347138177000,1.575177001953125,4.165306091308594,-8.782257080078125,-0.529412031173706
1772650347148054300,1.58505419921875,4.124628067016602,-8.778069496154785,-0.5778666734695435
1772650347157931300,1.59493115234375,4.112663745880127,-8.773882865905762,-0.6394818425178528
1772650347167808300,1.604808349609375,4.103092670440674,-8.749954223632812,-0.6634100675582886
1772650347177685500,1.614685546875,4.098307132720947,-8.755337715148926,-0.6801598072052002
1772650347187562500,1.6245625,4.098307132720947,-8.783453941345215,-0.6801598072052002
1772650347197439700,1.634439697265625,4.098307132720947,-8.797810554504395,-0.646660327911377
1772650347207316700,1.644316650390625,4.112663745880127,-8.804390907287598,-0.6131607890129089
1772650347217194000,1.654194091796875,4.122235298156738,-8.806783676147461,-0.582054078578949
1772650347227071000,1.664071044921875,4.139583110809326,-8.803792953491211,-0.5461617708206177
1772650347236948200,1.6739482421875,4.1629133224487305,-8.808578491210938,-0.5437689423561096
1772650347246825200,1.6838251953125,4.155734539031982,-8.791828155517578,-0.5682953596115112
1772650347256702500,1.693702392578125,4.158127784729004,-8.780462265014648,-0.5826523303985596
1772650347266579500,1.703579345703125,4.148556232452393,-8.768498420715332,-0.5778666734695435
1772650347276456700,1.713456787109375,4.148556232452393,-8.732605934143066,-0.5850451588630676
1772650347286333700,1.723333740234375,4.155734539031982,-8.718249320983887,-0.5665007829666138
1772650347296211000,1.7332109375,4.124628067016602,-8.72064208984375,-0.6065805554389954
1772650347306088000,1.743087890625,4.0935211181640625,-8.814560890197754,-0.6460621356964111
1772650347315965000,1.75296484375,4.113262176513672,-8.854640007019043,-0.6340979933738708
1772650347325842200,1.76284228515625,4.208376884460449,-8.83669376373291,-0.5126622319221497
1772650347335719200,1.77271923828125,4.148556232452393,-8.763114929199219,-0.534795880317688
1772650347345596400,1.782596435546875,4.106083869934082,-8.897710800170898,-0.6454638838768005
1772650347355473400,1.792473388671875,4.1389851570129395,-8.823533058166504,-0.6299105882644653
1772650347365350700,1.8023505859375,4.1629133224487305,-8.766105651855469,-0.6017948985099792
1772650347375227600,1.8122275390625,4.189234256744385,-8.787042617797852,-0.5850451588630676
1772650347385105000,1.82210498046875,4.172484397888184,-8.753543853759766,-0.5688936114311218
1772650347394982000,1.83198193359375,4.203591346740723,-8.772686004638672,-0.5659025311470032
1772650347404859100,1.841859130859375,4.201198577880859,-8.820542335510254,-0.5635097622871399
1772650347414736100,1.851736083984375,4.203591346740723,-8.806185722351074,-0.5706881880760193
1772650347424613400,1.86161328125,4.213162422180176,-8.777471542358398,-0.5778666734695435
1772650347434490400,1.871490478515625,4.189234256744385,-8.758927345275879,-0.5874379873275757
1772650347444367600,1.88136767578125,4.155734539031982,-8.739784240722656,-0.5928218364715576
1772650347454244600,1.89124462890625,4.1629133224487305,-8.72064208984375,-0.6095715761184692
1772650347464121600,1.90112158203125,4.17726993560791,-8.723034858703613,-0.5904290080070496
1772650347473998800,1.910998779296875,4.174877166748047,-8.756534576416016,-0.5802595019340515
1772650347483875800,1.920875732421875,4.158127784729004,-8.791828155517578,-0.5802595019340515
1772650347493753000,1.930753173828125,4.141377925872803,-8.813364028930664,-0.5772684812545776
1772650347503630000,1.940630126953125,4.153341770172119,-8.830113410949707,-0.5772684812545776
1772650347513507300,1.95050732421875,4.1868414878845215,-8.794221878051758,-0.5850451588630676
1772650347523384300,1.96038427734375,4.194019794464111,-8.777471542358398,-0.5778666734695435
1772650347533261600,1.970261474609375,4.227519512176514,-8.763114929199219,-0.5641079545021057
1772650347543138600,1.980138671875,4.179663181304932,-8.755936622619629,-0.592223584651947
1772650347553015800,1.990015869140625,4.17726993560791,-8.766105651855469,-0.6041877269744873
1772650347562892800,1.999892822265625,4.160520553588867,-8.796614646911621,-0.5802595019340515
1772650347572770000,2.00977001953125,4.11505651473999,-8.811569213867188,-0.6323033571243286
1772650347582647000,2.01964697265625,4.091128349304199,-8.788239479064941,-0.6370890140533447
1772650347592524300,2.029524169921875,4.105485439300537,-8.781061172485352,-0.6538388133049011
1772650347602401300,2.0394013671875,4.129413604736328,-8.775676727294922,-0.6299105882644653
1772650347612278300,2.0492783203125,4.174877166748047,-8.758927345275879,-0.5994020700454712
1772650347622155500,2.059155517578125,4.191627025604248,-8.7445707321167,-0.5832505226135254
1772650347632032500,2.069032470703125,4.194019794464111,-8.761320114135742,-0.5874379873275757
1772650347641909800,2.07890966796875,4.143770694732666,-8.782855987548828,-0.5802595019340515
1772650347651786800,2.088786865234375,4.103092670440674,-8.794819831848145,-0.5964110493659973
1772650347661664000,2.0986640625,4.095914363861084,-8.809176445007324,-0.6227321028709412
1772650347671541000,2.108541015625,4.098307132720947,-8.836095809936523,-0.6508477330207825
1772650347681418200,2.118418212890625,4.079164505004883,-8.825926780700684,-0.6221339106559753
1772650347691295200,2.128295166015625,4.117449760437012,-8.792427062988281,-0.6083751320838928
1772650347701172500,2.13817236328125,4.150949001312256,-8.801400184631348,-0.5778666734695435
1772650347711049500,2.148049560546875,4.167698860168457,-8.808578491210938,-0.5485545992851257
1772650347720926700,2.1579267578125,4.172484397888184,-8.8109712600708,-0.5461617708206177
1772650347730803700,2.1678037109375,4.1389851570129395,-8.813364028930664,-0.5868397355079651
1772650347750558000,2.187557861328125,4.167698860168457,-8.766105651855469,-0.6089733839035034
1772650347760435200,2.197435302734375,4.150949001312256,-8.756534576416016,-0.6017948985099792
1772650347770312200,2.207312255859375,4.1389851570129395,-8.766105651855469,-0.6017948985099792
1772650347780189400,2.217189453125,4.119842529296875,-8.770891189575195,-0.6011967062950134
1772650347790066400,2.22706640625,4.1078782081604,-8.806783676147461,-0.6059823632240295
1772650347799943400,2.236943359375,4.098307132720947,-8.835497856140137,-0.6101697683334351
1772650347809820700,2.246820556640625,4.117449760437012,-8.835497856140137,-0.5982056856155396
1772650347819697700,2.25669775390625,4.165306091308594,-8.813364028930664,-0.5892325639724731
1772650347829575000,2.266574951171875,4.17726993560791,-8.761320114135742,-0.6017948985099792
1772650347839452000,2.276451904296875,4.165306091308594,-8.756534576416016,-0.623330295085907
1772650347849329200,2.2863291015625,4.146163463592529,-8.766703605651855,-0.6352944374084473
1772650347859206100,2.2962060546875,4.136591911315918,-8.806783676147461,-0.6131607890129089
1772650347869083400,2.30608349609375,4.134199142456055,-8.818747520446777,-0.6203392744064331
1772650347878960400,2.31596044921875,4.124628067016602,-8.809176445007324,-0.6251249313354492
1772650347888837600,2.325837646484375,4.1389851570129395,-8.801998138427734,-0.5916253924369812
1772650347898714600,2.335714599609375,4.153341770172119,-8.782855987548828,-0.592223584651947
1772650347908591900,2.345591796875,4.150949001312256,-8.742177963256836,-0.5970092415809631
1772650347918468900,2.35546875,4.184448719024658,-8.742177963256836,-0.5808576941490173
1772650347928346000,2.36534619140625,4.153341770172119,-8.754141807556152,-0.592223584651947
1772650347938223000,2.37522314453125,4.141377925872803,-8.758927345275879,-0.625723123550415
1772650347948100400,2.385100341796875,4.119842529296875,-8.771489143371582,-0.6370890140533447
1772650347957977300,2.394977294921875,4.117449760437012,-8.828917503356934,-0.6628118753433228
1772650347967854600,2.4048544921875,4.11505651473999,-8.82652473449707,-0.6460621356964111
1772650347977731600,2.414731689453125,4.141377925872803,-8.793025016784668,-0.6394818425178528
1772650347987608600,2.424608642578125,4.150949001312256,-8.778069496154785,-0.6305087804794312
1772650347997485800,2.43448583984375,4.158127784729004,-8.801998138427734,-0.617946445941925
1772650348007363000,2.444363037109375,4.165306091308594,-8.799605369567871,-0.6011967062950134
1772650348017240000,2.454239990234375,4.1629133224487305,-8.780462265014648,-0.5970092415809631
1772650348027117300,2.464117431640625,4.165306091308594,-8.804390907287598,-0.6035895347595215
1772650348036994300,2.473994384765625,4.155734539031982,-8.763712882995605,-0.5874379873275757
1772650348046871300,2.483871337890625,4.158127784729004,-8.785248756408691,-0.6137589812278748
1772650348056748500,2.49374853515625,4.17009162902832,-8.768498420715332,-0.6305087804794312
1772650348066625500,2.50362548828125,4.153341770172119,-8.776275634765625,-0.6538388133049011
1772650348076502800,2.513502685546875,4.1389851570129395,-8.785846710205078,-0.6562315821647644
1772650348086379800,2.5233798828125,4.146163463592529,-8.792427062988281,-0.6394818425178528
1772650348096257000,2.533257080078125,4.146163463592529,-8.801998138427734,-0.6346961855888367
1772650348106134000,2.543134033203125,4.122235298156738,-8.801998138427734,-0.6227321028709412
1772650348116011300,2.55301123046875,4.101297855377197,-8.809176445007324,-0.6346961855888367
1772650348125888300,2.56288818359375,4.127020835876465,-8.797212600708008,-0.6299105882644653
1772650348135765500,2.572765625,4.134199142456055,-8.778069496154785,-0.6203392744064331
1772650348145642500,2.582642578125,4.158127784729004,-8.780462265014648,-0.6185446381568909
1772650348155519700,2.592519775390625,4.165306091308594,-8.785248756408691,-0.6089733839035034
1772650348165396700,2.602396728515625,4.150949001312256,-8.806783676147461,-0.5964110493659973
1772650348175274000,2.61227392578125,4.131806373596191,-8.81396198272705,-0.617946445941925
1772650348185151000,2.62215087890625,4.098905086517334,-8.806783676147461,-0.6251249313354492
1772650348195028200,2.6320283203125,4.098905086517334,-8.816354751586914,-0.6275177597999573
1772650348204905200,2.6419052734375,4.101297855377197,-8.812167167663574,-0.6323033571243286
1772650348214782500,2.651782470703125,4.095914363861084,-8.790632247924805,-0.6394818425178528
1772650348224659500,2.661659423828125,4.098307132720947,-8.795417785644531,-0.649053156375885
1772650348234536700,2.67153662109375,4.103092670440674,-8.795417785644531,-0.6442674994468689
1772650348244413700,2.68141357421875,4.11505651473999,-8.793025016784668,-0.6514459848403931
1772650348254291000,2.691291015625,4.146163463592529,-8.792427062988281,-0.6299105882644653
1772650348264168000,2.70116796875,4.141377925872803,-8.799605369567871,-0.6227321028709412
1772650348274045000,2.711044921875,4.124628067016602,-8.809774398803711,-0.6346961855888367
1772650348283922200,2.720922119140625,4.091726779937744,-8.812167167663574,-0.6364908218383789
1772650348293799400,2.73079931640625,4.082155227661133,-8.807381629943848,-0.6580262184143066
1772650348303676400,2.740676513671875,4.112663745880127,-8.785846710205078,-0.6586244106292725
1772650348313553700,2.7505537109375,4.11505651473999,-8.778668403625488,-0.6562315821647644
1772650348323430700,2.7604306640625,4.1078782081604,-8.778668403625488,-0.6634100675582886
1772650348333307600,2.7703076171875,4.103092670440674,-8.793025016784668,-0.6394818425178528
1772650348343185000,2.780184814453125,4.094119548797607,-8.793025016784668,-0.6370890140533447
1772650348353062000,2.790061767578125,4.098307132720947,-8.790632247924805,-0.6275177597999573
1772650348362939100,2.799939208984375,4.113262176513672,-8.81396198272705,-0.6299105882644653
1772650348372816100,2.809816162109375,4.122833251953125,-8.824131965637207,-0.6436693072319031
1772650348382693400,2.819693359375,4.1389851570129395,-8.811569213867188,-0.6346961855888367
1772650348392570400,2.8295703125,4.174877166748047,-8.799605369567871,-0.6131607890129089
1772650348402447600,2.839447509765625,4.1629133224487305,-8.780462265014648,-0.6065805554389954
1772650348412324600,2.84932470703125,4.117449760437012,-8.792427062988281,-0.6251249313354492
1772650348422201900,2.859201904296875,4.089334011077881,-8.800203323364258,-0.6532405614852905
1772650348432078800,2.869078857421875,4.0558342933654785,-8.810373306274414,-0.7058826684951782
1772650348441956000,2.8789560546875,4.050450325012207,-8.803194046020508,-0.7178468108177185
1772650348451833000,2.8888330078125,4.048655986785889,-8.81515884399414,-0.7058826684951782
1772650348461710300,2.89871044921875,4.082155227661133,-8.807381629943848,-0.6819544434547424
1772650348471587300,2.90858740234375,4.119842529296875,-8.797212600708008,-0.6394818425178528
1772650348481464600,2.918464599609375,4.158127784729004,-8.766105651855469,-0.6161518096923828
1772650348491341600,2.928341552734375,4.182055950164795,-8.754141807556152,-0.5880361795425415
1772650348501218800,2.93821875,4.174877166748047,-8.770891189575195,-0.5946164131164551
1772650348511095800,2.948095703125,4.182055950164795,-8.787641525268555,-0.6017948985099792
1772650348520973000,2.95797314453125,4.086342811584473,-8.785248756408691,-0.617946445941925
1772650348530850000,2.96785009765625,4.055236339569092,-8.812167167663574,-0.6484549641609192
1772650348540727300,2.977727294921875,4.0528435707092285,-8.843274116516113,-0.6837490797042847
1772650348550604300,2.987604248046875,4.031308174133301,-8.86780071258545,-0.7214360237121582
1772650348560481500,2.9974814453125,4.007379531860352,-8.877969741821289,-0.8051848411560059
1772650348570358500,3.007358642578125,4.141377925872803,-8.785248756408691,-0.6370890140533447
1772650348580235800,3.01723583984375,4.1623148918151855,-8.723034858703613,-0.5688936114311218
1772650348590112800,3.02711279296875,4.152743816375732,-8.751749038696289,-0.5970092415809631
1772650348599990000,3.036989990234375,4.110270977020264,-8.83071231842041,-0.6197410821914673
1772650348609867000,3.046866943359375,4.094119548797607,-8.885746955871582,-0.6454638838768005
1772650348619744300,3.056744140625,4.064807415008545,-8.843274116516113,-0.6460621356964111
1772650348629621200,3.066621337890625,4.0767717361450195,-8.82652473449707,-0.6364908218383789
1772650348639498500,3.07649853515625,4.095914363861084,-8.797810554504395,-0.6251249313354492
1772650348649375500,3.08637548828125,4.060021877288818,-8.776275634765625,-0.6418746709823608
1772650348659252500,3.09625244140625,4.040879249572754,-8.769695281982422,-0.6586244106292725
1772650348669129700,3.106129638671875,4.0528435707092285,-8.771489143371582,-0.6562315821647644
1772650348679007000,3.116007080078125,4.0695929527282715,-8.795417785644531,-0.6394818425178528
1772650348688884000,3.125884033203125,4.063013076782227,-8.831310272216797,-0.6364908218383789
1772650348698761200,3.13576123046875,4.0558342933654785,-8.85763168334961,-0.6598208546638489
1772650348708638200,3.14563818359375,4.039084434509277,-8.863015174865723,-0.6885347366333008
1772650348718515200,3.15551513671875,4.074976921081543,-8.84805965423584,-0.6789634227752686
1772650348728392400,3.165392333984375,4.112663745880127,-8.816953659057617,-0.6699903607368469
1772650348738269700,3.175269775390625,4.127020835876465,-8.797810554504395,-0.6514459848403931
1772650348748146700,3.185146728515625,4.148556232452393,-8.782855987548828,-0.6323033571243286
1772650348758023700,3.195023681640625,4.134199142456055,-8.806783676147461,-0.6323033571243286
1772650348767901000,3.20490087890625,4.096512317657471,-8.833105087280273,-0.6340979933738708
1772650348777778000,3.21477783203125,4.055236339569092,-8.809774398803711,-0.6580262184143066
1772650348787655200,3.2246552734375,4.088735580444336,-8.795417785644531,-0.6747759580612183
1772650348797532400,3.234532470703125,4.091128349304199,-8.772088050842285,-0.6801598072052002
1772650348807409400,3.244409423828125,4.0935211181640625,-8.72901725769043,-0.6783652305603027
1772650348817286400,3.254286376953125,4.1006999015808105,-8.762516975402832,-0.6993024349212646
1772650348827163600,3.26416357421875,4.064807415008545,-8.779266357421875,-0.7034898400306702
1772650348837040600,3.27404052734375,4.086342811584473,-8.797810554504395,-0.6915257573127747
1772650348846918000,3.28391796875,4.132404804229736,-8.85224723815918,-0.6436693072319031
1772650348856795000,3.293794921875,4.136591911315918,-8.825926780700684,-0.6293123364448547
1772650348866672000,3.303672119140625,4.168296813964844,-8.84506893157959,-0.6299105882644653
1772650348876549000,3.313549072265625,4.143770694732666,-8.828319549560547,-0.6275177597999573
1772650348886426400,3.32342626953125,4.117449760437012,-8.81934642791748,-0.6819544434547424
1772650348896303400,3.333303466796875,4.1006999015808105,-8.80798053741455,-0.6963114142417908
1772650348906180600,3.3431806640625,4.0767717361450195,-8.786444664001465,-0.7010970115661621
1772650348916057600,3.3530576171875,4.098307132720947,-8.774480819702148,-0.7040880918502808
1772650348925934800,3.362934814453125,4.110270977020264,-8.783453941345215,-0.6801598072052002
1772650348935811800,3.372811767578125,4.1078782081604,-8.778668403625488,-0.6681957244873047
1772650348945689000,3.382689208984375,4.131806373596191,-8.797212600708008,-0.6370890140533447
1772650348955566000,3.392566162109375,4.131806373596191,-8.806783676147461,-0.6251249313354492
1772650348965443300,3.402443359375,4.134199142456055,-8.794819831848145,-0.6227321028709412
1772650348975320300,3.4123203125,4.124628067016602,-8.793025016784668,-0.6562315821647644
1772650348985197600,3.422197509765625,4.088735580444336,-8.788239479064941,-0.6777670383453369
1772650348995074600,3.432074462890625,4.0767717361450195,-8.776873588562012,-0.7040880918502808
1772650349004951800,3.441951904296875,4.079164505004883,-8.776873588562012,-0.7040880918502808
1772650349014828800,3.451828857421875,4.088735580444336,-8.791230201721191,-0.6963114142417908
1772650349024706000,3.4617060546875,4.119842529296875,-8.804988861083984,-0.6580262184143066
1772650349034583000,3.4715830078125,4.141377925872803,-8.811569213867188,-0.615553617477417
1772650349044460300,3.481460205078125,4.130012035369873,-8.828319549560547,-0.6059823632240295
1772650349054337300,3.491337158203125,4.086941242218018,-8.84506893157959,-0.638883650302887
1772650349064214500,3.501214599609375,4.051048755645752,-8.8648099899292,-0.666999340057373
1772650349074091500,3.511091552734375,4.036691665649414,-8.839086532592773,-0.6861419081687927
1772650349083968800,3.52096875,4.0145583152771,-8.796015739440918,-0.6891329288482666
1772650349093845800,3.530845703125,4.117449760437012,-8.801998138427734,-0.6059823632240295
1772650349103723000,3.540722900390625,4.07258415222168,-8.797212600708008,-0.5964110493659973
1772650349113600000,3.55060009765625,4.053441524505615,-8.816953659057617,-0.641276478767395
1772650349123477200,3.560477294921875,4.027120590209961,-8.817551612854004,-0.6628118753433228
1772650349133354200,3.570354248046875,4.041477680206299,-8.821739196777344,-0.6628118753433228
1772650349143231500,3.5802314453125,4.0797624588012695,-8.814560890197754,-0.6436693072319031
1772650349153108500,3.5901083984375,4.098307132720947,-8.783453941345215,-0.6227321028709412
1772650349162985700,3.59998583984375,4.1078782081604,-8.799605369567871,-0.6203392744064331
1772650349172862700,3.60986279296875,4.117449760437012,-8.797212600708008,-0.6299105882644653
1772650349182740000,3.619739990234375,4.110270977020264,-8.781061172485352,-0.6538388133049011
1772650349192617000,3.629616943359375,4.103092670440674,-8.8438720703125,-0.7244270443916321
1772650349202494200,3.639494140625,4.060021877288818,-8.796015739440918,-0.698704183101654
1772650349212371200,3.64937109375,4.0767717361450195,-8.824729919433594,-0.7082754969596863
1772650349222248400,3.65924853515625,4.041477680206299,-8.839086532592773,-0.7148557901382446
1772650349232125400,3.66912548828125,4.0319061279296875,-8.8438720703125,-0.7292127013206482
1772650349242002700,3.679002685546875,4.041477680206299,-8.831908226013184,-0.7100701332092285
1772650349251879700,3.688879638671875,4.0797624588012695,-8.82652473449707,-0.672383189201355
1772650349261757000,3.6987568359375,4.110869407653809,-8.828319549560547,-0.6317051649093628
1772650349271634000,3.708634033203125,4.160520553588867,-8.823533058166504,-0.6203392744064331
1772650349281511200,3.71851123046875,4.112663745880127,-8.730213165283203,-0.5778666734695435
1772650349291388200,3.72838818359375,4.134199142456055,-8.730213165283203,-0.5970092415809631
1772650349301265400,3.738265380859375,4.146163463592529,-8.751749038696289,-0.5802595019340515
1772650349311142400,3.748142333984375,4.146163463592529,-8.746963500976562,-0.6352944374084473
1772650349321019600,3.75801953125,4.134199142456055,-8.783453941345215,-0.6801598072052002
1772650349330896600,3.767896728515625,4.0935211181640625,-8.786444664001465,-0.7082754969596863
1772650349340774000,3.77777392578125,4.1078782081604,-8.788837432861328,-0.7106683254241943
1772650349350651000,3.78765087890625,4.127020835876465,-8.796015739440918,-0.7178468108177185
1772650349360528100,3.797528076171875,4.131806373596191,-8.803194046020508,-0.7154539823532104
1772650349370405000,3.807405029296875,4.129413604736328,-8.812766075134277,-0.729810893535614
1772650349380282400,3.817282470703125,4.1389851570129395,-8.82652473449707,-0.7034898400306702
1772650349390159400,3.827159423828125,4.127020835876465,-8.843274116516113,-0.6699903607368469
1772650349400036600,3.83703662109375,4.11505651473999,-8.81934642791748,-0.6699903607368469
1772650349409913600,3.84691357421875,4.103092670440674,-8.821739196777344,-0.6556333899497986
1772650349419790800,3.856790771484375,4.106083869934082,-8.82652473449707,-0.6508477330207825
1772650349429667800,3.866667724609375,4.122235298156738,-8.788239479064941,-0.6418746709823608
1772650349439545000,3.876545166015625,4.136591911315918,-8.764310836791992,-0.6329016089439392
1772650349449422000,3.886422119140625,4.158127784729004,-8.763712882995605,-0.6305087804794312
1772650349459299300,3.89629931640625,4.141377925872803,-8.781061172485352,-0.6442674994468689
1772650349469176300,3.90617626953125,4.103092670440674,-8.802596092224121,-0.6634100675582886
1772650349479053600,3.916053466796875,4.091128349304199,-8.807381629943848,-0.6819544434547424
1772650349488930600,3.9259306640625,4.103092670440674,-8.831310272216797,-0.6891329288482666
1772650349498807800,3.935807861328125,4.040879249572754,-8.793622970581055,-0.6675975322723389
1772650349508684800,3.945684814453125,4.036093711853027,-8.784051895141602,-0.6652047038078308
1772650349518562000,3.95556201171875,4.063013076782227,-8.802596092224121,-0.6364908218383789
1772650349528439000,3.96543896484375,4.091726779937744,-8.81396198272705,-0.6227321028709412
1772650349538316300,3.97531640625,4.091726779937744,-8.81396198272705,-0.615553617477417
1772650349548193300,3.985193359375,4.103092670440674,-8.797212600708008,-0.6059823632240295
1772650349558070500,3.995070556640625,4.117449760437012,-8.787641525268555,-0.615553617477417
1772650349567947800,4.00494775390625,4.122235298156738,-8.793025016784668,-0.6323033571243286
1772650349577824800,4.01482470703125,4.129413604736328,-8.794819831848145,-0.6299105882644653
1772650349587701800,4.02470166015625,4.1006999015808105,-8.816354751586914,-0.6394818425178528
1772650349597579000,4.0345791015625,4.1006999015808105,-8.809774398803711,-0.6675975322723389
1772650349607456000,4.0444560546875,4.058227062225342,-8.867202758789062,-0.666999340057373
1772650349617333200,4.054333251953125,4.063013076782227,-8.85523796081543,-0.6598208546638489
1772650349627210200,4.064210205078125,4.041477680206299,-8.843274116516113,-0.6693921089172363
1772650349637087500,4.07408740234375,4.036691665649414,-8.821739196777344,-0.6532405614852905
1772650349646964500,4.083964599609375,4.048655986785889,-8.800203323364258,-0.6532405614852905
1772650349656841700,4.093841796875,4.057629108428955,-8.773882865905762,-0.6394818425178528
1772650349666719000,4.103718994140625,4.081557273864746,-8.780462265014648,-0.6083751320838928
1772650349676596000,4.113595947265625,4.098905086517334,-8.801998138427734,-0.5916253924369812
1772650349686473000,4.123472900390625,4.077369689941406,-8.825926780700684,-0.6173482537269592
1772650349696350200,4.13335009765625,4.058227062225342,-8.821739196777344,-0.6197410821914673
1772650349706227500,4.1432275390625,4.053441524505615,-8.82652473449707,-0.6580262184143066
1772650349716104400,4.1531044921875,4.043870449066162,-8.828917503356934,-0.6699903607368469
1772650349725981400,4.1629814453125,4.058227062225342,-8.817551612854004,-0.672383189201355
1772650349735858700,4.172858642578125,4.0935211181640625,-8.809774398803711,-0.672383189201355
1772650349745736000,4.18273583984375,4.11505651473999,-8.809176445007324,-0.6394818425178528
1772650349755613000,4.192613037109375,4.117449760437012,-8.801998138427734,-0.617946445941925
1772650349765490200,4.202490234375,4.0935211181640625,-8.802596092224121,-0.6275177597999573
1772650349775367200,4.2123671875,4.0797624588012695,-8.82652473449707,-0.6484549641609192
1772650349785244400,4.222244384765625,4.063013076782227,-8.845666885375977,-0.6771687865257263
1772650349795121400,4.232121337890625,4.048655986785889,-8.834300994873047,-0.7100701332092285
1772650349804998700,4.24199853515625,4.043870449066162,-8.827122688293457,-0.7004988193511963
1772650349814875600,4.251875732421875,4.071985721588135,-8.800801277160645,-0.6819544434547424
1772650349824753000,4.2617529296875,4.103092670440674,-8.776275634765625,-0.649053156375885
1772650349834630000,4.2716298828125,4.119842529296875,-8.749356269836426,-0.6065805554389954
1772650349844507100,4.281507080078125,4.129413604736328,-8.751749038696289,-0.5970092415809631
1772650349854384000,4.291384033203125,4.103092670440674,-8.783453941345215,-0.6251249313354492
1772650349864261400,4.301261474609375,4.0558342933654785,-8.804988861083984,-0.6508477330207825
1772650349874138400,4.311138427734375,4.0528435707092285,-8.800203323364258,-0.6628118753433228
1772650349884015600,4.321015625,4.098307132720947,-8.793025016784668,-0.6681957244873047
1772650349893892600,4.330892578125,4.122235298156738,-8.800203323364258,-0.6610172390937805
1772650349903769900,4.340769775390625,4.129413604736328,-8.793025016784668,-0.6681957244873047
1772650349913646800,4.350646728515625,4.131806373596191,-8.788239479064941,-0.6634100675582886
1772650349923524000,4.360524169921875,4.134199142456055,-8.797810554504395,-0.6538388133049011
1772650349933401000,4.370401123046875,4.110270977020264,-8.800203323364258,-0.6514459848403931
1772650349943278300,4.3802783203125,4.074378967285156,-8.812167167663574,-0.6675975322723389
1772650349953155300,4.3901552734375,4.043272018432617,-8.810373306274414,-0.6915257573127747
1772650349963032600,4.400032470703125,4.043272018432617,-8.80798053741455,-0.6963114142417908
1772650349972909600,4.40990966796875,4.048057556152344,-8.781659126281738,-0.7034898400306702
1772650349982786800,4.419786865234375,4.043272018432617,-8.796015739440918,-0.6891329288482666
1772650349992663800,4.429663818359375,4.048057556152344,-8.814560890197754,-0.6747759580612183
1772650350002541000,4.439541015625,4.058227062225342,-8.843274116516113,-0.6532405614852905
1772650350012418000,4.44941796875,4.098905086517334,-8.864211082458496,-0.6245267391204834
1772650350022295300,4.45929541015625,4.150949001312256,-8.851649284362793,-0.5790630578994751
1772650350032172300,4.46917236328125,4.203591346740723,-8.820542335510254,-0.5706881880760193
1772650350042049500,4.479049560546875,4.213162422180176,-8.770293235778809,-0.5754738450050354
1772650350051926500,4.488926513671875,4.195814609527588,-8.73499870300293,-0.6047859191894531
1772650350061803800,4.4988037109375,4.150351047515869,-8.73320484161377,-0.6352944374084473
1772650350071680800,4.5086806640625,4.112663745880127,-8.766703605651855,-0.6586244106292725
1772650350081558000,4.51855810546875,4.0767717361450195,-8.798408508300781,-0.6867401003837585
1772650350091435000,4.52843505859375,4.029513359069824,-8.824729919433594,-0.7076773047447205
1772650350101312300,4.538312255859375,4.01754903793335,-8.837292671203613,-0.7339983582496643
1772650350111189200,4.548189208984375,4.036691665649414,-8.846264839172363,-0.7435696125030518
1772650350121066500,4.55806640625,4.067798614501953,-8.8438720703125,-0.7100701332092285
1772650350130943500,4.567943603515625,4.089334011077881,-8.81934642791748,-0.6508477330207825
1772650350140820700,4.57782080078125,4.110869407653809,-8.818747520446777,-0.6107679605484009
1772650350150697700,4.58769775390625,4.113262176513672,-8.825926780700684,-0.5700899958610535
1772650350160575000,4.597574951171875,4.118047714233398,-8.825926780700684,-0.5796613097190857
1772650350170452000,4.607451904296875,4.120440483093262,-8.801998138427734,-0.582054078578949
1772650350180329200,4.6173291015625,4.127020835876465,-8.775676727294922,-0.6083751320838928
1772650350190206200,4.627206298828125,4.129413604736328,-8.770891189575195,-0.6113662123680115
1772650350200083500,4.63708349609375,4.122235298156738,-8.769096374511719,-0.6394818425178528
1772650350209960400,4.64696044921875,4.0935211181640625,-8.778668403625488,-0.6681957244873047
1772650350219837700,4.656837646484375,4.053441524505615,-8.800801277160645,-0.698704183101654
1772650350229714700,4.666714599609375,4.027120590209961,-8.806185722351074,-0.7339983582496643
1772650350239592000,4.676592041015625,4.00319242477417,-8.8109712600708,-0.755533754825592
1772650350249469000,4.686468994140625,4.01754903793335,-8.801400184631348,-0.7363911867141724
1772650350259346200,4.69634619140625,4.055236339569092,-8.791230201721191,-0.6843472719192505
1772650350269223200,4.70622314453125,4.1078782081604,-8.790632247924805,-0.646660327911377
1772650350279100400,4.716100341796875,4.148556232452393,-8.794819831848145,-0.6227321028709412
1772650350288977400,4.725977294921875,4.167698860168457,-8.797212600708008,-0.6065805554389954
1772650350298854700,4.735854736328125,4.165306091308594,-8.823533058166504,-0.6083751320838928
1772650350308731600,4.745731689453125,4.1389851570129395,-8.833105087280273,-0.641276478767395
1772650350318609000,4.75560888671875,4.136591911315918,-8.816953659057617,-0.6771687865257263
1772650350328486000,4.76548583984375,4.134199142456055,-8.802596092224121,-0.6921239495277405
1772650350338363100,4.775363037109375,4.124628067016602,-8.762516975402832,-0.7208378314971924
1772650350348240400,4.785240478515625,4.098307132720947,-8.755337715148926,-0.7256234884262085
1772650350358117400,4.795117431640625,4.0767717361450195,-8.779266357421875,-0.7178468108177185
1772650350367994400,4.804994384765625,4.088735580444336,-8.791230201721191,-0.6921239495277405
1772650350377871600,4.81487158203125,4.1078782081604,-8.814560890197754,-0.672383189201355
1772650350387748900,4.824748779296875,4.124628067016602,-8.812167167663574,-0.6747759580612183
1772650350397625900,4.8346259765625,4.136591911315918,-8.821739196777344,-0.672383189201355
1772650350407502800,4.8445029296875,4.141377925872803,-8.790632247924805,-0.6729813814163208
1772650350417380000,4.854380126953125,4.127020835876465,-8.761918067932129,-0.6562315821647644
1772650350427257300,4.86425732421875,4.134199142456055,-8.752346992492676,-0.6711867451667786
1772650350437134300,4.87413427734375,4.124628067016602,-8.757132530212402,-0.6777670383453369
1772650350447011300,4.88401123046875,4.131806373596191,-8.797810554504395,-0.6514459848403931
1772650350456888600,4.893888671875,4.127020835876465,-8.816953659057617,-0.6580262184143066
1772650350466765800,4.903765869140625,4.110270977020264,-8.81934642791748,-0.6604190468788147
1772650350476642800,4.913642822265625,4.101297855377197,-8.816953659057617,-0.6747759580612183
1772650350486520000,4.92352001953125,4.086342811584473,-8.803194046020508,-0.6819544434547424
1772650350496397000,4.93339697265625,4.095914363861084,-8.781659126281738,-0.6849454641342163
1772650350506274000,4.943274169921875,4.11505651473999,-8.776275634765625,-0.6753742098808289
1772650350516151300,4.9531513671875,4.112663745880127,-8.776275634765625,-0.6705885529518127
1772650350526028500,4.963028564453125,4.112663745880127,-8.790632247924805,-0.6753742098808289
1772650350535905500,4.972905517578125,4.122235298156738,-8.814560890197754,-0.6891329288482666
1772650350545782500,4.982782470703125,4.129413604736328,-8.807381629943848,-0.6801598072052002
1772650350555659800,4.99265966796875,4.148556232452393,-8.812167167663574,-0.6610172390937805
1772650350565537000,5.002537109375,4.127020835876465,-8.809774398803711,-0.6634100675582886
1772650350575414000,5.0124140625,4.117449760437012,-8.790632247924805,-0.6753742098808289
1772650350585291300,5.022291259765625,4.098307132720947,-8.793622970581055,-0.6825526356697083
1772650350595168300,5.032168212890625,4.095914363861084,-8.800801277160645,-0.6891329288482666
1772650350605045500,5.04204541015625,4.071985721588135,-8.786444664001465,-0.6867401003837585
1772650350614922500,5.051922607421875,4.067200183868408,-8.779266357421875,-0.6825526356697083
1772650350624799700,5.0617998046875,4.0695929527282715,-8.781659126281738,-0.6915257573127747
1772650350634676700,5.0716767578125,4.0695929527282715,-8.779266357421875,-0.6921239495277405
1772650350644554000,5.081553955078125,4.07258415222168,-8.800801277160645,-0.698704183101654
1772650350654431000,5.091430908203125,4.077369689941406,-8.803194046020508,-0.6843472719192505
1772650350664308200,5.10130810546875,4.088735580444336,-8.798408508300781,-0.6915257573127747
1772650350674185200,5.111185302734375,4.1078782081604,-8.809774398803711,-0.6867401003837585
1772650350684062500,5.1210625,4.129413604736328,-8.814560890197754,-0.6610172390937805
1772650350693939500,5.130939453125,4.131806373596191,-8.804988861083984,-0.6538388133049011
1772650350703816700,5.140816650390625,4.101297855377197,-8.81934642791748,-0.6747759580612183
1772650350713693700,5.150693603515625,4.0767717361450195,-8.817551612854004,-0.7202396392822266
1772650350723571000,5.160571044921875,4.043870449066162,-8.82532787322998,-0.7411768436431885
1772650350733448000,5.170447998046875,4.067798614501953,-8.834300994873047,-0.7316055297851562
1772650350743325200,5.1803251953125,4.074976921081543,-8.82233715057373,-0.7010970115661621
1772650350753202200,5.1902021484375,4.081557273864746,-8.809774398803711,-0.6891329288482666
1772650350763079400,5.200079345703125,4.105485439300537,-8.800203323364258,-0.6699903607368469
1772650350772956400,5.209956298828125,4.124628067016602,-8.785846710205078,-0.6562315821647644
1772650350782833700,5.219833740234375,4.172484397888184,-8.776275634765625,-0.6472585201263428
1772650350792710700,5.229710693359375,4.17726993560791,-8.776275634765625,-0.6514459848403931
1772650350802588000,5.239587890625,4.182055950164795,-8.778668403625488,-0.6562315821647644
1772650350812465000,5.24946484375,4.158127784729004,-8.776275634765625,-0.6634100675582886
1772650350822342100,5.259342041015625,4.1389851570129395,-8.781061172485352,-0.6753742098808289
1772650350832219100,5.26921923828125,4.117449760437012,-8.795417785644531,-0.6921239495277405
1772650350842096400,5.279096435546875,4.103092670440674,-8.803194046020508,-0.7082754969596863
1772650350851973400,5.288973388671875,4.086342811584473,-8.803194046020508,-0.7322037220001221
1772650350861850600,5.2988505859375,4.081557273864746,-8.796015739440918,-0.7226324677467346
1772650350871727600,5.3087275390625,4.110270977020264,-8.790632247924805,-0.6867401003837585
1772650350881604900,5.31860498046875,4.129413604736328,-8.793025016784668,-0.6658028960227966
1772650350891481900,5.32848193359375,4.110270977020264,-8.800203323364258,-0.6628118753433228
1772650350901359000,5.338359130859375,4.143770694732666,-8.831310272216797,-0.6819544434547424
1772650350911236000,5.348236083984375,4.119842529296875,-8.781061172485352,-0.649053156375885
1772650350921113300,5.35811328125,4.136591911315918,-8.790632247924805,-0.6634100675582886
1772650350930990300,5.367990234375,4.110270977020264,-8.776873588562012,-0.6921239495277405
1772650350940867600,5.37786767578125,4.127020835876465,-8.784051895141602,-0.7040880918502808
1772650350950744600,5.38774462890625,4.119842529296875,-8.772088050842285,-0.7184450030326843
1772650350960621800,5.397621826171875,4.105485439300537,-8.760722160339355,-0.737587571144104
1772650350970498800,5.407498779296875,4.091128349304199,-8.770293235778809,-0.7513462901115417
1772650350980376000,5.4173759765625,4.067200183868408,-8.775078773498535,-0.7345965504646301
1772650350990253000,5.427253173828125,4.048057556152344,-8.794221878051758,-0.729810893535614
1772650351000130300,5.43713037109375,4.055236339569092,-8.8109712600708,-0.7393822073936462
1772650351010007300,5.44700732421875,4.088735580444336,-8.81934642791748,-0.698704183101654
1772650351019884500,5.456884521484375,4.129413604736328,-8.824131965637207,-0.6699903607368469
1772650351029761500,5.466761474609375,4.153341770172119,-8.804390907287598,-0.6370890140533447
1772650351039638800,5.476638671875,4.17009162902832,-8.794819831848145,-0.6131607890129089
1772650351049515800,5.486515869140625,4.167698860168457,-8.785248756408691,-0.6251249313354492
1772650351059393000,5.49639306640625,4.131806373596191,-8.781061172485352,-0.6777670383453369
1772650351069270000,5.50627001953125,4.110270977020264,-8.776873588562012,-0.7160521745681763
1772650351079147300,5.516147216796875,4.098307132720947,-8.777471542358398,-0.7537391185760498
1772650351089024300,5.526024169921875,4.11505651473999,-8.779864311218262,-0.7465606927871704
1772650351098901500,5.535901611328125,4.1006999015808105,-8.796015739440918,-0.7226324677467346
1772650351108778500,5.545778564453125,4.11505651473999,-8.809774398803711,-0.7010970115661621
1772650351118655700,5.55565576171875,4.112663745880127,-8.82652473449707,-0.6699903607368469
1772650351128532700,5.56553271484375,4.148556232452393,-8.776275634765625,-0.6562315821647644
1772650351138410000,5.575409912109375,4.1629133224487305,-8.773882865905762,-0.6634100675582886
1772650351148287000,5.585286865234375,4.134199142456055,-8.761918067932129,-0.6472585201263428
1772650351158164200,5.595164306640625,4.117449760437012,-8.804988861083984,-0.6580262184143066
1772650351168041200,5.605041259765625,4.079164505004883,-8.819944381713867,-0.7034898400306702
1772650351177918500,5.61491845703125,4.0528435707092285,-8.805587768554688,-0.7250252366065979
1772650351187795500,5.62479541015625,4.1006999015808105,-8.788837432861328,-0.7226324677467346
1772650351197672700,5.634672607421875,4.135993957519531,-8.738588333129883,-0.7046862840652466
1772650351207549700,5.6445498046875,4.176671981811523,-8.745168685913086,-0.6969096064567566
1772650351217427000,5.654427001953125,4.140779495239258,-8.760123252868652,-0.7232306599617004
1772650351227304000,5.664303955078125,4.1078782081604,-8.808578491210938,-0.760917603969574
1772650351237181200,5.67418115234375,4.036093711853027,-8.82532787322998,-0.7579265832901001
1772650351247058200,5.68405810546875,4.046263217926025,-8.858229637145996,-0.7459624409675598
1772650351256935400,5.693935302734375,4.083950042724609,-8.8438720703125,-0.7124629616737366
1772650351266812400,5.7038125,4.11505651473999,-8.769695281982422,-0.6969096064567566
1772650351276689700,5.713689697265625,4.134199142456055,-8.754739761352539,-0.6873382925987244
1772650351286566700,5.723566650390625,4.160520553588867,-8.764310836791992,-0.6616154313087463
1772650351296444000,5.73344384765625,4.160520553588867,-8.797810554504395,-0.6514459848403931
1772650351306321000,5.74332080078125,4.124628067016602,-8.804988861083984,-0.6514459848403931
1772650351316198100,5.7531982421875,4.112663745880127,-8.828917503356934,-0.6915257573127747
1772650351326075100,5.7630751953125,4.124628067016602,-8.798408508300781,-0.729810893535614
1772650351335952400,5.772952392578125,4.119842529296875,-8.787042617797852,-0.7657032608985901
1772650351345829400,5.782829345703125,4.095914363861084,-8.767900466918945,-0.7800601720809937
1772650351355706600,5.79270654296875,4.071985721588135,-8.763114929199219,-0.7369893789291382
1772650351365583600,5.80258349609375,4.102494239807129,-8.71226692199707,-0.7310073375701904
1772650351375460900,5.8124609375,4.134199142456055,-8.787641525268555,-0.6227321028709412
1772650351385337900,5.822337890625,4.182055950164795,-8.816354751586914,-0.6011967062950134
1772650351395215000,5.832215087890625,4.0797624588012695,-8.81396198272705,-0.6125625967979431
1772650351405092000,5.842092041015625,4.1078782081604,-8.871988296508789,-0.7124629616737366
1772650351414969300,5.85196923828125,4.143770694732666,-8.903095245361328,-0.7076773047447205
1772650351424846300,5.861846435546875,4.091128349304199,-8.781061172485352,-0.6628118753433228
1772650351434723600,5.8717236328125,4.24367094039917,-8.783453941345215,-0.7328019142150879
1772650351444600600,5.8816005859375,4.055236339569092,-8.774480819702148,-0.7106683254241943
1772650351454477800,5.891477783203125,4.110270977020264,-8.800801277160645,-0.7202396392822266
1772650351464354800,5.901354736328125,4.134199142456055,-8.784051895141602,-0.7489534616470337
1772650351474232000,5.911232177734375,4.0528435707092285,-8.806185722351074,-0.7507480978965759
1772650351484109000,5.921109130859375,4.040879249572754,-8.799007415771484,-0.7746763229370117
1772650351493986300,5.930986328125,4.043272018432617,-8.751151084899902,-0.763310432434082
1772650351503863300,5.94086328125,4.105485439300537,-8.801400184631348,-0.7657032608985901
1772650351513740500,5.950740478515625,4.124628067016602,-8.796015739440918,-0.7345965504646301
1772650351523617500,5.960617431640625,4.117449760437012,-8.764310836791992,-0.6634100675582886
1772650351533494800,5.970494873046875,4.1078782081604,-8.759525299072266,-0.6729813814163208
1772650351543371800,5.980371826171875,4.0767717361450195,-8.791230201721191,-0.6963114142417908
1772650351553249000,5.9902490234375,4.203591346740723,-8.804390907287598,-0.6681957244873047
1772650351563126000,6.0001259765625,4.179663181304932,-8.782855987548828,-0.6658028960227966
1772650351573003300,6.010003173828125,4.122235298156738,-8.764909744262695,-0.7016952633857727
1772650351582880300,6.01988037109375,4.131806373596191,-8.803194046020508,-0.7417750358581543
1772650351592757500,6.029757568359375,4.148556232452393,-8.810373306274414,-0.7202396392822266
1772650351602634500,6.039634521484375,4.098307132720947,-8.805587768554688,-0.7369893789291382
1772650351612511700,6.04951171875,4.074378967285156,-8.803194046020508,-0.7417750358581543
1772650351622388700,6.059388671875,4.079164505004883,-8.820542335510254,-0.7603194117546082
1772650351632266000,6.069265869140625,4.088735580444336,-8.808578491210938,-0.7579265832901001
1772650351642143000,6.07914306640625,4.136591911315918,-8.784051895141602,-0.7465606927871704
1772650351652020200,6.089020263671875,4.146163463592529,-8.800203323364258,-0.6993024349212646
1772650351661897200,6.098897216796875,4.1078782081604,-8.785846710205078,-0.6825526356697083
1772650351671774500,6.1087744140625,4.088735580444336,-8.796015739440918,-0.7010970115661621
1772650351681651500,6.1186513671875,4.083950042724609,-8.786444664001465,-0.7058826684951782
1772650351691528700,6.12852880859375,4.095914363861084,-8.781659126281738,-0.7106683254241943
1772650351701405700,6.13840576171875,4.105485439300537,-8.774480819702148,-0.7256234884262085
1772650351711283000,6.148282958984375,4.11505651473999,-8.767302513122559,-0.7256234884262085
1772650351721160000,6.158159912109375,4.105485439300537,-8.752944946289062,-0.7136593461036682
1772650351731037200,6.168037109375,4.117449760437012,-8.788837432861328,-0.7178468108177185
1772650351740914200,6.1779140625,4.117449760437012,-8.819944381713867,-0.7202396392822266
1772650351750791400,6.18779150390625,4.110270977020264,-8.821739196777344,-0.6891329288482666
1772650351760668400,6.19766845703125,4.105485439300537,-8.817551612854004,-0.6963114142417908
1772650351770545700,6.207545654296875,4.117449760437012,-8.817551612854004,-0.7034898400306702
1772650351780422700,6.217422607421875,4.134199142456055,-8.816953659057617,-0.7082754969596863
1772650351790300000,6.2272998046875,4.141377925872803,-8.788837432861328,-0.7136593461036682
1772650351800177000,6.237177001953125,4.143770694732666,-8.774480819702148,-0.7184450030326843
1772650351810054100,6.24705419921875,4.141377925872803,-8.769695281982422,-0.706480860710144
1772650351819931100,6.25693115234375,4.129413604736328,-8.760123252868652,-0.706480860710144
1772650351829808400,6.266808349609375,4.136591911315918,-8.755337715148926,-0.706480860710144
1772650351839685400,6.276685302734375,4.119842529296875,-8.755337715148926,-0.7423732280731201
1772650351849562600,6.286562744140625,4.086342811584473,-8.772686004638672,-0.7537391185760498
1772650351859439600,6.296439697265625,4.0935211181640625,-8.791230201721191,-0.7465606927871704
1772650351869316900,6.30631689453125,4.110270977020264,-8.791230201721191,-0.729810893535614
1772650351879193900,6.31619384765625,4.131806373596191,-8.793622970581055,-0.7088736891746521
1772650351889071000,6.326071044921875,4.143770694732666,-8.793025016784668,-0.6873382925987244
1772650351898948000,6.335947998046875,4.0695929527282715,-8.791230201721191,-0.7226324677467346
1772650351908825300,6.345825439453125,4.129413604736328,-8.81934642791748,-0.6604190468788147
1772650351918702300,6.355702392578125,4.105485439300537,-8.804390907287598,-0.6275177597999573
1772650351928579600,6.36557958984375,4.098307132720947,-8.800203323364258,-0.6939185857772827
1772650351938456600,6.37545654296875,4.086342811584473,-8.791230201721191,-0.6915257573127747
1772650351948333600,6.38533349609375,4.1078782081604,-8.819944381713867,-0.7202396392822266
1772650351958210800,6.3952109375,4.129413604736328,-8.83370304107666,-0.698704183101654
1772650351968088000,6.405088134765625,4.1629133224487305,-8.81934642791748,-0.6747759580612183
1772650351977965000,6.414965087890625,4.1629133224487305,-8.794819831848145,-0.646660327911377
1772650351987842300,6.42484228515625,4.158127784729004,-8.800203323364258,-0.6610172390937805
1772650351997719300,6.43471923828125,4.129413604736328,-8.793025016784668,-0.6801598072052002
1772650352007596300,6.44459619140625,4.098307132720947,-8.781659126281738,-0.6969096064567566
1772650352017473500,6.4544736328125,4.095914363861084,-8.760123252868652,-0.7232306599617004
1772650352027350800,6.464350830078125,4.11924409866333,-8.740981101989746,-0.7112665176391602
1772650352037227800,6.474227783203125,4.122235298156738,-8.7505521774292,-0.6945167779922485
1772650352047104800,6.484104736328125,4.131806373596191,-8.757132530212402,-0.6873382925987244
1772650352056982000,6.49398193359375,4.119842529296875,-8.798408508300781,-0.7034898400306702
1772650352066859000,6.50385888671875,4.136591911315918,-8.81934642791748,-0.7010970115661621
1772650352076736300,6.513736328125,4.160520553588867,-8.82652473449707,-0.6843472719192505
1772650352086613500,6.523613525390625,4.172484397888184,-8.800203323364258,-0.6705885529518127
1772650352096490500,6.533490478515625,4.174877166748047,-8.802596092224121,-0.6658028960227966
1772650352106367500,6.543367431640625,4.165306091308594,-8.795417785644531,-0.6801598072052002
1772650352116244700,6.55324462890625,4.127020835876465,-8.82652473449707,-0.7148557901382446
1772650352126121700,6.563121826171875,4.088735580444336,-8.824729919433594,-0.7369893789291382
1772650352135999000,6.5729990234375,4.182055950164795,-8.793025016784668,-0.6753742098808289
1772650352145876000,6.5828759765625,4.124628067016602,-8.738588333129883,-0.6927221417427063
1772650352155753200,6.592753173828125,4.134199142456055,-8.726624488830566,-0.6879364848136902
1772650352165630200,6.602630126953125,4.136591911315918,-8.769096374511719,-0.6849454641342163
1772650352175507500,6.612507568359375,4.141377925872803,-8.788239479064941,-0.6969096064567566
1772650352185384400,6.622384521484375,4.127020835876465,-8.788837432861328,-0.6969096064567566
1772650352195261700,6.63226171875,4.11505651473999,-8.779266357421875,-0.7232306599617004
1772650352205138700,6.642138671875,4.086342811584473,-8.772686004638672,-0.7513462901115417
1772650352215016000,6.652015869140625,4.062414646148682,-8.772686004638672,-0.7513462901115417
1772650352224893000,6.661892822265625,4.079164505004883,-8.762516975402832,-0.7184450030326843
1772650352234770200,6.671770263671875,4.112663745880127,-8.762516975402832,-0.6873382925987244
1772650352244647200,6.681647216796875,4.112663745880127,-8.783453941345215,-0.6681957244873047
1772650352254524400,6.6915244140625,4.103092670440674,-8.804988861083984,-0.6484549641609192
1772650352264401400,6.7014013671875,4.077369689941406,-8.860024452209473,-0.6909275650978088
1772650352274278700,6.711278564453125,4.081557273864746,-8.86062240600586,-0.7076773047447205
1772650352284155600,6.72115576171875,4.071985721588135,-8.8438720703125,-0.6981059908866882
1772650352294033000,6.731032958984375,4.079164505004883,-8.81934642791748,-0.672383189201355
1772650352303910000,6.740909912109375,4.088735580444336,-8.778668403625488,-0.646660327911377
1772650352313787100,6.750787109375,4.1006999015808105,-8.752346992492676,-0.625723123550415
1772650352323664100,6.7606640625,4.134199142456055,-8.742177963256836,-0.6137589812278748
1772650352333541400,6.770541259765625,4.148556232452393,-8.766105651855469,-0.6041877269744873
1772650352343418400,6.78041845703125,4.112663745880127,-8.782855987548828,-0.6131607890129089
1772650352353295600,6.790295654296875,4.067200183868408,-8.802596092224121,-0.6771687865257263
1772650352363172600,6.800172607421875,4.031308174133301,-8.812766075134277,-0.7268198728561401
1772650352373049900,6.8100498046875,4.043272018432617,-8.817551612854004,-0.7316055297851562
1772650352382926800,6.8199267578125,4.086342811584473,-8.81515884399414,-0.7058826684951782
1772650352392804000,6.82980419921875,4.112663745880127,-8.821739196777344,-0.6867401003837585
1772650352402681000,6.83968115234375,4.131806373596191,-8.831310272216797,-0.6532405614852905
1772650352412558300,6.849558349609375,4.1389851570129395,-8.837890625,-0.641276478767395
1772650352422435300,6.859435302734375,4.141377925872803,-8.847461700439453,-0.6173482537269592
1772650352432312300,6.869312255859375,4.136591911315918,-8.864211082458496,-0.6173482537269592
1772650352442189600,6.879189453125,4.110270977020264,-8.825926780700684,-0.641276478767395
1772650352452066600,6.889066650390625,4.103092670440674,-8.783453941345215,-0.646660327911377
1772650352461943800,6.89894384765625,4.098307132720947,-8.766703605651855,-0.6538388133049011
1772650352471820800,6.90882080078125,4.1078782081604,-8.745168685913086,-0.6424728631973267
1772650352481698000,6.918697998046875,4.103092670440674,-8.728418350219727,-0.6400800347328186
1772650352491575000,6.928574951171875,4.079164505004883,-8.749954223632812,-0.6514459848403931
1772650352501452300,6.938452392578125,4.064807415008545,-8.766703605651855,-0.6634100675582886
1772650352511329300,6.948329345703125,4.031308174133301,-8.796015739440918,-0.7034898400306702
1772650352521206500,6.95820654296875,4.0217366218566895,-8.819944381713867,-0.7268198728561401
1772650352531083500,6.96808349609375,4.038486480712891,-8.82951545715332,-0.7292127013206482
1772650352540960800,6.977960693359375,4.063013076782227,-8.831310272216797,-0.6747759580612183
1772650352550837800,6.987837646484375,4.131806373596191,-8.833105087280273,-0.6245267391204834
1772650352560715000,6.997715087890625,4.17009162902832,-8.797212600708008,-0.5970092415809631
1772650352570592000,7.007592041015625,4.194019794464111,-8.809176445007324,-0.6041877269744873
1772650352580469200,7.01746923828125,4.179663181304932,-8.809176445007324,-0.6203392744064331
1772650352590346200,7.02734619140625,4.153341770172119,-8.790034294128418,-0.6418746709823608
1772650352600223500,7.037223388671875,4.124628067016602,-8.761918067932129,-0.6681957244873047
1772650352610100500,7.0471005859375,4.105485439300537,-8.74337387084961,-0.7088736891746521
1772650352619977700,7.056977783203125,4.074378967285156,-8.72901725769043,-0.706480860710144
1772650352629854700,7.066854736328125,4.043272018432617,-8.733802795410156,-0.6969096064567566
1772650352639732000,7.07673193359375,4.031308174133301,-8.781659126281738,-0.7058826684951782
1772650352649609000,7.08660888671875,4.031308174133301,-8.81515884399414,-0.6939185857772827
1772650352659486200,7.096486328125,4.048655986785889,-8.824131965637207,-0.6771687865257263
1772650352669363200,7.10636328125,4.095914363861084,-8.821739196777344,-0.6604190468788147
1772650352679240200,7.116240234375,4.141377925872803,-8.82114028930664,-0.6562315821647644
1772650352689117400,7.126117431640625,4.160520553588867,-8.804390907287598,-0.6346961855888367
1772650352698994400,7.135994384765625,4.184448719024658,-8.806783676147461,-0.6227321028709412
1772650352708871700,7.14587158203125,4.17726993560791,-8.799605369567871,-0.6299105882644653
1772650352718748700,7.155748779296875,4.174877166748047,-8.797212600708008,-0.6209374666213989
1772650352728626000,7.1656259765625,4.167698860168457,-8.792427062988281,-0.6346961855888367
1772650352738503000,7.1755029296875,4.167698860168457,-8.799605369567871,-0.646660327911377
1772650352748380200,7.185380126953125,4.136591911315918,-8.797810554504395,-0.6538388133049011
1772650352758257200,7.195257080078125,4.117449760437012,-8.790632247924805,-0.7016952633857727
1772650352768134400,7.205134521484375,4.0935211181640625,-8.788837432861328,-0.7226324677467346
1772650352778011400,7.215011474609375,4.083950042724609,-8.774480819702148,-0.7208378314971924
1772650352787888600,7.224888671875,4.083950042724609,-8.755337715148926,-0.7088736891746521
1772650352797765600,7.234765625,4.091128349304199,-8.760123252868652,-0.6945167779922485
1772650352807643000,7.244642822265625,4.103092670440674,-8.761918067932129,-0.6729813814163208
1772650352817519900,7.254519775390625,4.131806373596191,-8.759525299072266,-0.656829833984375
1772650352827397000,7.264397216796875,4.146163463592529,-8.785846710205078,-0.6538388133049011
1772650352837274000,7.274274169921875,4.148556232452393,-8.804988861083984,-0.6586244106292725
1772650352847151400,7.2841513671875,4.141377925872803,-8.816953659057617,-0.6843472719192505
1772650352857028400,7.2940283203125,4.148556232452393,-8.814560890197754,-0.6915257573127747
1772650352866905300,7.3039052734375,4.155734539031982,-8.797810554504395,-0.6753742098808289
1772650352876782600,7.313782470703125,4.148556232452393,-8.788239479064941,-0.6634100675582886
1772650352886659800,7.323659912109375,4.1006999015808105,-8.797810554504395,-0.6514459848403931
1772650352896536800,7.333536865234375,4.079164505004883,-8.821739196777344,-0.6747759580612183
1772650352906414000,7.3434140625,4.028914928436279,-8.827122688293457,-0.7004988193511963
1772650352916291000,7.353291015625,4.062414646148682,-8.814560890197754,-0.6939185857772827
1772650352926168000,7.36316796875,4.1006999015808105,-8.816953659057617,-0.7010970115661621
1772650352936045300,7.37304541015625,4.134199142456055,-8.800203323364258,-0.6514459848403931
1772650352945922300,7.38292236328125,4.143770694732666,-8.776275634765625,-0.649053156375885
1772650352955799600,7.392799560546875,4.124628067016602,-8.761918067932129,-0.6538388133049011
1772650352965676500,7.402676513671875,4.1006999015808105,-8.760123252868652,-0.6897311210632324
1772650352975553800,7.4125537109375,4.060021877288818,-8.80798053741455,-0.7154539823532104
1772650352985430800,7.4224306640625,4.050450325012207,-8.791230201721191,-0.727418065071106
1772650352995308000,7.43230810546875,4.074378967285156,-8.800801277160645,-0.7250252366065979
1772650353005185000,7.44218505859375,4.117449760437012,-8.791230201721191,-0.7034898400306702
1772650353015062300,7.452062255859375,4.122235298156738,-8.797810554504395,-0.6945167779922485
1772650353024939300,7.461939208984375,4.1389851570129395,-8.821739196777344,-0.6915257573127747
1772650353034816500,7.47181640625,4.119842529296875,-8.814560890197754,-0.6891329288482666
1772650353044693500,7.481693603515625,4.119842529296875,-8.807381629943848,-0.6801598072052002
1772650353054570500,7.491570556640625,4.122235298156738,-8.800203323364258,-0.6610172390937805
1772650353064447700,7.50144775390625,4.129413604736328,-8.785846710205078,-0.6562315821647644
1772650353074324700,7.51132470703125,4.095914363861084,-8.771489143371582,-0.6610172390937805
1772650353084202000,7.521201904296875,4.148556232452393,-8.788239479064941,-0.6705885529518127
1772650353094079000,7.531078857421875,4.110270977020264,-8.766703605651855,-0.6442674994468689
1772650353103956200,7.540956298828125,4.083950042724609,-8.776873588562012,-0.7010970115661621
1772650353113833200,7.550833251953125,4.105485439300537,-8.805587768554688,-0.7178468108177185
1772650353123710500,7.56071044921875,4.124628067016602,-8.791230201721191,-0.729810893535614
1772650353133587500,7.57058740234375,4.1078782081604,-8.775078773498535,-0.7513462901115417
1772650353143464700,7.580464599609375,4.141377925872803,-8.791230201721191,-0.7561319470405579
1772650353153341700,7.590341796875,4.133601188659668,-8.791230201721191,-0.7537391185760498
1772650353163219000,7.600218994140625,4.122235298156738,-8.805587768554688,-0.7250252366065979
1772650353173096000,7.610095947265625,4.127020835876465,-8.814560890197754,-0.6915257573127747
1772650353182973200,7.61997314453125,4.122235298156738,-8.816953659057617,-0.6658028960227966
1772650353192850200,7.62985009765625,4.103092670440674,-8.809774398803711,-0.6538388133049011
1772650353202727200,7.63972705078125,4.11505651473999,-8.781061172485352,-0.6514459848403931
1772650353212604400,7.6496044921875,4.117449760437012,-8.766703605651855,-0.6825526356697083
1772650353222481400,7.6594814453125,4.095914363861084,-8.772088050842285,-0.7184450030326843
1772650353232358700,7.669358642578125,4.098307132720947,-8.765507698059082,-0.737587571144104
1772650353242236000,7.67923583984375,4.1006999015808105,-8.769695281982422,-0.7256234884262085
1772650353252113000,7.68911279296875,4.103092670440674,-8.772088050842285,-0.7160521745681763
1772650353261990000,7.698989990234375,4.1078782081604,-8.796015739440918,-0.7010970115661621
1772650353271867100,7.7088671875,4.0935211181640625,-8.809774398803711,-0.6699903607368469
1772650353281744100,7.718744140625,4.081557273864746,-8.824729919433594,-0.7082754969596863
1772650353291621400,7.728621337890625,4.086342811584473,-8.82233715057373,-0.7459624409675598
1772650353301498400,7.738498291015625,4.103092670440674,-8.81814956665039,-0.7651050686836243
1772650353311375600,7.748375732421875,4.131806373596191,-8.805587768554688,-0.7465606927871704
1772650353321252600,7.758252685546875,4.146163463592529,-8.807381629943848,-0.6825526356697083
1772650353331129900,7.7681298828125,4.071985721588135,-8.762516975402832,-0.7304090857505798
1772650353341006800,7.7780068359375,4.141377925872803,-8.843274116516113,-0.7010970115661621
1772650353350883800,7.7878837890625,4.158127784729004,-8.831310272216797,-0.6747759580612183
1772650353360761000,7.797760986328125,4.1006999015808105,-8.776873588562012,-0.6969096064567566
1772650353370638000,7.80763818359375,4.098307132720947,-8.788837432861328,-0.7226324677467346
1772650353380515300,7.817515380859375,4.119842529296875,-8.786444664001465,-0.729810893535614
1772650353390392300,7.827392333984375,4.119842529296875,-8.764909744262695,-0.7208378314971924
1772650353400269600,7.83726953125,4.112663745880127,-8.7505521774292,-0.7256234884262085
1772650353410146600,7.847146484375,4.11505651473999,-8.774480819702148,-0.7232306599617004
1772650353420023800,7.85702392578125,4.110270977020264,-8.788837432861328,-0.7250252366065979
1772650353429900800,7.86690087890625,4.11505651473999,-8.791230201721191,-0.7178468108177185
1772650353439778000,7.876778076171875,4.11505651473999,-8.791230201721191,-0.7178468108177185
1772650353449655000,7.886655029296875,4.112663745880127,-8.796015739440918,-0.7010970115661621
1772650353459532300,7.8965322265625,4.1078782081604,-8.817551612854004,-0.7058826684951782
1772650353469409300,7.9064091796875,4.103092670440674,-8.772686004638672,-0.7489534616470337
1772650353479286500,7.91628662109375,4.129413604736328,-8.810373306274414,-0.7513462901115417
1772650353489163500,7.92616357421875,4.1144585609436035,-8.757730484008789,-0.735194742679596
1772650353499040500,7.93604052734375,4.131208419799805,-8.745766639709473,-0.7232306599617004
1772650353508917800,7.945917724609375,4.122235298156738,-8.7505521774292,-0.7208378314971924
1772650353518794800,7.955794677734375,4.11505651473999,-8.779266357421875,-0.727418065071106
1772650353528672000,7.965672119140625,4.074378967285156,-8.810373306274414,-0.7393822073936462
1772650353538549000,7.975549072265625,4.079164505004883,-8.831908226013184,-0.7579265832901001
1772650353548426200,7.98542626953125,4.1078782081604,-8.82233715057373,-0.763310432434082
1772650353558303200,7.99530322265625,4.11505651473999,-8.791230201721191,-0.7250252366065979
1772650353568180500,8.005180419921874,4.098307132720947,-8.748757362365723,-0.7519445419311523
1772650353578057500,8.015057373046876,4.103092670440674,-8.763114929199219,-0.7752745151519775
1772650353587934700,8.024934814453125,4.079164505004883,-8.763114929199219,-0.7585247755050659
1772650353597811700,8.034811767578125,4.067200183868408,-8.787042617797852,-0.760917603969574
1772650353607689000,8.04468896484375,4.064807415008545,-8.800801277160645,-0.7417750358581543
1772650353617566000,8.05456591796875,4.091128349304199,-8.810373306274414,-0.7178468108177185
1772650353627443000,8.06444287109375,4.11505651473999,-8.836095809936523,-0.7058826684951782
1772650353637320200,8.0743203125,4.117449760437012,-8.831310272216797,-0.6915257573127747
1772650353647197200,8.084197265625,4.122235298156738,-8.81934642791748,-0.7058826684951782
1772650353657074400,8.094074462890624,4.110270977020264,-8.800801277160645,-0.7034898400306702
1772650353666951400,8.103951416015626,4.083950042724609,-8.805587768554688,-0.727418065071106
1772650353676828700,8.11382861328125,4.028914928436279,-8.813364028930664,-0.7627122402191162
1772650353686705700,8.12370556640625,4.0217366218566895,-8.844470977783203,-0.7836494445800781
1772650353696583000,8.1335830078125,4.1006999015808105,-8.796015739440918,-0.7465606927871704
1772650353706460000,8.1434599609375,4.136591911315918,-8.819944381713867,-0.7130611538887024
1772650353716337200,8.153337158203126,4.095914363861084,-8.774480819702148,-0.6825526356697083
1772650353726214100,8.163214111328125,4.134199142456055,-8.773882865905762,-0.6969096064567566
1772650353736091100,8.173091064453125,4.11505651473999,-8.82652473449707,-0.7178468108177185
1772650353745968400,8.182968505859375,4.086342811584473,-8.810373306274414,-0.7226324677467346
1772650353755845400,8.192845458984374,4.071985721588135,-8.772088050842285,-0.7130611538887024
1772650353765722600,8.20272265625,4.117449760437012,-8.786444664001465,-0.7040880918502808
1772650353775599600,8.212599609375,4.086342811584473,-8.817551612854004,-0.7076773047447205
1772650353785476900,8.222476806640625,4.098307132720947,-8.83669376373291,-0.7268198728561401
1772650353795353900,8.232353759765624,4.055236339569092,-8.82951545715332,-0.7124629616737366
1772650353805231000,8.242231201171874,4.071985721588135,-8.782257080078125,-0.7393822073936462
1772650353815108000,8.252108154296875,4.1078782081604,-8.759525299072266,-0.6825526356697083
1772650353824985000,8.261985107421875,4.143770694732666,-8.757132530212402,-0.6783652305603027
1772650353834862300,8.2718623046875,4.157529354095459,-8.769096374511719,-0.6945167779922485
1772650353844739300,8.2817392578125,4.112663745880127,-8.795417785644531,-0.6849454641342163
1772650353854616600,8.291616455078126,4.11505651473999,-8.800203323364258,-0.6843472719192505
1772650353864493600,8.30149365234375,4.105485439300537,-8.793622970581055,-0.727418065071106
1772650353874370800,8.311370849609375,4.098307132720947,-8.796015739440918,-0.7393822073936462
1772650353884247800,8.321247802734375,4.131806373596191,-8.82233715057373,-0.7585247755050659
1772650353894125000,8.331125,4.091128349304199,-8.83250617980957,-0.7722834944725037
1772650353904002000,8.341001953125,4.0935211181640625,-8.796614646911621,-0.7657032608985901
1772650353913879300,8.35087939453125,4.1078782081604,-8.769695281982422,-0.7417750358581543
1772650353923756300,8.36075634765625,4.129413604736328,-8.764909744262695,-0.7040880918502808
1772650353933633300,8.37063330078125,4.105485439300537,-8.784051895141602,-0.6993024349212646
1772650353943510500,8.380510498046876,4.11505651473999,-8.809774398803711,-0.6963114142417908
1772650353953387800,8.3903876953125,4.033700942993164,-8.822935104370117,-0.7411768436431885
1772650353963264800,8.4002646484375,4.050450325012207,-8.833105087280273,-0.833898663520813
1772650353973141800,8.410141845703125,4.033700942993164,-8.773283958435059,-0.5509474277496338
1772650353983019000,8.42001904296875,4.207778453826904,-8.791230201721191,-0.7519445419311523
1772650353992896000,8.42989599609375,4.0767717361450195,-8.798408508300781,-0.7369893789291382
1772650354002773200,8.439773193359375,4.124628067016602,-8.784051895141602,-0.7680960893630981
1772650354012650200,8.449650146484375,4.033700942993164,-8.795417785644531,-0.8506484627723694
1772650354022527500,8.459527587890625,4.050450325012207,-8.776873588562012,-0.6795616149902344
1772650354032404500,8.469404541015624,4.112663745880127,-8.839086532592773,-0.7507480978965759
1772650354042281500,8.479281494140626,4.016951084136963,-8.825926780700684,-0.8195417523384094
1772650354052158700,8.48915869140625,4.002593994140625,-8.787042617797852,-0.7770691514015198
1772650354062035700,8.49903564453125,4.124628067016602,-8.762516975402832,-0.7471588850021362
1772650354071913000,8.508912841796874,4.064807415008545,-8.801400184631348,-0.7561319470405579
1772650354081790000,8.5187900390625,4.048057556152344,-8.765507698059082,-0.7369893789291382
1772650354091667200,8.528667236328126,4.067200183868408,-8.781659126281738,-0.7417750358581543
1772650354101544200,8.538544189453125,4.081557273864746,-8.863015174865723,-0.7483552694320679
1772650354111421400,8.54842138671875,4.034298896789551,-8.903693199157715,-0.7238288521766663
1772650354121298400,8.55829833984375,4.0695929527282715,-8.85763168334961,-0.6861419081687927
1772650354131175700,8.56817578125,4.119842529296875,-8.762516975402832,-0.6969096064567566
1772650354141052700,8.578052734375,4.064807415008545,-8.757730484008789,-0.7256234884262085
1772650354150929700,8.5879296875,4.019343852996826,-8.763114929199219,-0.7513462901115417
1772650354160807000,8.597806884765625,4.009772777557373,-8.785248756408691,-0.7914260625839233
1772650354170684000,8.607683837890624,4.0217366218566895,-8.83250617980957,-0.7770691514015198
1772650354180561200,8.61756103515625,4.022335052490234,-8.880363464355469,-0.7621139883995056
1772650354190438100,8.627438232421875,4.0558342933654785,-8.869595527648926,-0.6909275650978088
1772650354200315400,8.6373154296875,4.110270977020264,-8.852845191955566,-0.6556333899497986
1772650354210192400,8.6471923828125,4.050450325012207,-8.852845191955566,-0.7076773047447205
1772650354220069400,8.6570693359375,4.079164505004883,-8.867202758789062,-0.7292127013206482
1772650354229946600,8.666946533203125,4.081557273864746,-8.828917503356934,-0.6915257573127747
1772650354239823600,8.67682373046875,4.060021877288818,-8.817551612854004,-0.7459624409675598
1772650354249700900,8.686700927734375,4.071985721588135,-8.805587768554688,-0.7154539823532104
1772650354259577900,8.696577880859374,4.081557273864746,-8.841479301452637,-0.7148557901382446
1772650354269455000,8.706455078125,4.062414646148682,-8.817551612854004,-0.7202396392822266
1772650354279332000,8.71633203125,4.0528435707092285,-8.81515884399414,-0.7369893789291382
1772650354289209300,8.726209228515625,4.033700942993164,-8.801400184631348,-0.7489534616470337
1772650354299086300,8.73608642578125,4.019343852996826,-8.808578491210938,-0.7603194117546082
1772650354308963300,8.74596337890625,4.012165546417236,-8.775078773498535,-0.729810893535614
1772650354318840600,8.755840576171876,4.060021877288818,-8.791230201721191,-0.727418065071106
1772650354328717600,8.765717529296875,4.048057556152344,-8.81515884399414,-0.7250252366065979
1772650354338594800,8.7755947265625,4.062414646148682,-8.82233715057373,-0.7363911867141724
1772650354348471800,8.785471923828124,4.081557273864746,-8.851649284362793,-0.7746763229370117
1772650354358349000,8.79534912109375,4.086342811584473,-8.844470977783203,-0.7770691514015198
1772650354368226000,8.80522607421875,4.103092670440674,-8.839086532592773,-0.7627122402191162
1772650354378103300,8.815103271484375,4.105485439300537,-8.791230201721191,-0.7369893789291382
1772650354387980300,8.824980224609375,4.074378967285156,-8.781659126281738,-0.7178468108177185
1772650354397857300,8.834857177734374,4.0456647872924805,-8.803194046020508,-0.7154539823532104
1772650354407734500,8.844734619140626,4.038486480712891,-8.817551612854004,-0.7316055297851562
1772650354417611500,8.854611572265625,4.028914928436279,-8.837292671203613,-0.753140926361084
1772650354427488800,8.86448876953125,4.01037073135376,-8.839685440063477,-0.7645068168640137
1772650354437365800,8.87436572265625,4.007379531860352,-8.83071231842041,-0.8027920126914978
1772650354447243000,8.884242919921874,4.004986763000488,-8.816354751586914,-0.8219345808029175
1772650354457120000,8.8941201171875,4.012165546417236,-8.799605369567871,-0.8225327730178833
1772650354466997200,8.903997314453125,4.048057556152344,-8.790034294128418,-0.8057830333709717
1772650354476874200,8.913874267578125,4.110270977020264,-8.793622970581055,-0.7489534616470337
1772650354486751200,8.923751220703124,4.158127784729004,-8.804988861083984,-0.6801598072052002
1772650354496628500,8.93362841796875,4.17726993560791,-8.81934642791748,-0.6658028960227966
1772650354506505500,8.94350537109375,4.131806373596191,-8.821739196777344,-0.7010970115661621
1772650354516382700,8.9533828125,4.086342811584473,-8.839086532592773,-0.7579265832901001
1772650354526259700,8.963259765625,4.043272018432617,-8.839685440063477,-0.8027920126914978
1772650354536137000,8.973136962890624,3.9978084564208984,-8.828319549560547,-0.836291491985321
1772650354546014000,8.983013916015626,4.004986763000488,-8.781061172485352,-0.844068169593811
1772650354555891000,8.992890869140625,4.036093711853027,-8.770891189575195,-0.8177471160888672
1772650354565768200,9.002768310546875,4.0695929527282715,-8.791828155517578,-0.7752745151519775
1772650354575645200,9.012645263671875,4.079164505004883,-8.839086532592773,-0.7268198728561401
1772650354585522400,9.0225224609375,4.067200183868408,-8.848658561706543,-0.7172485589981079
1772650354595399400,9.0323994140625,4.062414646148682,-8.834300994873047,-0.7292127013206482
1772650354605276700,9.042276611328125,4.067200183868408,-8.82233715057373,-0.727418065071106
1772650354615153700,9.052153564453125,4.0695929527282715,-8.82233715057373,-0.7363911867141724
1772650354625030700,9.06203076171875,4.095914363861084,-8.786444664001465,-0.7441678643226624
1772650354634908000,9.071907958984376,4.067200183868408,-8.743971824645996,-0.7639086246490479
1772650354644785000,9.081784912109375,4.0528435707092285,-8.753543853759766,-0.7704889178276062
1772650354654662100,9.091662109375,4.055236339569092,-8.782257080078125,-0.7752745151519775
1772650354664539100,9.1015390625,4.055236339569092,-8.803792953491211,-0.7794619798660278
1772650354674416400,9.11141650390625,4.057629108428955,-8.8109712600708,-0.784247636795044
1772650354684293400,9.12129345703125,4.067200183868408,-8.806185722351074,-0.7770691514015198
1772650354694170600,9.131170654296875,4.071985721588135,-8.808578491210938,-0.7561319470405579
1772650354704047600,9.141047607421875,4.079164505004883,-8.799007415771484,-0.7561319470405579
1772650354713924900,9.1509248046875,4.064807415008545,-8.83250617980957,-0.753140926361084
1772650354723801900,9.1608017578125,4.004986763000488,-8.839685440063477,-0.7579265832901001
1772650354733678800,9.170678955078126,4.131806373596191,-8.852845191955566,-0.7244270443916321
1772650354743556000,9.18055615234375,4.088735580444336,-8.816953659057617,-0.6867401003837585
1772650354753433000,9.19043310546875,4.124628067016602,-8.788239479064941,-0.6969096064567566
1772650354763310300,9.200310302734374,4.095914363861084,-8.762516975402832,-0.7208378314971924
1772650354773187300,9.210187255859376,4.071985721588135,-8.758329391479492,-0.7465606927871704
1772650354783064300,9.220064208984375,4.033700942993164,-8.784649848937988,-0.7818548083305359
1772650354792941600,9.229941650390625,3.988237142562866,-8.809176445007324,-0.8153542876243591
1772650354802818600,9.239818603515625,3.9690945148468018,-8.81934642791748,-0.833898663520813
1772650354812695800,9.24969580078125,4.004986763000488,-8.834898948669434,-0.8027920126914978
1772650354822572800,9.25957275390625,4.0528435707092285,-8.81814956665039,-0.7698906660079956
1772650354832450000,9.269449951171875,4.088735580444336,-8.810373306274414,-0.7322037220001221
1772650354842327000,9.2793271484375,4.103092670440674,-8.817551612854004,-0.7250252366065979
1772650354852204300,9.289204345703125,4.095914363861084,-8.824729919433594,-0.7154539823532104
1772650354862081300,9.299081298828124,4.088735580444336,-8.846264839172363,-0.722034215927124
1772650354871958300,9.308958251953126,4.053441524505615,-8.872586250305176,-0.7244270443916321
1772650354881835500,9.31883544921875,4.0456647872924805,-8.846264839172363,-0.7363911867141724
1772650354891712500,9.32871240234375,4.055236339569092,-8.813364028930664,-0.7435696125030518
1772650354901589800,9.33858984375,4.067200183868408,-8.767900466918945,-0.7489534616470337
1772650354911466800,9.348466796875,4.092923164367676,-8.748159408569336,-0.7399803996086121
1772650354921343700,9.35834375,4.0426740646362305,-8.741579055786133,-0.7393822073936462
1772650354931221000,9.368220947265625,4.0833516120910645,-8.755936622619629,-0.760917603969574
1772650354941098000,9.378097900390625,4.067200183868408,-8.812766075134277,-0.7226324677467346
1772650354950975200,9.387975341796874,4.091128349304199,-8.85523796081543,-0.7028916478157043
1772650354960852200,9.397852294921876,4.086342811584473,-8.839086532592773,-0.7076773047447205
1772650354970729500,9.4077294921875,4.071985721588135,-8.831310272216797,-0.6819544434547424
1772650354980606500,9.4176064453125,4.103092670440674,-8.843274116516113,-0.7004988193511963
1772650354990483700,9.427483642578125,4.0935211181640625,-8.831908226013184,-0.7076773047447205
1772650355000360700,9.437360595703124,4.0666022300720215,-8.751151084899902,-0.735194742679596
1772650355010237700,9.44723779296875,4.0767717361450195,-8.777471542358398,-0.7800601720809937
1772650355020115000,9.457114990234375,4.086342811584473,-8.794221878051758,-0.7561319470405579
1772650355029992000,9.466991943359375,4.109673023223877,-8.763114929199219,-0.7495517134666443
1772650355039869200,9.476869140625,4.071985721588135,-8.798408508300781,-0.729810893535614
1772650355049746200,9.48674609375,4.081557273864746,-8.834300994873047,-0.7459624409675598
1772650355059623200,9.496623046875,4.043272018432617,-8.8438720703125,-0.7507480978965759
1772650355069500400,9.50650048828125,4.091128349304199,-8.82233715057373,-0.7058826684951782
1772650355079377400,9.51637744140625,4.060021877288818,-8.813364028930664,-0.7435696125030518
1772650355089254700,9.526254638671874,4.083950042724609,-8.803792953491211,-0.763310432434082
1772650355099131600,9.536131591796876,4.1144585609436035,-8.784051895141602,-0.7465606927871704
1772650355109009000,9.5460087890625,4.147958278656006,-8.784051895141602,-0.7471588850021362
1772650355118886000,9.555885986328125,4.143172264099121,-8.772088050842285,-0.7232306599617004
1772650355128763100,9.56576318359375,4.135993957519531,-8.757730484008789,-0.7136593461036682
1772650355138640100,9.57564013671875,4.131806373596191,-8.784051895141602,-0.706480860710144
1772650355148517000,9.58551708984375,4.134199142456055,-8.793025016784668,-0.7112665176391602
1772650355158394400,9.595394287109375,4.136591911315918,-8.810373306274414,-0.7345965504646301
1772650355168271400,9.605271240234375,4.112663745880127,-8.793622970581055,-0.7513462901115417
1772650355178148600,9.615148681640624,4.095914363861084,-8.803792953491211,-0.7914260625839233
1772650355188025600,9.625025634765626,4.079164505004883,-8.8109712600708,-0.8009973764419556
1772650355197902600,9.634902587890625,4.067200183868408,-8.806185722351074,-0.784247636795044
1772650355207779800,9.64477978515625,4.067200183868408,-8.789435386657715,-0.7776673436164856
1772650355217656800,9.65465673828125,4.083950042724609,-8.775078773498535,-0.763310432434082
1772650355227534000,9.6645341796875,4.128815650939941,-8.779266357421875,-0.7160521745681763
1772650355237411000,9.6744111328125,4.158127784729004,-8.795417785644531,-0.706480860710144
1772650355247288000,9.6842880859375,4.134199142456055,-8.781659126281738,-0.7136593461036682
1772650355257165300,9.694165283203125,4.1144585609436035,-8.764909744262695,-0.7447660565376282
1772650355267042300,9.704042236328124,4.1144585609436035,-8.772686004638672,-0.763310432434082
1772650355276919600,9.71391943359375,4.076173305511475,-8.758927345275879,-0.7920243144035339
1772650355286796500,9.723796630859376,4.064209461212158,-8.761320114135742,-0.8087740540504456
1772650355296673800,9.733673828125,4.04985237121582,-8.770891189575195,-0.7896314859390259
1772650355306550800,9.74355078125,4.050450325012207,-8.794221878051758,-0.7986045479774475
1772650355316428000,9.753427978515624,4.055236339569092,-8.83250617980957,-0.7818548083305359
1772650355326305000,9.763304931640626,4.0767717361450195,-8.846264839172363,-0.7603194117546082
1772650355336182000,9.77318212890625,4.11505651473999,-8.86062240600586,-0.7435696125030518
1772650355346059300,9.783059326171875,4.131806373596191,-8.855836868286133,-0.7292127013206482
1772650355355936300,9.792936279296875,4.143770694732666,-8.821739196777344,-0.7130611538887024
1772650355365813500,9.8028134765625,4.1623148918151855,-8.769096374511719,-0.6993024349212646
1772650355375690500,9.8126904296875,4.147958278656006,-8.759525299072266,-0.6873382925987244
1772650355385567500,9.8225673828125,4.143172264099121,-8.74756145477295,-0.6807580590248108
1772650355395444700,9.83244482421875,4.157529354095459,-8.738588333129883,-0.711864709854126
1772650355405321700,9.84232177734375,4.0666022300720215,-8.741579055786133,-0.7567301392555237
1772650355415199000,9.852198974609376,4.124029636383057,-8.767900466918945,-0.8039883971214294
1772650355425076000,9.862075927734375,4.121636867523193,-8.787042617797852,-0.7848458290100098
1772650355434953000,9.871952880859375,4.104887008666992,-8.796614646911621,-0.7968099117279053
1772650355444830200,9.881830322265625,4.085744857788086,-8.787641525268555,-0.8201399445533752
1772650355454707200,9.891707275390624,4.102494239807129,-8.809176445007324,-0.8249256014823914
1772650355464584400,9.90158447265625,4.117449760437012,-8.83250617980957,-0.784247636795044
1772650355474461400,9.91146142578125,4.119842529296875,-8.820542335510254,-0.7794619798660278
1772650355484338400,9.92133837890625,4.155734539031982,-8.82233715057373,-0.7441678643226624
1772650355494215700,9.931215576171875,4.1383867263793945,-8.776873588562012,-0.706480860710144
1772650355504092700,9.9410927734375,4.143172264099121,-8.793622970581055,-0.7202396392822266
1772650355513970000,9.950969970703126,4.1629133224487305,-8.795417785644531,-0.6897311210632324
1772650355523847000,9.960846923828125,4.135993957519531,-8.793025016784668,-0.7034898400306702
1772650355533724200,9.97072412109375,4.023531436920166,-8.768498420715332,-0.7992027401924133
1772650355543601200,9.98060107421875,4.133601188659668,-8.751151084899902,-0.8111668825149536
1772650355553478100,9.99047802734375,4.0833516120910645,-8.754141807556152,-0.8111668825149536
1772650355563355400,10.00035546875,4.085744857788086,-8.723034858703613,-0.7998009920120239
1772650355573232400,10.010232421875,4.092923164367676,-8.712865829467773,-0.768694281578064
1772650355583109600,10.020109619140625,4.109673023223877,-8.720044136047363,-0.7854440212249756
1772650355592986600,10.029986572265624,4.135993957519531,-8.779864311218262,-0.7728816866874695
1772650355602863900,10.03986376953125,4.083950042724609,-8.801400184631348,-0.7794619798660278
1772650355612740900,10.049740966796875,4.152743816375732,-8.796015739440918,-0.7345965504646301
1772650355622617900,10.059617919921875,4.23649263381958,-8.787641525268555,-0.6759724020957947
