time,seconds_elapsed,z,y,x
1772650345696119300,0.133119384765625,4.295714855194092,-8.763712882995605,-0.5653043389320374
1772650345715873500,0.15287353515625,4.259822368621826,-8.790632247924805,-0.6107679605484009
1772650345735627800,0.172627685546875,4.281357765197754,-8.785846710205078,-0.5748756527900696
1772650345745504800,0.1825048828125,4.252644062042236,-8.783453941345215,-0.5964110493659973
1772650345755382000,0.192382080078125,4.205385684967041,-8.800203323364258,-0.6029912829399109
1772650345765259000,0.202259033203125,4.191029071807861,-8.817551612854004,-0.6340979933738708
1772650345775136300,0.21213623046875,4.171886444091797,-8.81515884399414,-0.6215356588363647
1772650345785013200,0.22201318359375,4.23649263381958,-8.804988861083984,-0.5718846321105957
1772650345794890200,0.23189013671875,4.193421840667725,-8.785846710205078,-0.5718846321105957
1772650345804767500,0.241767578125,4.198207378387451,-8.783453941345215,-0.5653043389320374
1772650345814644500,0.25164453125,4.226921081542969,-8.807381629943848,-0.5742774605751038
1772650345824521700,0.261521728515625,4.207778453826904,-8.809774398803711,-0.5838487148284912
1772650345834398700,0.271398681640625,4.238885402679443,-8.821739196777344,-0.5958128571510315
1772650345844276000,0.28127587890625,4.231706619262695,-8.81396198272705,-0.5718846321105957
1772650345854153000,0.291153076171875,4.2484564781188965,-8.800203323364258,-0.5772684812545776
1772650345864030200,0.3010302734375,4.226323127746582,-8.793025016784668,-0.607776939868927
1772650345873907200,0.3109072265625,4.210171222686768,-8.82233715057373,-0.6221339106559753
1772650345883784400,0.320784423828125,4.204787731170654,-8.800801277160645,-0.6364908218383789
1772650345893661400,0.330661376953125,4.19282341003418,-8.774480819702148,-0.6484549641609192
1772650345903538400,0.340538330078125,4.243072986602783,-8.759525299072266,-0.617946445941925
1772650345913415700,0.350415771484375,4.246063709259033,-8.785248756408691,-0.5676971673965454
1772650345923292700,0.360292724609375,4.205385684967041,-8.809774398803711,-0.5982056856155396
1772650345933170000,0.370169921875,4.171886444091797,-8.821739196777344,-0.5982056856155396
1772650345943047000,0.380046875,4.265206336975098,-8.806783676147461,-0.5700899958610535
1772650345952924200,0.389924072265625,4.3172502517700195,-8.811569213867188,-0.5629115104675293
1772650345962801200,0.39980126953125,4.298107624053955,-8.809176445007324,-0.5581258535385132
1772650345972678400,0.409678466796875,4.24367094039917,-8.812167167663574,-0.5934200286865234
1772650345982555400,0.419555419921875,4.212564468383789,-8.810373306274414,-0.6245267391204834
1772650345992432400,0.429432373046875,4.17427921295166,-8.800801277160645,-0.6550351977348328
1772650346002309600,0.4393095703125,4.157529354095459,-8.776873588562012,-0.638883650302887
1772650346012186600,0.4491865234375,4.228715896606445,-8.771489143371582,-0.6059823632240295
1772650346022063900,0.45906396484375,4.169493675231934,-8.809774398803711,-0.6071787476539612
1772650346031940900,0.46894091796875,4.1383867263793945,-8.82233715057373,-0.600000262260437
1772650346041818000,0.478818115234375,4.205385684967041,-8.807381629943848,-0.607776939868927
1772650346051695000,0.488695068359375,4.202394962310791,-8.779266357421875,-0.6293123364448547
1772650346061572400,0.498572265625,4.217350006103516,-8.81934642791748,-0.605384111404419
1772650346071449300,0.508449462890625,4.231706619262695,-8.83370304107666,-0.607776939868927
1772650346081326300,0.518326416015625,4.198207378387451,-8.821739196777344,-0.5886343717575073
1772650346091203600,0.52820361328125,4.278964996337891,-8.790034294128418,-0.5413761138916016
1772650346101080600,0.53808056640625,4.226921081542969,-8.783453941345215,-0.5724828243255615
1772650346110957800,0.547957763671875,4.204787731170654,-8.771489143371582,-0.5700899958610535
1772650346120834800,0.557834716796875,4.238286972045898,-8.812167167663574,-0.607776939868927
1772650346130712000,0.567712158203125,4.1623148918151855,-8.824131965637207,-0.5928218364715576
1772650346140589000,0.577589111328125,4.198207378387451,-8.843274116516113,-0.6119644045829773
1772650346150466300,0.58746630859375,4.179064750671387,-8.845666885375977,-0.600000262260437
1772650346160343300,0.59734326171875,4.195814609527588,-8.838488578796387,-0.5838487148284912
1772650346170220500,0.607220458984375,4.212564468383789,-8.816953659057617,-0.5742774605751038
1772650346180097500,0.61709765625,4.207778453826904,-8.871390342712402,-0.5688936114311218
1772650346189974500,0.626974609375,4.183850288391113,-8.821739196777344,-0.5670989751815796
1772650346199851800,0.636851806640625,4.214957237243652,-8.81934642791748,-0.6125625967979431
1772650346209728800,0.646728759765625,4.264608383178711,-8.754739761352539,-0.5539384484291077
1772650346219606000,0.65660595703125,4.233501434326172,-8.776275634765625,-0.5940182209014893
1772650346229483000,0.66648291015625,4.23649263381958,-8.787641525268555,-0.5485545992851257
1772650346239360300,0.6763603515625,4.2693939208984375,-8.763712882995605,-0.5365904569625854
1772650346249237200,0.6862373046875,4.2550368309021,-8.778668403625488,-0.5653043389320374
1772650346259114500,0.696114501953125,4.207778453826904,-8.81934642791748,-0.5551348328590393
1772650346268991500,0.705991455078125,4.205385684967041,-8.82652473449707,-0.5982056856155396
1772650346278868500,0.715868408203125,4.168895244598389,-8.8109712600708,-0.6795616149902344
1772650346288745700,0.725745849609375,4.1623148918151855,-8.83669376373291,-0.6430711150169373
1772650346298622700,0.735622802734375,4.183252334594727,-8.817551612854004,-0.6502495408058167
1772650346308500000,0.7455,4.171886444091797,-8.838488578796387,-0.6191428303718567
1772650346318377000,0.755376953125,4.25084924697876,-8.801998138427734,-0.5413761138916016
1772650346328254200,0.765254150390625,4.24785852432251,-8.792427062988281,-0.5533402562141418
1772650346338131200,0.775131103515625,4.195216178894043,-8.788239479064941,-0.5814558863639832
1772650346348008400,0.785008544921875,4.171886444091797,-8.788837432861328,-0.6173482537269592
1772650346357885400,0.794885498046875,4.155136585235596,-8.81515884399414,-0.6406782865524292
1772650346367762700,0.8047626953125,4.243072986602783,-8.778668403625488,-0.5916253924369812
1772650346377639700,0.8146396484375,4.24785852432251,-8.764310836791992,-0.5772684812545776
1772650346387517000,0.824516845703125,4.195814609527588,-8.785846710205078,-0.6029912829399109
1772650346397394000,0.834393798828125,4.18863582611084,-8.828917503356934,-0.5814558863639832
1772650346407271000,0.84427099609375,4.188037872314453,-8.800203323364258,-0.5982056856155396
1772650346417148200,0.854148193359375,4.164707660675049,-8.803194046020508,-0.6269195079803467
1772650346427025200,0.864025146484375,4.143172264099121,-8.827122688293457,-0.6526423692703247
1772650346436902400,0.87390234375,4.179064750671387,-8.81934642791748,-0.5886343717575073
1772650346446779400,0.883779296875,4.231108665466309,-8.764310836791992,-0.5724828243255615
1772650346456656600,0.89365673828125,4.195814609527588,-8.797810554504395,-0.5647061467170715
1772650346466533600,0.90353369140625,4.198207378387451,-8.82114028930664,-0.5264210104942322
1772650346476411000,0.913410888671875,4.202992916107178,-8.816354751586914,-0.5318048596382141
1772650346486288000,0.923287841796875,4.210171222686768,-8.801998138427734,-0.5318048596382141
1772650346496165000,0.9331650390625,4.179064750671387,-8.812167167663574,-0.5527420043945312
1772650346506042000,0.9430419921875,4.186243057250977,-8.862417221069336,-0.5952146053314209
1772650346515919000,0.952919189453125,4.171886444091797,-8.871988296508789,-0.597607433795929
1772650346525796400,0.96279638671875,4.169493675231934,-8.85523796081543,-0.600000262260437
1772650346535673300,0.97267333984375,4.176671981811523,-8.814560890197754,-0.5718846321105957
1772650346545550600,0.982550537109375,4.202992916107178,-8.818747520446777,-0.5383850932121277
1772650346555427600,0.992427490234375,4.191029071807861,-8.816354751586914,-0.5288137793540955
1772650346565304800,1.002304931640625,4.198207378387451,-8.84506893157959,-0.5455635786056519
1772650346575181800,1.012181884765625,4.183850288391113,-8.861818313598633,-0.5569294691085815
1772650346585059000,1.02205908203125,4.17427921295166,-8.869595527648926,-0.5832505226135254
1772650346594936000,1.03193603515625,4.167100429534912,-8.85523796081543,-0.5880361795425415
1772650346604813000,1.04181298828125,4.198207378387451,-8.83370304107666,-0.5742774605751038
1772650346614690300,1.051690185546875,4.186243057250977,-8.824131965637207,-0.5814558863639832
1772650346624567300,1.0615673828125,4.155136585235596,-8.838488578796387,-0.6047859191894531
1772650346634444500,1.071444580078125,4.1623148918151855,-8.812167167663574,-0.5838487148284912
1772650346644321500,1.081321533203125,4.176671981811523,-8.81934642791748,-0.5694918036460876
1772650346654198800,1.09119873046875,4.195814609527588,-8.828319549560547,-0.5479564070701599
1772650346664075800,1.10107568359375,4.195814609527588,-8.814560890197754,-0.5670989751815796
1772650346673953000,1.110953125,4.198207378387451,-8.82652473449707,-0.5958128571510315
1772650346683830000,1.120830078125,4.186243057250977,-8.82951545715332,-0.6101697683334351
1772650346693707000,1.13070703125,4.176671981811523,-8.846264839172363,-0.6263213157653809
1772650346703584300,1.140584228515625,4.183850288391113,-8.845666885375977,-0.6167500615119934
1772650346713461200,1.150461181640625,4.167100429534912,-8.843274116516113,-0.5832505226135254
1772650346723338500,1.16033837890625,4.195814609527588,-8.836095809936523,-0.5742774605751038
1772650346733215500,1.170215576171875,4.205385684967041,-8.814560890197754,-0.5575276613235474
1772650346743092700,1.1800927734375,4.212564468383789,-8.804988861083984,-0.5623133182525635
1772650346752969700,1.1899697265625,4.214957237243652,-8.797810554504395,-0.5700899958610535
1772650346762847000,1.199846923828125,4.195814609527588,-8.812167167663574,-0.5958128571510315
1772650346772724000,1.209723876953125,4.145565032958984,-8.805587768554688,-0.5958128571510315
1772650346782601200,1.219601318359375,4.147958278656006,-8.817551612854004,-0.6239284873008728
1772650346792478200,1.229478271484375,4.155136585235596,-8.827122688293457,-0.6191428303718567
1772650346802355200,1.239355224609375,4.179064750671387,-8.81934642791748,-0.5958128571510315
1772650346812232400,1.249232421875,4.164707660675049,-8.824131965637207,-0.576670229434967
1772650346822109400,1.259109375,4.116851329803467,-8.80798053741455,-0.5910272002220154
1772650346831986700,1.268986572265625,4.102494239807129,-8.82951545715332,-0.6167500615119934
1772650346841863700,1.27886376953125,4.11924409866333,-8.85344409942627,-0.625723123550415
1772650346851741000,1.288740966796875,4.159922122955322,-8.881559371948242,-0.623330295085907
1772650346861618000,1.298617919921875,4.202992916107178,-8.876773834228516,-0.5904290080070496
1772650346871495200,1.3084951171875,4.219742774963379,-8.84506893157959,-0.5647061467170715
1772650346881372200,1.3183720703125,4.25084924697876,-8.804390907287598,-0.5365904569625854
1772650346891249400,1.32824951171875,4.226921081542969,-8.797212600708008,-0.5174478888511658
1772650346901126400,1.33812646484375,4.169493675231934,-8.812167167663574,-0.5479564070701599
1772650346911003600,1.348003662109375,4.095315933227539,-8.83669376373291,-0.6065805554389954
1772650346920880600,1.357880615234375,4.0426740646362305,-8.83250617980957,-0.6711867451667786
1772650346930757600,1.367757568359375,4.095315933227539,-8.839685440063477,-0.6927221417427063
1772650346940635000,1.377634765625,4.11924409866333,-8.8438720703125,-0.6376872062683105
1772650346950511900,1.387511962890625,4.135993957519531,-8.83370304107666,-0.5736792087554932
1772650346960389000,1.39738916015625,4.152743816375732,-8.873783111572266,-0.5353940725326538
1772650346970266000,1.40726611328125,4.124029636383057,-8.868997573852539,-0.5258227586746216
1772650346980143400,1.417143310546875,4.11924409866333,-8.862417221069336,-0.544965386390686
1772650346990020400,1.427020263671875,4.147958278656006,-8.838488578796387,-0.5599204897880554
1772650346999897600,1.436897705078125,4.18145751953125,-8.81934642791748,-0.5575276613235474
1772650347009774600,1.446774658203125,4.18145751953125,-8.807381629943848,-0.5437689423561096
1772650347019651800,1.45665185546875,4.191029071807861,-8.811569213867188,-0.5174478888511658
1772650347029528800,1.46652880859375,4.176671981811523,-8.801998138427734,-0.5054838061332703
1772650347039405800,1.47640576171875,4.159922122955322,-8.816354751586914,-0.5144568681716919
1772650347049283000,1.486282958984375,4.128815650939941,-8.84088134765625,-0.5593222975730896
1772650347059160000,1.49616015625,4.102494239807129,-8.869595527648926,-0.5994020700454712
1772650347069037300,1.506037353515625,4.083950042724609,-8.877371788024902,-0.6448656916618347
1772650347078914300,1.515914306640625,4.095315933227539,-8.86361312866211,-0.6616154313087463
1772650347088791600,1.52579150390625,4.1078782081604,-8.86062240600586,-0.6281159520149231
1772650347098668500,1.53566845703125,4.131806373596191,-8.8648099899292,-0.5760720372200012
1772650347108545800,1.5455458984375,4.172484397888184,-8.864211082458496,-0.5306084156036377
1772650347118422800,1.5554228515625,4.191029071807861,-8.857032775878906,-0.5096712112426758
1772650347128300000,1.565300048828125,4.179064750671387,-8.837890625,-0.49292147159576416
1772650347138177000,1.575177001953125,4.179064750671387,-8.83071231842041,-0.4953143000602722
1772650347148054300,1.58505419921875,4.1383867263793945,-8.82652473449707,-0.5431707501411438
1772650347157931300,1.59493115234375,4.126422882080078,-8.82233715057373,-0.6047859191894531
1772650347167808300,1.604808349609375,4.116851329803467,-8.798408508300781,-0.6287141442298889
1772650347177685500,1.614685546875,4.11206579208374,-8.803792953491211,-0.6454638838768005
1772650347187562500,1.6245625,4.11206579208374,-8.831908226013184,-0.6454638838768005
1772650347197439700,1.634439697265625,4.11206579208374,-8.846264839172363,-0.6119644045829773
1772650347207316700,1.644316650390625,4.126422882080078,-8.852845191955566,-0.5784648656845093
1772650347217194000,1.654194091796875,4.136591911315918,-8.85523796081543,-0.5473581552505493
1772650347227071000,1.664071044921875,4.153341770172119,-8.85224723815918,-0.5120640397071838
1772650347236948200,1.6739482421875,4.17726993560791,-8.857032775878906,-0.5096712112426758
1772650347246825200,1.6838251953125,4.169493675231934,-8.840283393859863,-0.5335994362831116
1772650347256702500,1.693702392578125,4.171886444091797,-8.828917503356934,-0.5479564070701599
1772650347266579500,1.703579345703125,4.1623148918151855,-8.816953659057617,-0.5431707501411438
1772650347276456700,1.713456787109375,4.1623148918151855,-8.781061172485352,-0.550349235534668
1772650347286333700,1.723333740234375,4.169493675231934,-8.766703605651855,-0.5318048596382141
1772650347296211000,1.7332109375,4.1383867263793945,-8.769096374511719,-0.5718846321105957
1772650347306088000,1.743087890625,4.1078782081604,-8.863015174865723,-0.6113662123680115
1772650347315965000,1.75296484375,4.127020835876465,-8.903095245361328,-0.5994020700454712
1772650347325842200,1.76284228515625,4.222733974456787,-8.885149002075195,-0.4785645306110382
1772650347335719200,1.77271923828125,4.1623148918151855,-8.811569213867188,-0.5000999569892883
1772650347345596400,1.782596435546875,4.119842529296875,-8.946166038513184,-0.6107679605484009
1772650347355473400,1.792473388671875,4.153341770172119,-8.871988296508789,-0.5952146053314209
1772650347365350700,1.8023505859375,4.176671981811523,-8.814560890197754,-0.5670989751815796
1772650347375227600,1.8122275390625,4.202992916107178,-8.835497856140137,-0.550349235534668
1772650347385105000,1.82210498046875,4.186243057250977,-8.801998138427734,-0.5341976284980774
1772650347394982000,1.83198193359375,4.217350006103516,-8.82114028930664,-0.5312066078186035
1772650347404859100,1.841859130859375,4.214957237243652,-8.868997573852539,-0.5288137793540955
1772650347414736100,1.851736083984375,4.217350006103516,-8.854640007019043,-0.5359922647476196
1772650347424613400,1.86161328125,4.226921081542969,-8.825926780700684,-0.5431707501411438
1772650347434490400,1.871490478515625,4.202992916107178,-8.807381629943848,-0.5527420043945312
1772650347444367600,1.88136767578125,4.169493675231934,-8.788239479064941,-0.5581258535385132
1772650347454244600,1.89124462890625,4.176671981811523,-8.769096374511719,-0.5748756527900696
1772650347464121600,1.90112158203125,4.191029071807861,-8.771489143371582,-0.5557330846786499
1772650347473998800,1.910998779296875,4.18863582611084,-8.804988861083984,-0.5455635786056519
1772650347483875800,1.920875732421875,4.171886444091797,-8.840283393859863,-0.5455635786056519
1772650347493753000,1.930753173828125,4.155136585235596,-8.861818313598633,-0.542572557926178
1772650347503630000,1.940630126953125,4.167100429534912,-8.878568649291992,-0.542572557926178
1772650347513507300,1.95050732421875,4.2006001472473145,-8.842676162719727,-0.550349235534668
1772650347523384300,1.96038427734375,4.207778453826904,-8.825926780700684,-0.5431707501411438
1772650347533261600,1.970261474609375,4.241278171539307,-8.811569213867188,-0.529412031173706
1772650347543138600,1.980138671875,4.193421840667725,-8.804390907287598,-0.5575276613235474
1772650347553015800,1.990015869140625,4.191029071807861,-8.814560890197754,-0.5694918036460876
1772650347562892800,1.999892822265625,4.17427921295166,-8.84506893157959,-0.5455635786056519
1772650347572770000,2.00977001953125,4.128815650939941,-8.860024452209473,-0.597607433795929
1772650347582647000,2.01964697265625,4.104887008666992,-8.83669376373291,-0.6023930907249451
1772650347592524300,2.029524169921875,4.11924409866333,-8.82951545715332,-0.6191428303718567
1772650347602401300,2.0394013671875,4.143172264099121,-8.824131965637207,-0.5952146053314209
1772650347612278300,2.0492783203125,4.18863582611084,-8.807381629943848,-0.5647061467170715
1772650347622155500,2.059155517578125,4.205385684967041,-8.793025016784668,-0.5485545992851257
1772650347632032500,2.069032470703125,4.207778453826904,-8.809774398803711,-0.5527420043945312
1772650347641909800,2.07890966796875,4.157529354095459,-8.831310272216797,-0.5455635786056519
1772650347651786800,2.088786865234375,4.116851329803467,-8.843274116516113,-0.5617151260375977
1772650347661664000,2.0986640625,4.109673023223877,-8.85763168334961,-0.5880361795425415
1772650347671541000,2.108541015625,4.11206579208374,-8.884550094604492,-0.6161518096923828
1772650347681418200,2.118418212890625,4.0935211181640625,-8.874381065368652,-0.5874379873275757
1772650347691295200,2.128295166015625,4.131208419799805,-8.84088134765625,-0.5736792087554932
1772650347701172500,2.13817236328125,4.164707660675049,-8.849854469299316,-0.5431707501411438
1772650347711049500,2.148049560546875,4.18145751953125,-8.857032775878906,-0.5144568681716919
1772650347720926700,2.1579267578125,4.186243057250977,-8.85942554473877,-0.5120640397071838
1772650347730803700,2.1678037109375,4.152743816375732,-8.861818313598633,-0.5521438121795654
1772650347750558000,2.187557861328125,4.18145751953125,-8.814560890197754,-0.5742774605751038
1772650347760435200,2.197435302734375,4.164707660675049,-8.804988861083984,-0.5670989751815796
1772650347770312200,2.207312255859375,4.152743816375732,-8.814560890197754,-0.5670989751815796
1772650347780189400,2.217189453125,4.133601188659668,-8.81934642791748,-0.5665007829666138
1772650347790066400,2.22706640625,4.121636867523193,-8.85523796081543,-0.5712863802909851
1772650347799943400,2.236943359375,4.112663745880127,-8.883952140808105,-0.5754738450050354
1772650347809820700,2.246820556640625,4.131806373596191,-8.883952140808105,-0.5635097622871399
1772650347819697700,2.25669775390625,4.179064750671387,-8.861818313598633,-0.5545366406440735
1772650347829575000,2.266574951171875,4.191029071807861,-8.809774398803711,-0.5670989751815796
1772650347839452000,2.276451904296875,4.179064750671387,-8.804988861083984,-0.5886343717575073
1772650347849329200,2.2863291015625,4.159922122955322,-8.81515884399414,-0.6005984544754028
1772650347859206100,2.2962060546875,4.150351047515869,-8.85523796081543,-0.5784648656845093
1772650347869083400,2.30608349609375,4.147958278656006,-8.867202758789062,-0.5856433510780334
1772650347878960400,2.31596044921875,4.1383867263793945,-8.85763168334961,-0.5904290080070496
1772650347888837600,2.325837646484375,4.152743816375732,-8.850452423095703,-0.5569294691085815
1772650347898714600,2.335714599609375,4.167100429534912,-8.831310272216797,-0.5575276613235474
1772650347908591900,2.345591796875,4.164707660675049,-8.790632247924805,-0.5623133182525635
1772650347918468900,2.35546875,4.198207378387451,-8.790632247924805,-0.5461617708206177
1772650347928346000,2.36534619140625,4.167100429534912,-8.802596092224121,-0.5575276613235474
1772650347938223000,2.37522314453125,4.155136585235596,-8.807381629943848,-0.5910272002220154
1772650347948100400,2.385100341796875,4.133601188659668,-8.819944381713867,-0.6023930907249451
1772650347957977300,2.394977294921875,4.131208419799805,-8.877371788024902,-0.6281159520149231
1772650347967854600,2.4048544921875,4.128815650939941,-8.874979019165039,-0.6113662123680115
1772650347977731600,2.414731689453125,4.155136585235596,-8.841479301452637,-0.6047859191894531
1772650347987608600,2.424608642578125,4.164707660675049,-8.82652473449707,-0.5958128571510315
1772650347997485800,2.43448583984375,4.171886444091797,-8.850452423095703,-0.5832505226135254
1772650348007363000,2.444363037109375,4.179064750671387,-8.84805965423584,-0.5665007829666138
1772650348017240000,2.454239990234375,4.176671981811523,-8.828917503356934,-0.5623133182525635
1772650348027117300,2.464117431640625,4.179064750671387,-8.852845191955566,-0.5688936114311218
1772650348036994300,2.473994384765625,4.169493675231934,-8.812167167663574,-0.5527420043945312
1772650348046871300,2.483871337890625,4.171886444091797,-8.83370304107666,-0.5790630578994751
1772650348056748500,2.49374853515625,4.183850288391113,-8.816953659057617,-0.5958128571510315
1772650348066625500,2.50362548828125,4.167100429534912,-8.824729919433594,-0.6191428303718567
1772650348076502800,2.513502685546875,4.152743816375732,-8.834300994873047,-0.6215356588363647
1772650348086379800,2.5233798828125,4.159922122955322,-8.84088134765625,-0.6047859191894531
1772650348096257000,2.533257080078125,4.159922122955322,-8.850452423095703,-0.600000262260437
1772650348106134000,2.543134033203125,4.135993957519531,-8.850452423095703,-0.5880361795425415
1772650348116011300,2.55301123046875,4.11505651473999,-8.85763168334961,-0.600000262260437
1772650348125888300,2.56288818359375,4.140779495239258,-8.845666885375977,-0.5952146053314209
1772650348135765500,2.572765625,4.147958278656006,-8.82652473449707,-0.5856433510780334
1772650348145642500,2.582642578125,4.171886444091797,-8.828917503356934,-0.5838487148284912
1772650348155519700,2.592519775390625,4.179064750671387,-8.83370304107666,-0.5742774605751038
1772650348165396700,2.602396728515625,4.164707660675049,-8.85523796081543,-0.5617151260375977
1772650348175274000,2.61227392578125,4.146163463592529,-8.862417221069336,-0.5832505226135254
1772650348185151000,2.62215087890625,4.112663745880127,-8.85523796081543,-0.5904290080070496
1772650348195028200,2.6320283203125,4.112663745880127,-8.8648099899292,-0.5928218364715576
1772650348204905200,2.6419052734375,4.11505651473999,-8.86062240600586,-0.597607433795929
1772650348214782500,2.651782470703125,4.109673023223877,-8.839086532592773,-0.6047859191894531
1772650348224659500,2.661659423828125,4.11206579208374,-8.8438720703125,-0.6143572330474854
1772650348234536700,2.67153662109375,4.117449760437012,-8.8438720703125,-0.6095715761184692
1772650348244413700,2.68141357421875,4.128815650939941,-8.841479301452637,-0.6167500615119934
1772650348254291000,2.691291015625,4.159922122955322,-8.84088134765625,-0.5952146053314209
1772650348264168000,2.70116796875,4.155136585235596,-8.84805965423584,-0.5880361795425415
1772650348274045000,2.711044921875,4.1389851570129395,-8.858229637145996,-0.600000262260437
1772650348283922200,2.720922119140625,4.105485439300537,-8.86062240600586,-0.6017948985099792
1772650348293799400,2.73079931640625,4.095914363861084,-8.855836868286133,-0.623330295085907
1772650348303676400,2.740676513671875,4.126422882080078,-8.834300994873047,-0.6239284873008728
1772650348313553700,2.7505537109375,4.128815650939941,-8.827122688293457,-0.6215356588363647
1772650348323430700,2.7604306640625,4.121636867523193,-8.827122688293457,-0.6287141442298889
1772650348333307600,2.7703076171875,4.117449760437012,-8.841479301452637,-0.6047859191894531
1772650348343185000,2.780184814453125,4.1078782081604,-8.841479301452637,-0.6023930907249451
1772650348353062000,2.790061767578125,4.112663745880127,-8.839086532592773,-0.5928218364715576
1772650348362939100,2.799939208984375,4.127020835876465,-8.862417221069336,-0.5952146053314209
1772650348372816100,2.809816162109375,4.136591911315918,-8.872586250305176,-0.6089733839035034
1772650348382693400,2.819693359375,4.153341770172119,-8.860024452209473,-0.600000262260437
1772650348392570400,2.8295703125,4.18863582611084,-8.84805965423584,-0.5784648656845093
1772650348402447600,2.839447509765625,4.176671981811523,-8.828917503356934,-0.5718846321105957
1772650348412324600,2.84932470703125,4.131806373596191,-8.84088134765625,-0.5904290080070496
1772650348422201900,2.859201904296875,4.103092670440674,-8.848658561706543,-0.6185446381568909
1772650348432078800,2.869078857421875,4.0695929527282715,-8.858827590942383,-0.6711867451667786
1772650348441956000,2.8789560546875,4.064807415008545,-8.851649284362793,-0.6831508874893188
1772650348451833000,2.8888330078125,4.062414646148682,-8.86361312866211,-0.6711867451667786
1772650348461710300,2.89871044921875,4.095914363861084,-8.855836868286133,-0.6472585201263428
1772650348471587300,2.90858740234375,4.133601188659668,-8.845666885375977,-0.6047859191894531
1772650348481464600,2.918464599609375,4.171886444091797,-8.814560890197754,-0.5814558863639832
1772650348491341600,2.928341552734375,4.195814609527588,-8.802596092224121,-0.5533402562141418
1772650348501218800,2.93821875,4.18863582611084,-8.81934642791748,-0.5599204897880554
1772650348511095800,2.948095703125,4.195814609527588,-8.836095809936523,-0.5670989751815796
1772650348520973000,2.95797314453125,4.100101470947266,-8.83370304107666,-0.5832505226135254
1772650348530850000,2.96785009765625,4.068994998931885,-8.86062240600586,-0.6137589812278748
1772650348540727300,2.977727294921875,4.067200183868408,-8.891729354858398,-0.649053156375885
1772650348550604300,2.987604248046875,4.0456647872924805,-8.916254997253418,-0.6873382925987244
1772650348560481500,2.9974814453125,4.021138668060303,-8.926424980163574,-0.7704889178276062
1772650348570358500,3.007358642578125,4.155136585235596,-8.83370304107666,-0.6023930907249451
1772650348580235800,3.01723583984375,4.1760735511779785,-8.771489143371582,-0.5341976284980774
1772650348590112800,3.02711279296875,4.167100429534912,-8.800203323364258,-0.5623133182525635
1772650348599990000,3.036989990234375,4.124029636383057,-8.879166603088379,-0.5850451588630676
1772650348609867000,3.046866943359375,4.1078782081604,-8.93420124053955,-0.6107679605484009
1772650348619744300,3.056744140625,4.079164505004883,-8.891729354858398,-0.6113662123680115
1772650348629621200,3.066621337890625,4.0905303955078125,-8.874979019165039,-0.6017948985099792
1772650348639498500,3.07649853515625,4.109673023223877,-8.846264839172363,-0.5904290080070496
1772650348649375500,3.08637548828125,4.073780536651611,-8.824729919433594,-0.6071787476539612
1772650348659252500,3.09625244140625,4.054637908935547,-8.81814956665039,-0.6239284873008728
1772650348669129700,3.106129638671875,4.0666022300720215,-8.819944381713867,-0.6215356588363647
1772650348679007000,3.116007080078125,4.083950042724609,-8.8438720703125,-0.6047859191894531
1772650348688884000,3.125884033203125,4.0767717361450195,-8.879764556884766,-0.6017948985099792
1772650348698761200,3.13576123046875,4.0695929527282715,-8.906085968017578,-0.6251249313354492
1772650348708638200,3.14563818359375,4.0528435707092285,-8.911469459533691,-0.6538388133049011
1772650348718515200,3.15551513671875,4.088735580444336,-8.896514892578125,-0.6442674994468689
1772650348728392400,3.165392333984375,4.126422882080078,-8.865407943725586,-0.6352944374084473
1772650348738269700,3.175269775390625,4.140779495239258,-8.846264839172363,-0.6167500615119934
1772650348748146700,3.185146728515625,4.1623148918151855,-8.831310272216797,-0.597607433795929
1772650348758023700,3.195023681640625,4.147958278656006,-8.85523796081543,-0.597607433795929
1772650348767901000,3.20490087890625,4.110270977020264,-8.881559371948242,-0.5994020700454712
1772650348777778000,3.21477783203125,4.0695929527282715,-8.858229637145996,-0.623330295085907
1772650348787655200,3.2246552734375,4.102494239807129,-8.8438720703125,-0.6400800347328186
1772650348797532400,3.234532470703125,4.104887008666992,-8.820542335510254,-0.6454638838768005
1772650348807409400,3.244409423828125,4.107280254364014,-8.777471542358398,-0.6436693072319031
1772650348817286400,3.254286376953125,4.1144585609436035,-8.8109712600708,-0.664606511592865
1772650348827163600,3.26416357421875,4.078566074371338,-8.827720642089844,-0.6693921089172363
1772650348837040600,3.27404052734375,4.100101470947266,-8.846264839172363,-0.656829833984375
1772650348846918000,3.28391796875,4.146163463592529,-8.900702476501465,-0.6089733839035034
1772650348856795000,3.293794921875,4.150949001312256,-8.874381065368652,-0.5946164131164551
1772650348866672000,3.303672119140625,4.182055950164795,-8.893523216247559,-0.5952146053314209
1772650348876549000,3.313549072265625,4.158127784729004,-8.876773834228516,-0.5928218364715576
1772650348886426400,3.32342626953125,4.131208419799805,-8.86780071258545,-0.6472585201263428
1772650348896303400,3.333303466796875,4.1144585609436035,-8.85643482208252,-0.6616154313087463
1772650348906180600,3.3431806640625,4.0905303955078125,-8.834898948669434,-0.6664010882377625
1772650348916057600,3.3530576171875,4.11206579208374,-8.822935104370117,-0.6693921089172363
1772650348925934800,3.362934814453125,4.124029636383057,-8.831908226013184,-0.6454638838768005
1772650348935811800,3.372811767578125,4.121636867523193,-8.827122688293457,-0.633499801158905
1772650348945689000,3.382689208984375,4.145565032958984,-8.845666885375977,-0.6023930907249451
1772650348955566000,3.392566162109375,4.146163463592529,-8.85523796081543,-0.5904290080070496
1772650348965443300,3.402443359375,4.147958278656006,-8.843274116516113,-0.5880361795425415
1772650348975320300,3.4123203125,4.1383867263793945,-8.841479301452637,-0.6215356588363647
1772650348985197600,3.422197509765625,4.102494239807129,-8.83669376373291,-0.6430711150169373
1772650348995074600,3.432074462890625,4.0905303955078125,-8.82532787322998,-0.6693921089172363
1772650349004951800,3.441951904296875,4.092923164367676,-8.82532787322998,-0.6693921089172363
1772650349014828800,3.451828857421875,4.102494239807129,-8.839685440063477,-0.6616154313087463
1772650349024706000,3.4617060546875,4.133601188659668,-8.85344409942627,-0.623330295085907
1772650349034583000,3.4715830078125,4.155734539031982,-8.860024452209473,-0.5808576941490173
1772650349044460300,3.481460205078125,4.143770694732666,-8.876773834228516,-0.5712863802909851
1772650349054337300,3.491337158203125,4.1006999015808105,-8.893523216247559,-0.6041877269744873
1772650349064214500,3.501214599609375,4.064807415008545,-8.913264274597168,-0.6323033571243286
1772650349074091500,3.511091552734375,4.050450325012207,-8.887541770935059,-0.6514459848403931
1772650349083968800,3.52096875,4.028316974639893,-8.844470977783203,-0.6544370055198669
1772650349093845800,3.530845703125,4.131806373596191,-8.850452423095703,-0.5712863802909851
1772650349103723000,3.540722900390625,4.086342811584473,-8.845666885375977,-0.5617151260375977
1772650349113600000,3.55060009765625,4.067200183868408,-8.865407943725586,-0.6065805554389954
1772650349123477200,3.560477294921875,4.040879249572754,-8.866005897521973,-0.6281159520149231
1772650349133354200,3.570354248046875,4.055236339569092,-8.870193481445312,-0.6281159520149231
1772650349143231500,3.5802314453125,4.0935211181640625,-8.863015174865723,-0.6089733839035034
1772650349153108500,3.5901083984375,4.11206579208374,-8.831908226013184,-0.5880361795425415
1772650349162985700,3.59998583984375,4.121636867523193,-8.84805965423584,-0.5856433510780334
1772650349172862700,3.60986279296875,4.131208419799805,-8.845666885375977,-0.5952146053314209
1772650349182740000,3.619739990234375,4.124029636383057,-8.82951545715332,-0.6191428303718567
1772650349192617000,3.629616943359375,4.117449760437012,-8.892327308654785,-0.6903293132781982
1772650349202494200,3.639494140625,4.073780536651611,-8.844470977783203,-0.6640082597732544
1772650349212371200,3.64937109375,4.091128349304199,-8.873184204101562,-0.6735795736312866
1772650349222248400,3.65924853515625,4.055236339569092,-8.887541770935059,-0.6801598072052002
1772650349232125400,3.66912548828125,4.0456647872924805,-8.892327308654785,-0.6945167779922485
1772650349242002700,3.679002685546875,4.055236339569092,-8.880363464355469,-0.6759724020957947
1772650349251879700,3.688879638671875,4.0935211181640625,-8.874979019165039,-0.6376872062683105
1772650349261757000,3.6987568359375,4.124628067016602,-8.876773834228516,-0.5970092415809631
1772650349271634000,3.708634033203125,4.174877166748047,-8.871988296508789,-0.5856433510780334
1772650349281511200,3.71851123046875,4.126422882080078,-8.778668403625488,-0.5431707501411438
1772650349291388200,3.72838818359375,4.147958278656006,-8.778668403625488,-0.5623133182525635
1772650349301265400,3.738265380859375,4.159922122955322,-8.800203323364258,-0.5455635786056519
1772650349311142400,3.748142333984375,4.159922122955322,-8.795417785644531,-0.6005984544754028
1772650349321019600,3.75801953125,4.147958278656006,-8.831908226013184,-0.6454638838768005
1772650349330896600,3.767896728515625,4.107280254364014,-8.834898948669434,-0.6741777658462524
1772650349340774000,3.77777392578125,4.121636867523193,-8.837292671203613,-0.6765705943107605
1772650349350651000,3.78765087890625,4.140779495239258,-8.844470977783203,-0.6837490797042847
1772650349360528100,3.797528076171875,4.145565032958984,-8.851649284362793,-0.6807580590248108
1772650349370405000,3.807405029296875,4.143172264099121,-8.861220359802246,-0.6951149702072144
1772650349380282400,3.817282470703125,4.152743816375732,-8.874979019165039,-0.6687939167022705
1772650349390159400,3.827159423828125,4.141377925872803,-8.891729354858398,-0.6352944374084473
1772650349400036600,3.83703662109375,4.128815650939941,-8.86780071258545,-0.6352944374084473
1772650349409913600,3.84691357421875,4.117449760437012,-8.870193481445312,-0.6209374666213989
1772650349419790800,3.856790771484375,4.119842529296875,-8.874979019165039,-0.6161518096923828
1772650349429667800,3.866667724609375,4.135993957519531,-8.83669376373291,-0.6071787476539612
1772650349439545000,3.876545166015625,4.150351047515869,-8.812766075134277,-0.5982056856155396
1772650349449422000,3.886422119140625,4.171886444091797,-8.812167167663574,-0.5958128571510315
1772650349459299300,3.89629931640625,4.155136585235596,-8.82951545715332,-0.6095715761184692
1772650349469176300,3.90617626953125,4.116851329803467,-8.851051330566406,-0.6287141442298889
1772650349479053600,3.916053466796875,4.104887008666992,-8.855836868286133,-0.6472585201263428
1772650349488930600,3.9259306640625,4.116851329803467,-8.879764556884766,-0.6544370055198669
1772650349498807800,3.935807861328125,4.055236339569092,-8.84207820892334,-0.6329016089439392
1772650349508684800,3.945684814453125,4.050450325012207,-8.83250617980957,-0.6305087804794312
1772650349518562000,3.95556201171875,4.0767717361450195,-8.851051330566406,-0.6017948985099792
1772650349528439000,3.96543896484375,4.105485439300537,-8.862417221069336,-0.5880361795425415
1772650349538316300,3.97531640625,4.105485439300537,-8.862417221069336,-0.5808576941490173
1772650349548193300,3.985193359375,4.116851329803467,-8.845666885375977,-0.5712863802909851
1772650349558070500,3.995070556640625,4.131208419799805,-8.836095809936523,-0.5808576941490173
1772650349567947800,4.00494775390625,4.135993957519531,-8.841479301452637,-0.597607433795929
1772650349577824800,4.01482470703125,4.143172264099121,-8.843274116516113,-0.5952146053314209
1772650349587701800,4.02470166015625,4.11505651473999,-8.8648099899292,-0.6047859191894531
1772650349597579000,4.0345791015625,4.1144585609436035,-8.858229637145996,-0.6329016089439392
1772650349607456000,4.0444560546875,4.071985721588135,-8.915657043457031,-0.6323033571243286
1772650349617333200,4.054333251953125,4.0767717361450195,-8.903693199157715,-0.6251249313354492
1772650349627210200,4.064210205078125,4.055236339569092,-8.891729354858398,-0.6346961855888367
1772650349637087500,4.07408740234375,4.050450325012207,-8.870193481445312,-0.6185446381568909
1772650349646964500,4.083964599609375,4.062414646148682,-8.848658561706543,-0.6185446381568909
1772650349656841700,4.093841796875,4.071387767791748,-8.82233715057373,-0.6047859191894531
1772650349666719000,4.103718994140625,4.095315933227539,-8.828917503356934,-0.5736792087554932
1772650349676596000,4.113595947265625,4.112663745880127,-8.850452423095703,-0.5569294691085815
1772650349686473000,4.123472900390625,4.091128349304199,-8.874381065368652,-0.5826523303985596
1772650349696350200,4.13335009765625,4.071985721588135,-8.870193481445312,-0.5850451588630676
1772650349706227500,4.1432275390625,4.067200183868408,-8.874979019165039,-0.623330295085907
1772650349716104400,4.1531044921875,4.057629108428955,-8.877371788024902,-0.6352944374084473
1772650349725981400,4.1629814453125,4.071985721588135,-8.866005897521973,-0.6376872062683105
1772650349735858700,4.172858642578125,4.107280254364014,-8.858229637145996,-0.6376872062683105
1772650349745736000,4.18273583984375,4.128815650939941,-8.85763168334961,-0.6047859191894531
1772650349755613000,4.192613037109375,4.131208419799805,-8.850452423095703,-0.5832505226135254
1772650349765490200,4.202490234375,4.1078782081604,-8.851051330566406,-0.5928218364715576
1772650349775367200,4.2123671875,4.0935211181640625,-8.874979019165039,-0.6137589812278748
1772650349785244400,4.222244384765625,4.0767717361450195,-8.894122123718262,-0.6424728631973267
1772650349795121400,4.232121337890625,4.062414646148682,-8.882756233215332,-0.6753742098808289
1772650349804998700,4.24199853515625,4.057629108428955,-8.875576972961426,-0.6658028960227966
1772650349814875600,4.251875732421875,4.085744857788086,-8.84925651550293,-0.6472585201263428
1772650349824753000,4.2617529296875,4.116851329803467,-8.824729919433594,-0.6143572330474854
1772650349834630000,4.2716298828125,4.133601188659668,-8.797810554504395,-0.5718846321105957
1772650349844507100,4.281507080078125,4.143172264099121,-8.800203323364258,-0.5623133182525635
1772650349854384000,4.291384033203125,4.116851329803467,-8.831908226013184,-0.5904290080070496
1772650349864261400,4.301261474609375,4.0695929527282715,-8.85344409942627,-0.6161518096923828
1772650349874138400,4.311138427734375,4.0666022300720215,-8.848658561706543,-0.6281159520149231
1772650349884015600,4.321015625,4.11206579208374,-8.841479301452637,-0.633499801158905
1772650349893892600,4.330892578125,4.135993957519531,-8.848658561706543,-0.6263213157653809
1772650349903769900,4.340769775390625,4.143172264099121,-8.841479301452637,-0.633499801158905
1772650349913646800,4.350646728515625,4.145565032958984,-8.83669376373291,-0.6287141442298889
1772650349923524000,4.360524169921875,4.147958278656006,-8.846264839172363,-0.6191428303718567
1772650349933401000,4.370401123046875,4.124029636383057,-8.848658561706543,-0.6167500615119934
1772650349943278300,4.3802783203125,4.088137626647949,-8.86062240600586,-0.6329016089439392
1772650349953155300,4.3901552734375,4.05703067779541,-8.858827590942383,-0.656829833984375
1772650349963032600,4.400032470703125,4.05703067779541,-8.85643482208252,-0.6616154313087463
1772650349972909600,4.40990966796875,4.061816215515137,-8.830113410949707,-0.6687939167022705
1772650349982786800,4.419786865234375,4.05703067779541,-8.844470977783203,-0.6544370055198669
1772650349992663800,4.429663818359375,4.061816215515137,-8.863015174865723,-0.6400800347328186
1772650350002541000,4.439541015625,4.071985721588135,-8.891729354858398,-0.6185446381568909
1772650350012418000,4.44941796875,4.112663745880127,-8.912666320800781,-0.589830756187439
1772650350022295300,4.45929541015625,4.165306091308594,-8.900103569030762,-0.5443671345710754
1772650350032172300,4.46917236328125,4.217350006103516,-8.868997573852539,-0.5359922647476196
1772650350042049500,4.479049560546875,4.226921081542969,-8.818747520446777,-0.5407779216766357
1772650350051926500,4.488926513671875,4.209573268890381,-8.783453941345215,-0.5700899958610535
1772650350061803800,4.4988037109375,4.164707660675049,-8.781659126281738,-0.6005984544754028
1772650350071680800,4.5086806640625,4.126422882080078,-8.81515884399414,-0.6239284873008728
1772650350081558000,4.51855810546875,4.091128349304199,-8.846863746643066,-0.6520441770553589
1772650350091435000,4.52843505859375,4.043272018432617,-8.873184204101562,-0.6735795736312866
1772650350101312300,4.538312255859375,4.031308174133301,-8.885746955871582,-0.6993024349212646
1772650350111189200,4.548189208984375,4.050450325012207,-8.894720077514648,-0.7088736891746521
1772650350121066500,4.55806640625,4.081557273864746,-8.892327308654785,-0.6759724020957947
1772650350130943500,4.567943603515625,4.103092670440674,-8.86780071258545,-0.6161518096923828
1772650350140820700,4.57782080078125,4.124628067016602,-8.867202758789062,-0.5760720372200012
1772650350150697700,4.58769775390625,4.127020835876465,-8.874381065368652,-0.5353940725326538
1772650350160575000,4.597574951171875,4.131806373596191,-8.874381065368652,-0.544965386390686
1772650350170452000,4.607451904296875,4.134199142456055,-8.850452423095703,-0.5473581552505493
1772650350180329200,4.6173291015625,4.140779495239258,-8.824131965637207,-0.5736792087554932
1772650350190206200,4.627206298828125,4.143172264099121,-8.81934642791748,-0.576670229434967
1772650350200083500,4.63708349609375,4.135993957519531,-8.817551612854004,-0.6047859191894531
1772650350209960400,4.64696044921875,4.107280254364014,-8.827122688293457,-0.633499801158905
1772650350219837700,4.656837646484375,4.067200183868408,-8.84925651550293,-0.6640082597732544
1772650350229714700,4.666714599609375,4.040879249572754,-8.854640007019043,-0.6999006271362305
1772650350239592000,4.676592041015625,4.016951084136963,-8.85942554473877,-0.7208378314971924
1772650350249469000,4.686468994140625,4.031308174133301,-8.849854469299316,-0.7022934556007385
1772650350259346200,4.69634619140625,4.0695929527282715,-8.839685440063477,-0.6496513485908508
1772650350269223200,4.70622314453125,4.121636867523193,-8.839086532592773,-0.6119644045829773
1772650350279100400,4.716100341796875,4.1623148918151855,-8.843274116516113,-0.5880361795425415
1772650350288977400,4.725977294921875,4.18145751953125,-8.845666885375977,-0.5718846321105957
1772650350298854700,4.735854736328125,4.179064750671387,-8.871988296508789,-0.5736792087554932
1772650350308731600,4.745731689453125,4.152743816375732,-8.881559371948242,-0.6065805554389954
1772650350318609000,4.75560888671875,4.150351047515869,-8.865407943725586,-0.6424728631973267
1772650350328486000,4.76548583984375,4.147958278656006,-8.851051330566406,-0.6574280261993408
1772650350338363100,4.775363037109375,4.1383867263793945,-8.8109712600708,-0.6861419081687927
1772650350348240400,4.785240478515625,4.11206579208374,-8.803792953491211,-0.6909275650978088
1772650350358117400,4.795117431640625,4.0905303955078125,-8.827720642089844,-0.6831508874893188
1772650350367994400,4.804994384765625,4.102494239807129,-8.839685440063477,-0.6574280261993408
1772650350377871600,4.81487158203125,4.121636867523193,-8.863015174865723,-0.6376872062683105
1772650350387748900,4.824748779296875,4.1383867263793945,-8.86062240600586,-0.6400800347328186
1772650350397625900,4.8346259765625,4.150351047515869,-8.870193481445312,-0.6376872062683105
1772650350407502800,4.8445029296875,4.155136585235596,-8.839086532592773,-0.6382854580879211
1772650350417380000,4.854380126953125,4.140779495239258,-8.810373306274414,-0.6215356588363647
1772650350427257300,4.86425732421875,4.147958278656006,-8.800801277160645,-0.6364908218383789
1772650350437134300,4.87413427734375,4.1383867263793945,-8.805587768554688,-0.6430711150169373
1772650350447011300,4.88401123046875,4.145565032958984,-8.846264839172363,-0.6167500615119934
1772650350456888600,4.893888671875,4.140779495239258,-8.865407943725586,-0.623330295085907
1772650350466765800,4.903765869140625,4.124628067016602,-8.86780071258545,-0.625723123550415
1772650350476642800,4.913642822265625,4.11505651473999,-8.865407943725586,-0.6400800347328186
1772650350486520000,4.92352001953125,4.1006999015808105,-8.851649284362793,-0.6472585201263428
1772650350496397000,4.93339697265625,4.109673023223877,-8.830113410949707,-0.6502495408058167
1772650350506274000,4.943274169921875,4.128815650939941,-8.824729919433594,-0.6406782865524292
1772650350516151300,4.9531513671875,4.126422882080078,-8.824729919433594,-0.6358926296234131
1772650350526028500,4.963028564453125,4.126422882080078,-8.839086532592773,-0.6406782865524292
1772650350535905500,4.972905517578125,4.135993957519531,-8.863015174865723,-0.6544370055198669
1772650350545782500,4.982782470703125,4.143172264099121,-8.855836868286133,-0.6454638838768005
1772650350555659800,4.99265966796875,4.1623148918151855,-8.86062240600586,-0.6263213157653809
1772650350565537000,5.002537109375,4.141377925872803,-8.858229637145996,-0.6287141442298889
1772650350575414000,5.0124140625,4.131208419799805,-8.839086532592773,-0.6406782865524292
1772650350585291300,5.022291259765625,4.11206579208374,-8.84207820892334,-0.6478567123413086
1772650350595168300,5.032168212890625,4.109673023223877,-8.84925651550293,-0.6544370055198669
1772650350605045500,5.04204541015625,4.085744857788086,-8.834898948669434,-0.6520441770553589
1772650350614922500,5.051922607421875,4.080958843231201,-8.827720642089844,-0.6478567123413086
1772650350624799700,5.0617998046875,4.0833516120910645,-8.830113410949707,-0.656829833984375
1772650350634676700,5.0716767578125,4.0833516120910645,-8.827720642089844,-0.6574280261993408
1772650350644554000,5.081553955078125,4.086342811584473,-8.84925651550293,-0.6640082597732544
1772650350654431000,5.091430908203125,4.091128349304199,-8.851649284362793,-0.6496513485908508
1772650350664308200,5.10130810546875,4.103092670440674,-8.846863746643066,-0.656829833984375
1772650350674185200,5.111185302734375,4.121636867523193,-8.858229637145996,-0.6520441770553589
1772650350684062500,5.1210625,4.143172264099121,-8.863015174865723,-0.6263213157653809
1772650350693939500,5.130939453125,4.145565032958984,-8.85344409942627,-0.6191428303718567
1772650350703816700,5.140816650390625,4.11505651473999,-8.86780071258545,-0.6400800347328186
1772650350713693700,5.150693603515625,4.0905303955078125,-8.866005897521973,-0.6855437159538269
1772650350723571000,5.160571044921875,4.057629108428955,-8.873783111572266,-0.706480860710144
1772650350733448000,5.170447998046875,4.081557273864746,-8.882756233215332,-0.6969096064567566
1772650350743325200,5.1803251953125,4.088735580444336,-8.8707914352417,-0.6664010882377625
1772650350753202200,5.1902021484375,4.095914363861084,-8.858229637145996,-0.6544370055198669
1772650350763079400,5.200079345703125,4.11924409866333,-8.848658561706543,-0.6352944374084473
1772650350772956400,5.209956298828125,4.1383867263793945,-8.834300994873047,-0.6215356588363647
1772650350782833700,5.219833740234375,4.186243057250977,-8.824729919433594,-0.6125625967979431
1772650350792710700,5.229710693359375,4.191029071807861,-8.824729919433594,-0.6167500615119934
1772650350802588000,5.239587890625,4.195814609527588,-8.827122688293457,-0.6215356588363647
1772650350812465000,5.24946484375,4.171886444091797,-8.824729919433594,-0.6287141442298889
1772650350822342100,5.259342041015625,4.152743816375732,-8.82951545715332,-0.6406782865524292
1772650350832219100,5.26921923828125,4.131208419799805,-8.8438720703125,-0.6574280261993408
1772650350842096400,5.279096435546875,4.116851329803467,-8.851649284362793,-0.6735795736312866
1772650350851973400,5.288973388671875,4.100101470947266,-8.851649284362793,-0.6975077986717224
1772650350861850600,5.2988505859375,4.095315933227539,-8.844470977783203,-0.6879364848136902
1772650350871727600,5.3087275390625,4.124029636383057,-8.839086532592773,-0.6520441770553589
1772650350881604900,5.31860498046875,4.143172264099121,-8.841479301452637,-0.631106972694397
1772650350891481900,5.32848193359375,4.124029636383057,-8.848658561706543,-0.6281159520149231
1772650350901359000,5.338359130859375,4.157529354095459,-8.879764556884766,-0.6472585201263428
1772650350911236000,5.348236083984375,4.133601188659668,-8.82951545715332,-0.6143572330474854
1772650350921113300,5.35811328125,4.150351047515869,-8.839086532592773,-0.6287141442298889
1772650350930990300,5.367990234375,4.124029636383057,-8.82532787322998,-0.6574280261993408
1772650350940867600,5.37786767578125,4.140779495239258,-8.83250617980957,-0.6693921089172363
1772650350950744600,5.38774462890625,4.133601188659668,-8.820542335510254,-0.6837490797042847
1772650350960621800,5.397621826171875,4.11924409866333,-8.809176445007324,-0.7028916478157043
1772650350970498800,5.407498779296875,4.104887008666992,-8.818747520446777,-0.7172485589981079
1772650350980376000,5.4173759765625,4.080958843231201,-8.823533058166504,-0.6999006271362305
1772650350990253000,5.427253173828125,4.061816215515137,-8.842676162719727,-0.6951149702072144
1772650351000130300,5.43713037109375,4.068994998931885,-8.85942554473877,-0.7046862840652466
1772650351010007300,5.44700732421875,4.102494239807129,-8.86780071258545,-0.6640082597732544
1772650351019884500,5.456884521484375,4.143172264099121,-8.872586250305176,-0.6352944374084473
1772650351029761500,5.466761474609375,4.167100429534912,-8.852845191955566,-0.6023930907249451
1772650351039638800,5.476638671875,4.183850288391113,-8.843274116516113,-0.5784648656845093
1772650351049515800,5.486515869140625,4.18145751953125,-8.83370304107666,-0.5904290080070496
1772650351059393000,5.49639306640625,4.145565032958984,-8.82951545715332,-0.6430711150169373
1772650351069270000,5.50627001953125,4.124029636383057,-8.82532787322998,-0.6813562512397766
1772650351079147300,5.516147216796875,4.11206579208374,-8.825926780700684,-0.719641387462616
1772650351089024300,5.526024169921875,4.128815650939941,-8.828319549560547,-0.7124629616737366
1772650351098901500,5.535901611328125,4.1144585609436035,-8.844470977783203,-0.6879364848136902
1772650351108778500,5.545778564453125,4.128815650939941,-8.858229637145996,-0.6664010882377625
1772650351118655700,5.55565576171875,4.126422882080078,-8.874979019165039,-0.6352944374084473
1772650351128532700,5.56553271484375,4.1623148918151855,-8.824729919433594,-0.6215356588363647
1772650351138410000,5.575409912109375,4.176671981811523,-8.82233715057373,-0.6287141442298889
1772650351148287000,5.585286865234375,4.147958278656006,-8.810373306274414,-0.6125625967979431
1772650351158164200,5.595164306640625,4.131208419799805,-8.85344409942627,-0.623330295085907
1772650351168041200,5.605041259765625,4.092923164367676,-8.868398666381836,-0.6687939167022705
1772650351177918500,5.61491845703125,4.0666022300720215,-8.854042053222656,-0.6903293132781982
1772650351187795500,5.62479541015625,4.1144585609436035,-8.837292671203613,-0.6885347366333008
1772650351197672700,5.634672607421875,4.150351047515869,-8.787042617797852,-0.6699903607368469
1772650351207549700,5.6445498046875,4.191029071807861,-8.793622970581055,-0.6622136831283569
1772650351217427000,5.654427001953125,4.155136585235596,-8.808578491210938,-0.6891329288482666
1772650351227304000,5.664303955078125,4.121636867523193,-8.857032775878906,-0.7262216806411743
1772650351237181200,5.67418115234375,4.04985237121582,-8.873783111572266,-0.7232306599617004
1772650351247058200,5.68405810546875,4.060021877288818,-8.906683921813965,-0.7112665176391602
1772650351256935400,5.693935302734375,4.098307132720947,-8.892327308654785,-0.6783652305603027
1772650351266812400,5.7038125,4.128815650939941,-8.81814956665039,-0.6622136831283569
1772650351276689700,5.713689697265625,4.147958278656006,-8.803194046020508,-0.6526423692703247
1772650351286566700,5.723566650390625,4.17427921295166,-8.812766075134277,-0.6269195079803467
1772650351296444000,5.73344384765625,4.17427921295166,-8.846264839172363,-0.6167500615119934
1772650351306321000,5.74332080078125,4.1383867263793945,-8.85344409942627,-0.6167500615119934
1772650351316198100,5.7531982421875,4.126422882080078,-8.877371788024902,-0.656829833984375
1772650351326075100,5.7630751953125,4.1383867263793945,-8.846863746643066,-0.6951149702072144
1772650351335952400,5.772952392578125,4.133601188659668,-8.835497856140137,-0.7310073375701904
1772650351345829400,5.782829345703125,4.109673023223877,-8.816354751586914,-0.745364248752594
1772650351355706600,5.79270654296875,4.085744857788086,-8.811569213867188,-0.7028916478157043
1772650351365583600,5.80258349609375,4.116851329803467,-8.760722160339355,-0.6963114142417908
1772650351375460900,5.8124609375,4.147958278656006,-8.836095809936523,-0.5880361795425415
1772650351385337900,5.822337890625,4.195814609527588,-8.8648099899292,-0.5665007829666138
1772650351395215000,5.832215087890625,4.0935211181640625,-8.862417221069336,-0.5778666734695435
1772650351405092000,5.842092041015625,4.122235298156738,-8.920442581176758,-0.6777670383453369
1772650351414969300,5.85196923828125,4.158127784729004,-8.951549530029297,-0.6729813814163208
1772650351424846300,5.861846435546875,4.105485439300537,-8.82951545715332,-0.6281159520149231
1772650351434723600,5.8717236328125,4.258028030395508,-8.831908226013184,-0.6981059908866882
1772650351444600600,5.8816005859375,4.068994998931885,-8.822935104370117,-0.6765705943107605
1772650351454477800,5.891477783203125,4.124029636383057,-8.84925651550293,-0.6861419081687927
1772650351464354800,5.901354736328125,4.147958278656006,-8.83250617980957,-0.7148557901382446
1772650351474232000,5.911232177734375,4.0666022300720215,-8.854640007019043,-0.7166503667831421
1772650351484109000,5.921109130859375,4.054637908935547,-8.847461700439453,-0.7399803996086121
1772650351493986300,5.930986328125,4.05703067779541,-8.799605369567871,-0.7286145091056824
1772650351503863300,5.94086328125,4.11924409866333,-8.849854469299316,-0.7310073375701904
1772650351513740500,5.950740478515625,4.1383867263793945,-8.844470977783203,-0.7004988193511963
1772650351523617500,5.960617431640625,4.131208419799805,-8.812766075134277,-0.6287141442298889
1772650351533494800,5.970494873046875,4.121636867523193,-8.80798053741455,-0.6382854580879211
1772650351543371800,5.980371826171875,4.0905303955078125,-8.839685440063477,-0.6616154313087463
1772650351553249000,5.9902490234375,4.217350006103516,-8.852845191955566,-0.633499801158905
1772650351563126000,6.0001259765625,4.193421840667725,-8.831310272216797,-0.631106972694397
1772650351573003300,6.010003173828125,4.135993957519531,-8.813364028930664,-0.666999340057373
1772650351582880300,6.01988037109375,4.145565032958984,-8.851649284362793,-0.7070791125297546
1772650351592757500,6.029757568359375,4.1623148918151855,-8.858827590942383,-0.6855437159538269
1772650351602634500,6.039634521484375,4.11206579208374,-8.854042053222656,-0.7022934556007385
1772650351612511700,6.04951171875,4.088137626647949,-8.851649284362793,-0.7070791125297546
1772650351622388700,6.059388671875,4.092923164367676,-8.868997573852539,-0.7256234884262085
1772650351632266000,6.069265869140625,4.102494239807129,-8.857032775878906,-0.7238288521766663
1772650351642143000,6.07914306640625,4.150351047515869,-8.83250617980957,-0.7124629616737366
1772650351652020200,6.089020263671875,4.159922122955322,-8.848658561706543,-0.664606511592865
1772650351661897200,6.098897216796875,4.121636867523193,-8.834300994873047,-0.6478567123413086
1772650351671774500,6.1087744140625,4.102494239807129,-8.844470977783203,-0.6664010882377625
1772650351681651500,6.1186513671875,4.097708702087402,-8.834898948669434,-0.6717849373817444
1772650351691528700,6.12852880859375,4.109673023223877,-8.830113410949707,-0.6765705943107605
1772650351701405700,6.13840576171875,4.11924409866333,-8.822935104370117,-0.6909275650978088
1772650351711283000,6.148282958984375,4.128815650939941,-8.815756797790527,-0.6909275650978088
1772650351721160000,6.158159912109375,4.11924409866333,-8.801400184631348,-0.6789634227752686
1772650351731037200,6.168037109375,4.131208419799805,-8.837292671203613,-0.6837490797042847
1772650351740914200,6.1779140625,4.131208419799805,-8.868398666381836,-0.6855437159538269
1772650351750791400,6.18779150390625,4.124029636383057,-8.870193481445312,-0.6544370055198669
1772650351760668400,6.19766845703125,4.11924409866333,-8.866005897521973,-0.6616154313087463
1772650351770545700,6.207545654296875,4.131208419799805,-8.866005897521973,-0.6687939167022705
1772650351780422700,6.217422607421875,4.147958278656006,-8.865407943725586,-0.6735795736312866
1772650351790300000,6.2272998046875,4.155136585235596,-8.837292671203613,-0.6789634227752686
1772650351800177000,6.237177001953125,4.157529354095459,-8.822935104370117,-0.6837490797042847
1772650351810054100,6.24705419921875,4.155136585235596,-8.81814956665039,-0.6717849373817444
1772650351819931100,6.25693115234375,4.143172264099121,-8.808578491210938,-0.6717849373817444
1772650351829808400,6.266808349609375,4.150351047515869,-8.803792953491211,-0.6717849373817444
1772650351839685400,6.276685302734375,4.133601188659668,-8.803792953491211,-0.7076773047447205
1772650351849562600,6.286562744140625,4.100101470947266,-8.82114028930664,-0.7190431952476501
1772650351859439600,6.296439697265625,4.107280254364014,-8.839685440063477,-0.711864709854126
1772650351869316900,6.30631689453125,4.124029636383057,-8.839685440063477,-0.6951149702072144
1772650351879193900,6.31619384765625,4.145565032958984,-8.84207820892334,-0.6741777658462524
1772650351889071000,6.326071044921875,4.157529354095459,-8.841479301452637,-0.6526423692703247
1772650351898948000,6.335947998046875,4.0833516120910645,-8.839685440063477,-0.6879364848136902
1772650351908825300,6.345825439453125,4.143172264099121,-8.86780071258545,-0.625723123550415
1772650351918702300,6.355702392578125,4.11924409866333,-8.852845191955566,-0.5928218364715576
1772650351928579600,6.36557958984375,4.11206579208374,-8.848658561706543,-0.6592226624488831
1772650351938456600,6.37545654296875,4.100101470947266,-8.839685440063477,-0.656829833984375
1772650351948333600,6.38533349609375,4.121636867523193,-8.868398666381836,-0.6855437159538269
1772650351958210800,6.3952109375,4.143172264099121,-8.882157325744629,-0.6640082597732544
1772650351968088000,6.405088134765625,4.176671981811523,-8.86780071258545,-0.6400800347328186
1772650351977965000,6.414965087890625,4.176671981811523,-8.843274116516113,-0.6119644045829773
1772650351987842300,6.42484228515625,4.171886444091797,-8.848658561706543,-0.6263213157653809
1772650351997719300,6.43471923828125,4.143172264099121,-8.841479301452637,-0.6454638838768005
1772650352007596300,6.44459619140625,4.11206579208374,-8.830113410949707,-0.6622136831283569
1772650352017473500,6.4544736328125,4.109673023223877,-8.808578491210938,-0.6885347366333008
1772650352027350800,6.464350830078125,4.133601188659668,-8.789435386657715,-0.6765705943107605
1772650352037227800,6.474227783203125,4.135993957519531,-8.799007415771484,-0.6598208546638489
1772650352047104800,6.484104736328125,4.145565032958984,-8.805587768554688,-0.6526423692703247
1772650352056982000,6.49398193359375,4.133601188659668,-8.846863746643066,-0.6693921089172363
1772650352066859000,6.50385888671875,4.150351047515869,-8.86780071258545,-0.6664010882377625
1772650352076736300,6.513736328125,4.17427921295166,-8.874979019165039,-0.6496513485908508
1772650352086613500,6.523613525390625,4.186243057250977,-8.848658561706543,-0.6358926296234131
1772650352096490500,6.533490478515625,4.18863582611084,-8.851051330566406,-0.631106972694397
1772650352106367500,6.543367431640625,4.179064750671387,-8.8438720703125,-0.6454638838768005
1772650352116244700,6.55324462890625,4.140779495239258,-8.874979019165039,-0.6807580590248108
1772650352126121700,6.563121826171875,4.102494239807129,-8.873184204101562,-0.7022934556007385
1772650352135999000,6.5729990234375,4.195814609527588,-8.841479301452637,-0.6406782865524292
1772650352145876000,6.5828759765625,4.1383867263793945,-8.787042617797852,-0.6580262184143066
1772650352155753200,6.592753173828125,4.147958278656006,-8.775078773498535,-0.6532405614852905
1772650352165630200,6.602630126953125,4.150351047515869,-8.817551612854004,-0.6502495408058167
1772650352175507500,6.612507568359375,4.155136585235596,-8.83669376373291,-0.6622136831283569
1772650352185384400,6.622384521484375,4.140779495239258,-8.837292671203613,-0.6622136831283569
1772650352195261700,6.63226171875,4.128815650939941,-8.827720642089844,-0.6885347366333008
1772650352205138700,6.642138671875,4.100101470947266,-8.82114028930664,-0.7166503667831421
1772650352215016000,6.652015869140625,4.076173305511475,-8.82114028930664,-0.7166503667831421
1772650352224893000,6.661892822265625,4.092923164367676,-8.8109712600708,-0.6837490797042847
1772650352234770200,6.671770263671875,4.126422882080078,-8.8109712600708,-0.6526423692703247
1772650352244647200,6.681647216796875,4.126422882080078,-8.831908226013184,-0.633499801158905
1772650352254524400,6.6915244140625,4.116851329803467,-8.85344409942627,-0.6137589812278748
1772650352264401400,6.7014013671875,4.091128349304199,-8.908478736877441,-0.6562315821647644
1772650352274278700,6.711278564453125,4.095315933227539,-8.909076690673828,-0.6729813814163208
1772650352284155600,6.72115576171875,4.085744857788086,-8.892327308654785,-0.6634100675582886
1772650352294033000,6.731032958984375,4.092923164367676,-8.86780071258545,-0.6376872062683105
1772650352303910000,6.740909912109375,4.102494239807129,-8.827122688293457,-0.6119644045829773
1772650352313787100,6.750787109375,4.1144585609436035,-8.800801277160645,-0.5910272002220154
1772650352323664100,6.7606640625,4.147958278656006,-8.790632247924805,-0.5790630578994751
1772650352333541400,6.770541259765625,4.1623148918151855,-8.814560890197754,-0.5694918036460876
1772650352343418400,6.78041845703125,4.126422882080078,-8.831310272216797,-0.5784648656845093
1772650352353295600,6.790295654296875,4.080958843231201,-8.851051330566406,-0.6424728631973267
1772650352363172600,6.800172607421875,4.045066833496094,-8.861220359802246,-0.6927221417427063
1772650352373049900,6.8100498046875,4.05703067779541,-8.866005897521973,-0.6975077986717224
1772650352382926800,6.8199267578125,4.100101470947266,-8.86361312866211,-0.6711867451667786
1772650352392804000,6.82980419921875,4.126422882080078,-8.870193481445312,-0.6520441770553589
1772650352402681000,6.83968115234375,4.145565032958984,-8.879764556884766,-0.6185446381568909
1772650352412558300,6.849558349609375,4.152743816375732,-8.886344909667969,-0.6065805554389954
1772650352422435300,6.859435302734375,4.155136585235596,-8.895915985107422,-0.5826523303985596
1772650352432312300,6.869312255859375,4.150949001312256,-8.912666320800781,-0.5826523303985596
1772650352442189600,6.879189453125,4.124029636383057,-8.874381065368652,-0.6065805554389954
1772650352452066600,6.889066650390625,4.116851329803467,-8.831908226013184,-0.6119644045829773
1772650352461943800,6.89894384765625,4.11206579208374,-8.81515884399414,-0.6191428303718567
1772650352471820800,6.90882080078125,4.121636867523193,-8.793622970581055,-0.607776939868927
1772650352481698000,6.918697998046875,4.116851329803467,-8.776873588562012,-0.605384111404419
1772650352491575000,6.928574951171875,4.092923164367676,-8.798408508300781,-0.6167500615119934
1772650352501452300,6.938452392578125,4.078566074371338,-8.81515884399414,-0.6287141442298889
1772650352511329300,6.948329345703125,4.045066833496094,-8.844470977783203,-0.6687939167022705
1772650352521206500,6.95820654296875,4.036093711853027,-8.868398666381836,-0.6921239495277405
1772650352531083500,6.96808349609375,4.052245140075684,-8.877969741821289,-0.6945167779922485
1772650352540960800,6.977960693359375,4.0767717361450195,-8.879764556884766,-0.6400800347328186
1772650352550837800,6.987837646484375,4.145565032958984,-8.881559371948242,-0.589830756187439
1772650352560715000,6.997715087890625,4.183850288391113,-8.845666885375977,-0.5623133182525635
1772650352570592000,7.007592041015625,4.207778453826904,-8.85763168334961,-0.5694918036460876
1772650352580469200,7.01746923828125,4.193421840667725,-8.85763168334961,-0.5856433510780334
1772650352590346200,7.02734619140625,4.167100429534912,-8.838488578796387,-0.6071787476539612
1772650352600223500,7.037223388671875,4.1383867263793945,-8.810373306274414,-0.633499801158905
1772650352610100500,7.0471005859375,4.11924409866333,-8.791828155517578,-0.6741777658462524
1772650352619977700,7.056977783203125,4.088137626647949,-8.777471542358398,-0.6717849373817444
1772650352629854700,7.066854736328125,4.05703067779541,-8.782257080078125,-0.6622136831283569
1772650352639732000,7.07673193359375,4.045066833496094,-8.830113410949707,-0.6711867451667786
1772650352649609000,7.08660888671875,4.0456647872924805,-8.86361312866211,-0.6592226624488831
1772650352659486200,7.096486328125,4.062414646148682,-8.872586250305176,-0.6424728631973267
1772650352669363200,7.10636328125,4.109673023223877,-8.870193481445312,-0.625723123550415
1772650352679240200,7.116240234375,4.155136585235596,-8.869595527648926,-0.6215356588363647
1772650352689117400,7.126117431640625,4.17427921295166,-8.852845191955566,-0.600000262260437
1772650352698994400,7.135994384765625,4.198207378387451,-8.85523796081543,-0.5880361795425415
1772650352708871700,7.14587158203125,4.191029071807861,-8.84805965423584,-0.5952146053314209
1772650352718748700,7.155748779296875,4.18863582611084,-8.845666885375977,-0.5862415432929993
1772650352728626000,7.1656259765625,4.18145751953125,-8.84088134765625,-0.600000262260437
1772650352738503000,7.1755029296875,4.18145751953125,-8.84805965423584,-0.6119644045829773
1772650352748380200,7.185380126953125,4.150351047515869,-8.846264839172363,-0.6191428303718567
1772650352758257200,7.195257080078125,4.131208419799805,-8.839086532592773,-0.666999340057373
1772650352768134400,7.205134521484375,4.107280254364014,-8.837292671203613,-0.6879364848136902
1772650352778011400,7.215011474609375,4.097708702087402,-8.822935104370117,-0.6861419081687927
1772650352787888600,7.224888671875,4.097708702087402,-8.803792953491211,-0.6741777658462524
1772650352797765600,7.234765625,4.104887008666992,-8.808578491210938,-0.6598208546638489
1772650352807643000,7.244642822265625,4.116851329803467,-8.810373306274414,-0.6382854580879211
1772650352817519900,7.254519775390625,4.145565032958984,-8.80798053741455,-0.6221339106559753
1772650352827397000,7.264397216796875,4.159922122955322,-8.834300994873047,-0.6191428303718567
1772650352837274000,7.274274169921875,4.1623148918151855,-8.85344409942627,-0.6239284873008728
1772650352847151400,7.2841513671875,4.155136585235596,-8.865407943725586,-0.6496513485908508
1772650352857028400,7.2940283203125,4.1623148918151855,-8.863015174865723,-0.656829833984375
1772650352866905300,7.3039052734375,4.169493675231934,-8.846264839172363,-0.6406782865524292
1772650352876782600,7.313782470703125,4.1623148918151855,-8.83669376373291,-0.6287141442298889
1772650352886659800,7.323659912109375,4.1144585609436035,-8.846264839172363,-0.6167500615119934
1772650352896536800,7.333536865234375,4.092923164367676,-8.870193481445312,-0.6400800347328186
1772650352906414000,7.3434140625,4.0426740646362305,-8.875576972961426,-0.6658028960227966
1772650352916291000,7.353291015625,4.076173305511475,-8.863015174865723,-0.6592226624488831
1772650352926168000,7.36316796875,4.1144585609436035,-8.865407943725586,-0.6664010882377625
1772650352936045300,7.37304541015625,4.147958278656006,-8.848658561706543,-0.6167500615119934
1772650352945922300,7.38292236328125,4.157529354095459,-8.824729919433594,-0.6143572330474854
1772650352955799600,7.392799560546875,4.1383867263793945,-8.810373306274414,-0.6191428303718567
1772650352965676500,7.402676513671875,4.1144585609436035,-8.808578491210938,-0.6550351977348328
1772650352975553800,7.4125537109375,4.073780536651611,-8.85643482208252,-0.6807580590248108
1772650352985430800,7.4224306640625,4.064209461212158,-8.839685440063477,-0.6927221417427063
1772650352995308000,7.43230810546875,4.088137626647949,-8.84925651550293,-0.6903293132781982
1772650353005185000,7.44218505859375,4.131208419799805,-8.839685440063477,-0.6693921089172363
1772650353015062300,7.452062255859375,4.135993957519531,-8.846264839172363,-0.6598208546638489
1772650353024939300,7.461939208984375,4.152743816375732,-8.870193481445312,-0.656829833984375
1772650353034816500,7.47181640625,4.133601188659668,-8.863015174865723,-0.6544370055198669
1772650353044693500,7.481693603515625,4.133601188659668,-8.855836868286133,-0.6454638838768005
1772650353054570500,7.491570556640625,4.135993957519531,-8.848658561706543,-0.6263213157653809
1772650353064447700,7.50144775390625,4.143172264099121,-8.834300994873047,-0.6215356588363647
1772650353074324700,7.51132470703125,4.109673023223877,-8.819944381713867,-0.6263213157653809
1772650353084202000,7.521201904296875,4.1623148918151855,-8.83669376373291,-0.6358926296234131
1772650353094079000,7.531078857421875,4.124029636383057,-8.81515884399414,-0.6095715761184692
1772650353103956200,7.540956298828125,4.097708702087402,-8.82532787322998,-0.6664010882377625
1772650353113833200,7.550833251953125,4.11924409866333,-8.854042053222656,-0.6831508874893188
1772650353123710500,7.56071044921875,4.1383867263793945,-8.839685440063477,-0.6951149702072144
1772650353133587500,7.57058740234375,4.121636867523193,-8.823533058166504,-0.7172485589981079
1772650353143464700,7.580464599609375,4.155136585235596,-8.839685440063477,-0.7214360237121582
1772650353153341700,7.590341796875,4.147958278656006,-8.839685440063477,-0.7190431952476501
1772650353163219000,7.600218994140625,4.135993957519531,-8.854042053222656,-0.6903293132781982
1772650353173096000,7.610095947265625,4.140779495239258,-8.863015174865723,-0.656829833984375
1772650353182973200,7.61997314453125,4.135993957519531,-8.865407943725586,-0.631106972694397
1772650353192850200,7.62985009765625,4.116851329803467,-8.858229637145996,-0.6191428303718567
1772650353202727200,7.63972705078125,4.128815650939941,-8.82951545715332,-0.6167500615119934
1772650353212604400,7.6496044921875,4.131208419799805,-8.81515884399414,-0.6478567123413086
1772650353222481400,7.6594814453125,4.109673023223877,-8.820542335510254,-0.6837490797042847
1772650353232358700,7.669358642578125,4.11206579208374,-8.81396198272705,-0.7028916478157043
1772650353242236000,7.67923583984375,4.1144585609436035,-8.81814956665039,-0.6909275650978088
1772650353252113000,7.68911279296875,4.116851329803467,-8.820542335510254,-0.6813562512397766
1772650353261990000,7.698989990234375,4.121636867523193,-8.844470977783203,-0.6664010882377625
1772650353271867100,7.7088671875,4.107280254364014,-8.858229637145996,-0.6352944374084473
1772650353281744100,7.718744140625,4.095315933227539,-8.873184204101562,-0.6735795736312866
1772650353291621400,7.728621337890625,4.100101470947266,-8.8707914352417,-0.711864709854126
1772650353301498400,7.738498291015625,4.116851329803467,-8.86660385131836,-0.7310073375701904
1772650353311375600,7.748375732421875,4.145565032958984,-8.854042053222656,-0.711864709854126
1772650353321252600,7.758252685546875,4.159922122955322,-8.855836868286133,-0.6478567123413086
1772650353331129900,7.7681298828125,4.085744857788086,-8.8109712600708,-0.6957131624221802
1772650353341006800,7.7780068359375,4.155136585235596,-8.891729354858398,-0.6664010882377625
1772650353350883800,7.7878837890625,4.171886444091797,-8.879764556884766,-0.6400800347328186
1772650353360761000,7.797760986328125,4.1144585609436035,-8.82532787322998,-0.6622136831283569
1772650353370638000,7.80763818359375,4.11206579208374,-8.837292671203613,-0.6879364848136902
1772650353380515300,7.817515380859375,4.133601188659668,-8.834898948669434,-0.6957131624221802
1772650353390392300,7.827392333984375,4.133601188659668,-8.813364028930664,-0.6861419081687927
1772650353400269600,7.83726953125,4.126422882080078,-8.799007415771484,-0.6909275650978088
1772650353410146600,7.847146484375,4.128815650939941,-8.822935104370117,-0.6885347366333008
1772650353420023800,7.85702392578125,4.124029636383057,-8.837292671203613,-0.6903293132781982
1772650353429900800,7.86690087890625,4.128815650939941,-8.839685440063477,-0.6837490797042847
1772650353439778000,7.876778076171875,4.128815650939941,-8.839685440063477,-0.6837490797042847
1772650353449655000,7.886655029296875,4.126422882080078,-8.844470977783203,-0.6664010882377625
1772650353459532300,7.8965322265625,4.121636867523193,-8.866005897521973,-0.6711867451667786
1772650353469409300,7.9064091796875,4.116851329803467,-8.82114028930664,-0.7148557901382446
1772650353479286500,7.91628662109375,4.143172264099121,-8.858827590942383,-0.7166503667831421
1772650353489163500,7.92616357421875,4.128815650939941,-8.806185722351074,-0.7004988193511963
1772650353499040500,7.93604052734375,4.145565032958984,-8.794221878051758,-0.6885347366333008
1772650353508917800,7.945917724609375,4.135993957519531,-8.799007415771484,-0.6861419081687927
1772650353518794800,7.955794677734375,4.128815650939941,-8.827720642089844,-0.6933203339576721
1772650353528672000,7.965672119140625,4.088137626647949,-8.858827590942383,-0.7046862840652466
1772650353538549000,7.975549072265625,4.092923164367676,-8.880363464355469,-0.7232306599617004
1772650353548426200,7.98542626953125,4.121636867523193,-8.8707914352417,-0.7286145091056824
1772650353558303200,7.99530322265625,4.128815650939941,-8.839685440063477,-0.6909275650978088
1772650353568180500,8.005180419921874,4.11206579208374,-8.797212600708008,-0.7172485589981079
1772650353578057500,8.015057373046876,4.116851329803467,-8.811569213867188,-0.7405785918235779
1772650353587934700,8.024934814453125,4.092923164367676,-8.811569213867188,-0.7238288521766663
1772650353597811700,8.034811767578125,4.080958843231201,-8.835497856140137,-0.7262216806411743
1772650353607689000,8.04468896484375,4.078566074371338,-8.84925651550293,-0.7070791125297546
1772650353617566000,8.05456591796875,4.104887008666992,-8.858827590942383,-0.6831508874893188
1772650353627443000,8.06444287109375,4.128815650939941,-8.884550094604492,-0.6711867451667786
1772650353637320200,8.0743203125,4.131208419799805,-8.879764556884766,-0.656829833984375
1772650353647197200,8.084197265625,4.135993957519531,-8.86780071258545,-0.6711867451667786
1772650353657074400,8.094074462890624,4.124029636383057,-8.84925651550293,-0.6687939167022705
1772650353666951400,8.103951416015626,4.097708702087402,-8.854042053222656,-0.6927221417427063
1772650353676828700,8.11382861328125,4.0426740646362305,-8.861818313598633,-0.7280163168907166
1772650353686705700,8.12370556640625,4.036093711853027,-8.892925262451172,-0.7495517134666443
1772650353696583000,8.1335830078125,4.1144585609436035,-8.844470977783203,-0.711864709854126
1772650353706460000,8.1434599609375,4.150351047515869,-8.868398666381836,-0.6783652305603027
1772650353716337200,8.153337158203126,4.109673023223877,-8.822935104370117,-0.6478567123413086
1772650353726214100,8.163214111328125,4.147958278656006,-8.82233715057373,-0.6622136831283569
1772650353736091100,8.173091064453125,4.128815650939941,-8.874979019165039,-0.6831508874893188
1772650353745968400,8.182968505859375,4.100101470947266,-8.858827590942383,-0.6879364848136902
1772650353755845400,8.192845458984374,4.085744857788086,-8.820542335510254,-0.6789634227752686
1772650353765722600,8.20272265625,4.131208419799805,-8.834898948669434,-0.6693921089172363
1772650353775599600,8.212599609375,4.100101470947266,-8.866005897521973,-0.6735795736312866
1772650353785476900,8.222476806640625,4.11206579208374,-8.885149002075195,-0.6927221417427063
1772650353795353900,8.232353759765624,4.068994998931885,-8.877969741821289,-0.6783652305603027
1772650353805231000,8.242231201171874,4.085744857788086,-8.83071231842041,-0.7046862840652466
1772650353815108000,8.252108154296875,4.121636867523193,-8.80798053741455,-0.6478567123413086
1772650353824985000,8.261985107421875,4.157529354095459,-8.805587768554688,-0.6436693072319031
1772650353834862300,8.2718623046875,4.171886444091797,-8.817551612854004,-0.6598208546638489
1772650353844739300,8.2817392578125,4.126422882080078,-8.8438720703125,-0.6502495408058167
1772650353854616600,8.291616455078126,4.128815650939941,-8.848658561706543,-0.6496513485908508
1772650353864493600,8.30149365234375,4.11924409866333,-8.84207820892334,-0.6927221417427063
1772650353874370800,8.311370849609375,4.11206579208374,-8.844470977783203,-0.7046862840652466
1772650353884247800,8.321247802734375,4.145565032958984,-8.8707914352417,-0.7238288521766663
1772650353894125000,8.331125,4.104887008666992,-8.880961418151855,-0.737587571144104
1772650353904002000,8.341001953125,4.107280254364014,-8.84506893157959,-0.7310073375701904
1772650353913879300,8.35087939453125,4.121636867523193,-8.81814956665039,-0.7076773047447205
1772650353923756300,8.36075634765625,4.143172264099121,-8.813364028930664,-0.6693921089172363
1772650353933633300,8.37063330078125,4.11924409866333,-8.83250617980957,-0.664606511592865
1772650353943510500,8.380510498046876,4.128815650939941,-8.858229637145996,-0.6616154313087463
1772650353953387800,8.3903876953125,4.047459602355957,-8.871390342712402,-0.706480860710144
1772650353963264800,8.4002646484375,4.064209461212158,-8.881559371948242,-0.7998009920120239
1772650353973141800,8.410141845703125,4.048057556152344,-8.821739196777344,-0.5162515044212341
1772650353983019000,8.42001904296875,4.222135543823242,-8.839685440063477,-0.7172485589981079
1772650353992896000,8.42989599609375,4.0905303955078125,-8.846863746643066,-0.7022934556007385
1772650354002773200,8.439773193359375,4.1383867263793945,-8.83250617980957,-0.7339983582496643
1772650354012650200,8.449650146484375,4.047459602355957,-8.8438720703125,-0.8165507316589355
1772650354022527500,8.459527587890625,4.064209461212158,-8.82532787322998,-0.6448656916618347
1772650354032404500,8.469404541015624,4.126422882080078,-8.887541770935059,-0.7166503667831421
1772650354042281500,8.479281494140626,4.030709743499756,-8.874381065368652,-0.7854440212249756
1772650354052158700,8.48915869140625,4.016352653503418,-8.835497856140137,-0.7429714202880859
1772650354062035700,8.49903564453125,4.1383867263793945,-8.8109712600708,-0.7124629616737366
1772650354071913000,8.508912841796874,4.078566074371338,-8.849854469299316,-0.7214360237121582
1772650354081790000,8.5187900390625,4.061816215515137,-8.81396198272705,-0.7022934556007385
1772650354091667200,8.528667236328126,4.080958843231201,-8.830113410949707,-0.7070791125297546
1772650354101544200,8.538544189453125,4.095914363861084,-8.911469459533691,-0.7136593461036682
1772650354111421400,8.54842138671875,4.048057556152344,-8.952147483825684,-0.6891329288482666
1772650354121298400,8.55829833984375,4.083950042724609,-8.906085968017578,-0.6514459848403931
1772650354131175700,8.56817578125,4.133601188659668,-8.8109712600708,-0.6622136831283569
1772650354141052700,8.578052734375,4.078566074371338,-8.806185722351074,-0.6909275650978088
1772650354150929700,8.5879296875,4.033102512359619,-8.811569213867188,-0.7166503667831421
1772650354160807000,8.597806884765625,4.023531436920166,-8.83370304107666,-0.7567301392555237
1772650354170684000,8.607683837890624,4.035495281219482,-8.880961418151855,-0.7423732280731201
1772650354180561200,8.61756103515625,4.036093711853027,-8.928817749023438,-0.727418065071106
1772650354190438100,8.627438232421875,4.0695929527282715,-8.918049812316895,-0.6562315821647644
1772650354200315400,8.6373154296875,4.124029636383057,-8.901300430297852,-0.6209374666213989
1772650354210192400,8.6471923828125,4.064807415008545,-8.901300430297852,-0.6729813814163208
1772650354220069400,8.6570693359375,4.092923164367676,-8.915657043457031,-0.6945167779922485
1772650354229946600,8.666946533203125,4.095315933227539,-8.877371788024902,-0.656829833984375
1772650354239823600,8.67682373046875,4.073780536651611,-8.866005897521973,-0.711864709854126
1772650354249700900,8.686700927734375,4.085744857788086,-8.854042053222656,-0.6807580590248108
1772650354259577900,8.696577880859374,4.095315933227539,-8.889934539794922,-0.6807580590248108
1772650354269455000,8.706455078125,4.076173305511475,-8.866005897521973,-0.6855437159538269
1772650354279332000,8.71633203125,4.0666022300720215,-8.86361312866211,-0.7022934556007385
1772650354289209300,8.726209228515625,4.047459602355957,-8.849854469299316,-0.714257538318634
1772650354299086300,8.73608642578125,4.033102512359619,-8.857032775878906,-0.7256234884262085
1772650354308963300,8.74596337890625,4.025924205780029,-8.823533058166504,-0.6951149702072144
1772650354318840600,8.755840576171876,4.073780536651611,-8.839685440063477,-0.6927221417427063
1772650354328717600,8.765717529296875,4.061816215515137,-8.86361312866211,-0.6903293132781982
1772650354338594800,8.7755947265625,4.076173305511475,-8.8707914352417,-0.7022934556007385
1772650354348471800,8.785471923828124,4.095315933227539,-8.900103569030762,-0.7399803996086121
1772650354358349000,8.79534912109375,4.100101470947266,-8.892925262451172,-0.7423732280731201
1772650354368226000,8.80522607421875,4.116851329803467,-8.887541770935059,-0.7280163168907166
1772650354378103300,8.815103271484375,4.11924409866333,-8.839685440063477,-0.7022934556007385
1772650354387980300,8.824980224609375,4.088137626647949,-8.830113410949707,-0.6831508874893188
1772650354397857300,8.834857177734374,4.059423446655273,-8.851649284362793,-0.6807580590248108
1772650354407734500,8.844734619140626,4.052245140075684,-8.866005897521973,-0.6975077986717224
1772650354417611500,8.854611572265625,4.043272018432617,-8.885746955871582,-0.7184450030326843
1772650354427488800,8.86448876953125,4.024129390716553,-8.888139724731445,-0.7304090857505798
1772650354437365800,8.87436572265625,4.021138668060303,-8.879166603088379,-0.768694281578064
1772650354447243000,8.884242919921874,4.018745422363281,-8.8648099899292,-0.7878368496894836
1772650354457120000,8.8941201171875,4.025924205780029,-8.84805965423584,-0.7878368496894836
1772650354466997200,8.903997314453125,4.061816215515137,-8.838488578796387,-0.7716853022575378
1772650354476874200,8.913874267578125,4.124029636383057,-8.84207820892334,-0.714257538318634
1772650354486751200,8.923751220703124,4.171886444091797,-8.85344409942627,-0.6454638838768005
1772650354496628500,8.93362841796875,4.191029071807861,-8.86780071258545,-0.631106972694397
1772650354506505500,8.94350537109375,4.145565032958984,-8.870193481445312,-0.6664010882377625
1772650354516382700,8.9533828125,4.100101470947266,-8.887541770935059,-0.7232306599617004
1772650354526259700,8.963259765625,4.05703067779541,-8.888139724731445,-0.768694281578064
1772650354536137000,8.973136962890624,4.011567115783691,-8.876773834228516,-0.8015955686569214
1772650354546014000,8.983013916015626,4.018745422363281,-8.82951545715332,-0.8093722462654114
1772650354555891000,8.992890869140625,4.04985237121582,-8.81934642791748,-0.7836494445800781
1772650354565768200,9.002768310546875,4.0833516120910645,-8.840283393859863,-0.7405785918235779
1772650354575645200,9.012645263671875,4.092923164367676,-8.887541770935059,-0.6921239495277405
1772650354585522400,9.0225224609375,4.080958843231201,-8.897112846374512,-0.6825526356697083
1772650354595399400,9.0323994140625,4.076173305511475,-8.882756233215332,-0.6945167779922485
1772650354605276700,9.042276611328125,4.080958843231201,-8.8707914352417,-0.6927221417427063
1772650354615153700,9.052153564453125,4.0833516120910645,-8.8707914352417,-0.7022934556007385
1772650354625030700,9.06203076171875,4.109673023223877,-8.834898948669434,-0.7100701332092285
1772650354634908000,9.071907958984376,4.080958843231201,-8.792427062988281,-0.7292127013206482
1772650354644785000,9.081784912109375,4.0666022300720215,-8.801998138427734,-0.7363911867141724
1772650354654662100,9.091662109375,4.068994998931885,-8.83071231842041,-0.7405785918235779
1772650354664539100,9.1015390625,4.068994998931885,-8.85224723815918,-0.7447660565376282
1772650354674416400,9.11141650390625,4.071387767791748,-8.85942554473877,-0.7495517134666443
1772650354684293400,9.12129345703125,4.080958843231201,-8.854640007019043,-0.7429714202880859
1772650354694170600,9.131170654296875,4.085744857788086,-8.857032775878906,-0.7214360237121582
1772650354704047600,9.141047607421875,4.092923164367676,-8.847461700439453,-0.7214360237121582
1772650354713924900,9.1509248046875,4.078566074371338,-8.880961418151855,-0.7184450030326843
1772650354723801900,9.1608017578125,4.018745422363281,-8.888139724731445,-0.7232306599617004
1772650354733678800,9.170678955078126,4.145565032958984,-8.901300430297852,-0.6903293132781982
1772650354743556000,9.18055615234375,4.102494239807129,-8.865407943725586,-0.6520441770553589
1772650354753433000,9.19043310546875,4.1383867263793945,-8.83669376373291,-0.6622136831283569
1772650354763310300,9.200310302734374,4.109673023223877,-8.8109712600708,-0.6861419081687927
1772650354773187300,9.210187255859376,4.085744857788086,-8.806783676147461,-0.7124629616737366
1772650354783064300,9.220064208984375,4.047459602355957,-8.833105087280273,-0.747757077217102
1772650354792941600,9.229941650390625,4.001996040344238,-8.85763168334961,-0.7806583642959595
1772650354802818600,9.239818603515625,3.9828531742095947,-8.86780071258545,-0.7992027401924133
1772650354812695800,9.24969580078125,4.018745422363281,-8.883354187011719,-0.768694281578064
1772650354822572800,9.25957275390625,4.0666022300720215,-8.86660385131836,-0.7357929348945618
1772650354832450000,9.269449951171875,4.102494239807129,-8.858827590942383,-0.6975077986717224
1772650354842327000,9.2793271484375,4.116851329803467,-8.866005897521973,-0.6903293132781982
1772650354852204300,9.289204345703125,4.109673023223877,-8.873184204101562,-0.6807580590248108
1772650354862081300,9.299081298828124,4.102494239807129,-8.894720077514648,-0.6879364848136902
1772650354871958300,9.308958251953126,4.067200183868408,-8.921041488647461,-0.6897311210632324
1772650354881835500,9.31883544921875,4.059423446655273,-8.894720077514648,-0.7016952633857727
1772650354891712500,9.32871240234375,4.068994998931885,-8.861818313598633,-0.7094719409942627
1772650354901589800,9.33858984375,4.080958843231201,-8.816354751586914,-0.7148557901382446
1772650354911466800,9.348466796875,4.107280254364014,-8.796614646911621,-0.7052844762802124
1772650354921343700,9.35834375,4.05703067779541,-8.790034294128418,-0.7052844762802124
1772650354931221000,9.368220947265625,4.097708702087402,-8.804390907287598,-0.7268198728561401
1772650354941098000,9.378097900390625,4.080958843231201,-8.861220359802246,-0.6879364848136902
1772650354950975200,9.387975341796874,4.104887008666992,-8.903693199157715,-0.6681957244873047
1772650354960852200,9.397852294921876,4.100101470947266,-8.887541770935059,-0.6735795736312866
1772650354970729500,9.4077294921875,4.085744857788086,-8.879764556884766,-0.6472585201263428
1772650354980606500,9.4176064453125,4.116851329803467,-8.891729354858398,-0.6658028960227966
1772650354990483700,9.427483642578125,4.107280254364014,-8.880363464355469,-0.6735795736312866
1772650355000360700,9.437360595703124,4.080958843231201,-8.799605369567871,-0.7004988193511963
1772650355010237700,9.44723779296875,4.0905303955078125,-8.825926780700684,-0.745364248752594
1772650355020115000,9.457114990234375,4.100101470947266,-8.842676162719727,-0.7214360237121582
1772650355029992000,9.466991943359375,4.124029636383057,-8.811569213867188,-0.7148557901382446
1772650355039869200,9.476869140625,4.085744857788086,-8.846863746643066,-0.6951149702072144
1772650355049746200,9.48674609375,4.095315933227539,-8.882756233215332,-0.711864709854126
1772650355059623200,9.496623046875,4.05703067779541,-8.892327308654785,-0.7160521745681763
1772650355069500400,9.50650048828125,4.104887008666992,-8.8707914352417,-0.6711867451667786
1772650355079377400,9.51637744140625,4.073780536651611,-8.861818313598633,-0.7094719409942627
1772650355089254700,9.526254638671874,4.097708702087402,-8.85224723815918,-0.7286145091056824
1772650355099131600,9.536131591796876,4.128815650939941,-8.83250617980957,-0.7124629616737366
1772650355109009000,9.5460087890625,4.161716938018799,-8.83250617980957,-0.7124629616737366
1772650355118886000,9.555885986328125,4.156930923461914,-8.820542335510254,-0.6885347366333008
1772650355128763100,9.56576318359375,4.149752616882324,-8.806185722351074,-0.6789634227752686
1772650355138640100,9.57564013671875,4.145565032958984,-8.83250617980957,-0.6717849373817444
1772650355148517000,9.58551708984375,4.147958278656006,-8.841479301452637,-0.6765705943107605
1772650355158394400,9.595394287109375,4.150351047515869,-8.858827590942383,-0.6999006271362305
1772650355168271400,9.605271240234375,4.126422882080078,-8.84207820892334,-0.7166503667831421
1772650355178148600,9.615148681640624,4.109673023223877,-8.85224723815918,-0.7573283910751343
1772650355188025600,9.625025634765626,4.092923164367676,-8.85942554473877,-0.7663014531135559
1772650355197902600,9.634902587890625,4.080958843231201,-8.854640007019043,-0.7501499056816101
1772650355207779800,9.64477978515625,4.080958843231201,-8.837890625,-0.7429714202880859
1772650355217656800,9.65465673828125,4.097708702087402,-8.823533058166504,-0.7286145091056824
1772650355227534000,9.6645341796875,4.143172264099121,-8.827720642089844,-0.6813562512397766
1772650355237411000,9.6744111328125,4.171886444091797,-8.8438720703125,-0.6717849373817444
1772650355247288000,9.6842880859375,4.147958278656006,-8.830113410949707,-0.6789634227752686
1772650355257165300,9.694165283203125,4.1282172203063965,-8.813364028930664,-0.7100701332092285
1772650355267042300,9.704042236328124,4.1282172203063965,-8.82114028930664,-0.7292127013206482
1772650355276919600,9.71391943359375,4.089931964874268,-8.807381629943848,-0.7573283910751343
1772650355286796500,9.723796630859376,4.077968120574951,-8.809774398803711,-0.7740781307220459
1772650355296673800,9.733673828125,4.064209461212158,-8.81934642791748,-0.7549355626106262
1772650355306550800,9.74355078125,4.064209461212158,-8.842676162719727,-0.7645068168640137
1772650355316428000,9.753427978515624,4.068994998931885,-8.880961418151855,-0.7471588850021362
1772650355326305000,9.763304931640626,4.0905303955078125,-8.894720077514648,-0.7256234884262085
1772650355336182000,9.77318212890625,4.128815650939941,-8.909076690673828,-0.7088736891746521
1772650355346059300,9.783059326171875,4.145565032958984,-8.904291152954102,-0.6951149702072144
1772650355355936300,9.792936279296875,4.157529354095459,-8.870193481445312,-0.6783652305603027
1772650355365813500,9.8028134765625,4.1760735511779785,-8.817551612854004,-0.664606511592865
1772650355375690500,9.8126904296875,4.161716938018799,-8.80798053741455,-0.6526423692703247
1772650355385567500,9.8225673828125,4.156930923461914,-8.796015739440918,-0.6460621356964111
1772650355395444700,9.83244482421875,4.171288013458252,-8.787042617797852,-0.6771687865257263
1772650355405321700,9.84232177734375,4.0803608894348145,-8.790034294128418,-0.722034215927124
1772650355415199000,9.852198974609376,4.137788772583008,-8.816354751586914,-0.7698906660079956
1772650355425076000,9.862075927734375,4.135395526885986,-8.835497856140137,-0.7501499056816101
1772650355434953000,9.871952880859375,4.11924409866333,-8.84506893157959,-0.7621139883995056
1772650355444830200,9.881830322265625,4.099503517150879,-8.836095809936523,-0.7860422134399414
1772650355454707200,9.891707275390624,4.116851329803467,-8.85763168334961,-0.7908278703689575
1772650355464584400,9.90158447265625,4.131208419799805,-8.880961418151855,-0.7495517134666443
1772650355474461400,9.91146142578125,4.133601188659668,-8.868997573852539,-0.745364248752594
1772650355484338400,9.92133837890625,4.169493675231934,-8.8707914352417,-0.7094719409942627
1772650355494215700,9.931215576171875,4.152743816375732,-8.82532787322998,-0.6717849373817444
1772650355504092700,9.9410927734375,4.157529354095459,-8.84207820892334,-0.6861419081687927
1772650355513970000,9.950969970703126,4.176671981811523,-8.8438720703125,-0.6550351977348328
1772650355523847000,9.960846923828125,4.150351047515869,-8.841479301452637,-0.6693921089172363
1772650355533724200,9.97072412109375,4.037888050079346,-8.816953659057617,-0.7645068168640137
1772650355543601200,9.98060107421875,4.147359848022461,-8.799605369567871,-0.7770691514015198
1772650355553478100,9.99047802734375,4.097110748291016,-8.802596092224121,-0.7770691514015198
1772650355563355400,10.00035546875,4.099503517150879,-8.771489143371582,-0.7651050686836243
1772650355573232400,10.010232421875,4.106681823730469,-8.761320114135742,-0.7345965504646301
1772650355583109600,10.020109619140625,4.12343168258667,-8.768498420715332,-0.7507480978965759
1772650355592986600,10.029986572265624,4.150351047515869,-8.828319549560547,-0.7387840151786804
1772650355602863900,10.03986376953125,4.097708702087402,-8.849854469299316,-0.745364248752594
1772650355612740900,10.049740966796875,4.167100429534912,-8.844470977783203,-0.7004988193511963
1772650355622617900,10.059617919921875,4.25084924697876,-8.836095809936523,-0.641276478767395
