time,seconds_elapsed,z,y,x
1772655992932168700,0.015168701171875,-1.001251220703125,-0.016845703125,-0.00726318359375
1772655992942151000,0.02515087890625,-1.00006103515625,-0.0166778564453125,-0.007293701171875
1772655992952133600,0.035133544921875,-0.9965972900390625,-0.0163421630859375,-0.00799560546875
1772655992962115800,0.04511572265625,-0.9974212646484375,-0.0163116455078125,-0.0076141357421875
1772655992972097500,0.05509765625,-1.0005035400390625,-0.0173797607421875,-0.0076141357421875
1772655992982079700,0.065079833984375,-1.000579833984375,-0.0176239013671875,-0.0072784423828125
1772655992992062700,0.075062744140625,-0.998199462890625,-0.0157470703125,-0.0079803466796875
1772655993002044700,0.085044677734375,-0.99847412109375,-0.015869140625,-0.0078125
1772655993012027000,0.09502685546875,-0.999847412109375,-0.0167694091796875,-0.007537841796875
1772655993022008600,0.105008544921875,-0.9988861083984375,-0.01678466796875,-0.0073089599609375
1772655993031990800,0.11499072265625,-0.998504638671875,-0.0157623291015625,-0.0071563720703125
1772655993041973800,0.124973876953125,-0.998687744140625,-0.01544189453125,-0.0073699951171875
1772655993051955700,0.134955810546875,-1.0000457763671875,-0.01666259765625,-0.0069580078125
1772655993061938000,0.14493798828125,-0.9998016357421875,-0.016265869140625,-0.0072174072265625
1772655993071919600,0.154919677734375,-0.9981231689453125,-0.0162200927734375,-0.0072784423828125
1772655993081902800,0.16490283203125,-0.99896240234375,-0.0155181884765625,-0.0071258544921875
1772655993091884500,0.174884521484375,-0.99847412109375,-0.0168304443359375,-0.007232666015625
1772655993101866800,0.18486669921875,-0.9998779296875,-0.016510009765625,-0.00811767578125
1772655993111848700,0.1948486328125,-0.9985504150390625,-0.0164031982421875,-0.0072174072265625
1772655993121830700,0.20483056640625,-0.998443603515625,-0.017242431640625,-0.0076446533203125
1772655993131814000,0.21481396484375,-0.99981689453125,-0.016265869140625,-0.0069732666015625
1772655993141795600,0.224795654296875,-0.999359130859375,-0.0164337158203125,-0.0068206787109375
1772655993151777800,0.23477783203125,-0.9993743896484375,-0.0162811279296875,-0.007904052734375
1772655993161759500,0.244759521484375,-0.99932861328125,-0.016387939453125,-0.0076751708984375
1772655993171742700,0.25474267578125,-0.99981689453125,-0.0167694091796875,-0.00732421875
1772655993181724700,0.264724609375,-0.99951171875,-0.01654052734375,-0.0068817138671875
1772655993191706600,0.27470654296875,-1.0001068115234375,-0.016845703125,-0.007110595703125
1772655993201688800,0.284688720703125,-0.999053955078125,-0.016357421875,-0.0084075927734375
1772655993211670500,0.29467041015625,-0.999420166015625,-0.0162811279296875,-0.0075531005859375
1772655993221653800,0.30465380859375,-0.99951171875,-0.0166778564453125,-0.0069427490234375
1772655993231635700,0.3146357421875,-0.9986114501953125,-0.0161895751953125,-0.00738525390625
1772655993241617700,0.32461767578125,-1.0004119873046875,-0.0158538818359375,-0.0071258544921875
1772655993251600000,0.334599853515625,-0.9998626708984375,-0.0168609619140625,-0.0069427490234375
1772655993261582600,0.34458251953125,-0.9984130859375,-0.016754150390625,-0.007080078125
1772655993271564800,0.354564697265625,-0.9989166259765625,-0.0157470703125,-0.00775146484375
1772655993281546800,0.364546630859375,-0.998504638671875,-0.0162506103515625,-0.0081634521484375
1772655993291528700,0.37452880859375,-0.999298095703125,-0.0159149169921875,-0.0078125
1772655993301511000,0.384510986328125,-0.9987640380859375,-0.0160369873046875,-0.00677490234375
1772655993311493600,0.39449365234375,-0.998626708984375,-0.0173797607421875,-0.00689697265625
1772655993321475800,0.404475830078125,-0.9987945556640625,-0.0169677734375,-0.0072479248046875
1772655993331457500,0.41445751953125,-0.9997406005859375,-0.016845703125,-0.0073699951171875
1772655993341439700,0.424439697265625,-0.9991455078125,-0.01617431640625,-0.0076141357421875
1772655993351422700,0.434422607421875,-0.99896240234375,-0.0171661376953125,-0.0075225830078125
1772655993361404700,0.44440478515625,-0.9989776611328125,-0.0161590576171875,-0.0081329345703125
1772655993371387000,0.454386962890625,-0.9984893798828125,-0.016082763671875,-0.00726318359375
1772655993381368600,0.46436865234375,-0.99871826171875,-0.017059326171875,-0.0067596435546875
1772655993391350800,0.474350830078125,-0.9995269775390625,-0.0166473388671875,-0.007080078125
1772655993401333800,0.484333740234375,-0.99951171875,-0.0170135498046875,-0.006744384765625
1772655993411315700,0.494315673828125,-1.000274658203125,-0.0159912109375,-0.0069122314453125
1772655993421297700,0.504297607421875,-0.9993438720703125,-0.017486572265625,-0.00665283203125
1772655993431279600,0.514279541015625,-0.999267578125,-0.01739501953125,-0.0070953369140625
1772655993441262800,0.524262939453125,-0.9998626708984375,-0.0173187255859375,-0.0068206787109375
1772655993451244800,0.534244873046875,-1.0000152587890625,-0.01641845703125,-0.007720947265625
1772655993461226800,0.544226806640625,-0.9990081787109375,-0.0169677734375,-0.00689697265625
1772655993471208700,0.554208740234375,-0.9990692138671875,-0.0168609619140625,-0.0077972412109375
1772655993481191700,0.564191650390625,-0.9989166259765625,-0.016143798828125,-0.0081024169921875
1772655993491173600,0.574173583984375,-0.9993743896484375,-0.0166473388671875,-0.00689697265625
1772655993501155600,0.584155517578125,-0.999603271484375,-0.0165557861328125,-0.0074005126953125
1772655993511137800,0.5941376953125,-0.99884033203125,-0.01617431640625,-0.0076141357421875
1772655993521119500,0.604119384765625,-0.99908447265625,-0.0166168212890625,-0.0084991455078125
1772655993531102700,0.614102783203125,-0.99884033203125,-0.017120361328125,-0.0073699951171875
1772655993541084700,0.624084716796875,-0.99908447265625,-0.0166168212890625,-0.0076446533203125
1772655993551066600,0.634066650390625,-0.99853515625,-0.0169219970703125,-0.0080413818359375
1772655993561048800,0.644048828125,-0.9998779296875,-0.0163116455078125,-0.0077056884765625
1772655993571031800,0.65403173828125,-0.9996490478515625,-0.016754150390625,-0.0079193115234375
1772655993581013800,0.664013671875,-0.9984893798828125,-0.0164794921875,-0.0079193115234375
1772655993590995700,0.67399560546875,-1.000396728515625,-0.0161285400390625,-0.007171630859375
1772655993600977700,0.683977783203125,-0.9993743896484375,-0.017333984375,-0.0078125
1772655993610960000,0.6939599609375,-0.9985809326171875,-0.017364501953125,-0.0072784423828125
1772655993620942800,0.70394287109375,-0.9995269775390625,-0.0164031982421875,-0.00787353515625
1772655993630924800,0.7139248046875,-0.99871826171875,-0.016082763671875,-0.007171630859375
1772655993640906800,0.72390673828125,-0.9985504150390625,-0.016845703125,-0.007110595703125
1772655993650888700,0.733888671875,-0.9991302490234375,-0.0167236328125,-0.0082244873046875
1772655993660871700,0.74387158203125,-0.9996337890625,-0.017120361328125,-0.00775146484375
1772655993670853600,0.753853515625,-0.999114990234375,-0.0164947509765625,-0.0073089599609375
1772655993680835800,0.7638359375,-0.9994049072265625,-0.0166473388671875,-0.007110595703125
1772655993690817500,0.773817626953125,-0.998931884765625,-0.015777587890625,-0.006805419921875
1772655993700800800,0.78380078125,-0.99853515625,-0.0164947509765625,-0.0072784423828125
1772655993710782700,0.79378271484375,-0.9994659423828125,-0.016143798828125,-0.0076751708984375
1772655993720764700,0.8037646484375,-0.999267578125,-0.0161895751953125,-0.007598876953125
1772655993730746600,0.81374658203125,-0.9986572265625,-0.0168304443359375,-0.00714111328125
1772655993740728600,0.823728515625,-0.9987030029296875,-0.0155181884765625,-0.00775146484375
1772655993750711600,0.833711669921875,-0.9981536865234375,-0.017120361328125,-0.0084991455078125
1772655993760693800,0.84369384765625,-0.9996185302734375,-0.0179595947265625,-0.0077667236328125
1772655993770675700,0.85367578125,-1.0000762939453125,-0.0171051025390625,-0.007568359375
1772655993780657700,0.86365771484375,-0.999481201171875,-0.0163726806640625,-0.0074615478515625
1772655993790641000,0.873640869140625,-0.9980316162109375,-0.0164794921875,-0.007843017578125
1772655993800622600,0.88362255859375,-0.998870849609375,-0.0159912109375,-0.0075225830078125
1772655993810604800,0.893604736328125,-0.9991302490234375,-0.0165252685546875,-0.0069732666015625
1772655993820586800,0.903586669921875,-0.9997406005859375,-0.01629638671875,-0.00762939453125
1772655993830569700,0.91356982421875,-0.9982757568359375,-0.0170745849609375,-0.00701904296875
1772655993840551700,0.9235517578125,-0.9987640380859375,-0.0164642333984375,-0.0072784423828125
1772655993850533600,0.93353369140625,-0.999176025390625,-0.01666259765625,-0.0072479248046875
1772655993860515600,0.943515625,-0.9988861083984375,-0.0166778564453125,-0.008209228515625
1772655993870497800,0.953497802734375,-0.9981536865234375,-0.0163421630859375,-0.0075836181640625
1772655993880480800,0.963480712890625,-0.998931884765625,-0.01702880859375,-0.00665283203125
1772655993890462700,0.973462646484375,-0.9999847412109375,-0.0152740478515625,-0.00830078125
1772655993900444700,0.983444580078125,-0.9980621337890625,-0.0172576904296875,-0.00775146484375
1772655993910426600,0.993426513671875,-0.998809814453125,-0.0166473388671875,-0.008453369140625
1772655993920409600,1.00340966796875,-1.0006561279296875,-0.01702880859375,-0.0077667236328125
1772655993930391800,1.013391845703125,-1.000885009765625,-0.0166168212890625,-0.00726318359375
1772655993940373800,1.023373779296875,-0.9995574951171875,-0.01629638671875,-0.00665283203125
1772655993950355700,1.033355712890625,-0.9987335205078125,-0.0165863037109375,-0.00732421875
1772655993960337700,1.043337646484375,-0.9988861083984375,-0.0162353515625,-0.008331298828125
1772655993970320600,1.053320556640625,-0.999298095703125,-0.016632080078125,-0.0072174072265625
1772655993980302800,1.063302734375,-0.9979248046875,-0.0164031982421875,-0.0077972412109375
1772655993990284800,1.073284912109375,-0.9983978271484375,-0.0163116455078125,-0.00836181640625
1772655994000266800,1.083266845703125,-0.998809814453125,-0.016815185546875,-0.0079803466796875
1772655994010249700,1.093249755859375,-0.99951171875,-0.0166168212890625,-0.00787353515625
1772655994020231700,1.103231689453125,-0.9993438720703125,-0.01641845703125,-0.00762939453125
1772655994030213600,1.113213623046875,-0.998809814453125,-0.016357421875,-0.007537841796875
1772655994040195600,1.123195556640625,-1.00018310546875,-0.0163116455078125,-0.007171630859375
1772655994050178800,1.1331787109375,-0.9995269775390625,-0.0160980224609375,-0.0069580078125
1772655994060160500,1.143160400390625,-0.999542236328125,-0.016448974609375,-0.00628662109375
1772655994070142700,1.153142822265625,-0.9983062744140625,-0.01617431640625,-0.0073699951171875
1772655994080124700,1.163124755859375,-0.9986572265625,-0.0154876708984375,-0.007049560546875
1772655994090106600,1.173106689453125,-0.998992919921875,-0.01629638671875,-0.0076904296875
1772655994100089900,1.18308984375,-0.998016357421875,-0.0139617919921875,-0.0006103515625
1772655994110071600,1.193071533203125,-1.0023040771484375,-0.0208740234375,-0.0162506103515625
1772655994120053800,1.2030537109375,-0.99603271484375,-0.0135955810546875,-0.0032806396484375
1772655994130035700,1.21303564453125,-0.996612548828125,-0.0164337158203125,-0.0081024169921875
1772655994140018700,1.223018798828125,-1.00262451171875,-0.017425537109375,-0.0072021484375
1772655994150001000,1.2330009765625,-0.998931884765625,-0.016876220703125,-0.0066986083984375
1772655994159982600,1.242982666015625,-0.9972381591796875,-0.0160369873046875,-0.007171630859375
1772655994169964800,1.25296484375,-0.99896240234375,-0.016448974609375,-0.00714111328125
1772655994179947500,1.262947509765625,-1.0006561279296875,-0.01666259765625,-0.00750732421875
1772655994189929700,1.2729296875,-0.99896240234375,-0.0160980224609375,-0.007843017578125
1772655994199911700,1.28291162109375,-0.997955322265625,-0.0157470703125,-0.0076446533203125
1772655994209893600,1.2928935546875,-0.997772216796875,-0.0169219970703125,-0.0080108642578125
1772655994219875800,1.302875732421875,-0.9992523193359375,-0.01690673828125,-0.0073089599609375
1772655994229858600,1.312858642578125,-0.99859619140625,-0.0166015625,-0.0072784423828125
1772655994239840800,1.3228408203125,-0.9991607666015625,-0.0159454345703125,-0.0075531005859375
1772655994249822700,1.33282275390625,-1.0006256103515625,-0.0174407958984375,-0.0070648193359375
1772655994259804700,1.3428046875,-1.0005950927734375,-0.017608642578125,-0.00726318359375
1772655994269788000,1.352787841796875,-0.9991302490234375,-0.0172271728515625,-0.0070343017578125
1772655994279769600,1.36276953125,-0.9988555908203125,-0.0163726806640625,-0.007080078125
1772655994289751800,1.372751708984375,-0.999420166015625,-0.0166778564453125,-0.006866455078125
1772655994299733800,1.382733642578125,-1.0002593994140625,-0.0165252685546875,-0.0079345703125
1772655994309716700,1.392716796875,-0.9983978271484375,-0.016265869140625,-0.0081939697265625
1772655994319698700,1.40269873046875,-0.99847412109375,-0.0163116455078125,-0.007568359375
1772655994329680600,1.4126806640625,-0.99945068359375,-0.0163421630859375,-0.0079803466796875
1772655994339662800,1.422662841796875,-0.998504638671875,-0.0159149169921875,-0.008148193359375
1772655994349644500,1.43264453125,-0.99835205078125,-0.0167694091796875,-0.008575439453125
1772655994359627800,1.442627685546875,-0.9983367919921875,-0.01727294921875,-0.0086212158203125
1772655994369609500,1.452609375,-0.998321533203125,-0.0158538818359375,-0.0081329345703125
1772655994379591700,1.462591796875,-0.9992523193359375,-0.0168914794921875,-0.0075836181640625
1772655994389574000,1.472573974609375,-0.998504638671875,-0.0162353515625,-0.0079345703125
1772655994399556600,1.482556640625,-0.9990692138671875,-0.0161895751953125,-0.006744384765625
1772655994409538800,1.492538818359375,-0.9991912841796875,-0.0171356201171875,-0.0069732666015625
1772655994419520500,1.5025205078125,-0.9978485107421875,-0.016357421875,-0.00787353515625
1772655994429502700,1.512502685546875,-0.9979095458984375,-0.015350341796875,-0.00836181640625
1772655994439485700,1.522485595703125,-0.99920654296875,-0.0157928466796875,-0.007110595703125
1772655994449467600,1.532467529296875,-0.9997406005859375,-0.0163726806640625,-0.0075836181640625
1772655994459449900,1.542449951171875,-0.9998931884765625,-0.0164337158203125,-0.0076141357421875
1772655994469431600,1.552431640625,-1.000244140625,-0.016876220703125,-0.0080718994140625
1772655994479413800,1.562413818359375,-0.9998016357421875,-0.016387939453125,-0.0066375732421875
1772655994489396700,1.572396728515625,-0.998931884765625,-0.016387939453125,-0.007354736328125
1772655994499378700,1.582378662109375,-0.9989471435546875,-0.016571044921875,-0.0071563720703125
1772655994509361000,1.59236083984375,-0.9988555908203125,-0.0169525146484375,-0.00732421875
1772655994519342600,1.602342529296875,-0.9990386962890625,-0.0162353515625,-0.0075836181640625
1772655994529325800,1.612325927734375,-0.998931884765625,-0.016204833984375,-0.0079498291015625
1772655994539307500,1.6223076171875,-0.997650146484375,-0.0170440673828125,-0.0077362060546875
1772655994549289700,1.632289794921875,-0.99908447265625,-0.0164031982421875,-0.00750732421875
1772655994559272000,1.64227197265625,-1.0001373291015625,-0.01641845703125,-0.007537841796875
1772655994569254700,1.652254638671875,-1.0011138916015625,-0.016357421875,-0.0070953369140625
1772655994579236900,1.66223681640625,-0.9998321533203125,-0.0162200927734375,-0.0078125
1772655994589218600,1.672218505859375,-0.9981536865234375,-0.016143798828125,-0.0068511962890625
1772655994599200800,1.68220068359375,-0.9989013671875,-0.016693115234375,-0.0066375732421875
1772655994609182700,1.6921826171875,-0.998626708984375,-0.0155792236328125,-0.0069732666015625
1772655994619165700,1.702165771484375,-0.998626708984375,-0.0167694091796875,-0.0079345703125
1772655994629147600,1.712147705078125,-0.9989166259765625,-0.0166473388671875,-0.0074005126953125
1772655994639129600,1.722129638671875,-0.9986419677734375,-0.0164642333984375,-0.0079803466796875
1772655994649111800,1.73211181640625,-0.9992523193359375,-0.01678466796875,-0.0073394775390625
1772655994659094800,1.7420947265625,-1.000152587890625,-0.016815185546875,-0.0075225830078125
1772655994669076700,1.75207666015625,-0.999481201171875,-0.016448974609375,-0.00714111328125
1772655994679058700,1.76205859375,-0.99981689453125,-0.016845703125,-0.0074462890625
1772655994689040600,1.77204052734375,-0.999664306640625,-0.0162353515625,-0.0072174072265625
1772655994699023600,1.782023681640625,-0.99932861328125,-0.0165557861328125,-0.0072021484375
1772655994709005600,1.792005615234375,-0.999664306640625,-0.01611328125,-0.0072174072265625
1772655994718987800,1.80198779296875,-0.9999542236328125,-0.016571044921875,-0.0068206787109375
1772655994728969700,1.8119697265625,-0.999176025390625,-0.016876220703125,-0.0071258544921875
1772655994738952700,1.82195263671875,-0.9988250732421875,-0.0169219970703125,-0.00714111328125
1772655994748934700,1.8319345703125,-0.9996337890625,-0.01690673828125,-0.00726318359375
1772655994758916600,1.84191650390625,-0.99920654296875,-0.0167388916015625,-0.007354736328125
1772655994768898800,1.85189892578125,-0.9988555908203125,-0.0161590576171875,-0.0075225830078125
1772655994778880500,1.861880615234375,-0.998443603515625,-0.015655517578125,-0.007080078125
1772655994788863700,1.87186376953125,-0.998626708984375,-0.016265869140625,-0.0078277587890625
1772655994798845200,1.88184521484375,-0.999359130859375,-0.01654052734375,-0.00836181640625
1772655994808827400,1.891827392578125,-0.999298095703125,-0.0167388916015625,-0.0074005126953125
1772655994818809300,1.901809326171875,-0.9984130859375,-0.0161285400390625,-0.008056640625
1772655994828792300,1.911792236328125,-0.9990692138671875,-0.0166473388671875,-0.007720947265625
1772655994838774300,1.921774169921875,-0.9990081787109375,-0.0164947509765625,-0.0082244873046875
1772655994848756200,1.931756103515625,-0.999725341796875,-0.0173797607421875,-0.007080078125
1772655994858738200,1.94173828125,-0.9994354248046875,-0.016204833984375,-0.007659912109375
1772655994868721200,1.95172119140625,-0.999267578125,-0.016632080078125,-0.007720947265625
1772655994878703400,1.961703369140625,-0.9980621337890625,-0.017333984375,-0.00799560546875
1772655994888685300,1.971685302734375,-0.9986419677734375,-0.0168609619140625,-0.007354736328125
1772655994898667300,1.981667236328125,-0.99951171875,-0.0166473388671875,-0.0074462890625
1772655994908650500,1.991650390625,-0.9982757568359375,-0.0164642333984375,-0.00775146484375
1772655994918632200,2.001632080078125,-0.9993743896484375,-0.017242431640625,-0.00732421875
1772655994928614400,2.011614501953125,-0.9998779296875,-0.016448974609375,-0.006591796875
1772655994938596400,2.021596435546875,-0.9998626708984375,-0.0161895751953125,-0.0082244873046875
1772655994948578300,2.031578369140625,-0.99853515625,-0.0175628662109375,-0.0082244873046875
1772655994958561300,2.041561279296875,-0.999664306640625,-0.017486572265625,-0.00823974609375
1772655994968543200,2.051543212890625,-0.9989166259765625,-0.01666259765625,-0.0076751708984375
1772655994978525400,2.061525390625,-0.9990386962890625,-0.016937255859375,-0.0074615478515625
1772655994988507400,2.07150732421875,-0.9988555908203125,-0.0165863037109375,-0.0073699951171875
1772655994998490400,2.081490478515625,-0.9995269775390625,-0.016326904296875,-0.0072479248046875
1772655995008472300,2.091472412109375,-0.999847412109375,-0.016326904296875,-0.0068511962890625
1772655995018454300,2.101454345703125,-0.9990234375,-0.0172882080078125,-0.007232666015625
1772655995028436200,2.111436279296875,-0.999298095703125,-0.016754150390625,-0.008392333984375
1772655995038419200,2.121419189453125,-0.999267578125,-0.0164642333984375,-0.007415771484375
1772655995048401400,2.1314013671875,-0.9995269775390625,-0.016448974609375,-0.00714111328125
1772655995058383000,2.141383056640625,-0.999114990234375,-0.0163421630859375,-0.007415771484375
1772655995068365300,2.151365234375,-0.99896240234375,-0.016632080078125,-0.0063018798828125
1772655995078348300,2.161348388671875,-0.9996795654296875,-0.0167388916015625,-0.007232666015625
1772655995088330200,2.171330322265625,-0.999481201171875,-0.0168304443359375,-0.0071258544921875
1772655995098312400,2.1813125,-0.9993438720703125,-0.0166015625,-0.0077362060546875
1772655995108294100,2.191294189453125,-0.9997406005859375,-0.016265869140625,-0.0073089599609375
1772655995118277400,2.20127734375,-0.999542236328125,-0.0161590576171875,-0.0074462890625
1772655995128259000,2.211259033203125,-0.9996185302734375,-0.0169677734375,-0.0079803466796875
1772655995138241300,2.2212412109375,-0.9989013671875,-0.0167083740234375,-0.007171630859375
1772655995148223500,2.231223388671875,-0.998870849609375,-0.01654052734375,-0.0072174072265625
1772655995158206200,2.241206298828125,-0.9998779296875,-0.0168609619140625,-0.0071868896484375
1772655995168188400,2.2511884765625,-0.9992828369140625,-0.01641845703125,-0.0078277587890625
1772655995178170000,2.261170166015625,-0.9996795654296875,-0.016265869140625,-0.007415771484375
1772655995188152300,2.27115234375,-0.9988861083984375,-0.015777587890625,-0.00750732421875
1772655995198134300,2.28113427734375,-1.001220703125,-0.0167083740234375,-0.0075225830078125
1772655995208117200,2.2911171875,-0.9989776611328125,-0.01641845703125,-0.0075225830078125
1772655995218099500,2.301099365234375,-0.9976043701171875,-0.0169219970703125,-0.0074462890625
1772655995228081200,2.3110810546875,-0.9993743896484375,-0.0164031982421875,-0.0074310302734375
1772655995238063400,2.3210634765625,-0.9984130859375,-0.0162353515625,-0.006744384765625
1772655995248046300,2.33104638671875,-0.9990692138671875,-0.0166473388671875,-0.006561279296875
1772655995258028300,2.3410283203125,-0.9993438720703125,-0.0166473388671875,-0.00640869140625
1772655995268010500,2.351010498046875,-0.99932861328125,-0.0163421630859375,-0.006622314453125
1772655995277992200,2.3609921875,-0.9983367919921875,-0.016876220703125,-0.007354736328125
1772655995287975400,2.370975341796875,-0.99853515625,-0.0164947509765625,-0.0071868896484375
1772655995297957000,2.38095703125,-0.9986114501953125,-0.0168609619140625,-0.007293701171875
1772655995307939300,2.390939208984375,-0.9991912841796875,-0.01580810546875,-0.00775146484375
1772655995317921300,2.40092138671875,-0.99847412109375,-0.0162353515625,-0.006988525390625
1772655995327904300,2.410904296875,-0.998779296875,-0.01678466796875,-0.006866455078125
1772655995337886200,2.42088623046875,-0.999755859375,-0.0167694091796875,-0.0076904296875
1772655995347868200,2.4308681640625,-0.9991455078125,-0.0166778564453125,-0.0072784423828125
1772655995357850400,2.440850341796875,-0.9989471435546875,-0.017059326171875,-0.006866455078125
1772655995367833300,2.450833251953125,-0.9993896484375,-0.0169677734375,-0.0076904296875
1772655995377815300,2.460815185546875,-0.9989776611328125,-0.0171356201171875,-0.0071258544921875
1772655995387797200,2.47079736328125,-0.9991455078125,-0.0157623291015625,-0.0072784423828125
1772655995397779200,2.480779296875,-0.9988555908203125,-0.0166168212890625,-0.00701904296875
1772655995407762200,2.49076220703125,-1,-0.0167999267578125,-0.0074310302734375
1772655995417744400,2.500744384765625,-0.99859619140625,-0.016571044921875,-0.0067291259765625
1772655995427726300,2.510726318359375,-0.997894287109375,-0.0170440673828125,-0.0074615478515625
1772655995437708300,2.520708251953125,-0.998291015625,-0.016204833984375,-0.007354736328125
1772655995447690200,2.530690185546875,-0.99993896484375,-0.016937255859375,-0.007537841796875
1772655995457673200,2.540673095703125,-0.9983367919921875,-0.0171966552734375,-0.0077972412109375
1772655995467655200,2.5506552734375,-0.9986114501953125,-0.01580810546875,-0.0079498291015625
1772655995477637400,2.560637451171875,-0.9999542236328125,-0.0166168212890625,-0.007476806640625
1772655995487619300,2.570619384765625,-1.0000457763671875,-0.01678466796875,-0.0075531005859375
1772655995497602300,2.580602294921875,-0.9991455078125,-0.01666259765625,-0.007598876953125
1772655995507584300,2.590584228515625,-0.9997711181640625,-0.016571044921875,-0.00726318359375
1772655995517566200,2.600566162109375,-1.000762939453125,-0.0164947509765625,-0.00677490234375
1772655995527548400,2.61054833984375,-0.9993743896484375,-0.015960693359375,-0.00714111328125
1772655995537531400,2.620531494140625,-0.9994354248046875,-0.0167388916015625,-0.007904052734375
1772655995547513300,2.630513427734375,-1.000152587890625,-0.0169677734375,-0.0074920654296875
1772655995557495300,2.640495361328125,-0.9990692138671875,-0.0167999267578125,-0.008209228515625
1772655995567477200,2.650477294921875,-0.998992919921875,-0.016571044921875,-0.0075531005859375
1772655995577460200,2.660460205078125,-0.9986419677734375,-0.0163726806640625,-0.007598876953125
1772655995587442400,2.6704423828125,-0.99749755859375,-0.016021728515625,-0.00726318359375
1772655995597424400,2.68042431640625,-0.9993743896484375,-0.0167083740234375,-0.007904052734375
1772655995607406300,2.69040625,-0.9997711181640625,-0.0170745849609375,-0.008392333984375
1772655995617389300,2.700389404296875,-0.9986419677734375,-0.0172119140625,-0.0081634521484375
1772655995627371300,2.710371337890625,-0.998779296875,-0.016265869140625,-0.0067138671875
1772655995637353200,2.720353271484375,-0.9985198974609375,-0.0159912109375,-0.006927490234375
1772655995647335200,2.730335205078125,-0.9991607666015625,-0.0164642333984375,-0.006683349609375
1772655995657318400,2.740318359375,-0.999481201171875,-0.0160675048828125,-0.0069122314453125
1772655995667300400,2.75030029296875,-0.9985809326171875,-0.015777587890625,-0.0068359375
1772655995677282300,2.7602822265625,-0.9985198974609375,-0.0159454345703125,-0.0074615478515625
1772655995687264300,2.77026416015625,-0.9992523193359375,-0.016693115234375,-0.0074462890625
1772655995697247200,2.780247314453125,-0.99957275390625,-0.0167694091796875,-0.007904052734375
1772655995707229400,2.7902294921875,-0.99957275390625,-0.0164337158203125,-0.007598876953125
1772655995717211100,2.800211181640625,-0.99920654296875,-0.0161590576171875,-0.0072021484375
1772655995727193300,2.810193359375,-0.9983367919921875,-0.0167694091796875,-0.0075836181640625
1772655995737176000,2.820176025390625,-0.9998779296875,-0.0165863037109375,-0.00738525390625
1772655995747158300,2.830158203125,-1.0005035400390625,-0.016326904296875,-0.006561279296875
1772655995757140500,2.840140380859375,-0.9994964599609375,-0.016815185546875,-0.0074462890625
1772655995767122200,2.8501220703125,-0.9999847412109375,-0.0163421630859375,-0.00750732421875
1772655995777105400,2.86010546875,-0.9990081787109375,-0.01666259765625,-0.0074005126953125
1772655995787087000,2.870087158203125,-0.999420166015625,-0.01580810546875,-0.006988525390625
1772655995797069000,2.880069091796875,-0.9993743896484375,-0.0167236328125,-0.0068359375
1772655995807051300,2.89005126953125,-0.9996490478515625,-0.0170135498046875,-0.0077056884765625
1772655995817034200,2.9000341796875,-0.9990234375,-0.0167694091796875,-0.00726318359375
1772655995827016200,2.91001611328125,-0.9988250732421875,-0.0164337158203125,-0.007171630859375
1772655995836998100,2.919998046875,-0.9989013671875,-0.0160675048828125,-0.0079193115234375
1772655995846980000,2.92997998046875,-0.9994049072265625,-0.0170745849609375,-0.008331298828125
1772655995856963000,2.939963134765625,-0.9988555908203125,-0.0174102783203125,-0.0072784423828125
1772655995866945300,2.9499453125,-0.9992523193359375,-0.016845703125,-0.0072479248046875
1772655995876927200,2.95992724609375,-0.999237060546875,-0.0154571533203125,-0.00701904296875
1772655995886909200,2.9699091796875,-0.9993896484375,-0.016998291015625,-0.007598876953125
1772655995896892200,2.97989208984375,-0.9993133544921875,-0.0169525146484375,-0.0079193115234375
1772655995906874000,2.9898740234375,-0.9985198974609375,-0.0156097412109375,-0.00726318359375
1772655995916856300,2.999856201171875,-0.9981842041015625,-0.01629638671875,-0.00750732421875
1772655995926838300,3.00983837890625,-0.99884033203125,-0.0164642333984375,-0.0070037841796875
1772655995936821200,3.0198212890625,-0.9986572265625,-0.016632080078125,-0.0069427490234375
1772655995946803200,3.02980322265625,-0.99896240234375,-0.0166473388671875,-0.0074615478515625
1772655995956785200,3.03978515625,-0.99920654296875,-0.0165863037109375,-0.0079345703125
1772655995966767000,3.04976708984375,-0.99945068359375,-0.016632080078125,-0.008544921875
1772655995976750000,3.05975,-0.9983978271484375,-0.0162811279296875,-0.008026123046875
1772655995986732300,3.069732177734375,-0.99859619140625,-0.0169219970703125,-0.0072174072265625
1772655995996714200,3.07971435546875,-0.998138427734375,-0.016357421875,-0.0067138671875
1772655996006696200,3.0896962890625,-0.9988250732421875,-0.01690673828125,-0.0071563720703125
1772655996016679200,3.09967919921875,-0.9991302490234375,-0.0155029296875,-0.00714111328125
1772655996026661000,3.1096611328125,-0.998443603515625,-0.0156707763671875,-0.0071258544921875
1772655996036643300,3.119643310546875,-0.99884033203125,-0.0162811279296875,-0.0070648193359375
1772655996046625000,3.129625,-0.9987030029296875,-0.01654052734375,-0.0078887939453125
1772655996056608300,3.139608154296875,-0.9995574951171875,-0.0168914794921875,-0.0067596435546875
1772655996066590000,3.14958984375,-0.999481201171875,-0.017181396484375,-0.0070953369140625
1772655996076572200,3.159572265625,-0.999755859375,-0.0168609619140625,-0.0075225830078125
1772655996086554400,3.169554443359375,-0.9979705810546875,-0.01654052734375,-0.0072021484375
1772655996096537000,3.179537109375,-0.9985198974609375,-0.016387939453125,-0.007080078125
1772655996106519300,3.189519287109375,-0.9996185302734375,-0.016754150390625,-0.008026123046875
1772655996116501000,3.1995009765625,-1.000244140625,-0.0163116455078125,-0.007720947265625
1772655996126483200,3.209483154296875,-0.999267578125,-0.016387939453125,-0.008026123046875
1772655996136465200,3.219465087890625,-0.9991302490234375,-0.01708984375,-0.006988525390625
1772655996146448100,3.2294482421875,-0.99847412109375,-0.016571044921875,-0.006927490234375
1772655996156430300,3.239430419921875,-0.998565673828125,-0.016021728515625,-0.00732421875
1772655996166412000,3.249412109375,-0.998687744140625,-0.016265869140625,-0.0067291259765625
1772655996176395300,3.259395263671875,-0.9992218017578125,-0.017059326171875,-0.0068359375
1772655996186377200,3.269377197265625,-0.9997100830078125,-0.01629638671875,-0.0074005126953125
1772655996196359200,3.279359130859375,-0.9992828369140625,-0.0162506103515625,-0.0081024169921875
1772655996206341400,3.28934130859375,-0.999359130859375,-0.016448974609375,-0.0081329345703125
1772655996216324000,3.299323974609375,-0.9990081787109375,-0.01641845703125,-0.0075531005859375
1772655996226306300,3.309306396484375,-1.0004119873046875,-0.01678466796875,-0.0078582763671875
1772655996236288000,3.3192880859375,-0.9991455078125,-0.0166778564453125,-0.007598876953125
1772655996246270200,3.329270263671875,-0.9996337890625,-0.01708984375,-0.0071563720703125
1772655996256253200,3.339253173828125,-0.998992919921875,-0.0167236328125,-0.00726318359375
1772655996266235100,3.349235107421875,-0.9994354248046875,-0.0173187255859375,-0.0074310302734375
1772655996276217300,3.35921728515625,-0.9986572265625,-0.01666259765625,-0.0074005126953125
1772655996286199000,3.369198974609375,-0.9986572265625,-0.01666259765625,-0.0071868896484375
1772655996296182300,3.379182373046875,-0.998626708984375,-0.0164337158203125,-0.007354736328125
1772655996306164200,3.389164306640625,-1.0007476806640625,-0.01617431640625,-0.0077972412109375
1772655996316146200,3.399146240234375,-0.999176025390625,-0.0164794921875,-0.00701904296875
1772655996326128000,3.409128173828125,-0.9988250732421875,-0.0167999267578125,-0.007843017578125
1772655996336110000,3.419110107421875,-0.99945068359375,-0.0167999267578125,-0.0076141357421875
1772655996346093000,3.429093017578125,-0.9991302490234375,-0.015777587890625,-0.0074615478515625
1772655996356075300,3.4390751953125,-0.9993438720703125,-0.0163116455078125,-0.0079345703125
1772655996366057200,3.44905712890625,-0.9993743896484375,-0.01580810546875,-0.007415771484375
1772655996376040200,3.459040283203125,-0.9993133544921875,-0.01690673828125,-0.0070343017578125
1772655996386022100,3.469022216796875,-0.998779296875,-0.0165863037109375,-0.0076751708984375
1772655996396004000,3.479004150390625,-0.997894287109375,-0.0167694091796875,-0.0075836181640625
1772655996405986000,3.488986083984375,-0.9990234375,-0.0168914794921875,-0.0077667236328125
1772655996415969000,3.498968994140625,-0.9994049072265625,-0.0162200927734375,-0.0084228515625
1772655996425951200,3.508951171875,-0.9980010986328125,-0.01654052734375,-0.00677490234375
1772655996435933200,3.51893310546875,-0.9993133544921875,-0.016387939453125,-0.00787353515625
1772655996445915100,3.5289150390625,-0.998748779296875,-0.0166473388671875,-0.0071258544921875
1772655996455898400,3.5388984375,-0.998992919921875,-0.0156097412109375,-0.007293701171875
1772655996465880000,3.548880126953125,-0.998138427734375,-0.016632080078125,-0.007537841796875
1772655996475862300,3.5588623046875,-0.9987030029296875,-0.016876220703125,-0.0081024169921875
1772655996485844200,3.56884423828125,-0.998992919921875,-0.0167236328125,-0.00738525390625
1772655996495827200,3.5788271484375,-0.9996490478515625,-0.0160675048828125,-0.007568359375
1772655996505809200,3.58880908203125,-0.99884033203125,-0.0163421630859375,-0.0073089599609375
1772655996515791000,3.598791015625,-0.999267578125,-0.0172576904296875,-0.007720947265625
1772655996525773300,3.608773193359375,-0.9987945556640625,-0.0169525146484375,-0.007354736328125
1772655996535756000,3.618756103515625,-0.998992919921875,-0.0165252685546875,-0.0073394775390625
1772655996545738200,3.62873828125,-0.9986419677734375,-0.0160369873046875,-0.007354736328125
1772655996555720200,3.63872021484375,-0.999481201171875,-0.0161590576171875,-0.0064544677734375
1772655996565702100,3.6487021484375,-0.999267578125,-0.016998291015625,-0.006988525390625
1772655996575685400,3.658685302734375,-1.0012969970703125,-0.016876220703125,-0.006744384765625
1772655996585667000,3.6686669921875,-1,-0.0168304443359375,-0.007232666015625
1772655996595649300,3.678649169921875,-0.9970550537109375,-0.0168304443359375,-0.0070037841796875
1772655996605631200,3.68863134765625,-0.99627685546875,-0.0161895751953125,-0.008270263671875
1772655996615614200,3.6986142578125,-1.0017852783203125,-0.017608642578125,-0.008880615234375
1772655996625596200,3.70859619140625,-1.0072174072265625,-0.0178680419921875,-0.001068115234375
1772655996635578000,3.718578125,-0.99188232421875,-0.016845703125,-0.0095367431640625
1772655996645560300,3.728560302734375,-0.9945220947265625,-0.014556884765625,-0.0109100341796875
1772655996655543000,3.73854296875,-1.001312255859375,-0.0169830322265625,-0.0054931640625
1772655996665525200,3.748525146484375,-1.0072174072265625,-0.018310546875,-0.0057220458984375
1772655996675507000,3.7585068359375,-0.9922332763671875,-0.0162811279296875,-0.0090789794921875
1772655996685489200,3.7684892578125,-0.996307373046875,-0.0159759521484375,-0.0077667236328125
1772655996695472000,3.77847216796875,-1.00225830078125,-0.0166168212890625,-0.00665283203125
1772655996705454000,3.7884541015625,-1.003082275390625,-0.01715087890625,-0.0072784423828125
1772655996715436300,3.798436279296875,-0.9947509765625,-0.0161895751953125,-0.00811767578125
1772655996725418000,3.80841796875,-0.996826171875,-0.0157623291015625,-0.007232666015625
1772655996735401200,3.818401123046875,-1.001434326171875,-0.01727294921875,-0.006103515625
1772655996745383200,3.828383056640625,-1.0013885498046875,-0.0169219970703125,-0.0070037841796875
1772655996755365000,3.838365234375,-0.99627685546875,-0.0161285400390625,-0.009490966796875
1772655996765347300,3.848347412109375,-0.9993743896484375,-0.016265869140625,-0.0081024169921875
1772655996775330000,3.858330078125,-1.001708984375,-0.01727294921875,-0.005706787109375
1772655996785312300,3.868312255859375,-0.9995269775390625,-0.016326904296875,-0.006500244140625
1772655996795298600,3.878298583984375,-0.99761962890625,-0.0158233642578125,-0.00714111328125
1772655996805278500,3.888278564453125,-0.9987030029296875,-0.0164642333984375,-0.0073394775390625
1772655996815260700,3.8982607421875,-1.0001983642578125,-0.0160980224609375,-0.0060272216796875
1772655996825243400,3.908243408203125,-0.9996185302734375,-0.0165557861328125,-0.00701904296875
1772655996835225600,3.9182255859375,-0.9983062744140625,-0.0166473388671875,-0.0075836181640625
1772655996845207600,3.92820751953125,-0.99835205078125,-0.0168609619140625,-0.0075531005859375
1772655996855189500,3.938189453125,-1.000030517578125,-0.0167083740234375,-0.0074005126953125
1772655996865172700,3.9481728515625,-0.9995574951171875,-0.0171051025390625,-0.0064239501953125
1772655996875154400,3.958154541015625,-0.9979705810546875,-0.0161285400390625,-0.007904052734375
1772655996885136600,3.96813671875,-0.9983978271484375,-0.0161285400390625,-0.00714111328125
1772655996895118600,3.97811865234375,-0.999542236328125,-0.0166778564453125,-0.007904052734375
1772655996905101600,3.9881015625,-0.998992919921875,-0.016387939453125,-0.0078125
1772655996915083500,3.99808349609375,-0.998443603515625,-0.016815185546875,-0.0067596435546875
1772655996925065500,4.0080654296875,-0.999603271484375,-0.01690673828125,-0.008056640625
1772655996935047700,4.018047607421875,-0.9994354248046875,-0.01654052734375,-0.0062255859375
1772655996945030400,4.028030517578125,-0.9980010986328125,-0.0165252685546875,-0.0068206787109375
1772655996955012600,4.0380126953125,-0.99871826171875,-0.0163421630859375,-0.00775146484375
1772655996964994300,4.047994384765625,-0.9989166259765625,-0.0166778564453125,-0.0077972412109375
1772655996974976500,4.0579765625,-0.99957275390625,-0.017059326171875,-0.0083770751953125
1772655996984959500,4.06795947265625,-0.9993896484375,-0.0168914794921875,-0.007232666015625
1772655996994941400,4.07794140625,-0.9989013671875,-0.016815185546875,-0.00677490234375
1772655997004923600,4.087923583984375,-0.9998321533203125,-0.0172882080078125,-0.0070037841796875
1772655997014905300,4.0979052734375,-0.998779296875,-0.0172119140625,-0.00701904296875
1772655997024888600,4.107888671875,-0.999053955078125,-0.0167999267578125,-0.00732421875
1772655997034870500,4.11787060546875,-0.99761962890625,-0.01593017578125,-0.0073394775390625
1772655997044852500,4.1278525390625,-0.998291015625,-0.016693115234375,-0.006744384765625
1772655997054834700,4.137834716796875,-0.99945068359375,-0.01611328125,-0.008056640625
1772655997064817400,4.1478173828125,-0.99896240234375,-0.016937255859375,-0.007354736328125
1772655997074799600,4.157799560546875,-0.998138427734375,-0.0171051025390625,-0.0074310302734375
1772655997084781600,4.167781494140625,-0.9986724853515625,-0.016265869140625,-0.0080413818359375
1772655997094764500,4.1777646484375,-0.999908447265625,-0.016510009765625,-0.0069122314453125
1772655997104746500,4.18774658203125,-0.9998931884765625,-0.016326904296875,-0.006683349609375
1772655997114728400,4.197728515625,-0.99884033203125,-0.0165863037109375,-0.0068511962890625
1772655997124710700,4.207710693359375,-1.0001983642578125,-0.016143798828125,-0.00714111328125
1772655997134693600,4.217693603515625,-0.9993896484375,-0.01739501953125,-0.0074920654296875
1772655997144675600,4.227675537109375,-0.9992828369140625,-0.01708984375,-0.007476806640625
1772655997154657500,4.237657470703125,-0.9983978271484375,-0.016632080078125,-0.0073394775390625
1772655997164639500,4.247639404296875,-0.9988861083984375,-0.0157012939453125,-0.006927490234375
1772655997174622500,4.25762255859375,-0.999664306640625,-0.015869140625,-0.0077362060546875
1772655997184604700,4.267604736328125,-0.999908447265625,-0.0167999267578125,-0.008880615234375
1772655997194586600,4.277586669921875,-1.0001678466796875,-0.0159912109375,-0.0074615478515625
1772655997204568600,4.287568603515625,-0.9991302490234375,-0.0160980224609375,-0.0070037841796875
1772655997214551600,4.297551513671875,-0.9985504150390625,-0.0159759521484375,-0.007476806640625
1772655997224533500,4.307533447265625,-0.9988861083984375,-0.0171356201171875,-0.006744384765625
1772655997234515500,4.317515380859375,-0.998382568359375,-0.016326904296875,-0.0076446533203125
1772655997244497700,4.32749755859375,-0.9988555908203125,-0.0166168212890625,-0.0074310302734375
1772655997254480600,4.337480712890625,-0.9988861083984375,-0.0168914794921875,-0.007415771484375
1772655997264462600,4.347462646484375,-0.999298095703125,-0.016265869140625,-0.0076141357421875
1772655997274444500,4.357444580078125,-0.9998016357421875,-0.016387939453125,-0.007843017578125
1772655997284426500,4.367426513671875,-0.99871826171875,-0.015716552734375,-0.0069580078125
1772655997294409500,4.377409423828125,-0.998687744140625,-0.01568603515625,-0.00701904296875
1772655997304391700,4.3873916015625,-0.9996795654296875,-0.0160980224609375,-0.008331298828125
1772655997314373400,4.397373291015625,-0.9992523193359375,-0.0166015625,-0.00689697265625
1772655997324355600,4.40735546875,-0.998382568359375,-0.0173187255859375,-0.0075225830078125
1772655997334338600,4.417338623046875,-0.9996490478515625,-0.0163421630859375,-0.0070343017578125
1772655997344320500,4.427320556640625,-0.999237060546875,-0.0161590576171875,-0.00726318359375
1772655997354302700,4.437302734375,-0.999114990234375,-0.0169677734375,-0.0074615478515625
1772655997364285400,4.447285400390625,-0.9987945556640625,-0.016754150390625,-0.006988525390625
1772655997374267600,4.457267578125,-0.9988861083984375,-0.0164642333984375,-0.0075531005859375
1772655997384249300,4.467249267578125,-0.9991455078125,-0.0166473388671875,-0.007659912109375
1772655997394231600,4.4772314453125,-0.9992218017578125,-0.016876220703125,-0.0074615478515625
1772655997404214500,4.487214599609375,-0.9987945556640625,-0.0163726806640625,-0.007537841796875
1772655997414196500,4.497196533203125,-0.9985809326171875,-0.01666259765625,-0.0081024169921875
1772655997424178700,4.5071787109375,-0.9994049072265625,-0.0167999267578125,-0.00738525390625
1772655997434160400,4.517160400390625,-0.9990386962890625,-0.0167083740234375,-0.0075225830078125
1772655997444143600,4.5271435546875,-0.998779296875,-0.01617431640625,-0.0079193115234375
1772655997454125600,4.53712548828125,-0.9994659423828125,-0.0158843994140625,-0.00714111328125
1772655997464107500,4.547107421875,-0.99853515625,-0.016632080078125,-0.0068206787109375
1772655997474089700,4.55708984375,-0.99835205078125,-0.0166778564453125,-0.0079345703125
1772655997484072400,4.567072509765625,-0.9984893798828125,-0.017303466796875,-0.0078277587890625
1772655997494054700,4.5770546875,-0.99871826171875,-0.01678466796875,-0.0076141357421875
1772655997504036600,4.58703662109375,-0.9982147216796875,-0.0169219970703125,-0.0072479248046875
1772655997514018600,4.5970185546875,-0.9998779296875,-0.0164794921875,-0.0065460205078125
1772655997524001500,4.60700146484375,-0.99908447265625,-0.01629638671875,-0.00732421875
1772655997533983500,4.6169833984375,-0.9990386962890625,-0.016204833984375,-0.0080413818359375
1772655997543965700,4.626965576171875,-0.9989471435546875,-0.01641845703125,-0.0080108642578125
1772655997553947400,4.636947509765625,-0.9994659423828125,-0.01702880859375,-0.0079345703125
1772655997563930600,4.6469306640625,-0.9993896484375,-0.01715087890625,-0.007659912109375
1772655997573912600,4.65691259765625,-0.9989776611328125,-0.01690673828125,-0.00732421875
1772655997583894500,4.66689453125,-0.998870849609375,-0.0164337158203125,-0.0076141357421875
1772655997593877500,4.67687744140625,-0.9991302490234375,-0.0166015625,-0.00732421875
1772655997603859700,4.686859619140625,-0.9982147216796875,-0.0166168212890625,-0.006744384765625
1772655997613841400,4.69684130859375,-0.9976654052734375,-0.01666259765625,-0.00762939453125
1772655997623823600,4.70682373046875,-0.9981842041015625,-0.01666259765625,-0.0075225830078125
1772655997633806600,4.716806640625,-0.9992523193359375,-0.0166473388671875,-0.0083770751953125
1772655997643788500,4.72678857421875,-0.9986572265625,-0.015899658203125,-0.00750732421875
1772655997653770500,4.7367705078125,-0.998626708984375,-0.0168304443359375,-0.0080108642578125
1772655997663752400,4.74675244140625,-0.998748779296875,-0.0178985595703125,-0.00750732421875
1772655997673735700,4.756735595703125,-0.9994964599609375,-0.016937255859375,-0.007049560546875
1772655997683717400,4.76671728515625,-0.9988250732421875,-0.0162506103515625,-0.006622314453125
1772655997693699600,4.776699462890625,-0.9996490478515625,-0.016357421875,-0.0076141357421875
1772655997703681500,4.786681640625,-0.9990692138671875,-0.016448974609375,-0.0080718994140625
1772655997713664500,4.79666455078125,-0.999664306640625,-0.0168914794921875,-0.0075531005859375
1772655997723646700,4.806646728515625,-0.9995269775390625,-0.0169677734375,-0.0083770751953125
1772655997733628400,4.81662841796875,-0.9992523193359375,-0.01629638671875,-0.007293701171875
1772655997743610600,4.826610595703125,-0.9986724853515625,-0.0164031982421875,-0.0072479248046875
1772655997753593300,4.83659326171875,-0.998931884765625,-0.0166015625,-0.0069122314453125
1772655997763575600,4.846575439453125,-0.9988861083984375,-0.0168609619140625,-0.006988525390625
1772655997773557800,4.856557861328125,-0.9990386962890625,-0.0170745849609375,-0.0071563720703125
1772655997783540500,4.86654052734375,-1.000091552734375,-0.0170440673828125,-0.0074615478515625
1772655997793522700,4.876522705078125,-0.9993896484375,-0.0161895751953125,-0.00775146484375
1772655997803500500,4.88650048828125,-0.999176025390625,-0.01708984375,-0.007232666015625
1772655997813482500,4.896482421875,-0.9983978271484375,-0.0165863037109375,-0.0066070556640625
1772655997823465500,4.906465576171875,-0.9991607666015625,-0.0161285400390625,-0.0074615478515625
1772655997833447700,4.91644775390625,-0.9988861083984375,-0.0157470703125,-0.00689697265625
1772655997843429600,4.9264296875,-0.99932861328125,-0.0169677734375,-0.0072174072265625
1772655997853411600,4.93641162109375,-0.9989471435546875,-0.0164947509765625,-0.007354736328125
1772655997863394600,4.94639453125,-0.999267578125,-0.017181396484375,-0.0076904296875
1772655997873376500,4.95637646484375,-0.9989776611328125,-0.01678466796875,-0.0071868896484375
1772655997883358500,4.9663583984375,-0.9983978271484375,-0.0165557861328125,-0.007080078125
1772655997893340700,4.976340576171875,-0.9989013671875,-0.0164794921875,-0.006683349609375
1772655997903323600,4.98632373046875,-0.99859619140625,-0.01605224609375,-0.00665283203125
1772655997913305600,4.9963056640625,-0.99847412109375,-0.0159759521484375,-0.007598876953125
1772655997923287600,5.00628759765625,-0.9992828369140625,-0.0167083740234375,-0.0076751708984375
1772655997933270800,5.016270751953125,-0.9999542236328125,-0.0165557861328125,-0.0073089599609375
1772655997943252500,5.02625244140625,-0.9986724853515625,-0.0168914794921875,-0.0073089599609375
1772655997953234700,5.036234619140625,-0.9996795654296875,-0.0164947509765625,-0.008056640625
1772655997963216600,5.046216552734375,-0.99908447265625,-0.01678466796875,-0.0078277587890625
1772655997973199600,5.05619970703125,-0.998870849609375,-0.0158233642578125,-0.0067291259765625
1772655997983181600,5.066181640625,-0.9994354248046875,-0.015960693359375,-0.0073699951171875
1772655997993163500,5.07616357421875,-0.9981842041015625,-0.0172271728515625,-0.007354736328125
1772655998003145700,5.086145751953125,-0.9990081787109375,-0.0165557861328125,-0.0079498291015625
1772655998013128400,5.09612841796875,-0.9992218017578125,-0.016845703125,-0.007781982421875
1772655998023110700,5.106110595703125,-0.9987640380859375,-0.01702880859375,-0.00860595703125
1772655998033092600,5.116092529296875,-0.9989471435546875,-0.016387939453125,-0.008056640625
1772655998043074600,5.126074462890625,-0.998931884765625,-0.016265869140625,-0.0077667236328125
1772655998053057800,5.136057861328125,-1.00018310546875,-0.0165863037109375,-0.00750732421875
1772655998063039500,5.14603955078125,-0.998931884765625,-0.0166778564453125,-0.0065460205078125
1772655998073021700,5.156021728515625,-0.9980010986328125,-0.0160369873046875,-0.0069732666015625
1772655998083003600,5.166003662109375,-0.999053955078125,-0.016845703125,-0.0064239501953125
1772655998092986600,5.175986572265625,-0.9996185302734375,-0.0166778564453125,-0.007904052734375
1772655998102968600,5.185968505859375,-0.99896240234375,-0.017669677734375,-0.0072479248046875
1772655998112950500,5.195950439453125,-0.9988861083984375,-0.017303466796875,-0.0075225830078125
1772655998122933500,5.20593359375,-0.9996185302734375,-0.016632080078125,-0.00787353515625
1772655998132915500,5.21591552734375,-0.9991607666015625,-0.0167236328125,-0.0079193115234375
1772655998142897700,5.225897705078125,-1.0001373291015625,-0.01605224609375,-0.00787353515625
1772655998152879400,5.23587939453125,-1,-0.016448974609375,-0.006927490234375
1772655998162862600,5.245862548828125,-0.999908447265625,-0.01678466796875,-0.0064849853515625
1772655998172844500,5.255844482421875,-0.9981689453125,-0.01617431640625,-0.0074462890625
1772655998182826500,5.265826416015625,-0.9987945556640625,-0.016265869140625,-0.0067291259765625
1772655998192808700,5.27580859375,-0.999298095703125,-0.0160980224609375,-0.00762939453125
1772655998202791700,5.285791748046875,-0.9983367919921875,-0.01580810546875,-0.0076904296875
1772655998212773600,5.295773681640625,-0.999267578125,-0.0166015625,-0.0076751708984375
1772655998222755600,5.305755615234375,-0.9982452392578125,-0.0164794921875,-0.007659912109375
1772655998232737500,5.315737548828125,-0.9995269775390625,-0.0164031982421875,-0.00677490234375
1772655998242720500,5.325720458984375,-0.99859619140625,-0.0165863037109375,-0.0077972412109375
1772655998252702500,5.335702392578125,-0.9987640380859375,-0.0162506103515625,-0.0081939697265625
1772655998262684700,5.3456845703125,-0.99908447265625,-0.016754150390625,-0.0079193115234375
1772655998272667600,5.355667724609375,-0.9982147216796875,-0.017303466796875,-0.0080413818359375
1772655998282649600,5.365649658203125,-0.9986724853515625,-0.0172576904296875,-0.006500244140625
1772655998292631600,5.375631591796875,-0.999542236328125,-0.0160675048828125,-0.0069580078125
1772655998302613500,5.385613525390625,-0.999664306640625,-0.016937255859375,-0.007232666015625
1772655998312596500,5.395596435546875,-0.9988250732421875,-0.016632080078125,-0.0073699951171875
1772655998322578700,5.40557861328125,-0.9991455078125,-0.0171661376953125,-0.007171630859375
1772655998332560600,5.415560546875,-0.9988861083984375,-0.015960693359375,-0.006866455078125
1772655998342542600,5.42554248046875,-0.998565673828125,-0.0161590576171875,-0.0076141357421875
1772655998352525600,5.435525634765625,-0.9987030029296875,-0.0167236328125,-0.00787353515625
1772655998362507500,5.445507568359375,-0.9987030029296875,-0.0167388916015625,-0.00750732421875
1772655998372489700,5.45548974609375,-0.9990692138671875,-0.0165252685546875,-0.0076904296875
1772655998382472400,5.465472412109375,-0.9995574951171875,-0.016571044921875,-0.0074462890625
1772655998392454700,5.47545458984375,-0.99957275390625,-0.0167694091796875,-0.0072784423828125
1772655998402436600,5.4854365234375,-0.998809814453125,-0.016265869140625,-0.0075225830078125
1772655998412418600,5.49541845703125,-0.998748779296875,-0.0170745849609375,-0.0070953369140625
1772655998422401800,5.50540185546875,-0.999359130859375,-0.0161285400390625,-0.007720947265625
1772655998432383500,5.515383544921875,-0.9999237060546875,-0.01739501953125,-0.007110595703125
1772655998442365700,5.52536572265625,-0.99969482421875,-0.01739501953125,-0.0078277587890625
1772655998452347400,5.535347412109375,-0.9996490478515625,-0.01690673828125,-0.0071563720703125
1772655998462330600,5.54533056640625,-0.998870849609375,-0.0165252685546875,-0.0081329345703125
1772655998472312600,5.5553125,-0.9982147216796875,-0.0157623291015625,-0.007659912109375
1772655998482294500,5.56529443359375,-0.999786376953125,-0.0159912109375,-0.0082855224609375
1772655998492276700,5.57527685546875,-0.9981231689453125,-0.0165252685546875,-0.0076751708984375
1772655998502259500,5.585259521484375,-1.000152587890625,-0.0165557861328125,-0.007659912109375
1772655998512241700,5.59524169921875,-0.9992828369140625,-0.0161895751953125,-0.0069732666015625
1772655998522223400,5.605223388671875,-0.99859619140625,-0.017059326171875,-0.0076904296875
1772655998532206600,5.61520654296875,-0.9989166259765625,-0.017303466796875,-0.0071258544921875
1772655998542188500,5.6251884765625,-1.000335693359375,-0.0166015625,-0.00726318359375
1772655998552170500,5.63517041015625,-0.9989013671875,-0.0169830322265625,-0.0074310302734375
1772655998562152700,5.645152587890625,-0.9980316162109375,-0.01708984375,-0.0060882568359375
1772655998572135700,5.6551357421875,-0.998809814453125,-0.0165557861328125,-0.0066986083984375
1772655998582117600,5.66511767578125,-0.9989013671875,-0.0168914794921875,-0.0081024169921875
1772655998592099600,5.675099609375,-0.999664306640625,-0.016448974609375,-0.0068206787109375
1772655998602081500,5.68508154296875,-0.99969482421875,-0.0159454345703125,-0.0065460205078125
1772655998612064500,5.695064453125,-0.998870849609375,-0.01593017578125,-0.0081939697265625
1772655998622046500,5.70504638671875,-0.999359130859375,-0.01605224609375,-0.007537841796875
1772655998632028700,5.715028564453125,-0.9994354248046875,-0.01739501953125,-0.0085906982421875
1772655998642011600,5.72501171875,-0.9986419677734375,-0.0167999267578125,-0.0060272216796875
1772655998651993600,5.73499365234375,-0.9987335205078125,-0.0159454345703125,-0.0070953369140625
1772655998661975600,5.7449755859375,-0.99945068359375,-0.0164642333984375,-0.0074615478515625
1772655998671957500,5.75495751953125,-0.9992828369140625,-0.0162200927734375,-0.006927490234375
1772655998681940500,5.7649404296875,-0.998077392578125,-0.01690673828125,-0.0078277587890625
1772655998691922700,5.774922607421875,-0.99884033203125,-0.016265869140625,-0.0076446533203125
1772655998701904600,5.784904541015625,-0.9997406005859375,-0.0165863037109375,-0.0076446533203125
1772655998711886600,5.794886474609375,-0.998504638671875,-0.017364501953125,-0.007049560546875
1772655998721869800,5.804869873046875,-0.9994964599609375,-0.0165557861328125,-0.007354736328125
1772655998731851500,5.8148515625,-0.999664306640625,-0.0175628662109375,-0.0068206787109375
1772655998741833700,5.824833740234375,-0.999053955078125,-0.0166015625,-0.006317138671875
1772655998751816400,5.83481640625,-0.9997100830078125,-0.016143798828125,-0.006744384765625
1772655998761798700,5.844798583984375,-0.9985809326171875,-0.016754150390625,-0.007537841796875
1772655998771780600,5.854780517578125,-0.9999542236328125,-0.01702880859375,-0.0078887939453125
1772655998781762600,5.864762451171875,-0.9989471435546875,-0.017120361328125,-0.0084381103515625
1772655998791745500,5.87474560546875,-0.9988555908203125,-0.01666259765625,-0.0079193115234375
1772655998801727700,5.884727783203125,-0.999237060546875,-0.0166168212890625,-0.0076904296875
1772655998811710000,5.8947099609375,-0.998870849609375,-0.016510009765625,-0.006866455078125
1772655998821691600,5.904691650390625,-0.99884033203125,-0.0172119140625,-0.0075531005859375
1772655998831675000,5.9146748046875,-0.998748779296875,-0.0169525146484375,-0.007843017578125
1772655998841656600,5.924656494140625,-0.99884033203125,-0.0161285400390625,-0.0079193115234375
1772655998851638800,5.934638671875,-0.9999847412109375,-0.01715087890625,-0.008514404296875
1772655998861621000,5.94462109375,-0.9987030029296875,-0.0161590576171875,-0.0074310302734375
1772655998871603700,5.954603759765625,-0.9984893798828125,-0.016387939453125,-0.0067291259765625
1772655998881586000,5.9645859375,-0.9993133544921875,-0.016143798828125,-0.007415771484375
1772655998891567600,5.974567626953125,-0.9993133544921875,-0.0161285400390625,-0.006561279296875
1772655998901550800,5.98455078125,-0.9986419677734375,-0.016021728515625,-0.0071563720703125
1772655998911532800,5.99453271484375,-0.99884033203125,-0.0169677734375,-0.0066986083984375
1772655998921514800,6.0045146484375,-0.998870849609375,-0.016571044921875,-0.0077362060546875
1772655998931497000,6.0144970703125,-0.998443603515625,-0.0165863037109375,-0.0067596435546875
1772655998941479700,6.024479736328125,-0.9976806640625,-0.0169677734375,-0.006439208984375
1772655998951462000,6.0344619140625,-0.9996185302734375,-0.01666259765625,-0.0066986083984375
1772655998961443800,6.04444384765625,-0.99871826171875,-0.016937255859375,-0.006744384765625
1772655998971425800,6.05442578125,-0.998809814453125,-0.0169830322265625,-0.00750732421875
1772655998981408800,6.06440869140625,-0.9994659423828125,-0.0169677734375,-0.0073699951171875
1772655998991390700,6.074390625,-0.9995880126953125,-0.0172271728515625,-0.007293701171875
1772655999001373000,6.084373046875,-0.998687744140625,-0.016815185546875,-0.0087127685546875
1772655999011356000,6.09435595703125,-0.998687744140625,-0.0170440673828125,-0.007171630859375
1772655999021337900,6.104337890625,-0.9994049072265625,-0.0163726806640625,-0.0072174072265625
1772655999031319800,6.11431982421875,-0.998687744140625,-0.0160369873046875,-0.007293701171875
1772655999041301800,6.1243017578125,-1.0000762939453125,-0.0161285400390625,-0.0071563720703125
1772655999051284700,6.13428466796875,-1.00018310546875,-0.0164794921875,-0.00726318359375
1772655999061267000,6.144266845703125,-0.998992919921875,-0.0167999267578125,-0.0072021484375
1772655999071249000,6.154248779296875,-0.9984588623046875,-0.0162506103515625,-0.008270263671875
1772655999081230800,6.16423095703125,-0.999237060546875,-0.01568603515625,-0.007537841796875
1772655999091213800,6.1742138671875,-0.9989013671875,-0.0169677734375,-0.0074005126953125
1772655999101195800,6.18419580078125,-0.9994964599609375,-0.0168914794921875,-0.0069732666015625
1772655999111177700,6.194177734375,-0.9994049072265625,-0.0171051025390625,-0.0081329345703125
1772655999121160700,6.20416064453125,-0.9995269775390625,-0.016204833984375,-0.0067138671875
1772655999131143000,6.214142822265625,-0.998809814453125,-0.0163421630859375,-0.00750732421875
1772655999141124600,6.22412451171875,-0.9994049072265625,-0.0164642333984375,-0.0078582763671875
1772655999151106800,6.23410693359375,-0.9989166259765625,-0.0168304443359375,-0.00830078125
1772655999161089800,6.24408984375,-0.9994354248046875,-0.0162200927734375,-0.0076141357421875
1772655999171071700,6.25407177734375,-0.9987945556640625,-0.016754150390625,-0.0067596435546875
1772655999181054000,6.264053955078125,-0.999969482421875,-0.016143798828125,-0.0067901611328125
1772655999191035600,6.27403564453125,-0.9991302490234375,-0.016448974609375,-0.0067291259765625
1772655999201019000,6.284018798828125,-0.998748779296875,-0.0175018310546875,-0.007293701171875
1772655999211000600,6.29400048828125,-0.9986724853515625,-0.01763916015625,-0.006988525390625
1772655999220982800,6.303982666015625,-0.998809814453125,-0.016937255859375,-0.0074310302734375
1772655999230965800,6.3139658203125,-0.999298095703125,-0.016448974609375,-0.0067138671875
1772655999240947700,6.32394775390625,-0.9980926513671875,-0.015777587890625,-0.007720947265625
1772655999250930000,6.333929931640625,-0.998565673828125,-0.016357421875,-0.00689697265625
1772655999260911600,6.34391162109375,-0.9994354248046875,-0.0167694091796875,-0.0073699951171875
1772655999270894800,6.353894775390625,-0.9990386962890625,-0.017181396484375,-0.0078582763671875
1772655999280876800,6.363876708984375,-0.9999542236328125,-0.0159759521484375,-0.0074005126953125
1772655999290858800,6.373858642578125,-0.9994049072265625,-0.0162506103515625,-0.008697509765625
1772655999300841000,6.383841064453125,-0.9993896484375,-0.01556396484375,-0.008392333984375
1772655999310823700,6.39382373046875,-0.9990386962890625,-0.016693115234375,-0.0068817138671875
1772655999320806000,6.403805908203125,-0.9989013671875,-0.0171966552734375,-0.0070343017578125
1772655999330787800,6.413787841796875,-0.998504638671875,-0.0164337158203125,-0.007080078125
1772655999340770800,6.423770751953125,-0.99932861328125,-0.01715087890625,-0.0073394775390625
1772655999350752800,6.433752685546875,-0.9988861083984375,-0.0168914794921875,-0.00775146484375
1772655999360734700,6.443734619140625,-0.9986419677734375,-0.016571044921875,-0.0070953369140625
1772655999370717000,6.453717041015625,-0.9995880126953125,-0.016387939453125,-0.007904052734375
1772655999380700000,6.463699951171875,-0.9987030029296875,-0.0163421630859375,-0.0086212158203125
1772655999390681900,6.473681884765625,-0.9991607666015625,-0.016632080078125,-0.0073699951171875
1772655999400663800,6.483663818359375,-0.9991912841796875,-0.0171356201171875,-0.0069580078125
1772655999410647000,6.49364697265625,-0.9991302490234375,-0.016326904296875,-0.00750732421875
1772655999420628700,6.503628662109375,-0.998992919921875,-0.0171661376953125,-0.0072479248046875
1772655999430611000,6.51361083984375,-0.9984588623046875,-0.0164642333984375,-0.0073394775390625
1772655999440592600,6.523592529296875,-0.998321533203125,-0.0163116455078125,-0.0078887939453125
1772655999450576000,6.533575927734375,-0.998443603515625,-0.0162811279296875,-0.00714111328125
1772655999460557800,6.543557861328125,-0.998321533203125,-0.01708984375,-0.006744384765625
1772655999470539800,6.553539794921875,-1.0000762939453125,-0.0167999267578125,-0.0069122314453125
1772655999480521700,6.563521728515625,-0.9995269775390625,-0.016143798828125,-0.00689697265625
1772655999490504700,6.573504638671875,-0.9998626708984375,-0.0164947509765625,-0.007843017578125
1772655999500487000,6.58348681640625,-0.99993896484375,-0.016448974609375,-0.007965087890625
1772655999510468600,6.593468505859375,-0.99884033203125,-0.0167236328125,-0.0071563720703125
1772655999520451800,6.603451904296875,-0.99951171875,-0.0166168212890625,-0.0074920654296875
1772655999530433800,6.613433837890625,-0.999908447265625,-0.0168304443359375,-0.0066986083984375
1772655999540415700,6.623415771484375,-0.9996185302734375,-0.0170135498046875,-0.0070037841796875
1772655999550398000,6.63339794921875,-0.9994964599609375,-0.016448974609375,-0.007537841796875
1772655999560380700,6.643380615234375,-0.99835205078125,-0.0167236328125,-0.0074920654296875
1772655999570363000,6.65336279296875,-0.9990997314453125,-0.0164947509765625,-0.0076751708984375
1772655999580344800,6.6633447265625,-0.9998321533203125,-0.01605224609375,-0.007080078125
1772655999590326800,6.673326904296875,-0.99847412109375,-0.016998291015625,-0.006866455078125
1772655999600309800,6.683309814453125,-0.998779296875,-0.0164947509765625,-0.00677490234375
1772655999610291700,6.693291748046875,-0.999053955078125,-0.0157470703125,-0.007080078125
1772655999620274000,6.70327392578125,-0.9992523193359375,-0.016387939453125,-0.0070037841796875
1772655999630257000,6.7132568359375,-0.999298095703125,-0.016754150390625,-0.0073089599609375
1772655999640238800,6.72323876953125,-0.9984893798828125,-0.0162353515625,-0.007293701171875
1772655999650220800,6.733220703125,-0.9987945556640625,-0.0168609619140625,-0.0076904296875
1772655999660202800,6.74320263671875,-0.999298095703125,-0.0169525146484375,-0.00738525390625
1772655999670185700,6.753185791015625,-0.999359130859375,-0.0165252685546875,-0.00726318359375
1772655999680168000,6.76316796875,-0.998870849609375,-0.0164337158203125,-0.007293701171875
1772655999690150000,6.77314990234375,-0.999114990234375,-0.015777587890625,-0.007720947265625
1772655999700132900,6.7831328125,-0.99859619140625,-0.01593017578125,-0.0070648193359375
1772655999710114800,6.79311474609375,-0.999176025390625,-0.017333984375,-0.0081939697265625
1772655999720096800,6.8030966796875,-0.9989166259765625,-0.0179443359375,-0.007415771484375
1772655999730078700,6.81307861328125,-0.9991455078125,-0.0167999267578125,-0.0075531005859375
1772655999740061700,6.823061767578125,-0.998321533203125,-0.01702880859375,-0.0073699951171875
1772655999750044000,6.8330439453125,-0.99945068359375,-0.016387939453125,-0.00701904296875
1772655999760025900,6.84302587890625,-0.9986419677734375,-0.017120361328125,-0.0074005126953125
1772655999770007800,6.8530078125,-0.999114990234375,-0.017364501953125,-0.0078887939453125
1772655999779990800,6.86299072265625,-0.9998016357421875,-0.0164947509765625,-0.0070648193359375
1772655999789972700,6.87297265625,-0.9990997314453125,-0.0159912109375,-0.007110595703125
1772655999799955000,6.882954833984375,-0.999664306640625,-0.01593017578125,-0.0074005126953125
1772655999809937700,6.892937744140625,-0.9992218017578125,-0.0168914794921875,-0.0073394775390625
1772655999819919600,6.902919677734375,-0.9986114501953125,-0.01666259765625,-0.0072784423828125
1772655999829901600,6.912901611328125,-0.9987335205078125,-0.0164947509765625,-0.006683349609375
1772655999839883500,6.922883544921875,-0.9986114501953125,-0.016326904296875,-0.00701904296875
1772655999849866800,6.93286669921875,-0.9995269775390625,-0.0158538818359375,-0.0061492919921875
1772655999859848700,6.9428486328125,-0.999114990234375,-0.0169830322265625,-0.0065155029296875
1772655999869830700,6.95283056640625,-0.9995880126953125,-0.0167694091796875,-0.0077056884765625
1772655999879813600,6.962813720703125,-0.9992218017578125,-0.0168914794921875,-0.0067138671875
1772655999889795800,6.9727958984375,-0.9996795654296875,-0.01617431640625,-0.0068817138671875
1772655999899777500,6.982777587890625,-0.999359130859375,-0.016571044921875,-0.0076446533203125
1772655999909759700,6.992759765625,-0.999053955078125,-0.0173492431640625,-0.0075225830078125
1772655999919742500,7.002742431640625,-0.9989013671875,-0.0165863037109375,-0.0069427490234375
1772655999929724700,7.012724609375,-0.99969482421875,-0.016357421875,-0.0078277587890625
1772655999939706600,7.02270654296875,-0.99932861328125,-0.016632080078125,-0.0077362060546875
1772655999949688600,7.0326884765625,-0.9986572265625,-0.015869140625,-0.0077667236328125
1772655999959671800,7.042671875,-0.99945068359375,-0.016204833984375,-0.0072784423828125
1772655999969653500,7.052653564453125,-0.998260498046875,-0.0163421630859375,-0.0064697265625
1772655999979635700,7.0626357421875,-0.999420166015625,-0.0163421630859375,-0.0066680908203125
1772655999989618700,7.07261865234375,-0.99981689453125,-0.0169525146484375,-0.00701904296875
1772655999999600600,7.0826005859375,-0.999664306640625,-0.0169525146484375,-0.007720947265625
1772656000009582800,7.092582763671875,-1.0001983642578125,-0.016143798828125,-0.0076904296875
1772656000019564500,7.102564453125,-1.0001983642578125,-0.0165863037109375,-0.0079803466796875
1772656000029547800,7.1125478515625,-0.99847412109375,-0.0164642333984375,-0.007415771484375
1772656000039529500,7.122529541015625,-0.9997100830078125,-0.01708984375,-0.0080108642578125
1772656000049511700,7.13251171875,-0.9996337890625,-0.0164337158203125,-0.00775146484375
1772656000059494700,7.14249462890625,-0.999847412109375,-0.01678466796875,-0.006805419921875
1772656000069476600,7.1524765625,-0.999786376953125,-0.0159454345703125,-0.0069732666015625
1772656000079458800,7.162458740234375,-0.999298095703125,-0.016632080078125,-0.0076446533203125
1772656000089440500,7.1724404296875,-0.9998016357421875,-0.0164337158203125,-0.0074005126953125
1772656000099423700,7.182423828125,-1,-0.0166168212890625,-0.0072174072265625
1772656000109405700,7.19240576171875,-0.9988555908203125,-0.01611328125,-0.0076446533203125
1772656000119387600,7.2023876953125,-0.999237060546875,-0.0172271728515625,-0.006927490234375
1772656000129370600,7.21237060546875,-0.999359130859375,-0.0166473388671875,-0.0084381103515625
1772656000139352600,7.2223525390625,-0.9997100830078125,-0.015350341796875,-0.0086822509765625
1772656000149334800,7.232334716796875,-1.0001220703125,-0.0158538818359375,-0.006927490234375
1772656000159316700,7.242316650390625,-0.9996795654296875,-0.016632080078125,-0.00714111328125
1772656000169299700,7.2522998046875,-0.9989471435546875,-0.0169677734375,-0.0074615478515625
1772656000179281700,7.26228173828125,-0.998565673828125,-0.0166168212890625,-0.00732421875
1772656000189263600,7.272263671875,-0.9993896484375,-0.016143798828125,-0.0077056884765625
1772656000199245600,7.28224560546875,-0.9992523193359375,-0.0166015625,-0.0075225830078125
1772656000209228800,7.292228759765625,-0.9984130859375,-0.016082763671875,-0.0075531005859375
1772656000219210800,7.302210693359375,-0.9993133544921875,-0.016082763671875,-0.0069580078125
1772656000229192700,7.312192626953125,-0.9995269775390625,-0.01708984375,-0.00732421875
1772656000239175700,7.32217578125,-0.999176025390625,-0.01708984375,-0.0072021484375
1772656000249157600,7.33215771484375,-0.999664306640625,-0.0170745849609375,-0.00732421875
1772656000259139800,7.342139892578125,-0.9985809326171875,-0.0162200927734375,-0.00640869140625
1772656000269121500,7.35212158203125,-0.9988250732421875,-0.0166168212890625,-0.006927490234375
1772656000279104800,7.362104736328125,-0.9994964599609375,-0.0167236328125,-0.006561279296875
1772656000289086500,7.37208642578125,-0.9992218017578125,-0.0168609619140625,-0.00738525390625
1772656000299068700,7.382068603515625,-0.999267578125,-0.0162506103515625,-0.0079193115234375
1772656000309051600,7.3920517578125,-0.9984130859375,-0.01593017578125,-0.00750732421875
1772656000319033600,7.40203369140625,-0.998748779296875,-0.01666259765625,-0.00738525390625
1772656000329015800,7.412015869140625,-0.99981689453125,-0.01641845703125,-0.00750732421875
1772656000338997500,7.42199755859375,-0.9991455078125,-0.0168914794921875,-0.0078125
1772656000348980700,7.431980712890625,-0.9987945556640625,-0.016265869140625,-0.0068817138671875
1772656000358962700,7.441962646484375,-0.9984283447265625,-0.0160675048828125,-0.0069732666015625
1772656000368944600,7.451944580078125,-0.99920654296875,-0.0169525146484375,-0.005950927734375
1772656000378927600,7.461927734375,-0.9989471435546875,-0.0163421630859375,-0.007598876953125
1772656000388909600,7.47190966796875,-0.99871826171875,-0.01641845703125,-0.0076446533203125
1772656000398891800,7.481891845703125,-0.999237060546875,-0.0164642333984375,-0.006500244140625
1772656000408873500,7.49187353515625,-0.9989471435546875,-0.016021728515625,-0.0064697265625
1772656000418856700,7.501856689453125,-0.9993743896484375,-0.017059326171875,-0.006988525390625
1772656000428838700,7.511838623046875,-0.999114990234375,-0.0164337158203125,-0.0066375732421875
1772656000438820600,7.521820556640625,-0.9985198974609375,-0.016143798828125,-0.007110595703125
1772656000448803600,7.531803466796875,-0.998870849609375,-0.01605224609375,-0.007171630859375
1772656000458785800,7.541785888671875,-0.9994354248046875,-0.0169677734375,-0.007720947265625
1772656000468767700,7.551767822265625,-0.999114990234375,-0.0165557861328125,-0.007720947265625
1772656000478749700,7.561749755859375,-0.9999237060546875,-0.016845703125,-0.0076751708984375
1772656000488732700,7.571732666015625,-0.9998931884765625,-0.0171051025390625,-0.0068206787109375
1772656000498714600,7.581714599609375,-0.9995574951171875,-0.01666259765625,-0.0075225830078125
1772656000508696600,7.591696533203125,-0.99945068359375,-0.0171356201171875,-0.0069732666015625
1772656000518679600,7.601679443359375,-0.9987945556640625,-0.0162200927734375,-0.0068817138671875
1772656000528661800,7.611661865234375,-0.999542236328125,-0.0163726806640625,-0.0057220458984375
1772656000538643700,7.621643798828125,-0.9990997314453125,-0.01690673828125,-0.0069732666015625
1772656000548625700,7.631625732421875,-0.9990386962890625,-0.0162811279296875,-0.0076446533203125
1772656000558609000,7.64160888671875,-0.9993438720703125,-0.01641845703125,-0.0075836181640625
1772656000568590600,7.651590576171875,-0.9989166259765625,-0.0159454345703125,-0.007232666015625
1772656000578572800,7.66157275390625,-0.9976959228515625,-0.016357421875,-0.0078582763671875
1772656000588554500,7.671554443359375,-0.9997100830078125,-0.01678466796875,-0.005645751953125
1772656000598537700,7.681537841796875,-0.99981689453125,-0.0162506103515625,-0.006988525390625
1772656000608519700,7.691519775390625,-0.9980010986328125,-0.0164337158203125,-0.007568359375
1772656000618501600,7.701501708984375,-0.998809814453125,-0.0165252685546875,-0.007568359375
1772656000628484600,7.711484619140625,-1.0000457763671875,-0.0167236328125,-0.0069732666015625
1772656000638466600,7.721466552734375,-1.0005645751953125,-0.0167694091796875,-0.0067901611328125
1772656000648448800,7.73144873046875,-0.9980621337890625,-0.0158538818359375,-0.0106201171875
1772656000658430500,7.741430419921875,-0.994964599609375,-0.0172119140625,-0.0114288330078125
1772656000668413700,7.75141357421875,-1.0003814697265625,-0.0174560546875,-0.00189208984375
1772656000678395600,7.761395751953125,-1.00494384765625,-0.01800537109375,-0.006195068359375
1772656000688377600,7.771377685546875,-0.99932861328125,-0.0155487060546875,-0.0078887939453125
1772656000698360600,7.781360595703125,-0.99383544921875,-0.0150909423828125,-0.0078277587890625
1772656000708342800,7.7913427734375,-1.0001678466796875,-0.0162811279296875,-0.007293701171875
1772656000718324700,7.80132470703125,-1.00238037109375,-0.0171051025390625,-0.0060272216796875
1772656000728306700,7.811306640625,-0.999359130859375,-0.01641845703125,-0.0070037841796875
1772656000738289700,7.82128955078125,-0.9960479736328125,-0.01641845703125,-0.007232666015625
1772656000748271600,7.831271728515625,-1.0003662109375,-0.0173797607421875,-0.007476806640625
1772656000758253600,7.841253662109375,-1.0011444091796875,-0.016571044921875,-0.006866455078125
1772656000768236500,7.851236572265625,-0.9982147216796875,-0.016021728515625,-0.0071563720703125
1772656000778218800,7.86121875,-0.99761962890625,-0.0164337158203125,-0.00689697265625
1772656000788200700,7.87120068359375,-0.999908447265625,-0.0163116455078125,-0.0066375732421875
1772656000798182700,7.8811826171875,-1.0004425048828125,-0.016326904296875,-0.0072784423828125
1772656000808169700,7.891169677734375,-0.9987945556640625,-0.01666259765625,-0.008270263671875
1772656000818152000,7.90115185546875,-0.9979095458984375,-0.016510009765625,-0.007904052734375
1772656000828134000,7.9111337890625,-0.998382568359375,-0.01666259765625,-0.0072479248046875
1772656000838116900,7.921116943359375,-0.9982757568359375,-0.0164794921875,-0.0075225830078125
1772656000848098800,7.931098876953125,-0.9981689453125,-0.01666259765625,-0.0078887939453125
1772656000858080800,7.941080810546875,-0.999267578125,-0.015777587890625,-0.0075531005859375
1772656000868062700,7.951062744140625,-0.9988861083984375,-0.0158233642578125,-0.0081329345703125
1772656000878045700,7.961045654296875,-0.99981689453125,-0.0159149169921875,-0.008026123046875
1772656000888028000,7.97102783203125,-0.9993438720703125,-0.0160675048828125,-0.0073394775390625
1772656000898009900,7.981009765625,-0.99945068359375,-0.0167999267578125,-0.006866455078125
1772656000907992800,7.990992919921875,-0.9994354248046875,-0.01678466796875,-0.00775146484375
1772656000917975000,8.00097509765625,-0.998382568359375,-0.016082763671875,-0.0070343017578125
1772656000927956700,8.010956787109375,-0.9994964599609375,-0.016815185546875,-0.0076904296875
1772656000937939000,8.02093896484375,-0.9991302490234375,-0.0172271728515625,-0.00738525390625
1772656000947921700,8.030921630859375,-0.9990386962890625,-0.0163116455078125,-0.0075531005859375
1772656000957904000,8.04090380859375,-0.9977264404296875,-0.016204833984375,-0.0076904296875
1772656000967885800,8.0508857421875,-0.999786376953125,-0.0169525146484375,-0.008148193359375
1772656000977868800,8.060868896484376,-1.0004425048828125,-0.0152740478515625,-0.007232666015625
1772656000987851000,8.07085107421875,-0.9980621337890625,-0.0162506103515625,-0.00726318359375
1772656000997832700,8.080832763671875,-0.99859619140625,-0.015899658203125,-0.007476806640625
1772656001007815000,8.09081494140625,-0.9991607666015625,-0.0166473388671875,-0.0082244873046875
1772656001017798000,8.1007978515625,-0.9993743896484375,-0.0164642333984375,-0.0078582763671875
1772656001027779800,8.11077978515625,-0.999359130859375,-0.01702880859375,-0.0076141357421875
1772656001037762000,8.120761962890626,-0.9988555908203125,-0.0168914794921875,-0.0071258544921875
1772656001047744800,8.130744873046876,-0.9994964599609375,-0.016815185546875,-0.0076751708984375
1772656001057727000,8.14072705078125,-0.999603271484375,-0.016204833984375,-0.0071258544921875
1772656001067708700,8.150708740234375,-0.9990234375,-0.0166015625,-0.00689697265625
1772656001077691000,8.16069091796875,-0.9986419677734375,-0.0165863037109375,-0.00836181640625
1772656001087673900,8.170673828125,-0.9992218017578125,-0.016754150390625,-0.007568359375
1772656001097655800,8.18065576171875,-0.9982757568359375,-0.0166168212890625,-0.0069122314453125
1772656001107637800,8.1906376953125,-0.99969482421875,-0.016845703125,-0.00750732421875
1772656001117619700,8.20061962890625,-0.99981689453125,-0.016326904296875,-0.0068817138671875
1772656001127602700,8.210602783203125,-0.9999237060546875,-0.0167999267578125,-0.0076446533203125
1772656001137585000,8.2205849609375,-0.99798583984375,-0.0164031982421875,-0.0074920654296875
1772656001147566800,8.23056689453125,-0.998687744140625,-0.0161285400390625,-0.0077362060546875
1772656001157549800,8.2405498046875,-0.999542236328125,-0.0164794921875,-0.0077362060546875
1772656001167531800,8.25053173828125,-0.9992218017578125,-0.016326904296875,-0.0073089599609375
1772656001177513700,8.260513671875,-0.9987030029296875,-0.016082763671875,-0.0074615478515625
1772656001187497000,8.2704970703125,-0.99908447265625,-0.0166778564453125,-0.007568359375
1772656001197478700,8.280478759765625,-1.000823974609375,-0.0172119140625,-0.00677490234375
1772656001207460900,8.2904609375,-0.9982452392578125,-0.0168304443359375,-0.007537841796875
1772656001217442800,8.30044287109375,-0.9991607666015625,-0.01605224609375,-0.00750732421875
1772656001227425800,8.31042578125,-0.99835205078125,-0.016357421875,-0.007476806640625
1772656001237408000,8.320407958984376,-1.0006561279296875,-0.0171356201171875,-0.0081329345703125
1772656001247389700,8.3303896484375,-1.000152587890625,-0.0163421630859375,-0.00811767578125
1772656001257373000,8.340373046875,-0.9993743896484375,-0.01678466796875,-0.007171630859375
1772656001267354600,8.350354736328125,-0.9994354248046875,-0.016387939453125,-0.007781982421875
1772656001277336800,8.3603369140625,-0.999298095703125,-0.0158843994140625,-0.0078582763671875
1772656001287319000,8.370319091796874,-0.9996185302734375,-0.01678466796875,-0.0075836181640625
1772656001297301800,8.3803017578125,-0.998992919921875,-0.0165863037109375,-0.007476806640625
1772656001307284000,8.390283935546876,-0.99871826171875,-0.01678466796875,-0.0067596435546875
1772656001317265700,8.400265625,-0.9987640380859375,-0.0163421630859375,-0.00714111328125
1772656001327249000,8.410248779296875,-0.9993133544921875,-0.0162353515625,-0.007080078125
1772656001337230800,8.42023095703125,-0.99932861328125,-0.016326904296875,-0.00738525390625
1772656001347212800,8.430212890625,-0.99957275390625,-0.0162353515625,-0.0077667236328125
1772656001357195000,8.440195068359374,-0.9991912841796875,-0.0158538818359375,-0.0070343017578125
1772656001367177700,8.450177734375,-0.99884033203125,-0.0161590576171875,-0.0078582763671875
1772656001377160000,8.460159912109376,-0.998992919921875,-0.0162200927734375,-0.0076904296875
1772656001387142000,8.470141845703125,-0.99993896484375,-0.0158538818359375,-0.0074310302734375
1772656001397124900,8.480124755859375,-0.9985198974609375,-0.01617431640625,-0.00762939453125
1772656001407106800,8.49010693359375,-0.9995574951171875,-0.0157623291015625,-0.007354736328125
1772656001417088800,8.5000888671875,-0.99896240234375,-0.0164947509765625,-0.0074615478515625
1772656001427071000,8.510071044921874,-0.999542236328125,-0.0159149169921875,-0.006866455078125
1772656001437054000,8.520053955078126,-0.9991302490234375,-0.016204833984375,-0.00701904296875
1772656001447036000,8.530035888671875,-1.0001373291015625,-0.0164947509765625,-0.0077056884765625
1772656001457017900,8.540017822265625,-0.9999237060546875,-0.0163421630859375,-0.0073394775390625
1772656001467000800,8.550000732421875,-0.9991912841796875,-0.0168609619140625,-0.0064544677734375
1772656001476982800,8.559982666015625,-0.9986419677734375,-0.016937255859375,-0.00799560546875
1772656001486965000,8.569965087890624,-0.9989013671875,-0.0166778564453125,-0.006988525390625
1772656001496946700,8.57994677734375,-0.9997711181640625,-0.0166168212890625,-0.00628662109375
1772656001506930000,8.589929931640626,-0.998321533203125,-0.0167236328125,-0.007293701171875
1772656001516911900,8.599911865234375,-0.99932861328125,-0.01641845703125,-0.0074310302734375
1772656001526893800,8.609893798828125,-0.9997100830078125,-0.0157012939453125,-0.006805419921875
1772656001536876800,8.619876708984375,-0.99847412109375,-0.01715087890625,-0.0073699951171875
1772656001546858800,8.629858642578125,-0.998687744140625,-0.016815185546875,-0.0071258544921875
1772656001556841000,8.639841064453124,-0.9994049072265625,-0.0166168212890625,-0.0074005126953125
1772656001566822700,8.64982275390625,-0.9989776611328125,-0.016082763671875,-0.0073089599609375
1772656001576806000,8.659805908203126,-0.99945068359375,-0.0165557861328125,-0.007110595703125
1772656001586787800,8.669787841796875,-0.9990234375,-0.01678466796875,-0.0071258544921875
1772656001596769800,8.679769775390625,-0.9979248046875,-0.0158538818359375,-0.0071868896484375
1772656001606752800,8.689752685546875,-0.9991607666015625,-0.015411376953125,-0.007476806640625
1772656001616734700,8.699734619140624,-0.9986419677734375,-0.0165557861328125,-0.0073089599609375
1772656001626717000,8.709717041015624,-0.998748779296875,-0.0162811279296875,-0.0068206787109375
1772656001636698600,8.71969873046875,-0.999053955078125,-0.0163726806640625,-0.006988525390625
1772656001646681900,8.729681884765625,-1.00042724609375,-0.01593017578125,-0.0074005126953125
1772656001656663800,8.739663818359375,-0.999481201171875,-0.0163726806640625,-0.0069122314453125
1772656001666645800,8.749645751953125,-0.9991302490234375,-0.0168609619140625,-0.00689697265625
1772656001676628700,8.759628662109375,-0.9990692138671875,-0.0164947509765625,-0.0072174072265625
1772656001686611000,8.76961083984375,-0.998291015625,-0.0159912109375,-0.0069580078125
1772656001696593000,8.779593017578126,-0.998748779296875,-0.01708984375,-0.0068511962890625
1772656001706574800,8.789574951171875,-0.999237060546875,-0.016448974609375,-0.007110595703125
1772656001716557800,8.799557861328125,-0.9986419677734375,-0.0170440673828125,-0.0074005126953125
1772656001726539800,8.809539794921875,-0.999176025390625,-0.0157623291015625,-0.0070648193359375
1772656001736521700,8.819521728515625,-1.000244140625,-0.016845703125,-0.007232666015625
1772656001746504700,8.829504638671875,-0.9994354248046875,-0.0167083740234375,-0.007720947265625
1772656001756487000,8.83948681640625,-0.9990997314453125,-0.0169677734375,-0.0076446533203125
1772656001766468900,8.84946875,-0.9987945556640625,-0.0162506103515625,-0.007537841796875
1772656001776450800,8.859450927734375,-0.99957275390625,-0.0157012939453125,-0.0078277587890625
1772656001786434000,8.86943408203125,-1.000152587890625,-0.0164642333984375,-0.00830078125
1772656001796415700,8.879415771484375,-0.999237060546875,-0.0164947509765625,-0.0075225830078125
1772656001806393600,8.8893935546875,-0.99859619140625,-0.0167694091796875,-0.0071563720703125
1772656001816376600,8.89937646484375,-0.998992919921875,-0.01654052734375,-0.0077972412109375
1772656001826358800,8.90935888671875,-0.9990234375,-0.0166473388671875,-0.00823974609375
1772656001836340700,8.9193408203125,-0.9990081787109375,-0.016326904296875,-0.0080718994140625
1772656001846323700,8.92932373046875,-0.999420166015625,-0.0162200927734375,-0.0074920654296875
1772656001856305700,8.9393056640625,-0.99932861328125,-0.016265869140625,-0.0074310302734375
1772656001866287600,8.94928759765625,-0.998748779296875,-0.0167999267578125,-0.006927490234375
1772656001876269800,8.959269775390625,-0.99969482421875,-0.0165252685546875,-0.00738525390625
1772656001886252500,8.96925244140625,-0.99945068359375,-0.0167999267578125,-0.007537841796875
1772656001896234800,8.97923486328125,-1.000213623046875,-0.0169830322265625,-0.007659912109375
1772656001906216700,8.989216796875,-0.9995269775390625,-0.0155029296875,-0.008270263671875
1772656001916199700,8.99919970703125,-0.998046875,-0.0167694091796875,-0.007476806640625
1772656001926182000,9.009181884765624,-0.9982452392578125,-0.01641845703125,-0.00732421875
1772656001936163600,9.01916357421875,-0.9990386962890625,-0.016571044921875,-0.0073699951171875
1772656001946145800,9.029145751953125,-0.998779296875,-0.015716552734375,-0.008148193359375
1772656001956128500,9.03912841796875,-0.9993438720703125,-0.0163116455078125,-0.007537841796875
1772656001966110700,9.04911083984375,-0.99847412109375,-0.01690673828125,-0.007476806640625
1772656001976093000,9.059093017578125,-0.998748779296875,-0.0167694091796875,-0.00762939453125
1772656001986075600,9.06907568359375,-0.9998931884765625,-0.017578125,-0.00775146484375
1772656001996057900,9.079057861328126,-0.999664306640625,-0.016448974609375,-0.008453369140625
1772656002006039600,9.08903955078125,-0.999114990234375,-0.016265869140625,-0.008056640625
1772656002016021800,9.099021728515625,-0.99920654296875,-0.01654052734375,-0.008453369140625
1772656002026004700,9.109004638671875,-0.99884033203125,-0.0158538818359375,-0.00701904296875
1772656002035986700,9.118986572265625,-0.999359130859375,-0.0161590576171875,-0.007293701171875
1772656002045969000,9.128968994140624,-1.000579833984375,-0.0158233642578125,-0.0070953369140625
1772656002055951600,9.13895166015625,-1.0000152587890625,-0.0157012939453125,-0.0077056884765625
1772656002065933800,9.148933837890626,-0.99920654296875,-0.0163421630859375,-0.0072784423828125
1772656002075915800,9.158915771484375,-0.99896240234375,-0.016571044921875,-0.0073394775390625
1772656002085898800,9.168898681640625,-1.000335693359375,-0.016632080078125,-0.0082244873046875
1772656002095880700,9.178880615234375,-0.9991455078125,-0.0163421630859375,-0.006744384765625
1772656002105862700,9.188862548828125,-0.9983367919921875,-0.0171356201171875,-0.006927490234375
1772656002115844600,9.1988447265625,-0.998687744140625,-0.0170745849609375,-0.0066375732421875
1772656002125827800,9.208827880859374,-0.9990692138671875,-0.0165252685546875,-0.0076751708984375
1772656002135809500,9.2188095703125,-0.9993896484375,-0.01611328125,-0.0075531005859375
1772656002145791700,9.228791748046875,-0.9993743896484375,-0.0162353515625,-0.00665283203125
1772656002155774700,9.238774658203125,-0.9989013671875,-0.016937255859375,-0.0076904296875
1772656002165756700,9.248756591796875,-0.999786376953125,-0.0159759521484375,-0.007598876953125
1772656002175739000,9.25873876953125,-0.99981689453125,-0.01654052734375,-0.00714111328125
1772656002185720600,9.268720458984374,-0.9996185302734375,-0.0170135498046875,-0.0069732666015625
1772656002195703800,9.278703857421876,-0.99853515625,-0.016937255859375,-0.0074005126953125
1772656002205685500,9.288685546875,-0.9987945556640625,-0.01580810546875,-0.0076446533203125
1772656002215667700,9.298667724609375,-0.9996795654296875,-0.0160675048828125,-0.0075531005859375
1772656002225650700,9.308650634765625,-0.9986114501953125,-0.0170440673828125,-0.0074920654296875
1772656002235632600,9.318632568359375,-0.9998321533203125,-0.01702880859375,-0.0071563720703125
1772656002245614800,9.32861474609375,-0.998626708984375,-0.0164794921875,-0.00726318359375
1772656002255596500,9.338596435546876,-0.9981842041015625,-0.0171661376953125,-0.0069580078125
1772656002265579800,9.348579833984376,-0.9986419677734375,-0.0164794921875,-0.0072784423828125
1772656002275561700,9.358561767578125,-0.9992828369140625,-0.0167388916015625,-0.00726318359375
1772656002285543700,9.368543701171875,-0.99932861328125,-0.0168304443359375,-0.0077362060546875
1772656002295526700,9.378526611328125,-0.9989166259765625,-0.0166778564453125,-0.008148193359375
1772656002305508600,9.388508544921875,-0.99871826171875,-0.016143798828125,-0.0074615478515625
1772656002315490800,9.39849072265625,-0.9994354248046875,-0.01580810546875,-0.007049560546875
1772656002325473800,9.408473876953124,-0.9983673095703125,-0.0165557861328125,-0.0071868896484375
1772656002335455700,9.418455810546876,-0.999359130859375,-0.0163726806640625,-0.00750732421875
1772656002345437700,9.428437744140625,-0.9991302490234375,-0.01654052734375,-0.0074615478515625
1772656002355419600,9.438419677734375,-0.998626708984375,-0.0161590576171875,-0.0067291259765625
1772656002365402600,9.448402587890625,-0.999481201171875,-0.0164642333984375,-0.0069427490234375
1772656002375384800,9.458384765625,-1.000885009765625,-0.0167694091796875,-0.0078125
1772656002385366800,9.46836669921875,-0.998687744140625,-0.0158538818359375,-0.007476806640625
1772656002395349800,9.478349853515626,-0.99896240234375,-0.0173492431640625,-0.0077972412109375
1772656002405331700,9.488331787109376,-1.00006103515625,-0.016632080078125,-0.0078887939453125
1772656002415313700,9.498313720703125,-0.9991455078125,-0.0171661376953125,-0.0079498291015625
1772656002425296000,9.5082958984375,-0.9999542236328125,-0.0166168212890625,-0.008056640625
1772656002435278600,9.518278564453125,-0.9993896484375,-0.0167694091796875,-0.0078887939453125
1772656002445260800,9.5282607421875,-0.998687744140625,-0.0165863037109375,-0.0074310302734375
1772656002455242800,9.53824267578125,-1.0002593994140625,-0.016143798828125,-0.007476806640625
1772656002465225700,9.548225830078126,-0.9995269775390625,-0.016448974609375,-0.0076904296875
1772656002475207700,9.558207763671875,-0.9985198974609375,-0.0163421630859375,-0.006683349609375
1772656002485189600,9.568189697265625,-0.9987030029296875,-0.0164642333984375,-0.007110595703125
1772656002495171800,9.578171875,-0.9990386962890625,-0.0160980224609375,-0.0077667236328125
1772656002505154600,9.588154541015625,-0.999267578125,-0.0159912109375,-0.006866455078125
1772656002515136800,9.59813671875,-0.9975433349609375,-0.0163116455078125,-0.00689697265625
1772656002525118700,9.60811865234375,-0.999237060546875,-0.0164642333984375,-0.007476806640625
1772656002535101700,9.618101806640626,-0.9989166259765625,-0.0164642333984375,-0.00738525390625
1772656002545083600,9.628083740234375,-0.998321533203125,-0.015899658203125,-0.0083160400390625
1772656002555065600,9.638065673828125,-0.9991607666015625,-0.016571044921875,-0.00823974609375
1772656002565048600,9.648048583984375,-1.0002288818359375,-0.0171661376953125,-0.007568359375
1772656002575030800,9.65803076171875,-0.999114990234375,-0.01629638671875,-0.0068359375
1772656002585012700,9.6680126953125,-0.9998931884765625,-0.016632080078125,-0.0075225830078125
1772656002594994700,9.67799462890625,-0.9995269775390625,-0.0164947509765625,-0.0074920654296875
1772656002604977700,9.687977783203126,-0.998931884765625,-0.01617431640625,-0.0076904296875
1772656002614959600,9.697959716796875,-0.9993133544921875,-0.016845703125,-0.0074920654296875
1772656002624941800,9.70794189453125,-0.999359130859375,-0.0167694091796875,-0.0076446533203125
1772656002634924500,9.717924560546875,-0.9995880126953125,-0.01629638671875,-0.007354736328125
1772656002644906800,9.72790673828125,-0.999603271484375,-0.016693115234375,-0.006103515625
1772656002654888700,9.737888671875,-0.99920654296875,-0.0158538818359375,-0.0076904296875
1772656002664870700,9.74787060546875,-0.9990997314453125,-0.016387939453125,-0.0082244873046875
1772656002674854000,9.75785400390625,-0.9980926513671875,-0.0161285400390625,-0.0072479248046875
1772656002684835600,9.767835693359375,-0.9992828369140625,-0.0164794921875,-0.0077972412109375
1772656002694817800,9.77781787109375,-0.999053955078125,-0.0165557861328125,-0.0088043212890625
1772656002704800500,9.787800537109375,-0.9989013671875,-0.01629638671875,-0.0072174072265625
1772656002714782700,9.79778271484375,-0.999725341796875,-0.01611328125,-0.00701904296875
1772656002724765000,9.807764892578126,-0.9995269775390625,-0.0157470703125,-0.0071868896484375
1772656002734746600,9.81774658203125,-0.9991912841796875,-0.017059326171875,-0.0071258544921875
1772656002744729900,9.827729736328125,-0.9996795654296875,-0.0169525146484375,-0.007080078125
1772656002754711600,9.837711669921875,-1.000640869140625,-0.01708984375,-0.0079345703125
1772656002764693800,9.84769384765625,-0.999755859375,-0.0162200927734375,-0.0080108642578125
1772656002774676700,9.8576767578125,-0.99945068359375,-0.0163726806640625,-0.007080078125
1772656002784658700,9.86765869140625,-1.0000762939453125,-0.016082763671875,-0.007354736328125
1772656002794641000,9.877640869140626,-0.9995880126953125,-0.0177001953125,-0.0079498291015625
1772656002804623600,9.88762353515625,-0.99920654296875,-0.0157012939453125,-0.0077667236328125
1772656002814605600,9.89760546875,-0.999664306640625,-0.0161285400390625,-0.007232666015625
1772656002824587500,9.90758740234375,-0.9990081787109375,-0.016571044921875,-0.0072021484375
1772656002834569500,9.917569580078125,-0.9986572265625,-0.017120361328125,-0.0079193115234375
1772656002844552400,9.927552490234374,-0.998443603515625,-0.016937255859375,-0.007049560546875
1772656002854534700,9.93753466796875,-0.999298095703125,-0.0167236328125,-0.007080078125
1772656002864516600,9.9475166015625,-0.99957275390625,-0.0161590576171875,-0.007415771484375
1772656002874499600,9.95749951171875,-0.9990234375,-0.0169830322265625,-0.0079193115234375
1772656002884481500,9.9674814453125,-0.9990386962890625,-0.0164642333984375,-0.008026123046875
1772656002894463500,9.97746337890625,-0.998870849609375,-0.016387939453125,-0.007537841796875
1772656002904445700,9.98744580078125,-1.000152587890625,-0.0167083740234375,-0.0078125
1772656002914428400,9.997428466796874,-0.9990081787109375,-0.0163421630859375,-0.0079498291015625
1772656002924410600,10.00741064453125,-0.998992919921875,-0.01666259765625,-0.0078277587890625
1772656002934392600,10.017392578125,-0.99951171875,-0.016448974609375,-0.007720947265625
1772656002944375600,10.02737548828125,-0.9984588623046875,-0.01617431640625,-0.007659912109375
1772656002954357500,10.037357421875,-0.99957275390625,-0.01593017578125,-0.0079803466796875
1772656002964339500,10.04733935546875,-0.99969482421875,-0.0166778564453125,-0.006866455078125
1772656002974322400,10.057322509765624,-0.999176025390625,-0.016845703125,-0.0071563720703125
1772656002984304400,10.067304443359374,-1.000335693359375,-0.0169525146484375,-0.0070343017578125
1772656002994286600,10.07728662109375,-1,-0.0164794921875,-0.0064697265625
1772656003004268500,10.0872685546875,-0.9984588623046875,-0.0171356201171875,-0.006378173828125
1772656003014251500,10.09725146484375,-0.9994964599609375,-0.0166015625,-0.0078582763671875
1772656003024233500,10.1072333984375,-0.9995269775390625,-0.0157470703125,-0.007598876953125
1772656003034215400,10.11721533203125,-0.99884033203125,-0.0164794921875,-0.0071258544921875
1772656003044198400,10.127198486328124,-0.999298095703125,-0.016754150390625,-0.007171630859375
1772656003054180600,10.1371806640625,-0.9998321533203125,-0.0166473388671875,-0.0072021484375
1772656003064162600,10.14716259765625,-0.999603271484375,-0.0168609619140625,-0.0078277587890625
1772656003074145500,10.1571455078125,-0.9995880126953125,-0.0166473388671875,-0.0070953369140625
1772656003084127700,10.167127685546875,-0.999664306640625,-0.0166168212890625,-0.0075225830078125
1772656003094109400,10.177109375,-0.9994354248046875,-0.016571044921875,-0.0079803466796875
1772656003104091600,10.187091552734374,-0.998992919921875,-0.016265869140625,-0.007080078125
1772656003114074400,10.197074462890624,-0.999267578125,-0.0158843994140625,-0.0067291259765625
1772656003124056600,10.207056640625,-0.9990692138671875,-0.0172271728515625,-0.0078887939453125
1772656003134038500,10.21703857421875,-0.99957275390625,-0.01690673828125,-0.00775146484375
1772656003144021500,10.227021484375,-0.9989471435546875,-0.0158233642578125,-0.0081787109375
1772656003154003700,10.237003662109375,-0.9989166259765625,-0.016448974609375,-0.0071868896484375
1772656003163985400,10.2469853515625,-0.9989776611328125,-0.0166778564453125,-0.007080078125
1772656003173967600,10.256967529296874,-0.9990081787109375,-0.016357421875,-0.006683349609375
1772656003183950600,10.26695068359375,-0.999176025390625,-0.0169830322265625,-0.0081634521484375
1772656003193932500,10.2769326171875,-0.9990081787109375,-0.016632080078125,-0.0066375732421875
1772656003203914800,10.286914794921875,-0.999176025390625,-0.01611328125,-0.00677490234375
1772656003213897500,10.2968974609375,-0.9994659423828125,-0.0171356201171875,-0.0076141357421875
1772656003223879700,10.306879638671875,-0.9999542236328125,-0.0155792236328125,-0.006561279296875
1772656003233861400,10.316861328125,-0.9992218017578125,-0.0165863037109375,-0.0075225830078125
1772656003243843600,10.326843505859374,-0.9985504150390625,-0.0160064697265625,-0.0071563720703125
1772656003253826600,10.33682666015625,-0.9986419677734375,-0.0158538818359375,-0.007537841796875
1772656003263808500,10.34680859375,-0.999481201171875,-0.01617431640625,-0.0079345703125
1772656003273790700,10.356790771484375,-0.9987945556640625,-0.0166015625,-0.0079803466796875
1772656003283773700,10.366773681640625,-0.9987945556640625,-0.015869140625,-0.00634765625
1772656003293755600,10.376755615234375,-0.9992523193359375,-0.0164031982421875,-0.00738525390625
1772656003303737600,10.386737548828124,-0.9992523193359375,-0.0164031982421875,-0.006988525390625
1772656003313720600,10.396720458984374,-0.9989166259765625,-0.01666259765625,-0.007598876953125
1772656003323702500,10.40670263671875,-1.0009613037109375,-0.017333984375,-0.00787353515625
1772656003333684500,10.4166845703125,-0.9997711181640625,-0.0160064697265625,-0.00689697265625
1772656003343666400,10.42666650390625,-1.000030517578125,-0.0161895751953125,-0.0076904296875
1772656003353649700,10.436649658203125,-0.998626708984375,-0.0158538818359375,-0.007476806640625
1772656003363631400,10.44663134765625,-0.99908447265625,-0.0161590576171875,-0.00701904296875
1772656003373613600,10.456613525390624,-0.9984588623046875,-0.01629638671875,-0.007537841796875
1772656003383596500,10.466596435546874,-0.9984588623046875,-0.0166015625,-0.0074615478515625
1772656003393578500,10.47657861328125,-0.99969482421875,-0.016448974609375,-0.0066375732421875
1772656003403560700,10.486560791015625,-0.998565673828125,-0.01617431640625,-0.0075836181640625
1772656003413543400,10.49654345703125,-0.9981842041015625,-0.016998291015625,-0.0076141357421875
1772656003423525600,10.506525634765625,-0.99896240234375,-0.01629638671875,-0.007476806640625
1772656003433507300,10.51650732421875,-0.99884033203125,-0.01666259765625,-0.0075531005859375
1772656003443489500,10.526489501953124,-0.99871826171875,-0.0157470703125,-0.007354736328125
1772656003453472500,10.536472412109376,-0.9991912841796875,-0.016845703125,-0.0082550048828125
1772656003463454500,10.546454345703125,-1.0001983642578125,-0.0174560546875,-0.00750732421875
1772656003473436700,10.556436767578125,-0.9989471435546875,-0.0162811279296875,-0.0076904296875
1772656003483419600,10.566419677734375,-0.9991302490234375,-0.0162506103515625,-0.00787353515625
1772656003493401600,10.576401611328125,-0.999542236328125,-0.0160980224609375,-0.006988525390625
1772656003503383600,10.586383544921874,-1.00042724609375,-0.016876220703125,-0.0081939697265625
1772656003513365500,10.596365478515626,-0.998931884765625,-0.0165252685546875,-0.008575439453125
1772656003523348500,10.606348388671876,-0.9989471435546875,-0.016143798828125,-0.00701904296875
1772656003533330400,10.616330322265625,-0.999481201171875,-0.0159454345703125,-0.0063018798828125
1772656003543312600,10.626312744140625,-0.999237060546875,-0.01629638671875,-0.0074920654296875
1772656003553295600,10.636295654296875,-0.9991302490234375,-0.0163726806640625,-0.0080108642578125
1772656003563277600,10.646277587890625,-0.9994354248046875,-0.0181884765625,-0.007904052734375
1772656003573259500,10.656259521484374,-0.9988555908203125,-0.0169219970703125,-0.00738525390625
1772656003583242800,10.66624267578125,-0.999847412109375,-0.0164642333984375,-0.008209228515625
1772656003593224400,10.676224365234376,-1.0003204345703125,-0.0164642333984375,-0.007415771484375
1772656003603206700,10.68620654296875,-0.9993743896484375,-0.01654052734375,-0.00640869140625
1772656003613188600,10.696188720703125,-0.998199462890625,-0.0167999267578125,-0.006500244140625
1772656003623171600,10.706171630859375,-0.9993438720703125,-0.0167236328125,-0.0072784423828125
1772656003633153500,10.716153564453125,-0.9985809326171875,-0.0157623291015625,-0.00799560546875
1772656003643135500,10.726135498046874,-0.9989471435546875,-0.0174102783203125,-0.0082550048828125
1772656003653118700,10.73611865234375,-0.9997406005859375,-0.0163116455078125,-0.0074920654296875
1772656003663100400,10.746100341796875,-0.9987030029296875,-0.0162200927734375,-0.007354736328125
1772656003673082600,10.75608251953125,-0.9995269775390625,-0.01678466796875,-0.0072784423828125
1772656003683065600,10.766065673828125,-0.9989776611328125,-0.0165863037109375,-0.007110595703125
1772656003693047600,10.776047607421875,-0.9993133544921875,-0.0160980224609375,-0.008087158203125
1772656003703029800,10.78602978515625,-0.9983062744140625,-0.0164642333984375,-0.0074462890625
1772656003713011500,10.796011474609376,-0.99884033203125,-0.0161895751953125,-0.007720947265625
1772656003722994700,10.80599462890625,-0.999755859375,-0.0163726806640625,-0.007720947265625
1772656003732976400,10.815976318359375,-0.9991912841796875,-0.0162353515625,-0.00732421875
1772656003742958600,10.82595849609375,-0.9998931884765625,-0.0167083740234375,-0.0073699951171875
1772656003752941600,10.835941650390625,-0.998931884765625,-0.0157318115234375,-0.007843017578125
1772656003762923500,10.845923583984375,-0.9996795654296875,-0.016265869140625,-0.0072479248046875
1772656003772905500,10.855905517578124,-0.9989166259765625,-0.01617431640625,-0.006744384765625
1772656003782888700,10.865888671875,-0.9984130859375,-0.0167388916015625,-0.007904052734375
1772656003792870400,10.875870361328126,-0.9984588623046875,-0.0161285400390625,-0.0076446533203125
1772656003802852600,10.8858525390625,-0.9980010986328125,-0.0162353515625,-0.007354736328125
1772656003812835300,10.89583544921875,-0.9991302490234375,-0.0165557861328125,-0.007293701171875
1772656003822818300,10.905818359375,-0.9988250732421875,-0.0157928466796875,-0.0080413818359375
1772656003832800500,10.915800537109375,-0.9991607666015625,-0.01629638671875,-0.0070343017578125
1772656003842782200,10.9257822265625,-0.9992218017578125,-0.0163726806640625,-0.0057525634765625
1772656003852765400,10.935765380859374,-0.9994659423828125,-0.016448974609375,-0.0077056884765625
1772656003862747400,10.945747314453126,-0.9987030029296875,-0.0164947509765625,-0.0074005126953125
1772656003872729300,10.955729248046875,-0.9988250732421875,-0.0167694091796875,-0.0069427490234375
1772656003882712300,10.96571240234375,-0.9996795654296875,-0.015899658203125,-0.0079193115234375
1772656003892694300,10.9756943359375,-1.00006103515625,-0.017120361328125,-0.0081024169921875
1772656003902676200,10.98567626953125,-0.9995269775390625,-0.0164947509765625,-0.007781982421875
1772656003912658400,10.995658447265624,-0.999786376953125,-0.0162200927734375,-0.00848388671875
1772656003922641200,11.00564111328125,-0.9992523193359375,-0.016632080078125,-0.0076751708984375
1772656003932623400,11.015623291015626,-0.9993743896484375,-0.0166473388671875,-0.0067291259765625
1772656003942605300,11.025605224609375,-0.9979095458984375,-0.016204833984375,-0.0076751708984375
1772656003952588300,11.03558837890625,-0.9989776611328125,-0.016693115234375,-0.0069427490234375
1772656003962570500,11.045570556640625,-0.998321533203125,-0.016265869140625,-0.0071563720703125
1772656003972552200,11.05555224609375,-0.9991607666015625,-0.0154571533203125,-0.007598876953125
1772656003982534400,11.065534423828124,-0.9989471435546875,-0.015716552734375,-0.0077972412109375
1772656003992517000,11.07551708984375,-0.9988861083984375,-0.01544189453125,-0.0072479248046875
1772656004002499300,11.085499267578125,-0.99908447265625,-0.0164031982421875,-0.0076141357421875
1772656004012481500,11.0954814453125,-0.9996795654296875,-0.0164642333984375,-0.0071563720703125
1772656004022464300,11.10546435546875,-0.9999542236328125,-0.0157012939453125,-0.0072479248046875
1772656004032446500,11.115446533203125,-0.999237060546875,-0.0163726806640625,-0.0072021484375
1772656004042428200,11.12542822265625,-0.999481201171875,-0.016448974609375,-0.00738525390625
1772656004052411400,11.135411376953124,-0.9990692138671875,-0.0160369873046875,-0.0063629150390625
1772656004062393300,11.145393310546876,-0.9993438720703125,-0.017120361328125,-0.0069427490234375
1772656004072375300,11.155375244140625,-0.999267578125,-0.016571044921875,-0.0070953369140625
1772656004082357500,11.165357421875,-0.9998931884765625,-0.0166168212890625,-0.0075836181640625
1772656004092340200,11.17534033203125,-0.9992523193359375,-0.0163421630859375,-0.0075531005859375
1772656004102322400,11.185322509765625,-0.9992218017578125,-0.016815185546875,-0.0072479248046875
1772656004112304400,11.195304443359374,-1.0000457763671875,-0.0164337158203125,-0.0072479248046875
1772656004122287400,11.205287353515626,-0.9990386962890625,-0.016265869140625,-0.00830078125
1772656004132269300,11.215269287109376,-0.9977874755859375,-0.0169525146484375,-0.0073699951171875
1772656004142251300,11.225251220703125,-0.998626708984375,-0.0165863037109375,-0.0071868896484375
1772656004152234200,11.235234130859375,-0.9989776611328125,-0.01568603515625,-0.007293701171875
1772656004162216400,11.245216552734375,-0.9989471435546875,-0.0162811279296875,-0.008453369140625
1772656004172198400,11.255198486328124,-0.99920654296875,-0.0166015625,-0.007232666015625
1772656004182180400,11.265180419921874,-0.998809814453125,-0.0162200927734375,-0.006622314453125
1772656004192163300,11.275163330078126,-0.9992828369140625,-0.015716552734375,-0.0074310302734375
1772656004202145300,11.285145263671875,-0.9991302490234375,-0.0163726806640625,-0.00653076171875
1772656004212127500,11.29512744140625,-1.000030517578125,-0.0166778564453125,-0.007659912109375
1772656004222110200,11.305110107421875,-0.99871826171875,-0.0165252685546875,-0.00750732421875
1772656004232092400,11.315092529296875,-0.9986572265625,-0.017120361328125,-0.00787353515625
1772656004242074400,11.325074462890624,-0.9987945556640625,-0.0170135498046875,-0.008392333984375
1772656004252057300,11.335057373046874,-0.9993133544921875,-0.0163421630859375,-0.0081329345703125
1772656004262039300,11.345039306640626,-0.9996185302734375,-0.016265869140625,-0.0071868896484375
1772656004272021200,11.355021240234375,-0.99908447265625,-0.0162353515625,-0.006744384765625
1772656004282003500,11.36500341796875,-0.998748779296875,-0.0168609619140625,-0.006927490234375
1772656004291986200,11.374986083984375,-0.998565673828125,-0.0162353515625,-0.0074005126953125
1772656004301968400,11.384968505859375,-0.999664306640625,-0.0163726806640625,-0.00726318359375
1772656004311950300,11.394950439453124,-1.0002899169921875,-0.0166473388671875,-0.0074462890625
1772656004321933300,11.404933349609376,-0.9988861083984375,-0.016754150390625,-0.0063018798828125
1772656004331915300,11.414915283203126,-0.9985504150390625,-0.0167083740234375,-0.00732421875
1772656004341897200,11.424897216796875,-0.9985809326171875,-0.016448974609375,-0.0084991455078125
1772656004351880200,11.434880126953125,-0.999603271484375,-0.015838623046875,-0.0088653564453125
1772656004361862400,11.4448623046875,-1.000091552734375,-0.016632080078125,-0.0076904296875
1772656004371844400,11.45484423828125,-0.9998779296875,-0.01629638671875,-0.006683349609375
1772656004381826300,11.464826416015624,-0.9999237060546875,-0.0168609619140625,-0.0080108642578125
1772656004391809300,11.474809326171876,-0.9988555908203125,-0.0164794921875,-0.0071868896484375
1772656004401791200,11.484791259765625,-0.9985504150390625,-0.01568603515625,-0.006744384765625
1772656004411773400,11.4947734375,-1.0002593994140625,-0.0165557861328125,-0.0074615478515625
1772656004421756200,11.504756103515625,-0.99981689453125,-0.0158538818359375,-0.008087158203125
1772656004431738400,11.51473828125,-0.9993438720703125,-0.01666259765625,-0.006744384765625
1772656004441720300,11.52472021484375,-0.9994354248046875,-0.016815185546875,-0.0072174072265625
1772656004451703300,11.534703369140624,-0.9991607666015625,-0.0167694091796875,-0.007843017578125
1772656004461685500,11.544685546875,-0.9992828369140625,-0.0158233642578125,-0.00799560546875
1772656004471667200,11.554667236328125,-0.998504638671875,-0.0170135498046875,-0.0086212158203125
1772656004481649400,11.5646494140625,-0.9991912841796875,-0.0169677734375,-0.00830078125
1772656004491632000,11.574632080078125,-0.99932861328125,-0.016815185546875,-0.0074920654296875
1772656004501614300,11.5846142578125,-0.9996185302734375,-0.016693115234375,-0.0072021484375
1772656004511596500,11.594596435546874,-0.9987640380859375,-0.0162811279296875,-0.0070648193359375
1772656004521579300,11.604579345703126,-0.99871826171875,-0.016510009765625,-0.008392333984375
1772656004531561500,11.6145615234375,-0.999359130859375,-0.016204833984375,-0.0075531005859375
1772656004541543200,11.624543212890625,-1.00018310546875,-0.01654052734375,-0.0077972412109375
1772656004551526400,11.6345263671875,-0.99957275390625,-0.0159759521484375,-0.007843017578125
1772656004561508400,11.64450830078125,-0.9996795654296875,-0.01666259765625,-0.0064544677734375
1772656004571490300,11.654490234375,-1.0001983642578125,-0.0163421630859375,-0.0071563720703125
1772656004581472500,11.664472412109374,-0.9992828369140625,-0.0164947509765625,-0.0075531005859375
1772656004591455200,11.674455322265626,-0.9990692138671875,-0.0163726806640625,-0.00640869140625
1772656004601437400,11.6844375,-0.9992523193359375,-0.016571044921875,-0.007537841796875
1772656004611419400,11.69441943359375,-0.9990234375,-0.01708984375,-0.007843017578125
1772656004621402400,11.70440234375,-0.99908447265625,-0.0170135498046875,-0.008270263671875
1772656004631384300,11.71438427734375,-0.999176025390625,-0.0170745849609375,-0.0073699951171875
1772656004641366300,11.7243662109375,-0.9993896484375,-0.0172119140625,-0.006805419921875
1772656004651349200,11.734349365234374,-0.999114990234375,-0.0167999267578125,-0.0075225830078125
1772656004661331500,11.74433154296875,-0.9993896484375,-0.01605224609375,-0.0070037841796875
1772656004671313400,11.7543134765625,-0.9976959228515625,-0.0164031982421875,-0.00726318359375
1772656004681296400,11.76429638671875,-0.9982452392578125,-0.0160675048828125,-0.0078582763671875
1772656004691278300,11.7742783203125,-0.9979400634765625,-0.0162811279296875,-0.0078582763671875
1772656004701260300,11.78426025390625,-0.9990234375,-0.0161590576171875,-0.0077667236328125
1772656004711242500,11.794242431640624,-0.999359130859375,-0.016021728515625,-0.0078582763671875
1772656004721225200,11.80422509765625,-0.998992919921875,-0.0164031982421875,-0.0078277587890625
1772656004731207400,11.81420751953125,-0.999542236328125,-0.016387939453125,-0.0071563720703125
1772656004741189000,11.824189208984375,-0.999755859375,-0.016632080078125,-0.00732421875
1772656004751172400,11.83417236328125,-0.99969482421875,-0.016632080078125,-0.0072479248046875
1772656004761154300,11.844154296875,-0.9981231689453125,-0.0173492431640625,-0.007232666015625
1772656004771136300,11.85413623046875,-0.9993743896484375,-0.0169830322265625,-0.007659912109375
1772656004781119200,11.864119140625,-0.9994659423828125,-0.0158538818359375,-0.00787353515625
1772656004791101400,11.874101318359376,-0.9996337890625,-0.01678466796875,-0.0075531005859375
1772656004801083400,11.88408349609375,-0.999420166015625,-0.017242431640625,-0.00732421875
1772656004811064600,11.894064697265625,-0.9996795654296875,-0.0171356201171875,-0.0082244873046875
1772656004821047600,11.904047607421875,-0.9988861083984375,-0.01763916015625,-0.0075836181640625
1772656004831029800,11.91402978515625,-0.9990234375,-0.016845703125,-0.007049560546875
1772656004841011500,11.924011474609374,-0.9985198974609375,-0.0167999267578125,-0.00750732421875
1772656004850994700,11.93399462890625,-0.9998016357421875,-0.017242431640625,-0.007659912109375
1772656004860976400,11.943976318359375,-0.999725341796875,-0.0169677734375,-0.007843017578125
1772656004870958600,11.95395849609375,-0.99798583984375,-0.0167388916015625,-0.007354736328125
1772656004880941600,11.963941650390625,-0.998687744140625,-0.0169830322265625,-0.0071258544921875
1772656004890923500,11.973923583984375,-0.9989166259765625,-0.0170440673828125,-0.0078125
1772656004900905700,11.98390576171875,-0.999359130859375,-0.0172576904296875,-0.0084381103515625
1772656004910888400,11.993888427734374,-0.9999847412109375,-0.0164642333984375,-0.007415771484375
1772656004920870700,12.00387060546875,-0.9986114501953125,-0.0161895751953125,-0.0068817138671875
1772656004930852600,12.0138525390625,-0.999664306640625,-0.015838623046875,-0.007171630859375
1772656004940834600,12.02383447265625,-0.999176025390625,-0.016998291015625,-0.00787353515625
1772656004950817500,12.033817626953125,-0.9982757568359375,-0.015899658203125,-0.0066375732421875
1772656004960799500,12.043799560546875,-0.9995574951171875,-0.015869140625,-0.00714111328125
1772656004970781400,12.053781494140624,-0.9993896484375,-0.016387939453125,-0.0067138671875
1772656004980764700,12.0637646484375,-0.9995269775390625,-0.0166473388671875,-0.006591796875
1772656004990746600,12.07374658203125,-0.9986419677734375,-0.01611328125,-0.007354736328125
1772656005000728600,12.083728515625,-0.9978179931640625,-0.0167999267578125,-0.0075836181640625
1772656005010711600,12.093711669921875,-0.9983673095703125,-0.0173492431640625,-0.0075531005859375
1772656005020693500,12.103693603515625,-0.9989471435546875,-0.016571044921875,-0.0078125
1772656005030675700,12.11367578125,-0.999420166015625,-0.0165863037109375,-0.008026123046875
1772656005040657400,12.123657470703124,-0.9992523193359375,-0.0159149169921875,-0.0079803466796875
1772656005050640600,12.133640625,-0.999053955078125,-0.016265869140625,-0.0074615478515625
1772656005060622300,12.143622314453125,-0.9995880126953125,-0.01702880859375,-0.00775146484375
1772656005070604500,12.1536044921875,-1.0001220703125,-0.016265869140625,-0.008544921875
1772656005080587500,12.16358740234375,-0.99871826171875,-0.0166473388671875,-0.0070953369140625
1772656005090569500,12.173569580078125,-0.999908447265625,-0.0163421630859375,-0.0072021484375
1772656005100551700,12.1835517578125,-0.9993133544921875,-0.01666259765625,-0.0076751708984375
1772656005110534400,12.193534423828124,-0.9995574951171875,-0.016448974609375,-0.0074005126953125
1772656005120516600,12.2035166015625,-0.99981689453125,-0.0162506103515625,-0.0070343017578125
1772656005130498600,12.21349853515625,-0.9999847412109375,-0.0169219970703125,-0.00732421875
1772656005140480500,12.22348046875,-0.9995880126953125,-0.0166168212890625,-0.0074920654296875
1772656005150463500,12.23346337890625,-0.9990386962890625,-0.017181396484375,-0.00830078125
1772656005160445400,12.243445556640625,-0.9996337890625,-0.017059326171875,-0.00689697265625
1772656005170427600,12.253427734375,-0.9988555908203125,-0.016265869140625,-0.006866455078125
1772656005180410600,12.26341064453125,-0.9992218017578125,-0.0169677734375,-0.0075225830078125
1772656005190392600,12.273392578125,-0.9991912841796875,-0.0159912109375,-0.0081329345703125
1772656005200374500,12.28337451171875,-0.9995269775390625,-0.0163116455078125,-0.0070648193359375
1772656005210357500,12.293357421875,-1.0002593994140625,-0.01666259765625,-0.0069580078125
1772656005220339500,12.30333935546875,-0.9990997314453125,-0.016937255859375,-0.0066070556640625
1772656005230321700,12.31332177734375,-0.9995574951171875,-0.0167236328125,-0.007354736328125
1772656005240303600,12.3233037109375,-0.9981689453125,-0.016326904296875,-0.006561279296875
1772656005250286600,12.33328662109375,-0.99951171875,-0.016265869140625,-0.007965087890625
1772656005260268500,12.3432685546875,-0.998931884765625,-0.0173797607421875,-0.0076446533203125
1772656005270250500,12.35325048828125,-0.999664306640625,-0.016571044921875,-0.006927490234375
1772656005280233700,12.363233642578125,-1.0001373291015625,-0.0166168212890625,-0.0069427490234375
1772656005290215400,12.37321533203125,-0.998870849609375,-0.0163116455078125,-0.0075531005859375
1772656005300197600,12.38319775390625,-0.9991302490234375,-0.0162811279296875,-0.0070648193359375
1772656005310180600,12.3931806640625,-0.9989013671875,-0.016387939453125,-0.0082244873046875
1772656005320162600,12.40316259765625,-0.9993743896484375,-0.0167236328125,-0.007476806640625
1772656005330144800,12.413144775390625,-0.99847412109375,-0.0165252685546875,-0.00665283203125
1772656005340127500,12.42312744140625,-0.9982757568359375,-0.0164337158203125,-0.007049560546875
1772656005350109700,12.433109619140625,-0.998779296875,-0.017547607421875,-0.0072479248046875
1772656005360091400,12.44309130859375,-0.9987335205078125,-0.015899658203125,-0.0071563720703125
1772656005370073600,12.453073486328124,-0.9997100830078125,-0.0168609619140625,-0.0078277587890625
1772656005380056600,12.463056640625,-1.0004425048828125,-0.01678466796875,-0.0070648193359375
1772656005390038500,12.47303857421875,-0.9992218017578125,-0.016815185546875,-0.007171630859375
1772656005400020500,12.4830205078125,-0.9987335205078125,-0.01641845703125,-0.0072784423828125
1772656005410003700,12.493003662109375,-1.0003814697265625,-0.0162811279296875,-0.006378173828125
1772656005419985400,12.5029853515625,-0.998565673828125,-0.016448974609375,-0.006805419921875
1772656005429967600,12.512967529296875,-0.9990692138671875,-0.0159149169921875,-0.007354736328125
1772656005439952600,12.52295263671875,-0.999664306640625,-0.015899658203125,-0.0074615478515625
1772656005449934600,12.5329345703125,-0.9990997314453125,-0.0161285400390625,-0.0075531005859375
1772656005459917600,12.54291748046875,-1.00006103515625,-0.0164794921875,-0.0076141357421875
1772656005469899800,12.552899658203126,-0.9995574951171875,-0.0164794921875,-0.006988525390625
1772656005479881500,12.562881591796875,-0.9990234375,-0.016357421875,-0.007232666015625
1772656005489863700,12.57286376953125,-1.00006103515625,-0.0164031982421875,-0.0074615478515625
1772656005499846400,12.582846435546875,-0.998931884765625,-0.0169525146484375,-0.007568359375
1772656005509828600,12.59282861328125,-0.9993133544921875,-0.0164794921875,-0.0073699951171875
1772656005519810600,12.602810546875,-0.9996337890625,-0.01654052734375,-0.0066986083984375
1772656005529793500,12.61279345703125,-0.9994354248046875,-0.01580810546875,-0.006866455078125
1772656005539775500,12.622775390625,-0.9996795654296875,-0.01629638671875,-0.0070037841796875
1772656005549757400,12.63275732421875,-0.9987640380859375,-0.0160369873046875,-0.0079193115234375
1772656005559740400,12.642740478515625,-0.997833251953125,-0.016387939453125,-0.007781982421875
1772656005569722600,12.65272265625,-0.99981689453125,-0.01654052734375,-0.00726318359375
1772656005579704600,12.66270458984375,-0.9988250732421875,-0.0167083740234375,-0.0076751708984375
1772656005589687600,12.6726875,-0.9985504150390625,-0.016326904296875,-0.0078277587890625
1772656005599669500,12.68266943359375,-0.9986419677734375,-0.01739501953125,-0.0074462890625
1772656005609651500,12.6926513671875,-0.999420166015625,-0.0172119140625,-0.00762939453125
1772656005619633400,12.70263330078125,-0.9991302490234375,-0.016815185546875,-0.0073089599609375
1772656005629616400,12.712616455078125,-0.998687744140625,-0.015869140625,-0.0074615478515625
