time,seconds_elapsed,z,y,x
1772655992959618800,0.042618896484375,-0.001915724016726017,0.004672469571232796,0.002441573655232787
1772655992969600800,0.052600830078125,-0.0020257122814655304,-0.0010450708214193583,-0.0014538322575390339
1772655992979582700,0.062582763671875,0.0003568073734641075,-0.0037511317059397697,-0.0026626582257449627
1772655992989564700,0.072564697265625,0.0009578828467056155,0.002417281735688448,0.00023752404376864433
1772655992999547600,0.082547607421875,0.000611424446105957,0.004227642901241779,0.0018578886520117521
1772655993009529900,0.09252978515625,-0.0008280142210423946,0.000042218598537147045,-0.0007450850680470467
1772655993019511800,0.10251171875,-0.00012211687862873077,-0.002795068547129631,0.0015588521491736174
1772655993029493800,0.11249365234375,-0.0017567651811987162,-0.00042698567267507315,0.00034951046109199524
1772655993039476700,0.122476806640625,-0.00009586615487933159,0.0038720560260117054,0.0010395944118499756
1772655993049458700,0.132458740234375,-0.0012005451135337353,-0.0008766263490542769,0.00047021033242344856
1772655993059440600,0.142440673828125,-0.0008408476132899523,0.00029726617503911257,0.0025560061912983656
1772655993069422800,0.1524228515625,0.0007932679727673531,0.002571073127910495,0.0024809050373733044
1772655993079404800,0.16240478515625,-0.000947123859077692,0.0009828491602092981,0.001259760232642293
1772655993089387800,0.1723876953125,-0.000682405661791563,0.0012438389239832759,0.0020904000848531723
1772655993099369700,0.18236962890625,0.0004424997605383396,0.0011215079575777054,-0.0009938781149685383
1772655993109351700,0.1923515625,-0.0005729636177420616,-0.0004196632653474808,-0.0005009272135794163
1772655993119333600,0.202333740234375,0.0003175244200974703,0.0011905839201062918,-0.000841338187456131
1772655993129316900,0.21231689453125,0.0009537535952404141,0.00017698481678962708,-0.0025468263775110245
1772655993139298600,0.222298583984375,0.0022583373356610537,0.00030793179757893085,-0.00158374710008502
1772655993149280800,0.23228076171875,0.00328871444799006,-0.0014300470938906074,-0.00023645395413041115
1772655993159262700,0.2422626953125,-0.0009518538136035204,-0.0010195833165198565,0.0005834018811583519
1772655993169244700,0.25224462890625,-0.00037288269959390163,0.0007386356592178345,0.0005349325947463512
1772655993179228000,0.262227783203125,0.0015514774713665247,-0.000049013993702828884,0.0014747297391295433
1772655993189209600,0.272209716796875,0.0013067328836768866,0.0008833587053231895,-0.0022608861327171326
1772655993199191800,0.28219189453125,0.0009208506671711802,-0.0005280538462102413,0.0016149543225765228
1772655993209173800,0.292173828125,0.0027784055564552546,-0.0017925228457897902,0.00009322399273514748
1772655993219156700,0.30215673828125,0.0020907993894070387,-0.0016385612543672323,0.00020525045692920685
1772655993229138700,0.312138671875,-0.001864527352154255,0.0017441859235987067,-0.0025497893802821636
1772655993239120600,0.32212060546875,0.0010310052894055843,-0.0009569202084094286,0.0007896148599684238
1772655993249102800,0.332102783203125,-0.0006542429327964783,0.0015850670170038939,0.0003035878762602806
1772655993259084800,0.342084716796875,-0.0010602215770632029,-0.001264781691133976,-0.004193426109850407
1772655993269067800,0.35206787109375,-0.00002451823092997074,0.0008391155861318111,-0.001631198450922966
1772655993279049700,0.3620498046875,0.00037143006920814514,0.0006259835790842772,0.0006962176412343979
1772655993289031700,0.37203173828125,0.0003258900251239538,0.0011916389921680093,0.0014288532547652721
1772655993299013600,0.382013671875,-0.0003341489937156439,-0.00032366346567869186,0.0009653649758547544
1772655993308996600,0.39199658203125,0.0003124664071947336,-0.00036600767634809017,0.0005168886855244637
1772655993318978800,0.401978759765625,-0.0003909659571945667,0.0001374544808641076,-0.0005809501744806767
1772655993328960800,0.411960693359375,0.00027535692788660526,0.0007260130951181054,0.002292867051437497
1772655993338942700,0.421942626953125,0.0008059866959229112,0.0005786003312096,-0.001254794653505087
1772655993348924700,0.431924560546875,-0.0007277277763932943,0.002084884326905012,0.00034017255529761314
1772655993358907600,0.44190771484375,0.0008202068274840713,0.0004268380580469966,-0.0016424646601080894
1772655993368889900,0.451889892578125,-0.0015737086068838835,0.0004971454618498683,0.0015432087238878012
1772655993378871600,0.46187158203125,-0.00011767260730266571,-0.0005095672095194459,0.0015662917867302895
1772655993388853800,0.471853759765625,0.0015534608392044902,0.0009903251193463802,-0.003040444105863571
1772655993398836700,0.481836669921875,-0.00018921447917819023,-0.00018919992726296186,-0.000862377230077982
1772655993408818700,0.491818603515625,-0.000899479491636157,0.0002584775211289525,0.00044017471373081207
1772655993418801000,0.50180078125,-0.000010336516425013542,-0.0002923097927123308,0.0007150801829993725
1772655993428782600,0.511782470703125,-0.0001219229307025671,-0.00015542330220341682,-0.00027268659323453903
1772655993438765800,0.521765869140625,-0.0020080122631043196,0.002942387480288744,0.0017077617812901735
1772655993448747500,0.53174755859375,0.00017045345157384872,-0.002557306084781885,0.0005173287354409695
1772655993458729700,0.541729736328125,-0.0009061954915523529,-0.000627744710072875,0.00038505205884575844
1772655993468711700,0.551711669921875,-0.0013085990212857723,-0.0022370929364115,0.0017784181982278824
1772655993478693600,0.561693603515625,-0.0005863166879862547,0.0008009535958990455,-0.0008235457353293896
1772655993488676900,0.5716767578125,-0.0014076356310397387,-0.00017163273878395557,-0.00029197894036769867
1772655993498658600,0.581658447265625,0.0005797427147626877,-0.0014852096792310476,0.001801780192181468
1772655993508640800,0.591640869140625,0.00016721896827220917,-0.0003826608881354332,-0.002866474911570549
1772655993518622700,0.601622802734375,0.0013254142832010984,0.00003101408947259188,-0.003001726232469082
1772655993528605700,0.611605712890625,-0.0019329632632434368,0.00001237192191183567,0.001713400473818183
1772655993538588000,0.621587890625,-0.00030164187774062157,0.0014326261589303613,0.002820907859131694
1772655993548569600,0.631569580078125,0.00014283973723649979,0.002098416443914175,0.0014861314557492733
1772655993558551800,0.6415517578125,0.0032139220274984837,0.0010868452955037355,0.0019564630929380655
1772655993568533800,0.65153369140625,-0.0012223715893924236,-0.0019510225392878056,0.0012358117382973433
1772655993578516700,0.661516845703125,-0.00196220725774765,0.0012567294761538506,0.00023652333766222
1772655993588499000,0.6714990234375,0.0012700713705271482,0.0011257019359618425,0.00007806532084941864
1772655993598480600,0.681480712890625,-0.0009004769381135702,0.002257882384583354,0.00014442112296819687
1772655993608462800,0.691462890625,-0.000978241441771388,-0.0009869132190942764,0.00031726015731692314
1772655993618445600,0.701445556640625,-0.0028140293434262276,-0.00017643568571656942,0.000783821102231741
1772655993628427800,0.711427734375,-0.00012130709365010262,0.002056092256680131,0.0008751675486564636
1772655993638409700,0.72140966796875,-0.0017707885708659887,0.00038590177427977324,0.00012431619688868523
1772655993648391700,0.7313916015625,0.000824994407594204,0.0023646303452551365,0.0005568135529756546
1772655993658375000,0.741375,0.0009611382847651839,-0.0011535341618582606,0.00004136795178055763
1772655993668356600,0.751356689453125,0.00105062045622617,0.0012121519539505243,-0.00004438590258359909
1772655993678338800,0.7613388671875,-0.0006397943943738937,0.0002765543758869171,-0.002980530261993408
1772655993688320500,0.771320556640625,-0.001616908237338066,-0.0021735539194196463,-0.0012888903729617596
1772655993698302700,0.781302734375,-0.0006672455929219723,0.0019414450507611036,-0.002321608830243349
1772655993708285700,0.79128564453125,-0.0003921410534530878,-0.0014122736174613237,-0.00425133528187871
1772655993718267600,0.801267578125,-0.0017362823709845543,0.0013907080283388495,0.0038982266560196877
1772655993728249900,0.811249755859375,0.0010184913408011198,0.0003451509401202202,-0.0006059776060283184
1772655993738231600,0.8212314453125,-0.0009919218719005585,-0.0037244772538542747,0.0011443276889622211
1772655993748214800,0.83121484375,-0.0006667498964816332,-0.00005677156150341034,0.0015587154775857925
1772655993758196700,0.84119677734375,-0.0011851382441818714,-0.0003834350500255823,-0.00073604891076684
1772655993768178700,0.8511787109375,-0.003674927167594433,-0.0008484227582812309,0.0021542799659073353
1772655993778161000,0.861160888671875,-0.001045477343723178,0.001564894337207079,0.0006666267290711403
1772655993788142600,0.871142578125,-0.001541890436783433,-0.00020078150555491447,-0.001444727648049593
1772655993798125800,0.881125732421875,0.00021457229740917683,-0.00010393955744802952,0.0008651497773826122
1772655993808107500,0.891107421875,9.867362678050995e-7,0.0012795726070180535,0.000917880330234766
1772655993818089700,0.90108984375,0.00122054573148489,0.0013099394273012877,0.00019109342247247696
1772655993828071700,0.91107177734375,-0.0009632464498281479,0.0011019464582204819,-0.00016337353736162186
1772655993838054700,0.9210546875,-0.0008669609669595957,0.0024063666351139545,0.003322519361972809
1772655993848036900,0.931036865234375,-0.0025980155915021896,0.001487842295318842,-0.000169417355209589
1772655993858018600,0.9410185546875,-0.00015159952454268932,0.0019024191424250603,-0.001049441285431385
1772655993868000800,0.951000732421875,0.000014049233868718147,0.0014869660371914506,0.0008469955064356327
1772655993877983700,0.960983642578125,0.0016128432471305132,0.0004075602628290653,-0.002024504356086254
1772655993887965700,0.970965576171875,0.0000295939389616251,-0.0015195031883195043,-0.0019528651610016823
1772655993897948000,0.980947998046875,-0.0014497092925012112,-0.0007527327397838235,0.0002865949645638466
1772655993907929600,0.9909296875,-0.0006667401175945997,0.005199698731303215,0.0005214856937527657
1772655993917911800,1.000911865234375,0.00005777599290013313,0.0036462205462157726,0.0003987811505794525
1772655993927894800,1.010894775390625,-0.0002708581741899252,-0.00043747073505073786,-0.002153326291590929
1772655993937876700,1.020876708984375,0.0012534867273643613,0.0010584387928247452,0.0011235077399760485
1772655993947858700,1.030858642578125,0.00012510549277067184,0.002167379017919302,0.0012028699275106192
1772655993957840600,1.040840576171875,0.000677372794598341,0.004393948242068291,0.0022098026238381863
1772655993967823600,1.05082373046875,-0.00007576914504170418,-0.005722069181501865,-0.0007367189973592758
1772655993977805600,1.0608056640625,0.002696124603971839,-0.00004120043013244867,-0.00006669620051980019
1772655993987787800,1.070787841796875,0.0006604043301194906,0.0007276542019098997,0.0030502676963806152
1772655993997769500,1.08076953125,-0.0005889723543077707,0.0010471087880432606,0.0006826338358223438
1772655994007751700,1.090751708984375,0.00037988554686307907,-0.00105492421425879,-0.000944024883210659
1772655994017734700,1.100734619140625,-0.00061559840105474,-0.0029397248290479183,-0.0010953927412629128
1772655994027716600,1.110716552734375,0.0009450140642002225,-0.0008139899000525475,0.00007346831262111664
1772655994037698800,1.12069873046875,0.001019996008835733,0.00011859857477247715,0.0003217756748199463
1772655994047680500,1.130680419921875,-0.002224799245595932,-0.0036535030230879784,0.0002780994400382042
1772655994057663700,1.140663818359375,-0.001521880505606532,-0.0011060297256335616,-0.003009399864822626
1772655994067645700,1.150645751953125,0.0007961350493133068,-0.0026911431923508644,-0.00032493332400918007
1772655994077627600,1.160627685546875,-0.001020499737933278,0.0010405846405774355,-0.0019535403698682785
1772655994087609900,1.17060986328125,0.0011787386611104012,-0.00022894435096532106,0.00031893467530608177
1772655994097592800,1.1805927734375,0.0010807388462126255,-0.008411778137087822,0.004412561655044556
1772655994107574800,1.19057470703125,-0.0005864000413566828,-0.004081211984157562,-0.003947101067751646
1772655994117556700,1.200556640625,-0.0013325079344213009,0.006429881788790226,-0.0042940424755215645
1772655994127538700,1.21053857421875,0.0004898929037153721,0.004731584340333939,0.004751916974782944
1772655994137521000,1.22052099609375,-0.0006633149459958076,-0.007908358238637447,0.0008240845054388046
1772655994147503600,1.230503662109375,-0.0013253765646368265,-0.003204416949301958,-0.0033168643712997437
1772655994157485800,1.24048583984375,-0.00009568105451762676,0.0013253588695079088,0.00017361249774694443
1772655994167467500,1.250467529296875,0.0010950182331725955,-0.0011018462246283889,-0.000555028673261404
1772655994177449700,1.26044970703125,-0.0002917118836194277,-0.0036522215232253075,-0.00444598775357008
1772655994187432700,1.2704326171875,0.0012854119995608926,-0.0019019920146092772,-0.0001276717521250248
1772655994197414700,1.28041455078125,-0.0001101542729884386,0.004016208462417126,-0.00038378220051527023
1772655994207396900,1.29039697265625,-0.0020247006323188543,0.004244175273925066,0.0013123848475515842
1772655994217378600,1.300378662109375,0.0009754125494509935,0.0063073476776480675,0.0027476323302835226
1772655994227361800,1.31036181640625,0.0010907273972406983,0.009738830849528313,0.001993158832192421
1772655994237343700,1.32034375,-0.0028748910408467054,0.006940810941159725,0.004311093594878912
1772655994247325700,1.33032568359375,0.0009291679598391056,-0.000802330207079649,0.001386143732815981
1772655994257307600,1.3403076171875,-0.0014620188158005476,-0.0006059519946575165,-0.0024135736748576164
1772655994267289600,1.35028955078125,0.0019444305216893554,-0.004497096873819828,-0.002824499737471342
1772655994277272600,1.3602724609375,0.0008967570029199123,-0.006616953760385513,-0.00043605221435427666
1772655994287254800,1.3702548828125,-0.0008185850456357002,-0.0055016218684613705,-0.001662704162299633
1772655994297236700,1.38023681640625,-0.00010190973989665508,-0.0041236672550439835,-0.00396575964987278
1772655994307218700,1.39021875,0.002267238451167941,-0.005077078938484192,-0.0005928659811615944
1772655994317201700,1.40020166015625,0.0007603664416819811,-0.00408121757209301,-0.0019660773687064648
1772655994327183600,1.41018359375,0.0006594324950128794,-0.005638101138174534,-0.0016520903445780277
1772655994337165600,1.42016552734375,-0.00009936303831636906,-0.004023621790111065,-0.00020782649517059326
1772655994347147800,1.430147705078125,-0.001313498243689537,-0.0022725937888026237,-0.003615075256675482
1772655994357130800,1.440130859375,-0.0004966154228895903,0.0019948557019233704,-0.003290435764938593
1772655994367112700,1.45011279296875,-0.00025533302687108517,-0.0004856126615777612,-0.0009316736832261086
1772655994377094700,1.4600947265625,-0.0005815706681460142,0.002420094795525074,0.0007504471577703953
1772655994387076600,1.47007666015625,0.000284755602478981,0.0035761729814112186,0.0028149294666945934
1772655994397058800,1.480058837890625,-0.000233806436881423,0.004399816505610943,0.0028303456492722034
1772655994407041800,1.490041748046875,-0.0018889610655605793,0.007541014812886715,0.0025528441183269024
1772655994417023700,1.500023681640625,-0.0017747068777680397,0.005202795844525099,0.004012671299278736
1772655994427005700,1.510005615234375,0.001273014466278255,0.005736759398132563,0.0028893500566482544
1772655994436987600,1.519987548828125,-0.00043345382437109947,0.004011527635157108,0.0012031542137265205
1772655994446970600,1.529970703125,0.0011700354516506195,0.00015846628230065107,-0.0005974089726805687
1772655994456952800,1.539952880859375,-0.00010716053657233715,0.0019744597375392914,-0.00030762143433094025
1772655994466934800,1.549934814453125,-0.0005039714742451906,0.0016543477540835738,0.0000705476850271225
1772655994476916700,1.559916748046875,0.000989682856015861,-0.0004150188760831952,-0.0005961945280432701
1772655994486899700,1.569899658203125,0.0007215025834739208,-0.002685097511857748,-0.0014705099165439606
1772655994496881700,1.579881591796875,-0.0007774247787892818,-0.0040281303226947784,-0.0011083828285336494
1772655994506863600,1.589863525390625,0.0003477607388049364,-0.00009331002365797758,0.00028045568615198135
1772655994516845800,1.599845703125,0.002185405232012272,-0.004696547985076904,-0.00021873833611607552
1772655994526828800,1.609828857421875,0.0008314542938023806,-0.0038584512658417225,-0.0002879803068935871
1772655994536810800,1.619810791015625,0.0023696045391261578,0.0002848692238330841,-0.00003876350820064545
1772655994546792700,1.629792724609375,-0.001685324590653181,0.0009706331766210496,0.004373827949166298
1772655994556774700,1.639774658203125,0.0009722918039187789,0.000962074554990977,-0.0009411908686161041
1772655994566756600,1.649756591796875,0.00017600669525563717,-0.0034044445492327213,0.0010537831112742424
1772655994576739800,1.65973974609375,0.0012675641337409616,-0.0019895671866834164,0.002046607667580247
1772655994586721500,1.669721435546875,-0.00008265860378742218,0.004102413542568684,-0.0006037703715264797
1772655994596703700,1.679703857421875,-0.0002560433931648731,0.0002563440939411521,0.0015115102287381887
1772655994606685700,1.689685791015625,-0.0005356753244996071,0.000607348745688796,0.0014135059900581837
1772655994616668700,1.699668701171875,-0.0008141952566802502,0.003470567986369133,0.003228457411751151
1772655994626651000,1.70965087890625,-0.0007974174804985523,0.003280418226495385,0.0026470893062651157
1772655994636632600,1.719632568359375,0.00036895275115966797,0.0016868525417521596,-0.0008664894849061966
1772655994646614800,1.72961474609375,0.0015844193985685706,0.00021572236437350512,-0.0011168266646564007
1772655994656597500,1.739597412109375,0.0012568957172334194,0.002278662519529462,-0.0003014635294675827
1772655994666579700,1.749579833984375,0.00014768913388252258,-0.0012028880883008242,-0.0016620722599327564
1772655994676561700,1.759561767578125,0.0032139988616108894,0.000353110721334815,0.0007878793403506279
1772655994686543600,1.769543701171875,-0.002555206883698702,-0.0009537024889141321,0.0003916011191904545
1772655994696526800,1.77952685546875,-0.000035379547625780106,-0.0011721347691491246,0.0005370401777327061
1772655994706508500,1.789508544921875,0.0005936590023338795,-0.0005825107218697667,0.000015859492123126984
1772655994716490800,1.79949072265625,-0.001461053965613246,0.0011721613118425012,-0.004090526141226292
1772655994726472700,1.80947265625,0.0004745316691696644,-0.0010782097233459353,0.0006709392182528973
1772655994736454700,1.81945458984375,0.0000013175886124372482,0.000016652396880090237,-0.001469561830163002
1772655994746438000,1.82943798828125,0.0019515504827722907,-0.0021604816429316998,-0.0015305480919778347
1772655994756419600,1.839419677734375,-0.0005096970126032829,0.000015061697922647,0.0017962022684514523
1772655994766401800,1.84940185546875,0.0007917899638414383,-0.0006501959869638085,0.0008071041665971279
1772655994776383700,1.8593837890625,-0.00037298351526260376,-0.0007429979741573334,-0.0010935310274362564
1772655994786366700,1.86936669921875,0.00232719536870718,-0.002004271140322089,-0.0007925936952233315
1772655994796348400,1.879348388671875,0.0008695982396602631,0.00039852550253272057,0.0002919998951256275
1772655994806330000,1.889330078125,0.00011139619164168835,-0.0015447831247001886,0.0016352981328964233
1772655994816312300,1.899312255859375,0.001668074750341475,-0.000532002653926611,0.00045795273035764694
1772655994826295300,1.90929541015625,-0.0007447493262588978,-0.0023581322748214006,-0.0012928093783557415
1772655994836277200,1.91927734375,0.001299458323046565,-0.00037791416980326176,-0.001321912743151188
1772655994846259500,1.929259521484375,0.001049387501552701,0.0010655189398676157,0.00020248070359230042
1772655994856241200,1.9392412109375,0.0016534070018678904,0.0006871727528050542,-0.0006997440941631794
1772655994866223400,1.949223388671875,-0.00013810140080749989,0.002144188154488802,0.002767691621556878
1772655994876206300,1.959206298828125,0.000867301132529974,0.0022193286567926407,0.00013753632083535194
1772655994886188300,1.969188232421875,0.000745861092582345,0.003118678228929639,0.000917309895157814
1772655994896170500,1.97917041015625,-0.00033482699654996395,-0.0007667157333344221,0.0019144844263792038
1772655994906152200,1.989152099609375,0.002268412848934531,-0.0007659168913960457,0.001203953055664897
1772655994916135400,1.999135498046875,-0.0017042628023773432,0.0004288492491468787,0.0007428792305290699
1772655994926117000,2.0091171875,0.00008138664998114109,0.00007944251410663128,-0.0016204100102186203
1772655994936099300,2.019099365234375,0.0006727520376443863,0.00010781688615679741,0.0002621188759803772
1772655994946081300,2.029081298828125,0.0014346825191751122,-0.00017527712043374777,-0.0013664043508470058
1772655994956064300,2.039064208984375,-0.0004976245108991861,0.003216713899746537,0.0006193863227963448
1772655994966046200,2.049046142578125,-0.0002339715138077736,0.0006337140221148729,0.00042391009628772736
1772655994976028200,2.059028076171875,-0.002059145364910364,0.0020444614347070456,-0.0011571766808629036
1772655994986010400,2.06901025390625,0.00012038578279316425,0.0008231356623582542,0.0013406018260866404
1772655994995993300,2.078993408203125,-0.001344950869679451,0.0005560044664889574,0.002675045048817992
1772655995005975300,2.088975341796875,-0.0015779775567352772,0.0006649276474490762,0.00009577348828315735
1772655995015957200,2.098957275390625,-0.002486731857061386,0.0007220697589218616,-0.00036243442445993423
1772655995025939200,2.108939208984375,0.001930653234012425,0.00020168803166598082,0.0013196179643273354
1772655995035921400,2.11892138671875,-0.0017242676112800837,0.0024706588592380285,0.0024477094411849976
1772655995045904400,2.128904296875,0.001922132447361946,0.001629898906685412,-0.0021339929662644863
1772655995055886300,2.13888623046875,-0.002154315821826458,-0.00026766222435981035,-0.00241744052618742
1772655995065868300,2.148868408203125,0.0018385613802820444,-0.00010361161548644304,0.0019472141284495592
1772655995075850200,2.158850341796875,-0.0004312505479902029,0.0028933321591466665,0.0007919613271951675
1772655995085833200,2.168833251953125,0.00013919873163104057,-0.001412732875905931,-0.0005649193190038204
1772655995095815200,2.178815185546875,-0.0005241627804934978,-0.00190460286103189,-0.0002655377611517906
1772655995105797400,2.18879736328125,0.002695066388696432,-0.005101461429148912,0.001218109391629696
1772655995115779300,2.198779296875,-0.0004569839220494032,-0.0017830771394073963,0.0006286744028329849
1772655995125762300,2.20876220703125,-0.0006205020472407341,-0.0018818804528564215,0.0012704962864518166
1772655995135744300,2.218744140625,-0.0006052854005247355,-0.0009578309254720807,0.0005143769085407257
1772655995145726200,2.228726318359375,0.0011822282103821635,0.00003286509308964014,0.0012336964718997478
1772655995155708400,2.23870849609375,-0.00007028295658528805,0.0008921215776354074,-0.0004737549461424351
1772655995165691400,2.24869140625,-0.001242340076714754,0.0005621559685096145,0.0010415837168693542
1772655995175673300,2.25867333984375,-0.0010630141478031874,-0.0009131594561040401,0.0011277536395937204
1772655995185655300,2.2686552734375,-0.0023703600745648146,-0.0024189106188714504,0.00030084187164902687
1772655995195637200,2.27863720703125,-0.0012011576909571886,0.0005572515074163675,0.000352643895894289
1772655995205620200,2.2886201171875,-0.000511132413521409,0.00018281105440109968,0.001954269129782915
1772655995215602400,2.2986025390625,-0.003925364464521408,0.0016757250996306539,-0.0024186884984374046
1772655995225584400,2.30858447265625,0.0011343751102685928,0.0012964908964931965,0.003012828528881073
1772655995235566300,2.31856640625,-0.0017767800018191338,0.00020105449948459864,0.00007740594446659088
1772655995245549300,2.32854931640625,-0.00037862034514546394,0.0004218305693939328,-0.0010238108225166798
1772655995255531300,2.33853125,0.001072460669092834,-0.0007679109694436193,-0.002033262513577938
1772655995265513200,2.34851318359375,-0.0019808532670140266,0.0002944241277873516,0.002266144612804055
1772655995275495200,2.3584951171875,-0.00027529243379831314,0.0013426525983959436,-0.0009829257614910603
1772655995285478400,2.368478515625,-0.0011181829031556845,0.0028350879438221455,0.0012863539159297943
1772655995295460400,2.37846044921875,0.0014695824356749654,0.003512694500386715,0.00008095055818557739
1772655995305442300,2.3884423828125,0.0003534515853971243,0.0011595254763960838,-0.00005087582394480705
1772655995315424300,2.39842431640625,0.0016981838271021843,-0.0013526068069040775,0.0018123870249837637
1772655995325406200,2.40840625,0.0013980455696582794,0.001451435498893261,0.003502961713820696
1772655995335389400,2.418389404296875,0.0011030224850401282,0.0009647725964896381,0.0030006254091858864
1772655995345371100,2.42837109375,-0.00045173102989792824,-0.0004629479954019189,0.0018211114220321178
1772655995355353300,2.438353271484375,0.0007310414221137762,-0.0000013249227777123451,0.000615172553807497
1772655995365335300,2.448335205078125,-0.001473523210734129,0.002025607042014599,0.0013744398020207882
1772655995375318300,2.458318359375,0.0005219406448304653,-0.0005286047235131264,-0.0022031269036233425
1772655995385300500,2.468300537109375,-0.0006732859183102846,0.0000919118756428361,0.0012541888281702995
1772655995395282200,2.4782822265625,-0.000029707327485084534,-0.00043690018355846405,0.0003359774127602577
1772655995405264400,2.488264404296875,-0.0002587391063570976,0.0003466018242761493,-0.00013699987903237343
1772655995415247000,2.4982470703125,0.0012517382856458426,0.0015929623041301966,0.0006637098267674446
1772655995425229300,2.508229248046875,0.0005292226560413837,0.0020624776370823383,-0.00040421774610877037
1772655995435211300,2.518211181640625,-0.000014316057786345482,0.000965534127317369,-0.0031051593832671642
1772655995445193200,2.528193115234375,-0.0007871654815971851,-0.0018180017359554768,0.0007407115772366524
1772655995455176400,2.538176513671875,-0.0016388280782848597,0.0004790250677615404,0.0003192019648849964
1772655995465158100,2.548158203125,0.0012192765716463327,-0.00004481861833482981,-0.0012230346910655499
1772655995475140400,2.558140380859375,-0.0022108356934040785,-0.0002213751431554556,0.002827906981110573
1772655995485122300,2.568122314453125,0.00008028163574635983,-0.0013399027520790696,-0.0008331406861543655
1772655995495105300,2.578105224609375,-0.0016110201831907034,0.0021368383895605803,0.000748547725379467
1772655995505087500,2.58808740234375,-0.0028688309248536825,0.0010715739335864782,0.0014372409787029028
1772655995515069200,2.598069091796875,-0.00036187958903610706,-0.0002382418606430292,-0.0006735408678650856
1772655995525051400,2.608051513671875,0.0007116405759006739,-0.0009226741967722774,0.0016239681281149387
1772655995535034000,2.6180341796875,-0.0005742637440562248,0.001027906546369195,-0.001511559821665287
1772655995545016300,2.628016357421875,0.0012260332005098462,-0.0005428257863968611,0.00031084101647138596
1772655995554998300,2.637998291015625,-0.0007183235138654709,-0.00033916300162672997,0.0007824541535228491
1772655995564980200,2.647980224609375,-0.00007463758811354637,-0.0015192097052931786,0.0016264098230749369
1772655995574963500,2.65796337890625,0.0005873176269233227,0.0013808960793539882,0.00008452590554952621
1772655995584945200,2.667945068359375,-0.0010883435606956482,-0.0007379149319604039,-0.0006952476687729359
1772655995594927400,2.67792724609375,0.00024823378771543503,-0.0015068929642438889,0.0003972090780735016
1772655995604909000,2.687908935546875,0.00014996319077908993,0.00136372831184417,-0.0017748652026057243
1772655995614892300,2.697892333984375,0.0004979406949132681,0.0032318751327693462,-0.0031139603815972805
1772655995624874200,2.707874267578125,0.0013296459801495075,0.002145039150491357,-0.001933913677930832
1772655995634856200,2.717856201171875,-0.0002127625048160553,0.0001391284167766571,-0.003271625377237797
1772655995644838400,2.72783837890625,-0.0011203677859157324,0.00026935699861496687,-0.0002271002158522606
1772655995654820000,2.737820068359375,0.0014677738072350621,-0.0008071926422417164,-0.0004851957783102989
1772655995664803300,2.74780322265625,0.000026470981538295746,-0.0036178925074636936,0.001603787997737527
1772655995674785300,2.757785400390625,0.00015901168808341026,-0.0037463305052369833,0.00020948471501469612
1772655995684767200,2.767767333984375,-0.0006481923628598452,-0.0015753218904137611,-0.0010994593612849712
1772655995694749400,2.77774951171875,0.0002976830583065748,-0.002296664286404848,0.000041993334889411926
1772655995704732200,2.787732177734375,-0.000914853997528553,-0.00005854363553225994,0.0007426710799336433
1772655995714714400,2.79771435546875,-0.00021135155111551285,0.0003557804739102721,-0.00007709115743637085
1772655995724696300,2.8076962890625,-0.0003730054013431072,-0.0013960469514131546,0.00022597657516598701
1772655995734678300,2.81767822265625,0.0011780021013692021,0.0005499842809513211,0.0010438805911689997
1772655995744661200,2.8276611328125,0.00112420623190701,-0.00044630432967096567,-0.00010420801118016243
1772655995754643200,2.837643310546875,-0.0007548746652901173,-0.0008941689739003778,0.0013582976534962654
1772655995764625400,2.84762548828125,0.00022756564430892467,-0.0005487567977979779,-0.0006702323444187641
1772655995774607000,2.857607177734375,-0.0016828824300318956,0.00024250894784927368,-0.0000997777096927166
1772655995784590300,2.86759033203125,-0.0007467814721167088,0.0012768807355314493,-0.0005373349413275719
1772655995794572000,2.877572021484375,-0.0011311545968055725,-0.0006169609259814024,-0.0022810143418610096
1772655995804554200,2.88755419921875,0.000029717106372117996,-0.00017061515245586634,0.0027736653573811054
1772655995814536200,2.8975361328125,0.0001212849747389555,0.0008078691316768527,-0.0017582387663424015
1772655995824519200,2.907519287109375,0.0001061048824340105,0.0010776473209261894,-0.0018317420035600662
1772655995834501400,2.91750146484375,-0.0001655935775488615,0.0006622092332690954,-0.0015296880155801773
1772655995844483000,2.927483154296875,0.0009955446003004909,0.0021224203519523144,0.0003499710001051426
1772655995854465300,2.93746533203125,0.0001842058263719082,0.0016398191219195724,0.002337991027161479
1772655995864448000,2.947447998046875,-0.0007580204401165247,-0.000547967734746635,-0.000434093177318573
1772655995874430200,2.95743017578125,-0.000029238639399409294,0.0025156186893582344,0.001992937410250306
1772655995884412400,2.967412353515625,0.0014003461692482233,-0.0008024137932807207,-0.0007479880005121231
1772655995894394000,2.97739404296875,-0.0009493126999586821,0.0021179765462875366,-0.0005353149026632309
1772655995904377300,2.98737744140625,0.0010933319572359324,0.0003831933718174696,-0.001607237383723259
1772655995914359000,2.997359130859375,0.0008206823840737343,0.0018878886476159096,-0.0004233475774526596
1772655995924341200,3.00734130859375,-0.0001244733575731516,-0.003117256099358201,0.0007963799871504307
1772655995934323200,3.0173232421875,-0.0003895831760019064,0.0010503337252885103,0.0006503411568701267
1772655995944306200,3.02730615234375,-0.002426368650048971,-0.0017494475468993187,0.0006721792742609978
1772655995954288000,3.0372880859375,-0.0016494360752403736,0.0002289065159857273,0.000992329092696309
1772655995964270000,3.04727001953125,0.0010036049643531442,-0.0012874973472207785,0.001402455847710371
1772655995974252300,3.057252197265625,0.00004703202284872532,0.000270980061031878,-0.00088143115863204
1772655995984235300,3.0672353515625,-0.0007079741917550564,-0.0006885569309815764,-0.0013003465719521046
1772655995994217200,3.07721728515625,0.0008303665090352297,-0.00029468501452356577,0.0020605074241757393
1772655996004199200,3.08719921875,0.0015121358446776867,-0.0025125653482973576,0.0035071363672614098
1772655996014181000,3.09718115234375,-0.002848666626960039,-0.0004494332242757082,-0.0021516201086342335
1772655996024164000,3.1071640625,-0.0027709021233022213,-0.0005106858443468809,0.0007256590761244297
1772655996034146000,3.11714599609375,-0.0024720430374145508,0.000759222311899066,-0.0011197729036211967
1772655996044128300,3.127128173828125,0.00026781740598380566,0.00004203303251415491,0.0013742775190621614
1772655996054110200,3.137110107421875,-0.0006104698404669762,0.0006412098882719874,0.00031561218202114105
1772655996064093200,3.14709326171875,0.0006958106532692909,0.0012806348968297243,-0.0015976028516888618
1772655996074075100,3.1570751953125,-0.0006762051489204168,0.0002741270000115037,-0.00267548905685544
1772655996084057000,3.16705712890625,0.00022287806496024132,0.0031375577673316,-0.0017777374014258385
1772655996094039300,3.177039306640625,-0.0015953376423567533,-0.0007811180548742414,-0.0015720422379672527
1772655996104022300,3.187022216796875,0.002410855609923601,-0.0030211028642952442,-0.00014378875494003296
1772655996114004200,3.197004150390625,0.0006298876833170652,-0.002798704896122217,-0.0008754832670092583
1772655996123986200,3.206986083984375,0.00015637767501175404,-0.002052486874163151,-0.0017037265934050083
1772655996133968100,3.216968017578125,-0.00038845743983983994,-0.0019203920383006334,-0.0002453606575727463
1772655996143951000,3.226951171875,0.00012233690358698368,0.0006429004715755582,0.0018537428695708513
1772655996153933300,3.236933349609375,-0.0007386147044599056,0.0027140905149281025,-0.0005821329541504383
1772655996163915300,3.246915283203125,-0.001853414112702012,-0.001274792244657874,-0.0011776154860854149
1772655996173897200,3.256897216796875,-0.0008615306578576565,0.0005245206411927938,-0.0018042698502540588
1772655996183880200,3.266880126953125,0.00038189906626939774,0.0025921990163624287,-0.0034000356681644917
1772655996193862100,3.276862060546875,-0.00006147194653749466,-0.0001277335686609149,0.0008944936562329531
1772655996203844000,3.286843994140625,0.00033613783307373524,-0.0012832790380343795,-0.0016363081522285938
1772655996213826300,3.296826416015625,-0.00023285578936338425,0.0032076137140393257,-0.0007595093920826912
1772655996223809300,3.306809326171875,0.000353838549926877,-0.0021360190585255623,0.00014623207971453667
1772655996233791200,3.316791259765625,-0.0017434959299862385,-0.0021951443050056696,0.0007114233449101448
1772655996243773200,3.326773193359375,0.002013691933825612,-0.00005050073377788067,0.0013311407528817654
1772655996253755100,3.336755126953125,-0.0013735636603087187,-0.00059269939083606,0.0009397729299962521
1772655996263738000,3.346738037109375,-0.0019384201150387526,0.0001370066311210394,0.0007474925369024277
1772655996273720300,3.35672021484375,-0.0014464121777564287,-0.0008740763878449798,-0.0011668363586068153
1772655996283702000,3.366701904296875,-0.0007441367488354445,-0.000002423767000436783,0.0013692919164896011
1772655996293684200,3.376684326171875,0.0011490618344396353,0.00011291506234556437,-0.0011045895516872406
1772655996303667000,3.3866669921875,-0.0016296803951263428,-0.00030493491794914007,0.0003380444832146168
1772655996313649200,3.396649169921875,0.00023627979680895805,0.0009891706285998225,0.0006019994616508484
1772655996323631400,3.40663134765625,-0.000433771638199687,0.0008978241821750998,-0.0001932200975716114
1772655996333613000,3.416613037109375,0.0008243387565016747,-0.0006687964778393507,0.0022182154934853315
1772655996343596300,3.42659619140625,0.00021953508257865906,0.0018273844616487622,-0.000011915341019630432
1772655996353578000,3.436577880859375,0.0002797800116240978,0.002193598309531808,0.0018372198101133108
1772655996363560200,3.446560302734375,-0.0017048073932528496,0.0010907831601798534,-0.0010911920107901096
1772655996373542100,3.456542236328125,0.00020933360792696476,-0.00031767331529408693,0.0016915106680244207
1772655996383525000,3.466525146484375,-0.001946761505678296,0.00024958013091236353,-0.0002328893169760704
1772655996393507300,3.47650732421875,0.0009138195309787989,0.0021066348999738693,0.0016258913092315197
1772655996403489000,3.486489013671875,0.0017593731172382832,-0.0027536340057849884,0.0014972607605159283
1772655996413471200,3.49647119140625,-0.0006180626805871725,0.0007763123721815646,0.0022646698635071516
1772655996423454200,3.5064541015625,-0.0006209921557456255,0.0007036080933175981,-0.000637909397482872
1772655996433436200,3.516436279296875,0.0006721112877130508,-0.0016824731137603521,-0.0008999472483992577
1772655996443418400,3.52641845703125,-0.0023031721357256174,0.0025293161161243916,-0.0015284530818462372
1772655996453400000,3.536400146484375,0.0021423310972750187,0.0003432721132412553,-0.0015372540801763535
1772655996463383300,3.54638330078125,-0.0018809062894433737,-0.0013036266900599003,0.0013283069711178541
1772655996473365000,3.556364990234375,-0.0010164137929677963,-0.0012820453848689795,-0.0011120326817035675
1772655996483347200,3.56634716796875,0.0008256947621703148,-0.0011787146795541048,-0.0006353268399834633
1772655996493329400,3.576329345703125,-0.0007793500553816557,0.0017974284710362554,-0.0006003370508551598
1772655996503312100,3.58631201171875,0.0005277292802929878,-0.00009794323705136776,-0.0009478796273469925
1772655996513294300,3.59629443359375,0.0011023046681657434,0.000495398067869246,0.0004914873279631138
1772655996523276000,3.606276123046875,0.0009920496959239244,0.0031345905736088753,0.00021212175488471985
1772655996533258200,3.61625830078125,0.000772266648709774,0.0017012221505865455,0.0013976565096527338
1772655996543241200,3.6262412109375,-0.001793422969058156,0.004069571383297443,0.0033984892070293427
1772655996553223200,3.63622314453125,-0.0005079263355582952,0.0032072896137833595,0.0028070290572941303
1772655996563205000,3.646205078125,0.0009970258688554168,0.0026312479749321938,0.001203007297590375
1772655996573187000,3.65618701171875,-0.0007601017132401466,-0.0016881562769412994,-0.002132976893335581
1772655996583170000,3.666170166015625,-0.000943060964345932,-0.003466082504019141,-0.0022158012725412846
1772655996593152300,3.67615234375,-0.000605979235842824,0.005648337304592133,0.0028945431113243103
1772655996603134200,3.68613427734375,-0.0004299443680793047,0.01140822283923626,0.004290572367608547
1772655996613116200,3.6961162109375,0.00199507805518806,-0.00740746920928359,-0.0012077828869223595
1772655996623099100,3.70609912109375,0.003137574065476656,-0.029133005067706108,-0.007447569631040096
1772655996633081000,3.7160810546875,0.0011795590398833156,0.001265685074031353,0.0013695049565285444
1772655996643063000,3.72606298828125,0.0008519901894032955,0.02366579882800579,0.0060175200924277306
1772655996653045200,3.736045166015625,0.00021414621733129025,-0.0033453055657446384,-0.0015740534290671349
1772655996663028200,3.7460283203125,0.0008530386257916689,-0.017028359696269035,-0.0071089016273617744
1772655996673010200,3.75601025390625,-0.0005765249952673912,0.005259819328784943,0.0000011441297829151154
1772655996682992000,3.7659921875,0.0005377414636313915,0.01351481955498457,0.0046299840323626995
1772655996692974000,3.77597412109375,-0.00015955837443470955,-0.005864933133125305,-0.0031840037554502487
1772655996702957000,3.78595703125,-0.0003137555904686451,-0.00953370425850153,-0.00295124389231205
1772655996712939300,3.795939208984375,0.0016427835216745734,0.007387279067188501,0.0035625637974590063
1772655996722921200,3.805921142578125,0.0009578184690326452,0.010395319201052189,0.0026658775750547647
1772655996732904200,3.815904296875,-0.0006929917726665735,-0.0039144339971244335,-0.002089444547891617
1772655996742886100,3.82588623046875,-0.001710851676762104,-0.006310746073722839,-0.0017155371606349945
1772655996752868000,3.8358681640625,0.0008671565447002649,0.003381077665835619,0.0013411897234618664
1772655996762850300,3.845850341796875,0.00012786290608346462,0.004807732999324799,0.0004751295782625675
1772655996772833000,3.8558330078125,0.0002881267573684454,-0.003014135640114546,-0.002214064821600914
1772655996782815200,3.865815185546875,-0.0014772829599678516,-0.004853847436606884,-0.0017261733300983906
1772655996792797200,3.875797119140625,-0.0007336430717259645,0.0017868612194433808,0.003237143624573946
1772655996802783500,3.885783447265625,-0.00020021176896989346,0.003123235423117876,0.002517291344702244
1772655996812765700,3.895765625,-0.0006084239576011896,-0.0017571230418980122,-0.003211911767721176
1772655996822747400,3.905747314453125,0.00001262524165213108,-0.0013083803933113813,-0.000343953724950552
1772655996832729600,3.9157294921875,0.00009436346590518951,0.0011313415598124266,-0.002053170930594206
1772655996842712600,3.925712646484375,0.0013327333144843578,-0.001244730781763792,0.002381258876994252
1772655996852694500,3.935694580078125,-0.0003649459686130285,-0.0024636206217110157,0.001053473213687539
1772655996862676700,3.9456767578125,0.0004529107827693224,-0.0007538710488006473,0.00044787023216485977
1772655996872658400,3.955658447265625,-0.0010846348013728857,-0.00011745234951376915,0.0018726354464888573
1772655996882641700,3.9656416015625,0.001989451702684164,-0.0004905613604933023,0.000975416274741292
1772655996892623600,3.97562353515625,0.0013502574292942882,-0.00013012206181883812,0.00006460212171077728
1772655996902605600,3.98560546875,0.001251720474101603,0.00003099918831139803,0.0015168236568570137
1772655996912587500,3.99558740234375,0.00047623924911022186,0.0013083650264889002,0.000025094952434301376
1772655996922570500,4.005570556640625,0.0014906374271959066,-0.00006129872053861618,-0.0005312394350767136
1772655996932552700,4.015552734375,-0.00011893734335899353,-0.0026967579033225775,-0.001996702514588833
1772655996942534400,4.025534423828125,-0.0001511615701019764,-0.0005784793756902218,0.0029983222484588623
1772655996952516600,4.0355166015625,0.000588027760386467,0.000319767277687788,0.0017797788605093956
1772655996962499600,4.04549951171875,-0.0005230430979281664,0.002077986253425479,-0.0010551558807492256
1772655996972481500,4.0554814453125,0.0014624414034187794,0.0011624253820627928,0.000448842067271471
1772655996982463500,4.06546337890625,0.0009686913108453155,0.0020330126862972975,-0.0012627714313566685
1772655996992445400,4.075445556640625,-0.0016299670096486807,0.0011246866779401898,0.0006981780752539635
1772655997002428400,4.085428466796875,0.0011820648796856403,0.0009718212531879544,-0.0004754769615828991
1772655997012410600,4.09541064453125,0.0011156313121318817,-0.0020525804720818996,0.0010657492093741894
1772655997022392600,4.105392578125,-0.0016399417072534561,0.0005352130392566323,0.00007505342364311218
1772655997032374500,4.11537451171875,0.0006435287650674582,0.000317441881634295,0.0029542238917201757
1772655997042357500,4.125357421875,0.0018251732690259814,0.0003754987847059965,0.0004332754760980606
1772655997052339500,4.13533935546875,0.0002828710712492466,-0.00035120220854878426,-0.00041730981320142746
1772655997062321700,4.14532177734375,-0.0025379490107297897,0.001270662760362029,-0.000858063343912363
1772655997072303600,4.1553037109375,0.00024305609986186028,-0.0015527447685599327,-0.0008479561656713486
1772655997082286600,4.16528662109375,-0.0003686719574034214,-0.0012605960946530104,-0.002005099318921566
1772655997092268500,4.1752685546875,-0.0015105525963008404,-0.0008388658752664924,-0.001131223514676094
1772655997102250500,4.18525048828125,0.0027315965853631496,-0.0030895029194653034,0.002923971973359585
1772655997112232400,4.195232421875,0.0012161709601059556,-0.00000723137054592371,0.0002845609560608864
1772655997122215400,4.20521533203125,-0.0002645466011017561,-0.002565730130299926,0.0008795112371444702
1772655997132197600,4.21519775390625,-0.00027242046780884266,-0.003555706236511469,0.000580640509724617
1772655997142179600,4.2251796875,-0.00037761544808745384,-0.00037722347769886255,-0.0005986071191728115
1772655997152162600,4.23516259765625,-0.0006163588259369135,-0.0021004052832722664,0.0001979605294764042
1772655997162144800,4.245144775390625,-0.0006437893025577068,0.00024211127310991287,0.0017756170127540827
1772655997172126500,4.25512646484375,0.001988669391721487,-0.00012060743756592274,-0.0011862749233841896
1772655997182108700,4.265108642578125,-0.0002931270282715559,-0.0003562972415238619,-0.0005013095214962959
1772655997192091400,4.27509130859375,0.0014933261554688215,-0.001178718637675047,-0.0020024143159389496
1772655997202073600,4.285073486328125,0.0018121065804734826,-0.001279918709769845,-0.0007275589741766453
1772655997212055600,4.2950556640625,0.0011532282223924994,0.00016039039473980665,-0.001212836243212223
1772655997222039600,4.30503955078125,0.00010767113417387009,-0.00016078678891062737,-0.0033516203984618187
1772655997232021500,4.315021484375,0.000846517039462924,-0.0007639166433364153,0.0008791438303887844
1772655997242003500,4.32500341796875,0.0006233442109078169,0.00021452864166349173,-0.0006804033182561398
1772655997251986400,4.334986328125,0.0033935154788196087,0.002586467657238245,0.0015029865317046642
1772655997261968600,4.34496875,-0.002149321837350726,0.0019065625965595245,-0.0006267433054745197
1772655997271950600,4.35495068359375,0.0007149886805564165,-0.00040927971713244915,0.001305228564888239
1772655997281932500,4.3649326171875,0.0007767740171402693,0.0009385461453348398,0.002884749323129654
1772655997291915800,4.374915771484375,-0.001021272037178278,-0.0009701126255095005,-0.00007764063775539398
1772655997301897500,4.3848974609375,-0.0006676043849438429,0.00011965283192694187,0.001465660985559225
1772655997311879700,4.394879638671875,-0.00018846173770725727,0.0003294941270723939,-0.0003890804946422577
1772655997321861600,4.404861572265625,0.0019263545982539654,-0.0035778959281742573,0.002607774455100298
1772655997331844600,4.4148447265625,-0.00044847303070127964,0.0005221909377723932,0.0017496391665190458
1772655997341826600,4.42482666015625,0.0004679206758737564,0.001777338795363903,0.002811707556247711
1772655997351808500,4.43480859375,0.0000614258460700512,0.0005035966169089079,0.000023527070879936218
1772655997361791500,4.44479150390625,0.0010111092124134302,-0.0019481094786897302,0.0017601745203137398
1772655997371773400,4.4547734375,-0.0006675461772829294,0.0007463116198778152,-0.000026209745556116104
1772655997381755600,4.464755615234375,0.00012873904779553413,-0.0003130938857793808,0.00005661463364958763
1772655997391737300,4.4747373046875,-0.0013278645928949118,0.000574582489207387,-0.002279197797179222
1772655997401720600,4.484720458984375,0.0033257431350648403,0.00041878758929669857,-0.0030059744603931904
1772655997411702500,4.49470263671875,-0.001784697873517871,-0.0012136830482631922,0.000626950990408659
1772655997421684500,4.5046845703125,-0.0009700367227196693,0.0016396277351304889,0.0029132748022675514
1772655997431666700,4.514666748046875,0.000843556597828865,-0.0014516134979203343,-0.0028023705817759037
1772655997441649400,4.5246494140625,-0.000020639272406697273,-0.0014843704411759973,-0.0020902412943542004
1772655997451631600,4.534631591796875,-0.0018088901415467262,0.0001543577527627349,-0.0004472401924431324
1772655997461613600,4.544613525390625,0.000174366170540452,-0.0006421938305720687,-0.0006507053039968014
1772655997471595500,4.554595458984375,-0.0017936869990080595,0.0010075366590172052,-0.0009290245361626148
1772655997481578500,4.56457861328125,0.0010327259078621864,0.0007548027206212282,-0.0006166361272335052
1772655997491560400,4.574560546875,0.0012852021027356386,0.00006240000948309898,-0.0020076045766472816
1772655997501542700,4.584542724609375,0.0004987707361578941,-0.00022122671362012625,0.001099771587178111
1772655997511524400,4.5945244140625,-0.001512640854343772,0.0004243231378495693,-0.00005655689164996147
1772655997521507600,4.604507568359375,-0.0014721609186381102,0.0012259345967322588,-0.0015418021939694881
1772655997531489500,4.614489501953125,-0.0017011109739542007,0.0015410685446113348,0.00009316345676779747
1772655997541471500,4.624471435546875,0.00009172922000288963,0.0015767549630254507,0.0017744170036166906
1772655997551453700,4.63445361328125,0.00014218385331332684,0.00028284487780183554,-0.00019129691645503044
1772655997561436700,4.644436767578125,0.000524081289768219,0.00020827632397413254,-0.002496795728802681
1772655997571418600,4.654418701171875,-0.0012284850236028433,0.0006474300753325224,-0.002741350792348385
1772655997581400600,4.664400634765625,-0.0005696187727153301,0.00011133577208966017,0.0013796247076243162
1772655997591383600,4.674383544921875,-0.0016861273907124996,0.0015164492651820183,0.0016762025188654661
1772655997601365500,4.684365478515625,-0.0002980879507958889,-0.0010106242261826992,-0.00010252278298139572
1772655997611347500,4.694347412109375,-0.0011995434761047363,-0.0006564424838870764,0.00019896356388926506
1772655997621329700,4.70432958984375,-0.0028176801279187202,-0.002309200121089816,-0.00023353379219770432
1772655997631312600,4.714312744140625,0.0005437706131488085,-0.00011384498793631792,0.0005900799296796322
1772655997641294600,4.724294677734375,0.00007984810508787632,-0.0005237055011093616,0.0014516126830130816
1772655997651276500,4.734276611328125,-0.0007603543344885111,-0.0017824762035161257,-0.00027533387765288353
1772655997661258500,4.744258544921875,-0.0007401143666356802,0.0005975906969979405,0.00017047952860593796
1772655997671241500,4.754241455078125,0.00019910396076738834,0.0009128599194809794,-0.0011199289001524448
1772655997681223700,4.7642236328125,-0.0018478014972060919,0.0008872936014086008,0.00042150868102908134
1772655997691205400,4.774205322265625,-0.0027079321444034576,-0.0008424884872511029,0.0014913748018443584
1772655997701187600,4.7841875,-0.0006213453598320484,-0.0002536636311560869,-0.001890573650598526
1772655997711170600,4.794170654296875,0.00008514081127941608,-0.00031793350353837013,-0.00010779779404401779
1772655997721152500,4.804152587890625,-0.0013116872869431973,0.0008117794641293585,0.0029801377095282078
1772655997731134700,4.814134765625,0.000033610500395298004,-0.0006237177876755595,0.0009394960943609476
1772655997741116400,4.824116455078125,0.0023287227377295494,-0.0017475717468187213,0.0023666841443628073
1772655997751099600,4.834099609375,0.0011626119958236814,-0.0004805584903806448,-0.0004143202677369118
1772655997761081300,4.844081298828125,0.001339978538453579,-0.0020073489286005497,-0.0009847693145275116
1772655997771063600,4.8540634765625,-0.0000037353020161390305,-0.0011439274530857801,-0.0009480449371039867
1772655997781046500,4.864046630859375,-0.001710821408778429,0.0011876700446009636,-0.00013871025294065475
1772655997791028500,4.874028564453125,-0.0006009628996253014,0.001696346909739077,-0.0010703522711992264
1772655997801006600,4.884006591796875,-0.0004968331195414066,0.0016968795098364353,0.0000029015354812145233
1772655997810988500,4.893988525390625,-0.0011916342191398144,0.0018714547622948885,0.00015727616846561432
1772655997820971500,4.903971435546875,-0.00010826019570231438,0.00010471371933817863,-0.00191439688205719
1772655997830953500,4.913953369140625,-0.0006054795812815428,0.00006923184264451265,0.0001617269590497017
1772655997840935700,4.923935791015625,0.0006802945863455534,0.00008654233533889055,0.00042724423110485077
1772655997850917600,4.933917724609375,0.0005882133264094591,0.0007954559405334294,0.0017131681088358164
1772655997860900600,4.943900634765625,0.000037738122045993805,0.0007967874989844859,0.0006577572785317898
1772655997870882600,4.953882568359375,-0.000010593095794320107,-0.0003631495637819171,0.0005507147870957851
1772655997880864500,4.963864501953125,0.000516446540132165,0.0017404814716428518,-0.0010407906956970692
1772655997890846500,4.973846435546875,-0.002357613993808627,-0.0003034980036318302,0.0025270639453083277
1772655997900829400,4.983829345703125,-0.001595949986949563,0.0002586953341960907,0.0018873726949095726
1772655997910811600,4.993811767578125,0.000052739400416612625,-0.0008264795178547502,-0.0004304461181163788
1772655997920793600,5.003793701171875,-0.00072330585680902,0.001059837406501174,0.0015932901296764612
1772655997930776600,5.013776611328125,0.0008788954000920057,-0.0007220642874017358,-0.0008081793785095215
1772655997940758800,5.0237587890625,0.0004594475030899048,0.0005890099564567208,-0.0008049835450947285
1772655997950740500,5.033740478515625,0.0023766690865159035,0.00039372919127345085,0.0001379121094942093
1772655997960722700,5.04372265625,-0.000463858712464571,-0.0017690240638330579,0.0010513763409107924
1772655997970705400,5.053705322265625,0.00018305331468582153,0.0007451087585650384,-0.001187876332551241
1772655997980687600,5.0636875,0.002977508120238781,-0.00020590599160641432,-0.0016267653554677963
1772655997990669600,5.073669677734375,0.0013069178676232696,-0.0009087546495720744,0.0010740573052316904
1772655998000651500,5.083651611328125,0.0009892028756439686,0.0008073862409219146,0.000930246664211154
1772655998010634800,5.093634765625,-0.00044727534987032413,-0.0022641783580183983,0.0022530832793563604
1772655998020616400,5.103616455078125,-0.0003751036711037159,-0.00033551722299307585,-0.00014109862968325615
1772655998030598700,5.1135986328125,-0.0003966295626014471,0.0010261095594614744,-0.001107336487621069
1772655998040580600,5.12358056640625,0.0006574494764208794,-0.0009164001094177365,-0.000785093754529953
1772655998050563600,5.1335634765625,0.001245142542757094,0.0012579802423715591,0.0017261949833482504
1772655998060545800,5.1435458984375,0.0016866946825757623,-0.0013567112619057298,0.0008324382361024618
1772655998070527500,5.153527587890625,-0.0016567735001444817,0.0004926400724798441,0.00017388351261615753
1772655998080509700,5.163509765625,-0.0014772764407098293,0.00044869782868772745,-0.001998989377170801
1772655998090492400,5.173492431640625,-0.0003562371712177992,-0.00010026898235082626,-0.0011236188001930714
1772655998100474600,5.183474609375,-0.001355987973511219,0.000355397816747427,0.00010542990639805794
1772655998110456800,5.193456787109375,-0.00008871173486113548,-0.0008599772118031979,0.0014974393416196108
1772655998120439600,5.203439453125,0.002302540699020028,-0.0026016845367848873,-0.0014269780367612839
1772655998130421800,5.213421875,-0.00016184221021831036,0.001991835655644536,-0.0005644592456519604
1772655998140403500,5.223403564453125,-0.0009517357684671879,-0.00029608607292175293,0.0003141174092888832
1772655998150385700,5.2333857421875,-0.0018246606923639774,0.001105752307921648,-0.00048103881999850273
1772655998160368600,5.24336865234375,0.0009231891017407179,0.0010679354891180992,0.002777072601020336
1772655998170350600,5.2533505859375,0.000600514467805624,0.0020197390113025904,-0.0008508218452334404
1772655998180332500,5.26333251953125,-0.0006027016788721085,0.0009667250560596585,-0.0015914468094706535
1772655998190314500,5.273314453125,0.0023511829786002636,-0.0005558227421715856,0.00042345235124230385
1772655998200297500,5.28329736328125,0.00026273191906511784,0.0032200070563703775,0.0035004685632884502
1772655998210279700,5.29327978515625,-0.0009105275385081768,-0.0007182921981438994,0.0007987897843122482
1772655998220261600,5.30326171875,-0.00010598660446703434,-0.0019145841943100095,-0.0003386461175978184
1772655998230243600,5.31324365234375,-0.0017912895418703556,0.000996854156255722,0.0018649704288691282
1772655998240226600,5.3232265625,-0.0014224415645003319,-0.0009224859531968832,0.0017605745233595371
1772655998250208500,5.33320849609375,-0.0013940613716840744,-0.000722083612345159,0.0019137011840939522
1772655998260190500,5.3431904296875,0.002648883732035756,0.00038019882049411535,-0.0010815560817718506
1772655998270173400,5.35317333984375,0.0008254800923168659,0.000993956346064806,0.0006278809159994125
1772655998280155600,5.36315576171875,-0.00013086083345115185,-0.0016196698416024446,-0.0013045086525380611
1772655998290137600,5.3731376953125,-0.000060560181736946106,-0.000030124676413834095,0.00029117288067936897
1772655998300119600,5.38311962890625,-0.00000410107895731926,0.0016258289106190205,0.00032765837386250496
1772655998310102800,5.393102783203125,-0.00032455683685839176,0.0004465593956410885,-0.000007450580596923828
1772655998320084500,5.40308447265625,-0.00008806819096207619,0.001144307665526867,0.000994696980342269
1772655998330066700,5.413066650390625,-0.00007079332135617733,0.0018320005619898438,0.002079862169921398
1772655998340048600,5.423048583984375,0.0007071159780025482,-0.002029583090916276,-0.00033056503161787987
1772655998350031600,5.433031494140625,0.001586912083439529,0.0031296464148908854,-0.000004688277840614319
1772655998360013600,5.443013671875,0.000040414510294795036,-0.0014360769418999553,0.0008017169311642647
1772655998369995500,5.45299560546875,0.001462978427298367,0.0004118429496884346,-0.0006626672111451626
1772655998379978800,5.462978759765625,0.000048839952796697617,-0.0012217400362715125,0.001844965387135744
1772655998389960400,5.47296044921875,0.0009222421795129776,0.00027600466273725033,0.00002538645640015602
1772655998399942700,5.482942626953125,-0.00006845383904874325,0.0013950648717582226,-0.00013546831905841827
1772655998409924600,5.492924560546875,0.0002581230364739895,0.00234009837731719,-0.00007730256766080856
1772655998419907600,5.502907470703125,-0.0007344370242208242,0.0026269208174198866,-0.0011673346161842346
1772655998429889800,5.512889892578125,0.00019527040421962738,0.00017201807349920273,-0.0009791436605155468
1772655998439871500,5.52287158203125,0.0019532230217009783,0.00007641059346497059,-0.0009778118692338467
1772655998449853700,5.532853759765625,-0.000265906797721982,0.0007573225884698331,0.0001923888921737671
1772655998459836400,5.54283642578125,-0.0006318250671029091,0.002241235924884677,-0.001946928445249796
1772655998469818600,5.552818603515625,-0.0015809563919901848,-0.00028225185815244913,-0.0008711735717952251
1772655998479800600,5.562800537109375,0.0012870020000264049,0.0007558482466265559,0.0011903794948011637
1772655998489782500,5.572782470703125,0.0003651499282568693,0.003237538505345583,-0.0018176413141191006
1772655998499765800,5.582765869140625,-0.0010599074885249138,0.0030332738533616066,0.0015840143896639347
1772655998509747500,5.59274755859375,-0.001425362192094326,-0.0004234215011820197,-0.0005258531309664249
1772655998519729700,5.602729736328125,-0.001184079796075821,-0.0008479295065626502,0.0016621998511254787
1772655998529712600,5.612712646484375,-0.000006373506039381027,0.0021870946511626244,-0.00013942597433924675
1772655998539694600,5.622694580078125,-0.000702523859217763,-0.00040629145223647356,-0.001160215586423874
1772655998549676500,5.632676513671875,0.0014893856132403016,-0.0009409796912223101,-0.002882904838770628
1772655998559658500,5.642658447265625,-0.0036734186578541994,-0.00042672338895499706,-0.0009923269972205162
1772655998569641500,5.652641357421875,-0.0004921245854347944,-0.002508902922272682,0.0008215669076889753
1772655998579623700,5.662623779296875,-0.00027427799068391323,-0.002092118375003338,0.0007853477727621794
1772655998589605600,5.672605712890625,0.0007995611522346735,0.00009938946459442377,0.0010959964711219072
1772655998599587600,5.682587646484375,-0.00025584944523870945,0.001061056973412633,0.00020943023264408112
1772655998609570600,5.692570556640625,-0.0005121415015310049,0.00002634967677295208,0.0002804882824420929
1772655998619552500,5.702552490234375,0.0012764374259859324,0.0010324919130653143,0.003014222951605916
1772655998629534500,5.712534423828125,-0.0005142213776707649,-0.0006842426955699921,0.0007110275328159332
1772655998639517400,5.722517333984375,-0.0010319396387785673,-0.00023230444639921188,0.004767820704728365
1772655998649499600,5.732499755859375,0.0024515988770872355,-0.0004607775481417775,0.0016011453699320555
1772655998659481600,5.742481689453125,-0.00025443919003009796,0.001462290994822979,0.0003292197361588478
1772655998669463600,5.752463623046875,-0.0016462071798741817,0.0014628423377871513,0.0004060422070324421
1772655998679446800,5.76244677734375,0.00028138887137174606,-0.0007326676277443767,0.00033759884536266327
1772655998689428500,5.772428466796875,-0.002306669019162655,0.001360371126793325,0.001832868903875351
1772655998699410700,5.78241064453125,-0.0001870589330792427,0.0010519770439714193,0.0018626963719725609
1772655998709392600,5.792392578125,0.00035493122413754463,0.0001293530222028494,0.0000761011615395546
1772655998719375600,5.802375732421875,0.00007929420098662376,0.0009799667168408632,0.0018817244563251734
1772655998729357600,5.812357666015625,0.0005977023392915726,-0.0015201434725895524,0.0008806351106613874
1772655998739339500,5.822339599609375,-0.0012678420171141624,0.0022652738261967897,-0.0033689714036881924
1772655998749322800,5.83232275390625,-0.0006307882722467184,-0.0022831582464277744,-0.002333967015147209
1772655998759304400,5.842304443359375,0.001173769705928862,0.0017230347730219364,-0.0032160053960978985
1772655998769286700,5.85228662109375,-0.000502060865983367,0.0009539611055515707,0.0019018766470253468
1772655998779268600,5.8622685546875,0.00111927161924541,0.0025433357805013657,0.00005976809188723564
1772655998789251600,5.87225146484375,-0.0013075501192361116,-0.00013159832451492548,0.00024553388357162476
1772655998799233800,5.88223388671875,0.0010344337206333876,0.00014723464846611023,0.0015688587445765734
1772655998809215700,5.8922158203125,0.0008464059792459011,0.0007486521499231458,0.0005245860666036606
1772655998819198000,5.902197998046875,-0.0010526939295232296,0.0007555763004347682,0.00045507773756980896
1772655998829180700,5.9121806640625,-0.0007153088226914406,-0.002704441314563155,-0.0008644158951938152
1772655998839163000,5.922162841796875,-0.001573379384353757,0.000407195882871747,0.0005997898988425732
1772655998849144600,5.93214453125,-0.0029882038943469524,0.003164934925734997,-0.0024586101062595844
1772655998859126800,5.942126708984375,0.002299768850207329,-0.0015248915879055858,-0.002564337570220232
1772655998869109800,5.95210986328125,-0.0001824710052460432,-0.0020038329530507326,-0.0018554115667939186
1772655998879091700,5.962091796875,0.0002106113824993372,0.0009975496213883162,-0.0008362201042473316
1772655998889074000,5.972073974609375,0.0008702920749783516,0.0012267669662833214,0.0002811215817928314
1772655998899057000,5.982056884765625,0.002406403422355652,0.0006997273303568363,-0.0007660333067178726
1772655998909038800,5.992038818359375,0.0019045412773266435,0.0010229843901470304,0.0001902170479297638
1772655998919020800,6.002020751953125,0.002093093004077673,-0.00016451918054372072,-0.001956290565431118
1772655998929002800,6.012002685546875,0.002134771551936865,0.000939209247007966,-0.0025254269130527973
1772655998938985700,6.02198583984375,-0.0004668703768402338,0.0004803466144949198,-0.0005496274679899216
1772655998948967700,6.0319677734375,-0.0002774260938167572,0.0031300378032028675,-0.0007698461413383484
1772655998958950000,6.041949951171875,0.002344722393900156,-0.0018700469518080354,-0.0012185890227556229
1772655998968931800,6.051931884765625,0.0010871231788769364,-0.0003525145584717393,-0.0001457580365240574
1772655998978914800,6.061914794921875,0.0007923112716525793,-0.00029419141355901957,-0.0011534984223544598
1772655998988896800,6.071896728515625,0.0005294065922498703,-0.001386458519846201,-0.00013270508497953415
1772655998998878700,6.081878662109375,0.0005959856789559126,0.00031077407766133547,0.00024280091747641563
1772655999008861700,6.09186181640625,-0.0008692769333720207,0.0001316688721999526,0.00111541454680264
1772655999018844000,6.101843994140625,0.0010838855523616076,0.0003607006510719657,-0.0018385634757578373
1772655999028825900,6.111825927734375,-0.00015460955910384655,0.0003477520076557994,0.000975355040282011
1772655999038807800,6.121807861328125,0.0009066599886864424,-0.0004919426282867789,-0.0009469143114984035
1772655999048790800,6.131790771484375,0.0003167637623846531,0.0008908562012948096,0.0017972388304769993
1772655999058772700,6.141772705078125,0.0005146365147083998,0.00133560411632061,0.00017164554446935654
1772655999068755000,6.1517548828125,-0.0003907661885023117,0.000944162136875093,0.0004351749084889889
1772655999078737000,6.16173681640625,-0.0008224647026509047,0.0019324611639603972,-0.00031237443909049034
1772655999088720000,6.171719970703125,0.0006546285003423691,0.0008280394831672311,0.001676696352660656
1772655999098701800,6.181701904296875,-0.00036403071135282516,0.00023122504353523254,0.0019941451027989388
1772655999108683800,6.191683837890625,-0.00007215957157313824,-0.0017205195035785437,-0.0017031333409249783
1772655999118667000,6.2016669921875,0.0020288079977035522,-0.0005993286613374949,-0.0021476149559020996
1772655999128648700,6.211648681640625,-0.0001757016871124506,-0.0019589026924222708,0.0006269370205700397
1772655999138631000,6.221630859375,0.0013473600847646594,-0.0006776559166610241,-0.0005914592184126377
1772655999148612900,6.23161279296875,-0.00043690484017133713,-0.0026392049621790648,-0.0009679705835878849
1772655999158595800,6.241595947265625,0.00009759166277945042,0.00034113856963813305,0.0029351580888032913
1772655999168577800,6.251577880859375,0.0020054844208061695,-0.0016993455355986953,0.001548150321468711
1772655999178559700,6.261559814453125,-0.0004875005688518286,0.00020401563961058855,-0.000029239803552627563
1772655999188542000,6.2715419921875,-0.002289324766024947,0.0009302849066443741,-0.0018992815166711807
1772655999198524700,6.281524658203125,0.0008039367385208607,0.00020617141854017973,-0.0006681019440293312
1772655999208507000,6.2915068359375,0.001090444391593337,-0.00004523503594100475,-0.002221480943262577
1772655999218488600,6.301488525390625,0.0011652791872620583,-0.00021913950331509113,0.00198924308642745
1772655999228471800,6.311471923828125,-0.00010822853073477745,0.0020053773187100887,-0.0006436477415263653
1772655999238453800,6.321453857421875,0.0006960462778806686,0.0033822315745055676,0.0017990036867558956
1772655999248435700,6.331435791015625,0.00041655893437564373,0.0002926273737102747,0.0005947216413915157
1772655999258418000,6.34141796875,-0.0017677654977887869,-0.00040432182140648365,0.00021388940513134003
1772655999268401000,6.35140087890625,-0.0025074996519833803,0.0008529426995664835,0.0025924881920218468
1772655999278382800,6.3613828125,-0.00151174352504313,-0.0005268410313874483,0.0016177711077034473
1772655999288364800,6.37136474609375,-0.0008530349005013704,0.0015835943631827831,0.0008105249144136906
1772655999298346800,6.3813466796875,0.0007129036821424961,-0.0003629100974649191,-0.001185780856758356
1772655999308329700,6.391329833984375,0.0019050765549764037,0.002165804849937558,-0.000824404414743185
1772655999318311700,6.401311767578125,0.0017428899882361293,0.0022584828548133373,0.0016467426903545856
1772655999328294000,6.4112939453125,0.001974731683731079,0.001899919006973505,-0.0008117086254060268
1772655999338276900,6.42127685546875,-0.0003297016955912113,0.0005592836532741785,0.0014863330870866776
1772655999348258800,6.4312587890625,0.001633711508475244,-0.0004285388858988881,-0.002187850885093212
1772655999358240800,6.44124072265625,-0.0005828374996781349,0.00205219560302794,0.00032164575532078743
1772655999368222700,6.45122265625,-0.00016846461221575737,0.00037924456410109997,-0.000435633584856987
1772655999378205700,6.461205810546875,-0.00015248567797243595,0.00025008118245750666,0.00021044909954071045
1772655999388188000,6.47118798828125,-0.001762947766110301,0.0023221212904900312,0.00038682110607624054
1772655999398169900,6.481169921875,-0.00013362569734454155,-0.00034396909177303314,0.0015761889517307281
1772655999408152800,6.49115283203125,-0.00026654242537915707,-0.0009105033241212368,0.0018297939095646143
1772655999418134800,6.501134765625,0.001042401185259223,0.0012929962249472737,0.00031871628016233444
1772655999428116700,6.51111669921875,0.0009538105223327875,0.0001434733858332038,0.0017727562226355076
1772655999438099000,6.521098876953125,-0.0007314376998692751,0.00005878484807908535,-0.001290944404900074
1772655999448081700,6.53108154296875,0.0019398463191464543,0.0014095548540353775,-0.0009907130151987076
1772655999458064000,6.54106396484375,0.0007174555212259293,-0.001694891951046884,-0.00030734576284885406
1772655999468045800,6.5510458984375,-0.0028963841032236814,0.001157277380116284,-0.000017945189028978348
1772655999478027800,6.56102783203125,-0.0010992831084877253,0.0008145285537466407,0.001163166482001543
1772655999488011000,6.571010986328125,-0.0028433827683329582,-0.000003993394784629345,-0.002035636454820633
1772655999497992700,6.58099267578125,0.0033995993435382843,-0.00008095870725810528,0.00012418720871210098
1772655999507975000,6.590974853515625,0.0009595360606908798,0.0011748864781111479,0.00034976890310645103
1772655999517957600,6.60095751953125,0.001653289538808167,0.0004909866256639361,0.002684828592464328
1772655999527939800,6.61093994140625,0.0012354955542832613,0.002020647283643484,-0.0008866647258400917
1772655999537921800,6.620921875,-0.0001253797672688961,0.0000464458717033267,0.0008883317932486534
1772655999547903700,6.63090380859375,-0.00008274149149656296,0.003208169713616371,-0.0007488066330552101
1772655999557886700,6.64088671875,-0.00023933546617627144,-0.0007998878136277199,-0.0007365560159087181
1772655999567868700,6.65086865234375,-0.0007750920485705137,-0.00048337061889469624,-0.00010089948773384094
1772655999577851000,6.660850830078125,-0.0015862907748669386,0.0011158576235175133,-0.00035043759271502495
1772655999587832600,6.67083251953125,0.0007218047976493835,0.0009602707577869296,-0.000564939808100462
1772655999597815800,6.68081591796875,-0.0017253740224987268,0.0001243044389411807,-0.0007819873280823231
1772655999607797800,6.6907978515625,-0.0005047970917075872,-0.000729959923774004,0.0012359025422483683
1772655999617779700,6.70077978515625,0.0012528892839327455,-0.00045272475108504295,-0.0019196770153939724
1772655999627762700,6.7107626953125,-0.00037602544762194157,0.0007173597114160657,-0.0013181883841753006
1772655999637745000,6.720744873046875,0.0012330564204603434,-0.0005391197046265006,0.0009761247783899307
1772655999647726800,6.730726806640625,-0.001923533622175455,-0.00109567039180547,-0.0011854111216962337
1772655999657708800,6.740708740234375,-0.0003211097791790962,0.003083628136664629,-0.0021199146285653114
1772655999667691800,6.75069189453125,-0.0018233973532915115,0.0026756441220641136,0.0015199149493128061
1772655999677673700,6.760673828125,-0.0001634489744901657,0.0018396778032183647,-0.0002502882853150368
1772655999687655700,6.77065576171875,0.0013526140246540308,0.0011849594302475452,-0.0022162096574902534
1772655999697638700,6.780638671875,-0.0006420935969799757,0.00011996121611446142,-0.0006366888992488384
1772655999707620900,6.790620849609375,0.00021040625870227814,-0.001515198964625597,0.0004943306557834148
1772655999717602800,6.800602783203125,-0.0024860440753400326,-0.00031677656807005405,-0.0023959982208907604
1772655999727584800,6.810584716796875,-0.00011730566620826721,0.0022821302991360426,0.0003110547550022602
1772655999737568000,6.820568115234375,0.00018895789980888367,-0.0007251111092045903,0.0008562039583921432
1772655999747549700,6.8305498046875,-0.0009698108769953251,-0.00026410561986267567,-0.0021410537883639336
1772655999757532000,6.840531982421875,-0.00032585859298706055,-0.0005269595421850681,-0.00034075696021318436
1772655999767513900,6.850513916015625,-0.0026803158689290285,-0.0007171486504375935,-0.0009412751533091068
1772655999777496800,6.860496826171875,-0.0005793480668216944,-0.0005541632417589426,-0.0004523186944425106
1772655999787478800,6.870478759765625,-0.00010943133383989334,0.0017713864799588919,0.0017743692733347416
1772655999797460500,6.88046044921875,-0.0005640329327434301,-0.003380498383194208,-0.001530081033706665
1772655999807443700,6.890443603515625,0.002189159858971834,-0.00015147053636610508,0.0019472839776426554
1772655999817425700,6.90042578125,0.0009734269697219133,-0.0023507089354097843,0.00024312734603881836
1772655999827407600,6.91040771484375,-0.00027766870334744453,0.0005802790401503444,0.0012822493445128202
1772655999837389800,6.920389892578125,-0.0008513135835528374,-0.001075141946785152,0.0012233934830874205
1772655999847372800,6.930372802734375,0.00030322023667395115,0.0013178657973185182,0.0005465932190418243
1772655999857354800,6.940354736328125,0.00026167486794292927,0.0014257237780839205,-0.00028750859200954437
1772655999867336700,6.950336669921875,0.0014778361655771732,0.0009034336544573307,0.0014158193953335285
1772655999877319700,6.960319580078125,-0.0003237924538552761,0.002954067662358284,-0.002202351111918688
1772655999887301600,6.970301513671875,0.0010377410799264908,0.00300293299369514,-0.00011024205014109612
1772655999897283600,6.98028369140625,0.00024305377155542374,0.0021009203046560287,0.00033131008967757225
1772655999907265500,6.990265625,0.0008662971667945385,0.0010429068934172392,0.00006713112816214561
1772655999917248800,7.000248779296875,0.0005349998828023672,0.0022373346146196127,-0.0007224958389997482
1772655999927230700,7.010230712890625,-0.0016180705279111862,0.0015163978096097708,0.0016226146835833788
1772655999937212700,7.020212646484375,-0.0006939535960555077,-0.002420286647975445,-0.00014918623492121696
1772655999947194600,7.030194580078125,0.00237356498837471,0.00037807784974575043,0.0005961079150438309
1772655999957177600,7.040177490234375,0.0012603637296706438,0.0005250843241810799,0.0016709596384316683
1772655999967159800,7.050159912109375,-0.0008330289274454117,0.000429414096288383,0.00045405467972159386
1772655999977141500,7.0601416015625,0.00027963961474597454,-0.00051441031973809,-0.002433077897876501
1772655999987124700,7.070124755859375,0.0012493167305365205,0.0006720921956002712,0.002888654824346304
1772655999997106700,7.080106689453125,0.0006980423349887133,-0.002657125238329172,-0.00109064020216465
1772656000007088600,7.090088623046875,-0.0005051589105278254,-0.00196075183339417,-0.0004475601017475128
1772656000017070800,7.10007080078125,-0.0011307355016469955,-0.0014006888959556818,-0.0004933662712574005
1772656000027053600,7.110053466796875,0.0007097565103322268,-0.0003374278312548995,0.00021324167028069496
1772656000037035800,7.120035888671875,-0.0017930821049958467,-0.0002777731278911233,-0.00042937928810715675
1772656000047017500,7.130017578125,0.0012195283779874444,-0.002066253684461117,-0.0007021785713732243
1772656000057000700,7.140000732421875,0.0017726669320836663,0.000833662343211472,-0.0033035543747246265
1772656000066982700,7.149982666015625,-0.0009971661493182182,-0.0007298929849639535,0.0017637673299759626
1772656000076964600,7.159964599609375,0.0008502686396241188,-0.0021839789114892483,0.0014897279907017946
1772656000086946800,7.16994677734375,0.00011480669490993023,-0.001871389918960631,0.001975728664547205
1772656000096929800,7.1799296875,0.0003180059138685465,0.0005781856598332524,0.0009645265527069569
1772656000106911700,7.189911865234375,0.00019475235603749752,0.002633536234498024,0.003036799840629101
1772656000116893700,7.199893798828125,-0.0013232494238764048,0.0006457527633756399,0.0010162596590816975
1772656000126876700,7.209876708984375,0.00022726296447217464,0.0011848488356918097,0.00029201852157711983
1772656000136858600,7.219858642578125,-0.0013088486157357693,-0.0026570274494588375,-0.0009194533340632915
1772656000146840600,7.229840576171875,-0.0017174577806144953,-0.00043782603461295366,-0.002938780002295971
1772656000156822800,7.23982275390625,0.0011044277343899012,0.00213718437589705,-0.00033873599022626877
1772656000166805800,7.2498056640625,0.002145894570276141,0.0022629715967923403,-0.0001234668307006359
1772656000176787700,7.25978759765625,-0.0006948993541300297,-0.0003091093385592103,0.00048586446791887283
1772656000186769700,7.269769775390625,0.00006890762597322464,0.0007870435947552323,-0.0004958976060152054
1772656000196751600,7.279751708984375,0.0011951584601774812,-0.0013994115870445967,0.0023012205492705107
1772656000206734600,7.289734619140625,-0.000989438034594059,-0.0008378134807571769,0.0018676582258194685
1772656000216716800,7.299716796875,0.0033347366843372583,0.002642671810463071,0.0019965553656220436
1772656000226698800,7.30969873046875,0.001373114064335823,0.000759380403906107,0.0008020205423235893
1772656000236681700,7.319681640625,0.0007560595404356718,0.0010264955926686525,0.0009239932987838984
1772656000246663700,7.32966357421875,0.0012702987296506763,0.0022389288060367107,0.0006509586237370968
1772656000256645600,7.339645751953125,0.0018314267508685589,0.000436767702922225,0.0025694998912513256
1772656000266627800,7.3496279296875,0.0010122846579179168,-0.0027510037180036306,0.0012701379600912333
1772656000276610600,7.359610595703125,0.0004942996893078089,-0.001348316902294755,0.0022704212460666895
1772656000286592800,7.3695927734375,0.0009113464038819075,0.0001367927761748433,0.0035142346750944853
1772656000296574700,7.37957470703125,0.001813625218346715,0.002330971183255315,0.0013845048379153013
1772656000306557700,7.3895576171875,-0.00042290124110877514,0.001732781995087862,0.0026648296043276787
1772656000316539600,7.39953955078125,0.0010807194048538804,0.0011546097230166197,0.00014254963025450706
1772656000326521600,7.409521484375,0.0015521731693297625,-0.0004015524173155427,-0.00007205456495285034
1772656000336503800,7.41950390625,0.0023077118676155806,0.0031734751537442207,0.00040545035153627396
1772656000346486500,7.429486572265625,0.0009018222335726023,0.0029684840701520443,-0.001684584654867649
1772656000356468700,7.43946875,-0.00011950009502470493,0.0010795040288940072,0.0013282496947795153
1772656000366450700,7.44945068359375,0.001084956107661128,0.000006873859092593193,-0.0003504646010696888
1772656000376433700,7.45943359375,0.0010412802221253514,-0.000018692458979785442,0.0011648740619421005
1772656000386415600,7.46941552734375,0.0014950425829738379,0.0023370645940303802,0.0006783539429306984
1772656000396397600,7.4793974609375,0.001329394057393074,0.00021958525758236647,0.0013430786784738302
1772656000406379800,7.4893798828125,0.0011297955643385649,0.0027409554459154606,0.002765075769275427
1772656000416362800,7.49936279296875,0.0001377682201564312,-0.0017219699220731854,0.000040928367525339127
1772656000426344700,7.5093447265625,-0.0006873791571706533,0.0024489755742251873,-0.00023796875029802322
1772656000436326700,7.51932666015625,0.002351021394133568,-0.0007497473852708936,-0.0030912798829376698
1772656000446309600,7.5293095703125,0.0015931092202663422,-0.00020029139705002308,-0.0009162193164229393
1772656000456291600,7.53929150390625,0.0006780470721423626,0.0004492534790188074,-0.0029649892821907997
1772656000466273800,7.549273681640625,-0.0017992299981415272,-0.0002569478238001466,-0.0006054239347577095
1772656000476255700,7.559255859375,-0.0015198644250631332,0.0009023261955007911,-0.002605191897600889
1772656000486238700,7.56923876953125,-0.0003836732357740402,-0.0002565467730164528,0.0015740450471639633
1772656000496220700,7.579220703125,0.0014240805758163333,0.004337139427661896,0.0008906780276447535
1772656000506202600,7.58920263671875,-0.00037918146699666977,0.0010264408774673939,0.0006010360084474087
1772656000516185900,7.599185791015625,0.0006479998119175434,0.0040906742215156555,0.0003301925025880337
1772656000526167600,7.60916748046875,0.0009517675498500466,0.003974158316850662,0.0014324861112982035
1772656000536149800,7.619149658203125,-0.0007976628839969635,0.001616461668163538,0.002014120342209935
1772656000546131700,7.629131591796875,-0.0016258859541267157,0.0011420889059081674,-0.0010025519877672195
1772656000556114700,7.63911474609375,-0.0014605035539716482,-0.0022414573468267918,-0.00011705094948410988
1772656000566097000,7.649096923828125,0.0006371163763105869,0.0023040841333568096,-0.0019892938435077667
1772656000576078600,7.65907861328125,0.0005803911481052637,0.0023277862928807735,0.0009076925925910473
1772656000586060800,7.669060791015625,-0.0015677697956562042,-0.005617101211100817,-0.0025594448670744896
1772656000596043500,7.67904345703125,-0.0007235475350171328,-0.003134768921881914,-0.0006704647094011307
1772656000606025700,7.689025634765625,-0.00007854588329792023,0.0033758135978132486,0.0008317567408084869
1772656000616007700,7.699007568359375,0.0006498284637928009,0.0003776268567889929,0.0025114123709499836
1772656000625990700,7.70899072265625,0.000785433454439044,-0.0032912069000303745,0.001195661025121808
1772656000635972900,7.718972900390625,0.0012714604381471872,-0.0032446016557514668,-0.00036175549030303955
1772656000645954600,7.72895458984375,-0.007135899271816015,0.0010948001872748137,-0.0010577295906841755
1772656000655936800,7.738936767578125,-0.0013336706906557083,0.012287800200283527,0.002612372627481818
1772656000665919700,7.748919677734375,0.001973114674910903,-0.00012519210577011108,-0.0008194535039365292
1772656000675901700,7.758901611328125,-0.00017392565496265888,-0.013890539295971394,-0.003628822509199381
1772656000685883600,7.768883544921875,-0.00029123853892087936,-0.0044878097251057625,-0.001165902242064476
1772656000695866600,7.77886669921875,-0.0016364010516554117,0.010830959305167198,0.003983053378760815
1772656000705848600,7.7888486328125,-0.0017024499829858541,0.00040443765465170145,0.0014237326104193926
1772656000715830500,7.79883056640625,-0.0001873774453997612,-0.009177882224321365,-0.003058900125324726
1772656000725812700,7.808812744140625,0.0009723781840875745,-0.003965997602790594,0.0012610377743840218
1772656000735795700,7.818795654296875,0.0014269797829911113,0.0064927684143185616,0.0029063387773931026
1772656000745777700,7.828777587890625,-0.000511788297444582,0.0013760316651314497,0.00036085955798625946
1772656000755759600,7.838759521484375,0.0006597363390028477,-0.003138558939099312,-0.001678589265793562
1772656000765742800,7.848742919921875,0.0007930418942123652,-0.001317609567195177,0.0006451173685491085
1772656000775724500,7.858724609375,0.0010556296911090612,0.0021833819337189198,0.002997487783432007
1772656000785706800,7.868706787109375,-0.0009824978187680244,-0.0011385891120880842,-0.0015025967732071877
1772656000795688700,7.878688720703125,-0.00008368096314370632,-0.0046803271397948265,0.000057748984545469284
1772656000805673700,7.888673828125,0.002330905757844448,-0.0007494371384382248,-0.0010274462401866913
1772656000815656000,7.898656005859375,0.0012651088181883097,-0.0003017596900463104,0.0007920251227915287
1772656000825638700,7.908638671875,-0.00035139452666044235,-0.0021957997232675552,-0.001591769978404045
1772656000835620900,7.918620849609375,0.0021562378387898207,0.000032200710847973824,-0.000577904749661684
1772656000845602800,7.928602783203125,-0.0007806101348251104,-0.000060421181842684746,0.0007745381444692612
1772656000855585800,7.938585693359375,0.0018194341100752354,-0.0013483258662745357,0.0017737559974193573
1772656000865568000,7.948568115234375,0.0015868914779275656,-0.001562669756822288,-0.00035236775875091553
1772656000875549700,7.9585498046875,-0.0013377922587096691,-0.000390612636692822,-0.00080111064016819
1772656000885532000,7.968531982421875,-0.0006612732540816069,0.0016293786466121674,0.002317772712558508
1772656000895514600,7.9785146484375,-0.0005062771961092949,0.000866382964886725,0.001220284029841423
1772656000905496800,7.988496826171875,-0.000806828960776329,-0.001460566185414791,-0.00018756184726953506
1772656000915479000,7.99847900390625,0.00017667654901742935,-0.0000975604634732008,-0.002078406512737274
1772656000925461800,8.008461669921875,0.0029924956616014242,0.0012295444030314684,-0.0020228829234838486
1772656000935444000,8.01844384765625,0.0021655841264873743,0.0012489855289459229,-0.0026742923073470592
1772656000945425700,8.02842578125,0.00012881075963377953,0.0029178322292864323,0.0016535250470042229
1772656000955408000,8.038407958984376,-0.001589727122336626,0.0010059489868581295,0.0014532553032040596
1772656000965390800,8.048390869140626,-0.0007147581782191992,-0.00037397921551018953,0.0017655440606176853
1772656000975372800,8.058372802734375,0.000012284843251109123,0.0004609217867255211,0.0005993456579744816
1772656000985355000,8.06835498046875,0.0004664200823754072,0.0011825136607512832,-0.0027989759109914303
1772656000995337700,8.078337646484375,-0.0010822080075740814,-0.00036105443723499775,-0.0005565942265093327
1772656001005320000,8.08831982421875,0.0000704578123986721,0.0004706112667918205,0.002411620458588004
1772656001015302000,8.098302001953124,0.0021621044725179672,-0.00018346111755818129,0.0010014765430241823
1772656001025283800,8.108283935546876,0.00038571376353502274,-0.00039283977821469307,0.0008218525908887386
1772656001035266800,8.118266845703126,0.00023790821433067322,-0.0004160094540566206,-0.0005166521295905113
1772656001045248800,8.128248779296875,0.00044419942423701286,0.0030724406242370605,0.001886687008664012
1772656001055231000,8.13823095703125,0.0011286318767815828,0.0030926805920898914,0.001318901078775525
1772656001065214000,8.1482138671875,0.0011016015196219087,-0.0007584656123071909,-0.0019180765375494957
1772656001075196000,8.15819580078125,0.0020177289843559265,-0.000710794935002923,-0.00030979327857494354
1772656001085177900,8.168177734375,-0.000002119923010468483,-0.001787872868590057,-0.0017865155823528767
1772656001095159800,8.178159912109376,0.0013153457548469305,-0.0003151447745040059,-0.00421318830922246
1772656001105142800,8.188142822265625,0.001267101732082665,0.000019030878320336342,0.0019508653786033392
1772656001115125000,8.198125,0.000282797496765852,-0.001338115893304348,-0.002152266912162304
1772656001125106700,8.208106689453125,0.0018781792605295777,-0.000118774245493114,0.0010963554959744215
1772656001135090000,8.21808984375,-0.000053944066166877747,-0.00048362743109464645,-0.0005436190403997898
1772656001145071900,8.22807177734375,0.0013376399874687195,0.0018892375519499183,0.00011716131120920181
1772656001155053800,8.2380537109375,-0.0012397670652717352,-0.0015342559199780226,0.0002188943326473236
1772656001165035800,8.248035888671875,0.00030150427483022213,0.00019593723118305206,-0.00024514272809028625
1772656001175018800,8.258018798828125,-0.0007539065554738045,0.0007288358174264431,0.0007364987395703793
1772656001185001000,8.2680009765625,-0.0006924520712345839,-0.0032726360950618982,0.0007516439072787762
1772656001194982700,8.277982666015625,-0.0027364282868802547,0.0005484673893079162,0.0006227470003068447
1772656001204966000,8.2879658203125,0.0010883256327360868,-0.00007842609193176031,0.0015934156253933907
1772656001214947800,8.29794775390625,-0.0015175773296505213,-0.0010275766253471375,-0.001962703187018633
1772656001224931800,8.307931884765624,-0.0010813227854669094,0.0006323967827484012,-0.0030828965827822685
1772656001234913800,8.317913818359376,-0.0006632066797465086,-0.0018033302621915936,-0.0019270852208137512
1772656001244896000,8.32789599609375,-0.0013436747249215841,-0.0027258028276264668,0.0017482510302215815
1772656001254878700,8.337878662109375,-0.00015031197108328342,0.0005498854443430901,-0.00041183875873684883
1772656001264861000,8.34786083984375,0.0010133867617696524,0.002125125378370285,-0.0007391343824565411
1772656001274842600,8.357842529296875,0.00021363934502005577,0.001907811500132084,-0.004343722481280565
1772656001284824800,8.367824951171874,0.0008131100330501795,-0.0025757993571460247,0.000013503246009349823
1772656001294807800,8.377807861328124,-0.0013994444161653519,0.0016855245921760798,-0.002707448322325945
1772656001304789800,8.387789794921876,0.000060017453506588936,-0.000034218537621200085,-0.0004827207885682583
1772656001314772000,8.39777197265625,-0.0014342821668833494,0.0009498194558545947,0.00000969739630818367
1772656001324755000,8.4077548828125,0.0005789371207356453,0.0003438068088144064,0.00038284529000520706
1772656001334737000,8.41773681640625,-0.00005516153760254383,0.0011451519094407558,-0.0010299617424607277
1772656001344718800,8.42771875,-0.0005135927349328995,-0.0011267546797171235,0.0002961698919534683
1772656001354700800,8.43770068359375,0.0021564923226833344,0.0006794010987505317,0.0007094927132129669
1772656001364683800,8.447683837890626,-0.000353826442733407,-0.00011168071068823338,0.0021636842284351587
1772656001374665700,8.457665771484375,0.0005159617867320776,0.0001652879873290658,0.000391883309930563
1772656001384648000,8.46764794921875,-0.0009340015240013599,-0.002737854141741991,-0.0019370713271200657
1772656001394631000,8.477630859375,0.0010457924799993634,0.002839603926986456,0.002352748531848192
1772656001404612900,8.48761279296875,-0.0004752802196890116,0.003003363963216543,0.0013616376090794802
1772656001414594800,8.4975947265625,-0.0018225733656436205,-0.0015194823499768972,0.0020197047851979733
1772656001424576800,8.50757666015625,0.00015274900943040848,0.0015176170272752643,0.0008605453185737133
1772656001434559700,8.517559814453126,-0.0007524595130234957,-0.0019189260201528668,0.00039369286969304085
1772656001444542000,8.5275419921875,0.00036582606844604015,-0.000032110605388879776,-0.0020195376127958298
1772656001454524000,8.53752392578125,-0.0004765316843986511,-0.0025077853351831436,0.0016106171533465385
1772656001464507000,8.5475068359375,0.0006377112586051226,0.0006766486912965775,-0.0019421442411839962
1772656001474488800,8.55748876953125,0.0005285218358039856,-0.0028246091678738594,-0.0014369422569870949
1772656001484470800,8.567470703125,-0.0021146838553249836,-0.001188067370094359,0.00047416845336556435
1772656001494453000,8.577452880859376,0.0019482346251606941,-0.0010985849658027291,0.00009786384180188179
1772656001504435700,8.587435791015626,0.0009156608721241355,0.0011314484290778637,-0.0004788115620613098
1772656001514418000,8.59741796875,0.00037290877662599087,0.0007170605240389705,-0.0002993145026266575
1772656001524399900,8.60739990234375,0.0012275264598429203,0.0003821607679128647,-0.0001504160463809967
1772656001534382800,8.6173828125,-0.00008780881762504578,-0.0007566068088635802,0.0005641099996864796
1772656001544365000,8.627364990234375,0.0009734462946653366,0.0021253975573927164,-0.0010790349915623665
1772656001554346800,8.6373466796875,-0.0019387202337384224,0.0008838318171910942,0.0016315304674208164
1772656001564329000,8.647328857421876,0.0008006573189049959,-0.00011288793757557869,-0.0032665571197867393
1772656001574311700,8.657311767578125,0.0007644381839782,0.0006778045790269971,-0.0015735849738121033
1772656001584294000,8.6672939453125,0.0003109895624220371,0.0020327172242105007,0.0011233757250010967
1772656001594275800,8.67727587890625,0.000769053352996707,0.0012177899479866028,-0.001582395751029253
1772656001604258800,8.6872587890625,0.0009731148602440953,0.0031972615979611874,-0.00043055368587374687
1772656001614240800,8.69724072265625,-0.00012490642257034779,-0.00038229324854910374,-0.0009408155456185341
1772656001624222700,8.70722265625,-0.0006185355596244335,0.0013914040755480528,-0.00042915064841508865
1772656001634205000,8.717204833984376,-0.0015365274157375097,0.0011637038551270962,0.00004542432725429535
1772656001644188000,8.72718798828125,-0.001241413876414299,0.0009663797682151198,0.0014298888854682446
1772656001654169900,8.737169921875,0.0012912522070109844,0.0006385446758940816,-0.0006923843175172806
1772656001664151800,8.74715185546875,0.0018008676124736667,0.0017694303533062339,-0.0016576130874454975
1772656001674134800,8.757134765625,0.001564378966577351,0.0015497194835916162,-0.001792635302990675
1772656001684116700,8.76711669921875,-0.0008827457204461098,-0.001790951588191092,-0.0010398440062999725
1772656001694099000,8.777098876953126,-0.00027980608865618706,-0.002969400491565466,-0.0001362338662147522
1772656001704081000,8.787080810546875,-0.0007129807490855455,0.002106426516547799,0.000027713831514120102
1772656001714064000,8.79706396484375,0.0002718560863286257,-0.0006480810698121786,-0.000037800054997205734
1772656001724045800,8.8070458984375,0.0011155246756970882,0.0010175106581300497,0.0009053661487996578
1772656001734027800,8.81702783203125,-0.0028552482835948467,0.003130728844553232,-0.0009663035161793232
1772656001744011000,8.827010986328125,-0.0005483729764819145,0.0005044242134317756,0.0020552731584757566
1772656001753992700,8.83699267578125,0.0004580356180667877,-0.0013603211846202612,-0.00014689471572637558
1772656001763975000,8.846974853515626,-0.0013594208285212517,-0.0019890109542757273,0.0006771264597773552
1772656001773956900,8.856956787109375,0.00016230926848948002,-0.0011085700243711472,-0.0017705848440527916
1772656001783939800,8.86693994140625,0.0001453638542443514,-0.00030262430664151907,0.002291005803272128
1772656001793922000,8.876922119140625,0.0024972015526145697,0.003286251798272133,-0.0003018477000296116
1772656001803899600,8.886899658203125,-0.00019934377633035183,-0.003512219525873661,-0.002951881382614374
1772656001813883000,8.8968828125,-0.0008382359519600868,0.0021629768889397383,-0.0009723538532853127
1772656001823864600,8.906864501953125,-0.0017447832506150007,-0.001781739410944283,0.0009750097524374723
1772656001833846800,8.9168466796875,-0.0006089452654123306,0.002285706577822566,0.0024626515805721283
1772656001843829500,8.92682958984375,0.0001983828842639923,0.0013177802320569754,0.0006830827333033085
1772656001853811700,8.936811767578124,0.0008362098596990108,-0.0019041121704503894,0.0030690087005496025
1772656001863793700,8.946793701171876,0.0013489886187016964,0.0011694827117025852,-0.0024266806431114674
1772656001873775600,8.956775634765625,-0.0011623722966760397,0.00016626983415335417,0.0007611229084432125
1772656001883758800,8.9667587890625,-0.0007048612460494041,0.0025513211730867624,0.0005551502108573914
1772656001893740500,8.976740478515625,-0.0005317558534443378,0.0009030907531268895,0.0009056217968463898
1772656001903722800,8.98672265625,-0.001667124219238758,-0.00021061161532998085,0.00033114757388830185
1772656001913705700,8.996705810546874,0.0006205309182405472,0.0016320295399054885,0.00027815066277980804
1772656001923687700,9.006687744140624,0.0005422786343842745,0.0022658321540802717,-0.0030008922331035137
1772656001933670000,9.016669921875,-0.00021911924704909325,0.0009859169367700815,0.000608756672590971
1772656001943651600,9.026651611328125,-0.0017390192952007055,0.003137548454105854,-0.0037018763832747936
1772656001953634800,9.036634765625,-0.0001568351872265339,0.00007358158472925425,0.0012201783247292042
1772656001963616500,9.046616455078125,0.0017247071955353022,0.002170210238546133,-0.0007721236906945705
1772656001973598700,9.0565986328125,-0.0012883932795375586,0.001703091780655086,-0.0007321764715015888
1772656001983581700,9.066581787109374,0.000030196504667401314,0.00042335130274295807,0.0006232098676264286
1772656001993563600,9.076563720703126,-0.000660094665363431,0.000732810702174902,-0.0020753713324666023
1772656002003545900,9.0865458984375,0.00009090802632272243,-0.002751242835074663,0.0021969410590827465
1772656002013527600,9.096527587890625,-0.0006640981882810593,-0.00007716286927461624,-0.00024517765268683434
1772656002023510800,9.1065107421875,0.00042306724935770035,0.0005488822935149074,-0.0005468823947012424
1772656002033492700,9.11649267578125,-0.0007103739771991968,0.0009222574881277978,0.0008310372941195965
1772656002043474700,9.126474609375,0.0011543177533894777,0.0007493479643017054,0.000530940480530262
1772656002053457700,9.136457763671874,0.00016415445134043694,-0.0005926189478486776,0.0018265685066580772
1772656002063439600,9.146439697265626,0.0006583142094314098,-0.002354647731408477,-0.0013107247650623322
1772656002073421800,9.156421875,-0.0005931050982326269,0.00016390380915254354,-0.001337090041488409
1772656002083404800,9.16640478515625,0.0010359813459217548,-0.0016357327112928033,0.002733749570325017
1772656002093386800,9.17638671875,-0.002402692101895809,-0.0008956402307376266,0.00002451566979289055
1772656002103368700,9.18636865234375,0.002458035247400403,-0.0019829024095088243,-0.000361492857336998
1772656002113350700,9.1963505859375,-0.0003766333684325218,-0.0016896885354071856,-0.00016255490481853485
1772656002123333600,9.206333740234374,-0.00005664327181875706,-0.002413756214082241,0.0011127118486911058
1772656002133315800,9.21631591796875,0.0010685422457754612,0.0008781771175563335,0.0004256162792444229
1772656002143297800,9.2262978515625,-0.0025027571246027946,0.0008594574173912406,0.002505299635231495
1772656002153280800,9.23628076171875,-0.0004944673273712397,0.00016144290566444397,0.002382527804002166
1772656002163262700,9.2462626953125,-0.0004922468215227127,-0.00008851406164467335,0.002251979196444154
1772656002173244700,9.25624462890625,0.000767428195104003,0.0010148335713893175,-0.0007430119439959526
1772656002183227000,9.266226806640624,-0.001151797128841281,0.00037572369910776615,0.0008775605820119381
1772656002193209600,9.276209716796876,-0.0008556537795811892,-0.0005838131764903665,-0.0007440382614731789
1772656002203191800,9.28619189453125,-0.001893593231216073,0.001840333454310894,-0.0007752631790935993
1772656002213173500,9.296173583984375,-0.0002791851293295622,0.001567093189805746,0.001582699827849865
1772656002223156700,9.30615673828125,0.0018833159701898694,-0.0002321748761460185,0.0020135114900767803
1772656002233138700,9.316138671875,0.0012715879129245877,0.002372929360717535,-0.0007724212482571602
1772656002243120600,9.32612060546875,-0.0006745602004230022,0.0029118568636476994,-0.00026928214356303215
1772656002253102800,9.336102783203126,-0.00034539331682026386,-0.00045757461339235306,0.0004167482256889343
1772656002263085600,9.34608544921875,0.00015765242278575897,0.0018323168624192476,0.0004946310073137283
1772656002273067800,9.35606787109375,-0.0010732605587691069,-0.001799702295102179,0.0008027586154639721
1772656002283049700,9.3660498046875,-0.0009943493641912937,-0.0014048259472474456,-0.001413001213222742
1772656002293032700,9.37603271484375,0.0008730592671781778,0.0011281066108494997,0.0006189909763634205
1772656002303014700,9.3860146484375,-0.00024661398492753506,-0.00221525551751256,0.0002647903747856617
1772656002312996600,9.39599658203125,0.0005960103590041399,-0.0018469404894858599,-0.002013011369854212
1772656002322979600,9.4059794921875,-0.0003822506405413151,-0.0010045052040368319,-0.0015332195907831192
1772656002332961800,9.4159619140625,-0.0016211529728025198,-0.0005480395630002022,0.0009552380070090294
1772656002342943700,9.42594384765625,-0.00019371043890714645,-0.0007490081479772925,0.0029513752087950706
1772656002352925700,9.43592578125,0.0011679638409987092,-0.0017037513898685575,0.0018509570509195328
1772656002362908700,9.44590869140625,-0.00020175590179860592,0.0009907953208312392,0.001930582569912076
1772656002372890600,9.455890625,0.00026030256412923336,-0.0025482792407274246,0.0006480040028691292
1772656002382872800,9.465872802734374,0.00017479481175541878,0.001886921003460884,-0.0010605864226818085
1772656002392855600,9.47585546875,0.0009596282616257668,-0.0013344385661184788,-0.0005407375283539295
1772656002402837800,9.485837646484375,0.002070545218884945,0.00020694697741419077,0.001856369897723198
1772656002412819700,9.49581982421875,-0.001546560088172555,0.00031081028282642365,-0.0006970688700675964
1772656002422801700,9.5058017578125,-0.0012908424250781536,-0.0010773827088996768,0.0016938326880335808
1772656002432785000,9.515784912109375,-0.0014876499772071838,-0.0009705900447443128,-0.000796223059296608
1772656002442766600,9.5257666015625,-0.0006307787261903286,0.0005577023839578032,0.001277473522350192
1772656002452748800,9.535748779296876,-0.00018975907005369663,-0.0007392569677904248,-0.00009272294119000435
1772656002462731500,9.5457314453125,0.00042647868394851685,0.00007577706128358841,-0.0016602887772023678
1772656002472713700,9.555713623046875,-0.0002931072376668453,-0.0007679123664274812,0.0004023294895887375
1772656002482696000,9.565696044921875,-0.00027201161719858646,-0.0004914776654914021,-0.000036607030779123306
1772656002492677600,9.575677734375,-0.0003841305151581764,0.0013120148796588182,-0.0009428807534277439
1772656002502660900,9.585660888671875,0.0015710991574451327,0.0010058532934635878,0.0016284291632473469
1772656002512642600,9.595642578125,-0.002790626138448715,0.0004913306329399347,-0.0006309966556727886
1772656002522624800,9.605624755859376,0.001118441578000784,0.0016029118560254574,-0.0007019033655524254
1772656002532607700,9.615607666015626,0.0016774390824139118,0.0003903746837750077,-0.00031574536114931107
1772656002542589700,9.625589599609375,-0.0005497632082551718,-0.00042761070653796196,-0.0010344693437218666
1772656002552571600,9.635571533203125,-0.0010791996028274298,-0.0006052437238395214,0.0007293419912457466
1772656002562554600,9.6455546875,0.0009020722936838865,0.0034009863156825304,-0.0008941632695496082
1772656002572536800,9.655536865234374,-0.0006918297149240971,-0.002671819878742099,0.0019037537276744843
1772656002582518800,9.665518798828124,0.00023145601153373718,0.00006824836600571871,0.0013192580081522465
1772656002592500700,9.675500732421876,0.0009486452909186482,0.0006653290474787354,0.0027531038504093885
1772656002602483700,9.685483642578125,-0.001938041765242815,-0.0004351572133600712,-0.0005694846622645855
1772656002612465700,9.695465576171875,-0.0008666522335261106,0.0005297058960422873,-0.001510379370301962
1772656002622447600,9.705447509765625,0.00008505070582032204,0.0014848723076283932,-0.0018038745038211346
1772656002632430800,9.715430908203125,-0.00044358684681355953,-0.00003978738095611334,-0.002561011351644993
1772656002642412500,9.72541259765625,-0.0006742754485458136,0.00033871643245220184,-0.002499545458704233
1772656002652394800,9.735394775390626,0.0013995281187817454,0.0011190226068720222,-0.0002680826000869274
1772656002662376700,9.745376708984375,0.000320004066452384,-0.0014356847386807203,-0.0003836904652416706
1772656002672359700,9.755359619140625,-0.0010456647723913193,-0.000571755226701498,0.00014760997146368027
1772656002682342000,9.765341796875,-0.00010970677249133587,-0.0017244006739929318,0.0001737019047141075
1772656002692323600,9.775323486328125,0.0005931013729423285,-0.0020972429774701595,-0.0011426988057792187
1772656002702306800,9.785306884765625,-0.0009696336928755045,0.0009233317105099559,-0.0009525623172521591
1772656002712288500,9.79528857421875,-0.00015044515021145344,-0.0006703039398416877,-0.0016548377461731434
1772656002722270700,9.805270751953126,-0.0010780557058751583,0.00027480488643050194,-0.0012758406810462475
1772656002732252700,9.815252685546875,0.00033075641840696335,0.0007917244802229106,-0.000035872682929039
1772656002742235600,9.825235595703125,0.0018716445192694664,0.0020931540057063103,0.0007608644664287567
1772656002752217900,9.8352177734375,0.0006409976631402969,-0.0006746691651642323,-0.0008583376184105873
1772656002762199600,9.845199462890625,-0.0007989730220288038,0.0005382527597248554,-0.0008376231417059898
1772656002772182800,9.855182861328124,-0.0008924501016736031,0.0009513090481050313,-0.0009998097084462643
1772656002782164700,9.865164794921874,0.0006449953652918339,-0.0003088612575083971,-0.0003847433254122734
1772656002792146700,9.875146728515626,0.0007414019200950861,0.0004583954578265548,-0.0009107175283133984
1772656002802129400,9.88512939453125,0.000402301549911499,0.0015958261210471392,0.0009014694951474667
1772656002812111600,9.895111572265625,0.0011786131653934717,-0.0008913000347092748,-0.000260733999311924
1772656002822093600,9.905093505859375,0.0010049788979813457,0.0019960463978350163,0.0004633096978068352
1772656002832075500,9.915075439453124,0.002305666683241725,0.0004319718573242426,-0.00140303373336792
1772656002842058800,9.925058837890624,-0.0009562387131154537,0.001602593925781548,0.0002974695526063442
1772656002852040400,9.93504052734375,-0.00027580116875469685,0.0031770546920597553,0.0010578022338449955
1772656002862022700,9.945022705078125,0.00019283127039670944,0.00012069009244441986,0.000572829507291317
1772656002872005400,9.95500537109375,-0.000745133962482214,0.0008993984083645046,0.003035987028852105
1772656002881987600,9.964987548828125,0.00017089745961129665,0.0005788527196273208,-0.0017413669265806675
1772656002891969500,9.974969482421875,0.0007474718149751425,0.0008395762415602803,0.0008666669018566608
1772656002901951500,9.984951416015624,0.0006771858315914869,0.0006003247108310461,-0.0010270890779793262
1772656002911934700,9.994934814453124,0.0010931715369224548,-0.0015999790048226714,-0.002154671587049961
1772656002921916400,10.00491650390625,-0.00042688334360718727,0.0018354414496570826,0.001096115680411458
1772656002931898600,10.014898681640625,0.000983526697382331,0.0010532711166888475,0.0012878633569926023
1772656002941881600,10.024881591796875,-0.0020911679603159428,-0.0012929781805723906,-0.0004293285310268402
1772656002951863600,10.034863525390625,0.00037731602787971497,0.000013568555004894733,-0.00025782082229852676
1772656002961845800,10.044845703125,0.0016578914364799857,0.0008522105636075139,0.0017057908698916435
1772656002971828500,10.054828369140624,-0.0005384176038205624,-0.0011369043495506048,-0.0010252809152007103
1772656002981810700,10.064810791015624,-0.001586348982527852,0.0020941828843206167,0.0008228369988501072
1772656002991792400,10.07479248046875,0.0009098319569602609,0.000056598219089210033,0.0015323031693696976
1772656003001774600,10.084774658203125,-0.0006693357136100531,-0.0004196206573396921,0.0017483783885836601
1772656003011757600,10.094757568359375,-0.00025840988382697105,-0.0009314802009612322,-0.002191768493503332
1772656003021739500,10.104739501953125,-0.0014577577821910381,0.00016170216258615255,-0.0010289615020155907
1772656003031721500,10.114721435546874,-0.0021573700942099094,-0.0006620134226977825,0.0016680215485394
1772656003041704700,10.12470458984375,0.00026663439348340034,-0.002681639976799488,-0.001566487830132246
1772656003051686400,10.134686279296876,0.0007585200946778059,-0.0009220894426107407,0.0005131745710968971
1772656003061668600,10.144668701171875,0.00010285433381795883,-0.001775591867044568,0.0012647775001823902
1772656003071651600,10.154651611328125,-0.0005512179341167212,-0.00023069221060723066,-0.00006360700353980064
1772656003081633500,10.164633544921875,0.0013918172335252166,0.0005306479288265109,-0.0008759382180869579
1772656003091615500,10.174615478515625,0.00003120815381407738,0.0016683503054082394,0.000773091334849596
1772656003101597400,10.184597412109374,-0.00006073364056646824,0.0010733719682320952,-0.0018998603336513042
1772656003111580700,10.19458056640625,-0.00037924759089946747,-0.0008736650925129652,0.0008410648442804813
1772656003121562400,10.204562255859376,0.0018495767144486308,0.00001394015271216631,-0.0002505183219909668
1772656003131544600,10.214544677734375,0.000568330055102706,0.0006610883283428848,0.003091216553002596
1772656003141527600,10.224527587890625,0.001428613904863596,0.002438616706058383,0.0010516210459172726
1772656003151509500,10.234509521484375,-0.0007605045102536678,0.0011318034958094358,-0.0003633163869380951
1772656003161491700,10.24449169921875,0.00018316670320928097,0.00028506037779152393,-0.0007807803340256214
1772656003171473400,10.254473388671874,-0.0007745060138404369,0.0008200894808396697,0.001249613706022501
1772656003181456600,10.26445654296875,0.0007541633676737547,0.0006998269236646593,0.0018250059802085161
1772656003191438300,10.274438232421875,0.0010835963767021894,0.002002112800255418,0.0010119429789483547
1772656003201420500,10.284420654296875,-0.0009589800611138344,-0.002759220078587532,-0.00045460695400834084
1772656003211403500,10.294403564453125,0.00021574017591774464,-0.0005189689109101892,-0.00046073226258158684
1772656003221385500,10.304385498046875,-0.00012383051216602325,-0.0009215385653078556,-0.0013890000991523266
1772656003231367700,10.31436767578125,-0.0006210426799952984,0.0014532022178173065,0.0022105281241238117
1772656003241349400,10.324349365234376,-0.00047346483916044235,-0.0020213117823004723,0.0028405189514160156
1772656003251332600,10.33433251953125,0.0017686503706499934,-0.0029723267070949078,-0.0014349198900163174
1772656003261314600,10.344314453125,0.0007300940342247486,-0.0019506348762661219,0.0000043441541492938995
1772656003271296500,10.354296630859375,-0.0004334410186856985,-0.000992695800960064,0.0008008955046534538
1772656003281279500,10.364279541015625,0.001055851113051176,-0.002524262759834528,0.00040764547884464264
1772656003291261400,10.374261474609375,-0.0015809445176273584,-0.0004936022451147437,-0.00042832084000110626
1772656003301243600,10.38424365234375,-0.0002507672179490328,0.0005495911464095116,0.004058484919369221
1772656003311226600,10.3942265625,0.0005790735594928265,-0.0022669679019600153,-0.0011855456978082657
1772656003321208600,10.40420849609375,0.0011807254049926996,0.00016295630484819412,-0.00023830682039260864
1772656003331190500,10.4141904296875,-0.0008206400088965893,-0.0006053656106814742,-0.0011168839409947395
1772656003341172500,10.42417236328125,0.0009203968802466989,-0.0027545751072466373,0.0028008935041725636
1772656003351155500,10.434155517578125,-0.0013353005051612854,-0.00025040493346750736,0.0007206983864307404
1772656003361137700,10.4441376953125,0.0010183494305238128,-0.0006928229704499245,-0.0008474518544971943
1772656003371119600,10.45411962890625,-0.0005449261516332626,-0.0004075982142239809,0.001854324946179986
1772656003381102600,10.4641025390625,-0.0000803493894636631,0.0008519195835106075,0.0030076156836003065
1772656003391084500,10.47408447265625,0.0011937068775296211,-0.00002958672121167183,-0.0006028315983712673
1772656003401066500,10.48406640625,-0.0004067972768098116,0.00009969319216907024,0.00017948215827345848
1772656003411049700,10.4940498046875,0.0010166623396798968,0.0029569987673312426,-0.0006168032996356487
1772656003421031400,10.504031494140625,-0.0015865142922848463,-0.0017171141225844622,0.00041285622864961624
1772656003431013600,10.514013671875,-0.0002522708382457495,0.0013580378144979477,-0.00008488865569233894
1772656003440995300,10.523995361328126,-0.00041437195613980293,0.0012074580881744623,0.0007406845688819885
1772656003450978600,10.533978515625,-0.0017728505190461874,0.001010650536045432,-0.0018969103693962097
1772656003460960500,10.54396044921875,0.0016039010370150208,-0.0007009730907157063,0.0023097903467714787
1772656003470942500,10.5539423828125,0.0004243869334459305,0.0006649623392149806,-0.001807989552617073
1772656003480925400,10.563925537109375,-0.0005260435864329338,0.0008514010696671903,0.00010536285117268562
1772656003490907400,10.573907470703125,-0.001952166436240077,0.000015434809029102325,0.0008787449914962053
1772656003500889600,10.5838896484375,-0.0008750048000365496,0.0017825947143137455,0.002987207379192114
1772656003510871600,10.59387158203125,-0.0007005678489804268,0.002072612987831235,0.001898507121950388
1772656003520854500,10.6038544921875,-0.0002679645549505949,-0.0038847296964377165,0.0008640701416879892
1772656003530836500,10.61383642578125,0.0020529802422970533,-0.0011930728796869516,0.0008270521648228168
1772656003540818400,10.623818359375,-0.0004560502711683512,0.0005356499459594488,-0.000027470290660858154
1772656003550801400,10.633801513671875,0.00019029900431632996,0.0004791909595951438,0.0006758705712854862
1772656003560783600,10.64378369140625,0.0012225063983350992,-0.0011842392850667238,0.001682422822341323
1772656003570765600,10.653765625,0.00011702836491167545,-0.0023538998793810606,0.0017961396370083094
1772656003580748500,10.66374853515625,0.00012739701196551323,0.00003914744593203068,0.0014176750555634499
1772656003590730500,10.67373046875,-0.0008667611982673407,0.00003062537871301174,-0.0011842334643006325
1772656003600712400,10.68371240234375,-0.0017085694707930088,-0.0016587561694905162,0.0012304806150496006
1772656003610694700,10.693694580078125,-0.002742941025644541,0.0005577928386628628,-0.002606868278235197
1772656003620677400,10.703677490234375,0.00010085385292768478,0.0017215103143826127,-0.0009237094782292843
1772656003630659600,10.71365966796875,0.0011474760249257088,-0.0016303441952914,0.0005261152982711792
1772656003640641500,10.7236416015625,-0.0002419475931674242,-0.0008061302360147238,0.00005565350875258446
1772656003650624500,10.73362451171875,0.0009037443669512868,-0.00006230943836271763,0.00013634748756885529
1772656003660606700,10.743606689453125,-0.001162179745733738,-0.00046474114060401917,-0.0010436479933559895
1772656003670588400,10.75358837890625,-0.0015507349744439125,-0.0008453067857772112,0.0015976750291883945
1772656003680571600,10.763571533203125,-0.00044621992856264114,0.00015527091454714537,-0.00007618265226483345
1772656003690553600,10.7735537109375,-0.0008044149726629257,-0.00016750418581068516,-0.0011851228773593903
1772656003700535600,10.78353564453125,0.0009165890514850616,0.0009060692973434925,0.002878972329199314
1772656003710517800,10.793517822265626,-0.00016811653040349483,-0.0024495134130120277,0.0012650967109948397
1772656003720500500,10.80350048828125,-0.0025838641449809074,0.0017307187663391232,-0.0002862825058400631
1772656003730482700,10.813482666015625,-0.0012655993923544884,0.0010500147473067045,-0.0006767022423446178
1772656003740464400,10.82346435546875,-0.0006413285154849291,0.0020141054410487413,0.0012669686693698168
1772656003750447600,10.833447509765625,-0.0010501237120479345,0.0015144965145736933,-0.0037855803966522217
1772656003760429600,10.8434296875,-0.0013175318017601967,0.0010997283970937133,0.0011716375593096018
1772656003770411500,10.85341162109375,0.001142163760960102,-0.0012332007754594088,0.0005716276355087757
1772656003780394500,10.86339453125,-0.00017589912749826908,-0.0005815470358356833,0.0013239814434200525
1772656003790376700,10.873376708984376,-0.0014124047011137009,-0.0023152651265263557,0.00025046104565262794
1772656003800358700,10.883358642578125,0.0021159180905669928,-0.001979424152523279,0.0013728179037570953
1772656003810341400,10.89334130859375,-0.004096703603863716,-0.0024537332355976105,-0.002025375608354807
1772656003820324400,10.903324462890625,-0.00005341414362192154,-0.0015621710335835814,0.0009136982262134552
1772656003830306300,10.913306396484375,0.0011668463703244925,-0.00008811138104647398,0.000707569532096386
1772656003840288500,10.92328857421875,0.000946139101870358,0.0006493983091786504,0.0009646702092140913
1772656003850271200,10.933271240234374,-0.00006133480928838253,-0.00019509007688611746,-0.0002473345957696438
1772656003860253400,10.94325341796875,-0.0005466151051223278,-0.0008849899750202894,0.001914275111630559
1772656003870235400,10.9532353515625,-0.0006038730498403311,-0.0003001599106937647,0.0008402224630117416
1772656003880218400,10.96321826171875,-0.0011844676919281483,0.0005075728986412287,0.002272457117214799
1772656003890200300,10.973200439453125,-0.0006350574549287558,0.0009227596456184983,-0.0010812613181769848
1772656003900182300,10.983182373046875,0.00006023677997291088,0.0011216707061976194,0.0008823396638035774
1772656003910164500,10.99316455078125,-0.0018433905206620693,0.001971485558897257,0.003020591801032424
1772656003920147500,11.0031474609375,0.0010767903877422214,0.0016105708200484514,-0.00004479242488741875
1772656003930129400,11.01312939453125,0.0011356462491676211,-0.0005050443578511477,0.0020279455929994583
1772656003940111400,11.023111328125,-0.0008851867169141769,-0.0001347388606518507,-0.00005703279748558998
1772656003950094300,11.03309423828125,0.0015247076516970992,-0.0015214468585327268,-0.003223530948162079
1772656003960076300,11.043076171875,0.0004172641783952713,0.0010152487084269524,0.0005597849376499653
1772656003970058500,11.05305859375,0.0019043732900172472,0.0021020846907049417,-0.0015987069346010685
1772656003980040200,11.063040283203126,0.0011741658672690392,-0.00009805441368371248,0.0010531146544963121
1772656003990023400,11.0730234375,0.0007299506105482578,-0.0010589229641482234,0.0012680317740887403
1772656004000005000,11.083005126953125,-0.0004900482017546892,-0.0008651253301650286,-0.0009057405404746532
1772656004009987300,11.0929873046875,-0.0013081715442240238,0.004291553515940905,-0.00017896387726068497
1772656004019970300,11.10297021484375,0.000024662353098392487,0.001892406726256013,-0.0008029025048017502
1772656004029952300,11.1129521484375,-0.0013111792504787445,0.0018428718904033303,-0.001093719620257616
1772656004039934500,11.1229345703125,-0.00007858360186219215,-0.0008957377867773175,0.00033435970544815063
1772656004049917200,11.132917236328124,-0.0027454732917249203,0.00003237370401620865,0.0013503555674105883
1772656004059899400,11.1428994140625,0.0010100334184244275,0.00005217280704528093,-0.0015920288860797882
1772656004069881300,11.15288134765625,0.003212733892723918,0.00029372156132012606,0.0029832818545401096
1772656004079863300,11.16286328125,-0.00045142672024667263,0.0012414043303579092,-0.001845826394855976
1772656004089846300,11.17284619140625,-0.00047113397158682346,0.003064338117837906,-0.0007973401807248592
1772656004099828200,11.182828125,-0.0011295352596789598,0.0004326283233240247,0.0017830065917223692
1772656004109810400,11.192810546875,-0.0008602894376963377,0.0019522280199453235,-0.0005592433735728264
1772656004119793400,11.20279345703125,-0.00032388814724981785,-0.0013025314547121525,0.002594303572550416
1772656004129775400,11.212775390625,0.0010188776068389416,-0.00007454794831573963,-0.0010068230330944061
1772656004139757300,11.22275732421875,0.00007006805390119553,0.0011289697140455246,-0.0022959858179092407
1772656004149740300,11.232740234375,-0.0014034588821232319,-0.0003655963810160756,0.0018795845098793507
1772656004159722200,11.24272216796875,0.000896383193321526,-0.000680919736623764,0.00012795906513929367
1772656004169704400,11.252704345703124,0.0006244746036827564,0.00003626954276114702,0.0014925627037882805
1772656004179686400,11.262686279296876,0.0013792202807962894,-0.001122292480431497,0.0015086513012647629
1772656004189669400,11.27266943359375,0.0001437799073755741,0.0007501759682781994,0.001458850223571062
1772656004199651300,11.2826513671875,0.00021421583369374275,0.00043813581578433514,0.0025714526418596506
1772656004209633300,11.29263330078125,-0.0012582461349666119,0.0018080659210681915,-0.0008136914111673832
1772656004219616500,11.302616455078125,0.00033883401192724705,0.0003776814555749297,0.002850751858204603
1772656004229598200,11.31259814453125,0.0010839864844456315,0.0013942101504653692,-0.002143740188330412
1772656004239580400,11.322580322265624,-0.0003638528287410736,-0.0003961450420320034,0.000058898236602544785
1772656004249563400,11.3325634765625,-0.0005614594556391239,0.00041265704203397036,-0.002374964766204357
1772656004259545300,11.34254541015625,0.0002220070455223322,-0.0007242433493956923,0.002797576365992427
1772656004269527600,11.352527587890625,0.001905923942103982,-0.001374853658489883,-0.0020914548076689243
1772656004279509200,11.36250927734375,0.0021875908132642508,0.0002644580090418458,-0.0009216740727424622
1772656004289492500,11.372492431640625,-0.0003557279706001282,0.0011065495200455189,-0.002102786209434271
1772656004299474200,11.38247412109375,0.00046563753858208656,0.0013615519274026155,0.00006184540688991547
1772656004309456400,11.392456298828124,-0.0010073569137603045,0.0014805953251197934,0.0006061955355107784
1772656004319439400,11.402439453125,0.0014801989309489727,0.000554298865608871,0.00042499322444200516
1772656004329421300,11.41242138671875,-0.002785119926556945,0.000432592467404902,0.00023617548868060112
1772656004339403300,11.4224033203125,0.0011449253652244806,0.0010677250102162361,0.0025346032343804836
1772656004349386500,11.432386474609375,0.0028919591568410397,0.0004967432469129562,-0.001315262634307146
1772656004359368400,11.442368408203125,0.0008187962230294943,0.0006538097513839602,-0.0007487679831683636
1772656004369350400,11.452350341796874,-0.00014899647794663906,0.0015488981734961271,0.0003527156077325344
1772656004379332400,11.462332275390626,-0.000804016599431634,0.000013143988326191902,-0.0017713611014187336
1772656004389315300,11.4723154296875,0.002125726779922843,-0.0008814117172732949,0.000689665786921978
1772656004399297300,11.48229736328125,0.0016300295246765018,-0.00022541673388332129,0.0009865136817097664
1772656004409279200,11.492279296875,0.001092870021238923,0.00011360365897417068,0.0004996876232326031
