time,seconds_elapsed,z,y,x
1772562163913525500,0.082525390625,0.26562194424271585,0.015869477044045923,-0.02405064634149894
1772562163923507700,0.0925078125,0.31871699009239673,0.020754618737101552,-0.014047010857239365
1772562163933490400,0.102490478515625,0.3507359301656484,0.03434796754270792,-0.03127701739845797
1772562163943472600,0.11247265625,0.3446422894656658,0.04486731573045254,-0.05222270172825083
1772562163953455600,0.12245556640625,0.30543489919304845,0.030445991668105122,-0.06374719010423868
1772562163963437600,0.1324375,0.283577872171998,0.03243132026642561,-0.050397787856031204
1772562163973420500,0.142420654296875,0.32647359556853767,0.03950608095824718,-0.0431418619110249
1772562163983402500,0.152402587890625,0.3944564139485359,0.037811844260990615,-0.021004410513397305
1772562163993385500,0.162385498046875,0.3870002527236938,0.07258037530332803,-0.020814221703540532
1772562164003367700,0.17236767578125,0.3828285199970007,0.0942301893144846,-0.016910948920994998
1772562164013350400,0.182350341796875,0.37828561587035653,0.09982464832067489,-0.011657814165763556
1772562164023332600,0.19233251953125,0.334307942456007,0.10035919358879328,0.026183511918038128
1772562164033315600,0.202315673828125,0.23331249679028987,0.10079612370133399,0.053836950258165595
1772562164043297500,0.212297607421875,0.1843774932295084,0.10012333900630474,0.04969882754012942
1772562164053280500,0.222280517578125,0.20020459243655203,0.0807750799357891,0.02600245626270771
1772562164063262500,0.232262451171875,0.17643676335811614,0.07364303609877824,0.0009159823337569832
1772562164073245400,0.242245361328125,0.11691606837511062,0.05935469076633453,0.03440462963338941
1772562164083227600,0.2522275390625,0.10949556298553943,0.02805851200968027,0.10048928624186665
1772562164093210400,0.26221044921875,0.07946341281533241,0.04391191470175981,0.13833148910850285
1772562164103192600,0.272192626953125,0.0013794716596603393,0.08103519217669963,0.1660375709513202
1772562164113175600,0.282175537109375,-0.1473591374337673,0.08267974451333283,0.21007165072802453
1772562164123157500,0.292157470703125,-0.28953590379357336,0.03863748143017292,0.24320965795908123
1772562164133140500,0.302140380859375,-0.3952677303314209,0.002147241161763668,0.2713519027294591
1772562164143122700,0.312122802734375,-0.5110083251863717,-0.04172112665921449,0.2940971107618883
1772562164153105400,0.32210546875,-0.5314145688772202,-0.08953560175746679,0.30201972045470027
1772562164163087600,0.332087646484375,-0.4334165514618158,-0.09435966091305018,0.3209059880366549
1772562164173070600,0.342070556640625,-0.2692436418712139,-0.07717500961720943,0.2911538603842258
1772562164183052500,0.352052490234375,-0.09445523024201392,-0.06585194383114576,0.23069624987728893
1772562164193035500,0.362035400390625,0.013453355813026428,-0.05758183587491512,0.1880744115186855
1772562164203017500,0.372017578125,0.08942541938126086,-0.05294803859442472,0.17434022947028277
1772562164213000400,0.38200048828125,0.17136019074618816,-0.05602408503890037,0.15111779584754256
1772562164222982700,0.391982666015625,0.2853296842753887,-0.03697159404456615,0.15059006391270086
1772562164232965400,0.40196533203125,0.408253468632698,-0.036407530421018595,0.16094550850931555
1772562164242947600,0.411947509765625,0.49361178470551964,-0.03989917192906141,0.16533276541652156
1772562164252930600,0.4219306640625,0.597389554566145,-0.041136897030472755,0.2186424221312627
1772562164262912500,0.43191259765625,0.6208931797504424,-0.030713410432636735,0.25686980665689335
1772562164272895500,0.4418955078125,0.6080033030390739,-0.016808803720772265,0.26320721125118435
1772562164282877700,0.451877685546875,0.5489835433155298,-0.02389496258944273,0.24243304756339637
1772562164292860400,0.4618603515625,0.5098550634980201,-0.041081075190007685,0.21173467030311002
1772562164302842600,0.471842529296875,0.5258429062247276,-0.033114041833579536,0.20397358958125114
1772562164312825600,0.48182568359375,0.4811842648088932,0.036844752794504165,0.13919136647400446
1772562164322807600,0.4918076171875,0.5792272904098034,0.06593290011286736,0.10290365390721708
1772562164332790500,0.50179052734375,0.6155068105369806,0.07222381695061922,0.047343377854628485
1772562164342772500,0.5117724609375,0.5404524463355541,0.13672346938997507,-0.04242794148800894
1772562164352755500,0.52175537109375,0.29445991619229317,0.15728665720820426,-0.19176732948618008
1772562164362737700,0.531737548828125,0.002848375168442726,0.09955372242480516,-0.3316834757039323
1772562164372720400,0.541720458984375,-0.19532091204822064,0.01496551394164562,-0.409193014505133
1772562164382702600,0.55170263671875,-0.30276538772284983,-0.044538522167503834,-0.48721203719843176
1772562164392685600,0.561685546875,-0.5181587814629077,-0.0905482859313488,-0.5669760769281535
1772562164402667500,0.57166748046875,-0.6756593736827373,-0.10882628542184829,-0.5606804473826661
1772562164412650500,0.581650390625,-0.6706903530985117,-0.11193857222348451,-0.4819224428903311
1772562164422632700,0.5916328125,-0.6747820063263178,-0.06998860524445771,-0.40623427429739384
1772562164432615400,0.601615478515625,-0.6842535990267992,-0.03805120597481727,-0.3378539079671725
1772562164442597600,0.61159765625,-0.5462736998349428,-0.013268646895885467,-0.28819619788872075
1772562164452580600,0.62158056640625,-0.3597276303946972,0.03525368421077728,-0.2313151854932308
1772562164462562600,0.6315625,-0.22595044358968733,0.11604337719380856,-0.21816634731842205
1772562164472545500,0.641545654296875,-0.18248714943826197,0.15249474675655364,-0.2551126790575683
1772562164482528800,0.65152880859375,-0.12574468699693678,0.13994360048025845,-0.30274211644511667
1772562164492510500,0.661510498046875,-0.15258125599622727,0.13440905496776104,-0.31153577335141597
1772562164502493700,0.67149365234375,-0.17433540716469287,0.1367541567891836,-0.29678978391196575
1772562164512475400,0.681475341796875,-0.0746925451517105,0.16555355029404162,-0.24688085728511214
1772562164522458600,0.691458740234375,0.01724339574575424,0.1713037843838334,-0.20722270930400116
1772562164532440600,0.701440673828125,0.12197276724278926,0.20017478182017803,-0.1805871793021448
1772562164542423600,0.711423583984375,0.20129472576081753,0.2722343481197953,-0.1372586631120648
1772562164552405500,0.721405517578125,0.23282442101240156,0.30354513992369175,-0.09788614540561101
1772562164562388700,0.731388671875,0.31660335893929004,0.29311317775845525,-0.023189134141337126
1772562164572370400,0.741370361328125,0.34769466277360916,0.28978900177180766,0.02747978967311792
1772562164582353700,0.751353759765625,0.2778700159192085,0.28433950419425963,0.04993516617980785
1772562164592335400,0.76133544921875,0.2184580420076847,0.2959937016308308,0.08199448392922058
1772562164602318600,0.771318603515625,0.15100830759108066,0.2935278960391879,0.14076105434298514
1772562164612300500,0.781300537109375,0.14763152463436127,0.2996148147374391,0.1752260723941028
1772562164622283500,0.791283447265625,0.1654799005359411,0.29709961704611776,0.1893712098635733
1772562164632265500,0.801265380859375,0.20049334625005721,0.2637780699416995,0.17843014739872887
1772562164642248700,0.811248779296875,0.21301322060525416,0.23722937797307966,0.18543792553525418
1772562164652230400,0.82123046875,0.30900691246092316,0.23236703263372183,0.14921577075165696
1772562164662213600,0.831213623046875,0.30266017378270627,0.2582964236602187,0.14019468003134242
1772562164672195600,0.841195556640625,0.23912907411456108,0.31078415126651526,0.18042683764128015
1772562164682178600,0.851178466796875,0.11743161668181419,0.35889527122378345,0.280241421225667
1772562164692160500,0.861160400390625,-0.06313713191449642,0.37142888184338807,0.3115220005543902
1772562164702143700,0.871143798828125,-0.24488544568419454,0.34123891076296564,0.3259290768956765
1772562164712125400,0.88112548828125,-0.37851708653867244,0.26848960863351823,0.363478872686997
1772562164722108700,0.891108642578125,-0.4333300422221422,0.1971326376453042,0.3282468888513744
1772562164732090400,0.90109033203125,-0.5269248562425375,0.12408785970062017,0.32612416107635944
1772562164742073600,0.911073486328125,-0.5397288082361221,0.043080140052735805,0.3031816221072338
1772562164752055600,0.9210556640625,-0.5626829828441142,0.021351415586471557,0.2764919690316543
1772562164762038500,0.93103857421875,-0.5415121845215559,0.018801731103658674,0.276845367312897
1772562164772020500,0.9410205078125,-0.42937575163841246,0.04949322196543216,0.3128554776478559
1772562164782003700,0.951003662109375,-0.37556758908331395,0.0766468940898776,0.33676644152402874
1772562164791985400,0.9609853515625,-0.3293985431045294,0.11168956589847802,0.3477315607178956
1772562164801964800,0.97096484375,-0.25719781476855275,0.10896730132773517,0.3331278292933479
1772562164811946800,0.98094677734375,-0.25993103912472726,0.0925242621794343,0.3154479052938521
1772562164821930000,0.990929931640625,-0.33900457583963867,0.06838628461435436,0.2957859771642834
1772562164831911700,1.00091162109375,-0.3269914819628,0.031137919455021618,0.2541635251065716
1772562164841895000,1.01089501953125,-0.3007534633785486,0.020108283657580613,0.2015765566431917
1772562164851876600,1.020876708984375,-0.28189912530481814,0.019855185679346323,0.15773553348686545
1772562164861859800,1.03085986328125,-0.26481822664439675,0.03877615924850106,0.13892357325013727
1772562164871841800,1.040841796875,-0.27008243078291416,0.05832958550229668,0.14053272547982631
1772562164881824800,1.05082470703125,-0.2504436643332243,0.07896028559878468,0.1608804439164698
1772562164891806700,1.060806640625,-0.24332769484817982,0.0932215967938304,0.13146638911198824
1772562164901790000,1.0707900390625,-0.22731354863643644,0.10443316502943635,0.10807674569617956
1772562164911771600,1.080771728515625,-0.18877718949317931,0.10042699812799692,0.12124168562241829
1772562164921755000,1.0907548828125,-0.1440530816257,0.11003493055924772,0.10615007021622731
1772562164931736800,1.10073681640625,-0.09736498020887374,0.12054039635211229,0.08141281158374622
1772562164941719800,1.1107197265625,-0.11140285791158676,0.11681406930536031,0.08271935500451363
1772562164951701800,1.12070166015625,-0.12630991966426372,0.11055880830287933,0.06683352504728828
1772562164961685000,1.13068505859375,-0.08988134645521641,0.09408595853820442,0.048452978497766884
1772562164971667700,1.140667724609375,-0.06400339335501194,0.10188274989426135,0.03480578289636178
1772562164981650000,1.15064990234375,-0.06335457405745983,0.10362915517017245,0.029225493979419113
1772562164991633000,1.1606328125,-0.12334873177111148,0.08460340605229139,0.023615526876843068
1772562165001614800,1.17061474609375,-0.15495207678079603,0.04181684211865067,0.0400232230004156
1772562165011597800,1.180597900390625,-0.1367062259942293,0.00394771471247077,0.05645222905678674
1772562165021579800,1.190579833984375,-0.12210837632119655,-0.014043576791137456,0.05415840076487511
1772562165031562800,1.200562744140625,-0.07367080088853836,-0.04057414858117699,0.05594718387778848
1772562165041545000,1.210544921875,-0.03736673084199428,-0.05499766460061073,0.066803709864337
1772562165051527700,1.220527587890625,0.011559504890441894,-0.04891118429377675,0.09082920349827035
1772562165061510000,1.230510009765625,0.007472527837753295,-0.044260289748013014,0.0883104438766837
1772562165071492900,1.240492919921875,0.00251227508187294,-0.03250336258932948,0.10945540450508706
1772562165081474800,1.250474853515625,-0.02574877376258373,-0.019702040944248437,0.1310572877212893
1772562165091457800,1.260457763671875,-0.03625204759836197,-0.03182648624107241,0.16065459927134215
1772562165101439700,1.270439697265625,-0.03750000183284283,-0.04937032623812556,0.1789866122377105
1772562165111422700,1.280422607421875,-0.027148119166493415,-0.053455257464200254,0.17993960211360827
1772562165121405000,1.290405029296875,-0.01732405976653099,-0.04993073659986257,0.17132362159546463
1772562165131387600,1.3003876953125,-0.003438742277026176,-0.049656741964071986,0.15724404190918428
1772562165141369900,1.310369873046875,0.01516249781847,-0.055892129222303626,0.15000977067355997
1772562165151352800,1.320352783203125,0.05988134498894214,-0.05156885919570923,0.14118657714552246
1772562165161334800,1.330334716796875,0.09020750966966151,-0.04509615605026483,0.14048516001105307
1772562165171317800,1.34031787109375,0.06655483140349387,-0.05241714658811688,0.11930615098257548
1772562165181300000,1.350300048828125,0.03266659032702446,-0.06397109852060676,0.1130286781482864
1772562165191282700,1.36028271484375,0.06651976009011268,-0.07483297653570771,0.12384939303593709
1772562165201265000,1.370264892578125,0.0550859274059534,-0.06816270499154925,0.11825030352040193
1772562165211247900,1.380247802734375,0.011382979279756546,-0.067001259996742,0.10133150008651427
1772562165221229800,1.390229736328125,0.0073643912881612775,-0.08403349720984697,0.11247142785801552
1772562165231212800,1.400212890625,-0.03525777586400509,-0.10781082476899027,0.11611004922185092
1772562165241194800,1.41019482421875,-0.06657236706018448,-0.13135901974737643,0.11370808438034727
1772562165251177700,1.420177734375,-0.07310965987443924,-0.15004647682160138,0.08747188329384661
1772562165261160000,1.430159912109375,-0.06182897192537784,-0.1595107629984617,0.07940745397754945
1772562165271142700,1.440142578125,-0.02931903346478939,-0.16411168092265724,0.08189659477900713
1772562165281124900,1.450124755859375,-0.046371875074505804,-0.16707272268533704,0.0982573533381801
1772562165291107800,1.46010791015625,-0.09120411949157714,-0.17675298970043657,0.11648377790506928
1772562165301089800,1.47008984375,-0.06776888336837292,-0.18209625042453406,0.13772543124044312
1772562165311072800,1.48007275390625,-0.0320025734603405,-0.1870820760130882,0.13736649826755745
1772562165321055000,1.490054931640625,0.009912322205305099,-0.1800022007547319,0.12694540455620734
1772562165331037700,1.50003759765625,0.020023381853103636,-0.16366729815602302,0.1070772497974336
1772562165341020000,1.51002001953125,0.023010288709402082,-0.14935893294885755,0.09561804521000013
1772562165351003000,1.5200029296875,0.01765782176554203,-0.1746434502005577,0.0745604980035685
1772562165360984800,1.52998486328125,0.009915244814753532,-0.18043576986640691,0.060842997661908156
1772562165370967800,1.5399677734375,0.004435352098941803,-0.1695040414854884,0.05120532767951954
1772562165380949800,1.54994970703125,0.03501110762655735,-0.17060060455054044,0.043079980222531594
1772562165390932700,1.5599326171875,0.047864159458875656,-0.1565349620580673,0.016653236416436266
1772562165400915000,1.5699150390625,0.05779986253976822,-0.13831775284409523,0.008476727311080321
1772562165410897700,1.579897705078125,0.04230477176606655,-0.14245003034323453,0.012852156783174723
1772562165420880000,1.5898798828125,0.04639642499387264,-0.14384411505013703,0.00825268418068299
1772562165430862800,1.59986279296875,0.06964578315615653,-0.12941416928991675,0.0015870499957352875
1772562165440845800,1.609845703125,0.07663724947869777,-0.12225099966228008,-0.011872217251558322
1772562165450827800,1.619827880859375,0.05229074372947216,-0.12953092753738163,0.00020074216991197317
1772562165460811000,1.62981103515625,0.03341945452094078,-0.14916457942053674,-0.022094256143295205
1772562165470792700,1.639792724609375,0.03249883254468441,-0.15592720542326569,-0.018272656595101577
1772562165480776000,1.64977587890625,0.022756606209278104,-0.13880275988206267,-0.031074517096299676
1772562165490758000,1.6597578125,-0.0452086765140295,-0.1467892285913229,-0.04735335125937126
1772562165500740900,1.669740966796875,-0.06311141295135021,-0.15572569150179624,-0.04377950679401401
1772562165510722800,1.679722900390625,-0.054012745216488835,-0.14114844622537492,-0.03945766610610298
1772562165520706000,1.6897060546875,-0.06598433803915978,-0.11863865438401698,-0.044221834600879806
1772562165530687700,1.699687744140625,-0.08493278413712978,-0.10192819647118449,-0.05610243837158195
1772562165540671000,1.7096708984375,-0.03979775738120079,-0.11069675546884536,-0.06566225734478794
1772562165550652700,1.719652587890625,-0.020261866784095764,-0.06843363088741898,-0.08532996676117181
1772562165560636000,1.729635986328125,-0.04687047224640846,-0.04155775279104709,-0.10942663506832905
1772562165570617900,1.739617919921875,-0.030729484784603116,-0.02709638897925615,-0.11465477237962185
1772562165580600800,1.749600830078125,-0.0386906729221344,-0.03340162660330534,-0.11872418637615628
1772562165590582800,1.759582763671875,-0.03712123164832592,-0.031741292175650596,-0.12677093390529043
1772562165600566000,1.76956591796875,-0.03892681976556778,-0.02376373742520809,-0.13143373808455652
1772562165610547700,1.779547607421875,-0.0073906947731971736,-0.015539514437317848,-0.11410542226801626
1772562165620531000,1.789531005859375,0.050126259171962735,-0.015322802946716545,-0.10547751385006121
1772562165630512600,1.7995126953125,0.06567571048140526,-0.005266542226076126,-0.08971184424036181
1772562165640495900,1.809495849609375,0.06800152308046817,0.01022767176479101,-0.07143706875341013
1772562165650477800,1.819477783203125,0.07402151402235031,0.0011611527338624,-0.05924477325160987
1772562165660460800,1.829460693359375,0.07976327254474162,-0.011637538562715053,-0.05552788988663815
1772562165670442800,1.83944287109375,0.07539221785366534,-0.013832125997543333,-0.03960560494312085
1772562165680426000,1.849426025390625,0.08550152393579483,-0.02163227835446596,-0.04002159273233265
1772562165690407700,1.85940771484375,0.0843564455538988,-0.02695581146478653,-0.03630006972486153
1772562165700391000,1.869390869140625,0.07764613426029682,-0.032009587723016736,-0.03293794548115693
1772562165710372900,1.879372802734375,0.09585399112403392,-0.029584114141762256,-0.027423502041772005
1772562165720355800,1.88935595703125,0.07799567835032939,-0.03458499116897583,-0.02761416577566415
1772562165730337800,1.899337890625,0.06818214034438133,-0.04312164110690355,-0.025283476072084157
1772562165740321000,1.909321044921875,0.07817220396101475,-0.04149374764412641,-0.017854367250949143
1772562165750302700,1.919302734375,0.0762000271052122,-0.028058804270625112,0.0010593911261297761
1772562165760286000,1.929285888671875,0.06643325085043907,-0.019771452918648718,0.023507936033234
1772562165770267600,1.939267578125,0.07123276008665562,-0.0008960720568895339,0.03331811303831637
1772562165780251000,1.9492509765625,0.06264379543960094,0.0073667293757200235,0.04063039054675027
1772562165790232800,1.95923291015625,0.047314708882570264,0.010343991620838641,0.051627530580386514
1772562165800215000,1.969215087890625,0.05091302563548088,0.011012976923584937,0.06140669139269739
1772562165810197000,1.979197021484375,0.05650982272922992,0.00046878655552864073,0.0671213427124545
1772562165820180000,1.989179931640625,0.06319207697212696,0.0004492050722241401,0.07105393292102963
1772562165830162200,1.999162109375,0.04983692083656788,0.0024877251625061033,0.07087815622901543
1772562165840145000,2.009144775390625,0.029113281759619712,-0.002409106968343258,0.09028733344022184
1772562165850127000,2.019127197265625,0.0092892218708992,-0.013651216472685336,0.0983998944808729
1772562165860110000,2.029110107421875,0.043832127463817594,-0.002838438296318054,0.0931068843729794
1772562165870092800,2.0390927734375,0.02594575763940811,-0.0019487959802150724,0.0842443634815514
1772562165880075000,2.049074951171875,0.02269932306408882,-0.022953005564212797,0.08824006378790362
1772562165890058000,2.05905810546875,0.03185644298791885,-0.035976445527374744,0.07270805680360645
1772562165900040000,2.0690400390625,0.033822774624824525,-0.054826691947877405,0.06485535227553918
1772562165910023000,2.07902294921875,0.013165771043300628,-0.07167816576659679,0.07942647833842784
1772562165920004900,2.0890048828125,0.03664309274256229,-0.07145867779701948,0.10173764233514666
1772562165929987800,2.09898779296875,0.046693362113833424,-0.06398994935154914,0.114469405875355
1772562165939970000,2.108969970703125,0.050934652945399284,-0.05697305632680654,0.11878149692080914
1772562165949952800,2.118952880859375,0.042127077111601824,-0.06554127044677734,0.116363768254593
1772562165959935000,2.12893505859375,0.06677636519968509,-0.06965396646261215,0.10718940493501722
1772562165969918000,2.13891796875,0.059713002684712406,-0.06153349611014127,0.08414519568970426
1772562165979900000,2.14889990234375,0.05500467886328697,-0.06370382588654756,0.089484383026883
1772562165989883000,2.1588828125,0.06487257740497589,-0.05667202755361795,0.07910422411412
1772562165999865000,2.168864990234375,0.04466156402528286,-0.05295943677127361,0.08858003633199259
1772562166009847800,2.178847900390625,-0.012095511463284492,-0.05127046077102423,0.09106410823268815
1772562166019830000,2.188830078125,0.004503741160035133,-0.04945815065205097,0.0699095121262595
1772562166029813000,2.19881298828125,0.026193010398745536,-0.027775018893182277,0.06571580502977595
1772562166039795000,2.208794921875,0.00952536871433258,-0.013259002284705638,0.05348291265610605
1772562166049778000,2.21877783203125,-0.0008452186524868011,-0.02229366487264633,0.031329003314021976
1772562166059759900,2.228759765625,0.010167758271098136,-0.040083880846202374,0.02251097915144637
1772562166069742800,2.238742919921875,-0.007106617134809493,-0.031006255899369714,0.022059289861191062
1772562166079725000,2.24872509765625,-0.00988134254515171,-0.022836685708165168,0.0104385563028045
1772562166089707800,2.258707763671875,0.032570728737115855,-0.0012277882292866707,-0.007458079187292605
1772562166099690000,2.26868994140625,0.03812544025480747,0.0037020693883299824,-0.010113763061538338
1772562166109673000,2.2786728515625,0.018474983367323873,-0.0024798341169953346,0.0026862616755999624
1772562166119655000,2.288655029296875,0.02122574338018894,-0.011014438228309154,0.015467325983941554
1772562166129638000,2.298637939453125,0.01621814435124397,-0.015174188256263732,-0.021602741732727734
1772562166139620000,2.3086201171875,0.046128713968396184,-0.0018579028263688087,-0.026100601141247896
1772562166149602800,2.318602783203125,0.0583364536345005,0.00024199206233024596,-0.013202285395096987
1772562166159585000,2.3285849609375,0.0769020378947258,0.006622340749204159,-0.033535226387716825
1772562166169568000,2.338568115234375,0.06108312199413776,0.014283961418271063,-0.023533234871271996
1772562166179550000,2.348550048828125,0.040648236730694766,0.025636253298819064,-0.004877433310635388
1772562166189533000,2.358532958984375,0.03529401622116565,0.03826280289888382,-0.010766345218755304
1772562166199515000,2.368514892578125,0.014512509477138518,0.04383183520287275,-0.004923300012666732
1772562166209497900,2.378497802734375,0.02308627655506134,0.033572891516983505,0.0012542195784859358
1772562166219480000,2.38847998046875,0.024372224712371826,0.011177227574586867,-0.00935214930558577
1772562166229462800,2.398462890625,0.03871814545094967,0.012302724473178386,-0.007704363832250237
1772562166239445000,2.408445068359375,0.012636778733134268,0.013465338511765002,-0.017064203253947197
1772562166249428000,2.418427978515625,-0.024407880547642705,0.0007715688943862914,-0.005295183798670769
1772562166259410000,2.428409912109375,-0.04990589441955089,0.006257891350984573,0.00446280636144802
1772562166269393000,2.438392822265625,-0.05232289243340492,0.008233867599070072,0.021903222516644744
1772562166279374800,2.448374755859375,-0.06696224316060542,0.011512450878322124,0.010829674512241035
1772562166289357800,2.45835791015625,-0.057117140972614285,0.013279752811789511,-0.0013446378082968293
1772562166299341000,2.468341064453125,-0.03976736224293709,0.007573942385613918,-0.009247903479821979
1772562166309322800,2.47832275390625,-0.01849310354590416,-0.000587152238190174,-0.01727309676427394
1772562166319306000,2.488305908203125,-0.028598902496695517,-0.013795593379437922,-0.03283546235421672
1772562166329288000,2.498287841796875,-0.020970307314395902,-0.007666004583239555,-0.01645659274961799
1772562166339271200,2.508271240234375,-0.01706687013506889,-0.0019315525844693182,-0.006545275191310792
1772562166349252900,2.5182529296875,-0.00438449869453907,0.0023246435552835465,-0.011806885513942688
1772562166359236000,2.528236083984375,0.0029699557214975356,0.012729425452649592,-0.005494487496744841
1772562166369217800,2.5382177734375,0.023557401198148725,0.03875117093771696,-0.0009080912882462143
1772562166379201000,2.548200927734375,0.04807867899239063,0.03783230252712965,-0.004114230385795235
1772562166389183000,2.558182861328125,0.03517535827755928,0.03932312560677528,-0.009040763535164297
1772562166399166000,2.568166015625,0.042965866023302074,0.032660745108127595,-0.002306267648376524
1772562166409148000,2.57814794921875,0.03448679149150848,0.027060148622095583,0.003993818876519799
1772562166419131100,2.588131103515625,-0.014593758019804953,0.03629150282591581,0.028568452559504656
1772562166429112800,2.59811279296875,-0.04125438593029976,0.04883651162236929,0.0437393163475208
1772562166439096000,2.608095947265625,-0.020687983241677282,0.04522007469087839,0.03464253004249185
1772562166449077800,2.618077880859375,0.0021738369077444076,0.056280982409417625,0.025257172587048262
1772562166459061000,2.62806103515625,0.03793780872821808,0.081774904628098,0.024376937420107422
1772562166469043000,2.63804296875,0.06631225481927394,0.09096738812625407,0.014248689175490289
1772562166479026000,2.64802587890625,0.07535773106217383,0.07998217599242925,0.00218647719360888
1772562166489007900,2.6580078125,0.06421499027907848,0.06051087506413459,0.016621811514999717
1772562166498991000,2.6679912109375,0.038626375514268875,0.0581798017680645,0.028295900962129233
1772562166508972800,2.677972900390625,0.0039770869374275205,0.06085135906487703,0.04816511516682803
1772562166518956000,2.6879560546875,-0.019136662146449088,0.0710787385687232,0.05720443566357716
1772562166528938000,2.69793798828125,-0.014977204379439352,0.07092325574606656,0.05937074685199186
1772562166538921000,2.7079208984375,-0.011565934631228446,0.05992986030578613,0.0464494703553617
1772562166548903000,2.71790283203125,-0.014365794482827186,0.04452040198892355,0.03916123130964115
1772562166558886100,2.72788623046875,-0.027612229546904562,0.033899346992373465,0.035910431086458264
1772562166568867800,2.737867919921875,-0.029394436788558957,0.026036650793254373,0.036381994120962914
1772562166578851000,2.74785107421875,-0.04972527715563774,0.014681436303257942,0.037544717757403846
1772562166588832800,2.757832763671875,-0.0789537097275257,-0.0026607436418533323,0.04981023375904187
1772562166598816000,2.76781591796875,-0.08129355085194111,-0.011486439654231071,0.038580764540564264
1772562166608798000,2.7777978515625,-0.10546528455615042,-0.010263327600061893,0.03849078470217064
1772562166618781000,2.787781005859375,-0.11432137570679188,-0.0031868133425712584,0.04638630545865744
1772562166628763000,2.797762939453125,-0.11707038215398788,-0.004360825558006763,0.050136159511469304
1772562166638746000,2.80774609375,-0.10194120208323001,0.01096709195524454,0.03730831518564373
1772562166648727800,2.817727783203125,-0.12443944961726665,0.01892828009277582,0.03616018633013591
1772562166658711000,2.8277109375,-0.13257424075603486,0.01512508841753006,0.0417866661760956
1772562166668694000,2.837694091796875,-0.15108371091485023,0.015823299814760685,0.04378430626671761
1772562166678676000,2.847676025390625,-0.144758015024662,0.0217655493453145,0.021041765115410088
1772562166688659000,2.857658935546875,-0.11947568973004817,0.046856151460111135,0.019296053959242998
1772562166698641200,2.86764111328125,-0.07805529958307743,0.06306318989545107,0.030365985234454274
1772562166708624000,2.877623779296875,-0.04805646716058254,0.07681260604560375,0.013325637780129908
1772562166718606000,2.887606201171875,-0.017891045999526976,0.10122048659324645,0.012888963395915925
1772562166728589000,2.897589111328125,-0.017011340555548666,0.09730565123707055,0.019197890814393756
1772562166738571000,2.907571044921875,-0.008932078996300696,0.08318886307924986,0.004709273669496178
1772562166748554000,2.917553955078125,-0.008160510101914405,0.08746610200703143,-0.005236238419357687
1772562166758536000,2.927535888671875,0.010120996519923209,0.08691811273545026,0.008677154387161136
1772562166768519000,2.937518798828125,0.031059739652276038,0.09827420400828123,0.03102452220842242
1772562166778501000,2.947501220703125,0.041944706282019614,0.11095394510030746,0.06887456132164224
1772562166788483800,2.95748388671875,0.0672860682874918,0.11007277835160494,0.07760202112393454
1772562166798466600,2.967466552734375,0.10274901133477687,0.10216215135753154,0.09484881440317258
1772562166808449800,2.97744970703125,0.13801964668035507,0.09528729715198278,0.12142227548686786
1772562166818431500,2.987431396484375,0.15927812328636645,0.11001491068452596,0.1481126226821914
1772562166828414700,2.997414794921875,0.11324585542976856,0.10637070896327495,0.1454735428828746
1772562166838396700,3.007396728515625,0.08646247792243957,0.08058394127786159,0.14772406175602226
1772562166848379600,3.017379638671875,0.09493220010399818,0.058897886909544464,0.16294946874286978
1772562166858361600,3.027361572265625,0.1108212586313486,0.052775896897912025,0.19001369075188412
1772562166868344800,3.0373447265625,0.12172492996156214,0.06204173789322376,0.1762804402852431
1772562166878326500,3.047326416015625,0.1572410645008087,0.0683101506382227,0.13594786364128814
1772562166888309800,3.057309814453125,0.19752339052855966,0.0610246698051691,0.1368243359485641
1772562166898291700,3.067291748046875,0.19318916071653364,0.05113046777844429,0.11365980652552098
1772562166908274700,3.077274658203125,0.1292471421599388,0.014380699791014194,0.08792265013549476
1772562166918256600,3.087256591796875,0.07220598903298378,-0.017840777117013932,0.08863134639412164
1772562166928239600,3.097239501953125,0.018507716593146324,-0.040006139434874056,0.09162804399207233
1772562166938221600,3.1072216796875,0.007375497204065323,-0.05361819294095039,0.07126929270476103
1772562166948204800,3.117204833984375,-0.01122632741332054,-0.050312137132883065,0.07184347586352377
1772562166958186800,3.127186767578125,0.015170096603035926,-0.02837649191766977,0.0664573806446977
1772562166968169700,3.137169677734375,0.0005184709161520004,-0.02071165637820959,0.05835682056909427
1772562166978151700,3.147151611328125,-0.01799801350533962,-0.025776830813288687,0.03583493643114343
1772562166988134700,3.157134765625,-0.07753916675448418,-0.04840279638022184,0.04600623836619779
1772562166998116600,3.16711669921875,-0.17364742490053175,-0.07104571308195591,0.05631141408029943
1772562167008099800,3.177099853515625,-0.2320744794279337,-0.09095862029790877,0.06711825570622458
1772562167018081800,3.187081787109375,-0.19380816939771175,-0.08548895671516657,0.05132873029690235
1772562167028064800,3.197064697265625,-0.13819091159403324,-0.06422872654348612,0.030719694042950867
1772562167038047700,3.2070478515625,-0.08054068665802479,-0.04793313304185867,0.01633862892575562
1772562167048029700,3.21702978515625,-0.024786650732159615,-0.04396685975939035,-0.007288001583702862
1772562167058012700,3.2270126953125,0.0380979677259922,-0.03613046704530716,-0.02100188976274803
1772562167067994600,3.23699462890625,0.05837386303544044,0.007070669038593769,-0.011302644052542745
1772562167077977600,3.2469775390625,0.05467383947372436,0.017016893513500688,-0.027949206416308877
1772562167087959800,3.256959716796875,0.029767946276068685,-0.0029331308424472807,-0.04349255677852779
1772562167097942500,3.266942626953125,0.06982055520117282,-0.015336685341596603,-0.039308001102879644
1772562167107924700,3.2769248046875,0.12411211735904217,0.032196050205826755,-0.0075969762013293795
1772562167117907700,3.28690771484375,0.09475450544953345,0.07568447879850863,0.012065554716438054
1772562167127889700,3.2968896484375,0.09617606268525122,0.07722615528255701,-0.01033385381931439
1772562167137872600,3.30687255859375,0.137038818949461,0.07121200955957174,-0.050716443617455656
1772562167147854800,3.316854736328125,0.10542144541442394,0.05658844092339277,-0.053898854779545216
1772562167157837600,3.326837646484375,0.0620791472941637,0.029241292053461074,-0.04374265908207744
1772562167167819800,3.33681982421875,0.01725041000843048,0.014341244563460349,-0.042679358965810384
1772562167177802800,3.346802734375,-0.012642039430141448,-0.00308130714148283,-0.026313001782912758
1772562167187784700,3.35678466796875,-0.03861351603269577,-0.001298223116993904,-0.0007134637652896344
1772562167197767700,3.366767578125,-0.01525660584270954,0.013343173436820507,0.0031070809035561977
1772562167207749600,3.37674951171875,-0.009966682741045951,0.02451280222684145,0.004318995710276067
1772562167217732600,3.386732666015625,-0.0034609541088342663,0.027204233267903326,-0.010309760557673872
1772562167227714800,3.39671484375,-0.021646599140763282,0.023102935428917407,-0.01193832987388596
1772562167237697500,3.406697509765625,-0.02716097864806652,0.02511485977321863,-0.004104238714743406
1772562167247679700,3.4166796875,0.011119359907507896,0.02563391521126032,-0.005083477276749909
1772562167257662700,3.426662841796875,0.04656067564487457,0.01877835022807121,-0.0006879822641611098
1772562167267644700,3.436644775390625,0.0490863947302103,0.025678046613931655,-0.005408690643124282
1772562167277627600,3.446627685546875,0.011976853519678116,0.02675882758796215,0.01305405429713428
1772562167287609900,3.45660986328125,-0.0035942250996828075,0.007399754862487316,0.006592858926393092
1772562167297592600,3.466592529296875,-0.0022591771036386487,-0.0005623100578784942,0.008969177869986742
1772562167307574800,3.47657470703125,-0.006749474260210991,-0.004189560644328594,0.0050962819593958555
1772562167317557800,3.486557861328125,-0.023220132067799566,-0.00635083033144474,0.01214707725374028
1772562167327539700,3.496539794921875,-0.0036123452782630917,0.0065504445567727086,0.006491225182823837
1772562167337522700,3.506522705078125,-0.005680383723974228,0.0225020469263196,0.007084460101928562
1772562167347504600,3.516504638671875,-0.005920622220635414,0.028178046736121176,0.028983974557835607
1772562167357487600,3.526487548828125,0.031056232520937917,0.03879501007944345,0.045450595511123536
1772562167367469800,3.5364697265625,0.0757692344725132,0.039706279705464836,0.033335045906808226
1772562167377452500,3.54645263671875,0.1277922671765089,0.05213467638492584,0.023237064936291425
1772562167387434800,3.556434814453125,0.14282207852602005,0.06675356884598732,0.027100882491283118
1772562167397417700,3.566417724609375,0.13959668673872946,0.06935147638469934,0.011426836687792092
1772562167407400700,3.576400634765625,0.10051496867239475,0.049664486879110334,0.00881835295613855
1772562167417382700,3.586382568359375,0.06380173330307007,0.03091273239701986,0.04329328961307183
1772562167427366000,3.596365966796875,-0.04808160160183906,0.01097322943508625,0.06373239439390599
1772562167437347600,3.60634765625,-0.07786357640326022,-0.010606734210252761,0.08586303245825692
1772562167447330800,3.616330810546875,-0.06678454850614071,-0.0027817396730184553,0.10669064336633309
1772562167457312500,3.6263125,-0.056285950845479965,0.03204758164584637,0.10962605749741196
1772562167467295700,3.636295654296875,-0.04473638282716274,0.04199263707697391,0.08761586747495458
1772562167477277700,3.646277587890625,-0.03961187942028045,0.02487257544994354,0.06796917344713584
1772562167487261000,3.656260986328125,-0.05808452470004558,0.005363280598819255,0.05377365749729797
1772562167497242600,3.66624267578125,-0.05686755012571811,-0.010391337893903254,0.039101993669383224
1772562167507225900,3.676225830078125,-0.051014147922396655,-0.03798164786994457,0.045758839476387946
1772562167517207600,3.68620751953125,-0.029598434928059577,-0.04038637092411518,0.04943184716701507
1772562167527190800,3.696190673828125,-0.0015028057783842085,-0.03653904784619808,0.04240092561691999
1772562167537172700,3.7061728515625,0.016627894195914268,-0.025127719254791736,0.040533834837097674
1772562167547155700,3.71615576171875,0.04343932875394821,-0.01224719489365816,0.05458170421086252
1772562167557137700,3.7261376953125,0.050393385675549504,-0.0013464461728930472,0.06524913736609741
1772562167567121000,3.736120849609375,0.05807166521847248,0.0038236499413847923,0.06834774270225316
1772562167577102600,3.7461025390625,0.05799684641659259,0.0049824645876884455,0.06713968208674341
1772562167587085800,3.7560859375,0.027170915520191193,-0.004826689504086971,0.05307973868269473
1772562167597067500,3.766067626953125,-0.0012976385951042175,-0.0218418294519186,0.05103875264069065
1772562167607050800,3.77605078125,0.0018248773396015165,-0.04682166466861963,0.04013409492978826
1772562167617032700,3.78603271484375,0.013435235634446143,-0.03539338494241238,0.04622872201045975
1772562167627015700,3.796015625,0.014499649995565413,-0.005959785187244415,0.07265532196937129
1772562167636997600,3.80599755859375,0.0005266542226076126,0.008003858235478402,0.08057561184093355
1772562167646980900,3.81598095703125,-0.007972878575325013,0.01965893245488405,0.08597783621065318
1772562167656962600,3.825962646484375,0.006484685844182968,0.029213235002756115,0.07993837338332087
1772562167666945800,3.83594580078125,0.014696633872389793,0.039615678812563414,0.060555664053931826
1772562167676927700,3.845927734375,0.02782324194908142,0.038461540341377255,0.05625066946954466
1772562167686910700,3.85591064453125,0.02166705740690231,0.03512684296071529,0.06472961613717489
1772562167696892700,3.865892578125,-0.028164018210768697,0.02430354339033365,0.06280834748470224
1772562167706876000,3.8758759765625,-0.05791150622069835,0.00803834502696991,0.05270469482522457
1772562167716857600,3.885857666015625,-0.04242050710022449,0.009077624946832657,0.046821829065401104
1772562167726840800,3.8958408203125,0.010894903501868248,0.03087006229907274,0.03629524741927161
1772562167736823800,3.90582373046875,0.032711013990640636,0.04260229340791702,0.04165781563203782
1772562167746805800,3.9158056640625,0.04282908790111541,0.028421500103175637,0.03079971874291077
1772562167756788700,3.925788818359375,0.05923544830083847,0.02320084284543991,0.01696207632003352
1772562167766770700,3.935770751953125,0.05765548563301563,0.01686082616895437,0.019837321229092774
1772562167776753700,3.945753662109375,0.03572714694142341,0.008099427564442157,0.02296038515307009
1772562167786735900,3.95573583984375,0.00578267505466938,-0.0041559506356716154,0.017203739588800816
1772562167796718800,3.96571875,0.004562193349003791,-0.00007218845337629318,0.015803115543257445
1772562167806700800,3.97570068359375,-0.005500935503840446,0.000794072987139225,0.006933543856535106
1772562167816683800,3.985683837890625,-0.03034720746874809,-0.009364332933723926,-0.0030140323252417145
1772562167826665700,3.995665771484375,-0.03671966511011123,-0.016849720253050326,0.002715962694119662
1772562167836648700,4.005648681640625,-0.01837327655851841,-0.01312339320629835,-0.002704911577142775
1772562167846631000,4.015630859375,0.015019874477386473,-0.002602583713829517,-0.0021419256658293307
1772562167856613600,4.025613525390625,0.01894084731340408,0.0040092356413602825,0.02063011557459831
1772562167866595800,4.035595947265625,0.018134791627526282,0.005644435627758503,0.01932907944601029
1772562167876578800,4.045578857421875,0.02154898398518562,-0.0010685060143470764,0.006732870185282081
1772562167886560800,4.055560791015625,0.0031949966490268707,0.023702947148680684,-0.005433733752835542
1772562167896543700,4.065543701171875,0.011172551399469375,0.02290595155209303,0.00857046087598428
1772562167906526000,4.07552587890625,-0.024575638329982757,0.012457915034890174,0.03235410857805982
1772562167916508700,4.0855087890625,-0.029667408511042593,0.027154256646335122,-0.0018134791627526282
1772562167926491000,4.095490966796875,0.007924363258481025,0.007626549355685711,-0.013616017295140772
1772562167936473900,4.105473876953125,0.036594577425718304,0.009946224474906921,-0.0053041708227246995
1772562167946455800,4.115455810546875,0.05945698209702968,0.031169629767537115,-0.011664097776077686
1772562167956438800,4.125438720703125,0.060303369793295855,0.04984890353530645,0.0017081008258275686
1772562167966420700,4.135420654296875,0.04045300641953945,0.04630553184002638,0.016942988027073443
1772562167976403700,4.14540380859375,0.038140053302049635,0.017829671201109884,0.024044216600712386
1772562167986386000,4.155385986328125,0.04566401906609535,0.019857962158322334,0.027417547225020825
1772562167996368600,4.16536865234375,0.051746553850173946,0.03075023531168699,0.019362598123122004
1772562168006350800,4.175350830078125,0.04490589417517185,0.0267456758454442,0.019923702604603022
1772562168016333800,4.185333740234375,0.04546060544848442,0.020829437538981435,0.0295685695127584
1772562168026315800,4.195315673828125,0.055447161933779715,0.011484101566672324,0.042184999577607955
1772562168036298800,4.205298828125,0.045516135028004646,0.01459784967303276,0.05346212559640407
1772562168046281700,4.21528173828125,-0.01357435184419155,0.01996872905641794,0.0627251901127398
1772562168056263700,4.225263671875,-0.03910568346381187,0.015082710580527781,0.0694254184037447
1772562168066246700,4.23524658203125,-0.051233343631029125,-0.0007674772411584853,0.09088710769796743
1772562168076228900,4.245228759765625,-0.03266425223946571,-0.004200374299287796,0.1077681364047341
1772562168086211600,4.255211669921875,0.006164952370524406,0.005451835665106773,0.09225936416555196
1772562168096193800,4.26519384765625,0.014959084200859068,0.004340659552812576,0.0764966902305372
1772562168106176800,4.2751767578125,0.041509237474203105,0.0013756722673773764,0.047230811725091186
1772562168116158700,4.28515869140625,0.0671112962424755,0.004203589169681072,0.047009387526754286
1772562168126141700,4.2951416015625,0.0468774865090847,0.0033528175592422486,0.02928226338466629
1772562168136123600,4.30512353515625,0.04167991786599159,0.0021881576940417286,0.030252642786782233
1772562168146106600,4.315106689453125,0.02045242092013359,0.0009407879814505577,0.04071498182397335
1772562168156088800,4.3250888671875,-0.0029758009403944015,0.01572977631241083,0.044266774287726726
1772562168166071600,4.335071533203125,-0.012973463341593742,0.00984130279570818,0.05874209355963394
1772562168176053800,4.3450537109375,0.020809563794732092,0.013612930288910864,0.05788217052835971
1772562168186036700,4.35503662109375,0.042843116426467896,0.028573475794494152,0.05406133359856903
1772562168196018700,4.365018798828125,0.027407646885514256,0.022154840923845766,0.06172147469660267
1772562168206003700,4.375003662109375,0.002935468930006027,0.027281097896397113,0.06375418610060588
1772562168215986700,4.384986572265625,0.004036123648285866,0.015221826790273188,0.06234380784602835
1772562168225969000,4.394968994140625,-0.014109189373254775,0.020915362256765366,0.048538533322792496
1772562168235951600,4.40495166015625,-0.04779401683211326,0.027666005560755727,0.06172463476806879
1772562168245933800,4.414933837890625,-0.046729602470993996,0.020566402688622473,0.07881665761070325
1772562168255916800,4.424916748046875,-0.01528758550286293,0.015151684163510799,0.0703584249375388
1772562168265898800,4.434898681640625,0.02578852125108242,0.03988835827410221,0.06560688302889466
1772562168275881700,4.4448818359375,0.054776130804419516,0.04815232875049114,0.06272173778032884
1772562168285863700,4.45486376953125,0.06056114394664764,0.036679625360667704,0.03279485634919256
1772562168295846700,4.4648466796875,0.024776129338145256,0.024122926126420495,0.021244941271003334
1772562168305828900,4.474828857421875,-0.003146481332182884,0.008038052766025067,0.03048612274909392
1772562168315811600,4.4848115234375,0.0010644143611192702,-0.0006914893954992294,0.026374814972747115
1772562168325793800,4.494793701171875,0.020802549532055854,0.01951864720135927,0.028062329668272285
1772562168335776800,4.50477685546875,0.05718553003370762,0.031392332607507706,0.013899912270437926
1772562168345758700,4.5147587890625,0.02920388265252113,0.03462444639652967,0.00832823135163635
1772562168355741700,4.52474169921875,0.010783844342827796,0.030150515852868556,0.0266818716279231
1772562168365724000,4.534723876953125,-0.01858838061392307,0.026245325107872485,0.005132211789302527
1772562168375706600,4.54470654296875,-0.004768529576063156,0.02210194169282913,-0.003807009333837777
1772562168385689900,4.55468994140625,-0.0022369652718305585,0.030218612653017042,0.0026928192805498836
1772562168395671800,4.564671875,-0.03523322594463825,0.023468261609971522,-0.018151541832927613
1772562168405654800,4.57465478515625,-0.02227145304083824,0.01344020407050848,-0.017518888218887148
1772562168415636700,4.58463671875,-0.0014595511585474012,0.02841828523278236,-0.013617752594500779
1772562168425620000,4.594619873046875,-0.013380290576815605,0.043300212544202805,-0.006737345430999994
1772562168435601700,4.6046015625,-0.013649170646071433,0.046880701379477974,0.010752097497694194
1772562168445585000,4.6145849609375,0.017591770792007445,0.05853519107699394,0.012297902167588472
1772562168455566600,4.624566650390625,0.013111410507559776,0.058628130057454104,0.00999731534132734
1772562168465549800,4.6345498046875,0.007736731731891632,0.05192570980936288,0.01554777080900967
1772562168475531800,4.64453173828125,0.026481764212250708,0.04103548248261213,0.01660542663577944
1772562168485514800,4.6545146484375,0.015834113469719885,0.043031332474946976,0.02465789151964709
1772562168495496700,4.66449658203125,0.011918985852599144,0.03902063552886247,0.03418956211060285
1772562168505480000,4.67447998046875,0.0015729484051465988,0.027167116127908227,0.04423857110654935
1772562168515461600,4.684461669921875,0.004782558101415634,0.025357728618383406,0.04544922553794458
1772562168525444900,4.69444482421875,0.024555764585733414,0.02041238117069006,0.03807073265919462
1772562168535426800,4.7044267578125,0.0076028762191534035,0.020431378132104872,0.026923443565145134
1772562168545409800,4.714409912109375,-0.008677227452397346,0.03652998775690794,0.028136034225299953
1772562168555391700,4.724391845703125,-0.0068956047326326365,0.006432078874111175,0.03311574060032144
1772562168565375000,4.734375,0.012950082466006279,-0.0032166239589452744,0.027372338110115378
1772562168575356700,4.744356689453125,0.03835632640123367,0.018776596662402154,0.003759224669355899
1772562168585340000,4.75433984375,0.06229425134956836,0.03302139511406421,0.02434984848378226
1772562168595321600,4.764321533203125,0.038591304200887674,0.02411269699335098,0.01874349811039865
1772562168605304800,4.774304931640625,0.031232173609733578,0.012481295910477638,0.0318301212365739
1772562168615286800,4.784286865234375,0.01833060646057129,-0.008075462166965008,0.043704939153883605
1772562168625269800,4.794269775390625,0.0020347206979990005,0.0007233458384871482,0.0663201093321666
1772562168635251700,4.804251708984375,-0.004564531436562538,0.021197978590428827,0.07140249063037335
1772562168645235000,4.81423486328125,-0.02748772638440132,0.025329379306733606,0.06884201075891032
1772562168655216600,4.824216552734375,-0.042515784168243406,0.02006020673215389,0.09136606858763843
1772562168665199900,4.834199951171875,-0.03819032218456268,0.024783143600821494,0.07830653439778834
1772562168675182800,4.844182861328125,-0.014271101936697958,0.023599194513261316,0.08068827843517065
1772562168685164800,4.854164794921875,0.01189385141134262,0.022818857790529726,0.07224990123994648
1772562168695147800,4.864147705078125,0.029468671068549154,0.03401712815314531,0.027937442913278935
1772562168705130000,4.8741298828125,0.03334346667528152,0.010412672942876814,0.014328476413432508
1772562168715112700,4.88411279296875,0.006819616886973381,-0.0067924366191029545,0.025699381662905214
1772562168725095000,4.894094970703125,-0.006711480337381362,-0.01523702435940504,0.04114144534142688
1772562168735078000,4.904077880859375,-0.019881343033909798,-0.01787555616945028,0.044201928890589624
1772562168745059800,4.914059814453125,-0.018728081345558166,-0.016360475431382655,0.0676104596699588
1772562168755042800,4.924042724609375,-0.009485621225833893,-0.0024865561187267303,0.05397803922928869
1772562168765024800,4.934024658203125,0.021045126116275785,0.000030979660153388974,0.06899700039122253
1772562168775007700,4.9440078125,0.04733282906115055,0.0028097967237234113,0.07729315610416233
1772562168784990000,4.953989990234375,0.019953239226341245,0.003164309249818325,0.08386614128630608
1772562168794972700,4.96397265625,0.0013058219015598296,0.004703063124418258,0.09129766126023604
1772562168804954600,4.97395458984375,0.006624971097707748,-0.0012920856371521948,0.08948564340220763
1772562168814937600,4.9839375,-0.001998480340838432,0.0005918284133076667,0.08668892535576596
1772562168824919600,4.99391943359375,-0.023689503145217894,0.019831658673286436,0.0902022672389634
1772562168834902500,5.003902587890625,-0.053360418787598604,0.017682079423964023,0.09077545488388276
1772562168844884700,5.013884765625,-0.04854512746036052,0.00653466246575117,0.0846198000646662
1772562168854867500,5.023867431640625,-0.012608137160539627,0.02639408592879772,0.07621722483518532
1772562168864849700,5.033849609375,0.020638298881053924,0.03912760303467512,0.05750848751091398
1772562168874832600,5.04383251953125,0.03737140701711177,0.026568565712869165,0.060619550469843665
1772562168884814600,5.053814697265625,0.05739888052344322,0.023546587543189525,0.03746142338812351
1772562168894797600,5.063797607421875,0.06352934610247611,0.01961421653032303,0.048826976609043775
1772562168904779800,5.07377978515625,0.04717267006337642,0.021542261983454228,0.036316783397644756
1772562168914762500,5.083762451171875,0.048450434914231295,0.016414543706178664,0.04845148522700183
1772562168924744700,5.09374462890625,0.06396773751974105,0.02130640740096569,0.05269238333292305
1772562168934727700,5.103727783203125,0.021351415586471557,0.01590191800892353,0.04416746036540717
1772562168944710400,5.11371044921875,0.01982932058572769,0.0054579731449484825,0.04149637799263
1772562168954692600,5.123692626953125,0.02729775677025318,0.003987023809552193,0.05136939110085368
1772562168964675600,5.133675537109375,-0.007241641691327095,-0.00040741175711154934,0.039671482386719435
1772562168974657500,5.143657470703125,0.00783960758447647,0.0020607319220900533,0.023021833016723392
1772562168984640500,5.153640625,0.005629530319571495,-0.005188508553802967,0.01952100355522707
1772562168994622500,5.16362255859375,-0.01923544634580612,-0.007300386141240596,0.013545892934687435
1772562169004605400,5.17360546875,-0.043839141726493835,-0.013638941513001919,0.003167085728794336
1772562169014587600,5.183587646484375,-0.04657119703888893,-0.025323826348781584,0.005073850931879132
1772562169024570400,5.1935703125,-0.03232113789021969,-0.017476327718794343,0.009673800741694867
1772562169034552600,5.203552490234375,-0.008183890977501869,-0.012653437606990336,0.018024024729430675
1772562169044535600,5.21353564453125,0.004908814829587936,-0.002551438048481941,0.017901220333669334
1772562169054517500,5.223517578125,0.005776829835772514,0.007538871072232723,0.026087851257529108
1772562169064500500,5.23350048828125,0.021961071917414664,0.011770517292618752,0.03057031216751784
1772562169074482700,5.243482666015625,0.022811551266908644,0.02386398292928934,0.039279944052174685
1772562169084465400,5.25346533203125,0.04611643900871277,0.017546470345556734,0.016671824669186024
1772562169094447600,5.263447509765625,0.04910977560579777,0.022626257827877996,0.013264920568838715
1772562169104430600,5.2734306640625,0.021364859589934348,0.013495441389083861,0.019419863002002238
1772562169114412500,5.28341259765625,0.03767009770274162,0.0044654549762606615,0.007244692164938896
1772562169124395500,5.2933955078125,0.047209494942426676,0.007897767512500285,-0.0020352321546524763
1772562169134377500,5.30337744140625,0.0320025734603405,0.022571020509302615,0.011552746356092393
1772562169144360400,5.3133603515625,0.019162381109595297,0.028054712617397306,0.020778912928141654
1772562169154342700,5.3233427734375,0.018224807998538015,0.015415303535759449,0.01427954097148031
1772562169164325400,5.333325439453125,0.030539515170454976,0.0020329671323299405,0.015035620035789905
1772562169174307600,5.3433076171875,0.04937807115316391,0.01270429101139307,0.0241259766000323
1772562169184290600,5.35329052734375,0.022456746479868887,0.026449615508317946,0.017599680103827266
1772562169194272500,5.3632724609375,-0.00035831191837787623,0.004942717099189758,0.029405140845663844
1772562169204255500,5.37325537109375,0.014060089534521102,-0.010123919129371642,0.031539960917271674
1772562169214238700,5.38323876953125,0.03367722867429256,-0.008259294301271439,0.042301100237946955
1772562169224220400,5.393220458984375,0.03097907563149929,-0.00748889445066452,0.0380399173958227
1772562169234203600,5.40320361328125,0.03423135542571545,-0.009665361706912517,0.03557226690696552
1772562169244185600,5.413185546875,0.017851883032917976,-0.010314181004464625,0.054053442553058266
1772562169254168600,5.42316845703125,-0.01857493661046028,-0.003138590286672115,0.06106516621233895
1772562169264150500,5.433150634765625,-0.05990764847397804,-0.01317395434975624,0.03820130023630336
1772562169274133800,5.4431337890625,-0.02612520585954189,-0.014710077875852583,0.04227899800399318
1772562169284115500,5.453115478515625,-0.0056529111951589585,0.0004626490756869316,0.026306206715945153
1772562169294098700,5.4630986328125,-0.050585693377256394,0.0005611410140991211,0.021694548202026633
1772562169304080400,5.473080322265625,-0.040511458608508105,-0.008338204756379128,-0.004763433275837451
1772562169314063600,5.483063720703125,-0.02451543257534504,-0.03150251498371363,-0.004857906626258045
1772562169324045600,5.493045654296875,-0.009255319601297378,-0.019662147325277327,0.034266335407551377
1772562169334028500,5.503028564453125,-0.017540917387604712,0.00032236382216215134,0.037271161513030525
1772562169344010500,5.513010498046875,0.011602759510278702,0.018044482995569704,0.015908311217091978
1772562169353993700,5.52299365234375,0.03477320721745491,0.0290092368632555,0.01621929512871429
1772562169363975400,5.532975341796875,0.04859948799610138,0.016810849547386167,0.025118604366574433
1772562169373958700,5.542958740234375,0.034084055909514424,0.01339227327555418,0.020505849874112754
1772562169383940400,5.5529404296875,0.011439677903056144,0.009082301121950149,0.04086166028566658
1772562169393923600,5.562923583984375,-0.001003039562702179,0.012988953171670436,0.04325520435869693
1772562169403905500,5.572905517578125,0.04397884245812893,0.015022212564945221,0.06159152817400172
1772562169413888800,5.582888671875,0.037731472501158714,0.037214170628786084,0.04634074928387999
1772562169423870500,5.592870361328125,0.01814063684642315,0.05570201347768306,0.030903453112021088
1772562169433853700,5.602853759765625,0.002511106038093567,0.043162849900126456,0.0269667529839091
1772562169443835400,5.61283544921875,-0.0036380642414093017,0.04220101913064718,0.022149561960529536
1772562169453818600,5.622818603515625,0.005443652358651161,0.04963000008761882,0.012754103236179799
1772562169463800600,5.632800537109375,0.015471709898114203,0.04336655577868223,-0.005792995519284159
1772562169473783600,5.642783447265625,0.0015554127484560011,0.022294833916425703,-0.019081205632165074
1772562169483766500,5.6527666015625,-0.007595861956477165,0.016109423279762267,-0.0019209215926006436
1772562169493748700,5.662748779296875,0.017010171511769295,-0.0005494505763053894,-0.0018344306192360816
1772562169503731500,5.6727314453125,0.03165302937030792,0.019803017100691794,0.010801379999518393
1772562169513713700,5.682713623046875,0.015728315007686615,0.02838789009451866,0.023013065188378094
1772562169523696600,5.692696533203125,-0.002904489269852638,0.015112521196901797,0.021874891471304
1772562169533678600,5.7026787109375,0.028989363119006156,0.012590601503849028,0.014406583150941878
1772562169543661600,5.71266162109375,0.04309504536092281,0.01314385147243738,0.019669837441388515
1772562169553643500,5.7226435546875,0.0021779285609722135,0.020277941136062145,0.014741514193732291
1772562169563626500,5.73262646484375,-0.021139818662405014,0.009667115272581578,0.011869812948629259
1772562169573608700,5.742608642578125,-0.017960019582509992,0.005795826797187328,0.00970547452159226
1772562169583591400,5.75259130859375,-0.013445172506570815,0.018751169960200785,0.012473313533421605
1772562169593573600,5.76257373046875,-0.003229483440518379,0.024973113214969634,0.004960819011460989
1772562169603556600,5.772556640625,0.023334698358178137,0.02781184377223253,-0.01081688809590414
1772562169613538600,5.78253857421875,0.005385784691572189,0.030679508163034913,-0.015682082979474217
1772562169623521500,5.792521484375,0.008363923719525337,0.028364216957986355,-0.0027882059464231133
1772562169633503700,5.802503662109375,0.01780512128174305,0.029662147814035415,-0.003447875431552529
1772562169643486500,5.812486572265625,0.012715689188241957,0.035459143655002114,0.006520359945762902
1772562169653468700,5.82246875,0.0343424145847559,0.045350423072278497,0.01853504299148917
1772562169663451600,5.83245166015625,0.049992988181114195,0.049426001948118206,0.03216507054567337
1772562169673433600,5.84243359375,0.053095630371570585,0.06152940445691347,0.039992147442139685
1772562169683416600,5.85241650390625,0.013055296406149863,0.07012392206192017,0.03654392495071515
1772562169693398500,5.8623984375,-0.012591186025738716,0.04853928224146366,0.0280762668620795
1772562169703381500,5.872381591796875,-0.0014829320341348648,0.034310265880823136,0.007311711252853274
1772562169713363700,5.88236376953125,0.010445406168699264,0.026006255654990672,-0.001748980825487524
1772562169723346400,5.892346435546875,0.01680734241604805,0.016739537876844405,-0.028128618103824554
1772562169733328600,5.90232861328125,0.0037912089765071866,0.00860386995524168,-0.029341354894451794
1772562169743311600,5.9123115234375,0.020278817918896675,0.016606266885995865,-0.0133404334904626
1772562169753294600,5.922294677734375,0.015849895560741425,0.02120353154838085,0.0020838022704236206
1772562169763276500,5.932276611328125,-0.003067570877075195,0.022013386626541613,0.0100838063146919
1772562169773259500,5.942259521484375,-0.00027297172248363493,0.007993921363353728,0.012747326435521244
1772562169783241500,5.952241455078125,0.018240590089559555,0.02317073996812105,0.017250702269375324
1772562169793224400,5.962224365234375,0.006793313401937485,0.027080606888234614,0.02834456240944564
1772562169803206400,5.972206298828125,-0.007795768442749976,0.020665771409869194,0.02377128141084686
1772562169813189400,5.982189453125,0.013504209217429161,-0.007092588609457016,0.015902867856994272
1772562169823171300,5.99217138671875,0.018238836523890495,-0.0031572949871420857,0.017263799212966113
1772562169833154600,6.002154541015625,-0.0005763385832309722,0.001360182437300682,0.016328600722085685
1772562169843136300,6.01213623046875,-0.007831424278020858,-0.0022550854504108427,0.013199362785648554
1772562169853119500,6.022119384765625,-0.008480828097462654,0.008237959252297878,0.019167623540293423
1772562169863101200,6.03210107421875,-0.039053661015629765,0.011121990256011485,0.015266286986507475
1772562169873084400,6.04208447265625,-0.04446925632357597,0.01702420003712177,0.02611324142711237
1772562169883066400,6.05206640625,-0.04025426897704601,0.007271744568645953,0.013734108983166515
1772562169893049300,6.06204931640625,0.001250292322039604,0.007642039185762405,-0.01286874259179458
1772562169903031300,6.07203125,0.026848259437084198,0.008907821337878704,-0.03507754219258204
1772562169913014500,6.0820146484375,0.020599135914444924,-0.0003872457519173622,-0.021929964393097905
1772562169922996200,6.091996337890625,0.024312018957734105,0.0021317513316869733,-0.005626845172140747
1772562169932979500,6.1019794921875,0.0071522098422050475,0.005480769498646259,0.015250815422739832
1772562169942961200,6.111961181640625,-0.014517185652256012,0.014418109191954135,0.02658310569487512
1772562169952944400,6.1219443359375,0.016072598400712013,0.029674715034663676,0.0338303916756995
1772562169962926300,6.13192626953125,0.02769815426468849,0.03220861742645502,0.037732641544938085
1772562169972909300,6.141909423828125,-0.0036509237229824065,0.03531768935769796,0.031840185972861944
1772562169982892300,6.151892333984375,0.00478314262330532,0.005186754988133907,0.02806222007041797
1772562169992874500,6.16187451171875,0.03171615773439407,0.007801321400701999,0.022817159023787826
1772562170002857200,6.171857177734375,0.033117256703972815,0.008411562253534793,0.015593326983787119
1772562170012839400,6.18183935546875,0.0241553670912981,0.014771744935214519,0.00584748391918838
1772562170022822400,6.191822509765625,0.009833996272087097,0.02641717454344034,0.0023491569420322775
1772562170032804400,6.201804443359375,-0.00029576807618141173,0.023678104968369005,0.012610036856681108
1772562170042787300,6.211787353515625,-0.009511340188980102,0.013307809862494469,0.004073533049225807
1772562170052769500,6.22176953125,0.012470774516463279,0.03271656694859266,-0.022054869414400307
1772562170062752300,6.231752197265625,0.005270633879303932,0.03744973295032978,-0.03306463146759197
1772562170072734500,6.241734375,0.01920680477321148,0.027039690355956554,-0.03983951416369527
1772562170082717400,6.251717529296875,0.021472411617636678,0.0276847102612257,-0.025373273247387258
1772562170092699400,6.261699462890625,0.014412556234002113,0.008026362328231335,-0.00581865968350321
1772562170102682400,6.271682373046875,-0.003736848440766334,0.005372925209999084,0.0012471687831915913
1772562170112664300,6.281664306640625,0.0060930561780929565,0.0071431497529149054,0.00504676199555397
1772562170122647300,6.291647216796875,0.016695114213228224,0.02045505126863718,0.025392416339274495
1772562170132629500,6.30162939453125,0.0028518822997808456,0.008933540301024914,0.016768983167037368
1772562170142612200,6.3116123046875,0.006043956339359283,0.00016220482438802718,0.016189046120923013
1772562170152594400,6.321594482421875,-0.0010994856745004653,-0.008116670960187911,0.02178019892517477
1772562170162577400,6.331577392578125,-0.031471243062615395,-0.00412438645362854,0.010216620647814124
1772562170172559400,6.341559326171875,-0.05102759192585945,-0.018279753056168555,0.009641798168234527
1772562170182542300,6.351542236328125,-0.016935937231779098,-0.024651918436586855,0.002006079125404358
1772562170192524500,6.361524658203125,-0.0017640870630741118,-0.01791238104850054,0.024941256771981713
1772562170202507300,6.37150732421875,-0.030559388914704323,-0.011310206304490566,0.034949714561831206
1772562170212489500,6.381489501953125,-0.0582365003913641,-0.02402560323178768,0.01898890597252175
1772562170222472400,6.391472412109375,-0.005668693286180496,-0.008471183486282825,0.04453848563488572
1772562170232455200,6.401455078125,0.00689502021074295,0.009902969855070113,-0.0023988230363465846
1772562170242437400,6.411437255859375,0.005182371073961258,0.02134206323623657,0.018028353844676166
1772562170252420400,6.42142041015625,-0.0006266074657440185,0.012287526904046536,0.030243363501783457
1772562170262402300,6.43140234375,0.017408230918645858,0.0051198272317647935,0.03041943245474249
1772562170272385300,6.44138525390625,0.04679565344452858,0.016490823812782763,0.02887638599751517
1772562170282367200,6.4513671875,0.06024316403865814,0.033980011013150214,0.04491725581940263
1772562170292350200,6.46135009765625,0.052318800780177116,0.045404491347074506,0.04517590675558895
1772562170302332400,6.47133251953125,0.051883331972360607,0.03934212256819009,0.03675499215181917
1772562170312315100,6.481315185546875,0.020656419059634206,0.024262334597110746,0.019062720127403735
1772562170322297300,6.49129736328125,0.008290858483314513,0.018994331066310405,0.01921581006357446
1772562170332280300,6.5012802734375,0.0323684841632843,-0.006953180138766765,0.005715400238428265
1772562170342262300,6.51126220703125,0.03868775031268597,-0.006653320409357548,-0.008675327756255865
1772562170352245200,6.521245361328125,-0.004398527219891548,-0.008143851228058338,-0.0010059073732234538
1772562170362227500,6.5312275390625,-0.010589198553562164,-0.014856500609219073,0.013261632633209227
1772562170372210200,6.541210205078125,0.028655601119995114,-0.021781331436336038,0.02380240720147267
1772562170382192400,6.5511923828125,0.045074236479401585,-0.012021861705183982,0.040879689132701603
1772562170392175400,6.56117529296875,0.02226093164682388,0.0012593524113297461,0.05234104914460331
1772562170402157300,6.5711572265625,-0.007366144853830337,-0.0255453601449728,0.061840662363171574
1772562170412140300,6.581140380859375,0.001734276446700096,-0.0330523747742176,0.08924745073216035
1772562170422122200,6.591122314453125,0.04349310476779938,-0.034301790313422675,0.09726628734106198
1772562170432105200,6.601105224609375,0.08423837213218212,-0.017281097407639025,0.07912444491824135
1772562170442087400,6.61108740234375,0.056712067303061484,-0.014269056110084055,0.07930060520274564
1772562170452070100,6.621070068359375,0.030046763217449188,0.0005763385832309722,0.0752180851294659
1772562170462053400,6.631053466796875,0.0011415712505578994,0.012845745308697223,0.07463999298056587
1772562170472035300,6.641035400390625,-0.03490940081775188,0.009479776006937026,0.08057541091153397
1772562170482018300,6.651018310546875,-0.017785832059383392,0.014758300931751726,0.06212682236079126
1772562170492000300,6.661000244140625,-0.00023731588721275328,0.006247954478859901,0.015571352613996713
1772562170501983500,6.6709833984375,0.04432955559194088,0.007080898171663284,-0.022534506157506257
1772562170511965200,6.680965087890625,0.03350713280439377,0.004407879570126534,-0.04283984675714746
1772562170521948400,6.690948486328125,0.025696166792511937,-0.005348667551577091,-0.07217329233977943
1772562170531930000,6.70093017578125,0.03134966250956058,-0.011825170089304447,-0.08191814902368932
1772562170541913300,6.710913330078125,0.007522212198376655,-0.011978314824402331,-0.07055444069998339
1772562170551895300,6.720895263671875,-0.00010404489636421203,-0.008139759574830532,-0.06641799848238006
1772562170561878500,6.73087841796875,-0.04663374088108539,-0.028878596220910546,-0.01735107563761994
1772562170571860200,6.740860107421875,-0.0481628501445055,-0.029786650976538657,-0.0359262131774798
1772562170581843500,6.750843505859375,-0.02258124964237213,-0.016545768870413303,-0.034982246858254074
1772562170591825200,6.7608251953125,-0.016318682116270064,-0.0030649405285716057,-0.05453914371076971
1772562170601808400,6.770808349609375,-0.022635610178112983,-0.002599368843436241,-0.049333209098130465
1772562170611790300,6.780790283203125,-0.003159340813755989,-0.014577099145948886,-0.044114122742973265
1772562170621773300,6.790773193359375,-0.007647884404659271,-0.030107261233031746,-0.032496494457125664
1772562170631755300,6.80075537109375,-0.016693360647559163,-0.02317161675095558,-0.029357100452855226
1772562170641738500,6.810738525390625,0.016949381235241888,-0.025308921040594578,-0.033061964586470274
1772562170651720200,6.82072021484375,0.02671557296812534,0.0012856558963656424,-0.02315534146958962
1772562170661703400,6.830703369140625,0.03600128770768642,0.019838672935962677,-0.027005130499228834
1772562170671685000,6.84068505859375,0.04411620510220527,0.028055297139286995,-0.03346590574486181
1772562170681668400,6.85066845703125,0.01521568931043148,0.025650574085116385,-0.021287264309078454
1772562170691650300,6.860650390625,-0.0018009119421243667,0.02074701995253563,-0.0011018420283682643
1772562170701633300,6.87063330078125,0.008504793494939803,0.007690554502606391,-0.012065426852274685
1772562170711616300,6.8806162109375,0.009481529572606087,0.0030643560066819188,0.004377100839372724
1772562170721598500,6.890598388671875,0.003449263671040535,0.004905307698249817,0.022678974395804106
1772562170731581200,6.900581298828125,0.02580722595155239,0.012508476178348063,0.02724335970189422
1772562170741563400,6.9105634765625,0.022698738542199132,0.013356909701228142,0.026813297721557317
1772562170751546400,6.92054638671875,0.032735563910007474,0.018232406783103942,0.00994837989937514
1772562170761528300,6.9305283203125,0.02575578802525997,0.012376958753168582,-0.0067610733664594585
1772562170771511300,6.94051123046875,0.015240823751688002,0.008343465453386305,0.00606277063768357
1772562170781493500,6.950493408203125,-0.003807575589418411,0.005790858361124992,0.0014610672621987759
1772562170791476200,6.960476318359375,-0.00008767828345298767,-0.0012920856371521948,-0.01460648963721469
1772562170801458400,6.97045849609375,0.027153379863500592,-0.00047229368686676023,-0.010169055179040879
1772562170811441400,6.98044140625,0.043566170004010196,0.014030278918147086,-0.00414835185110569
1772562170821423400,6.99042333984375,0.04689677573144436,0.02363923426270485,-0.004837247430719435
1772562170831406300,7.00040625,0.041997313252091405,0.02602554487735033,0.002823405123967677
1772562170841388300,7.01038818359375,0.03648176470100879,0.028140052813291547,0.00759617248373106
1772562170851371300,7.020371337890625,0.04340893361568451,0.01846738458275795,0.020698778630327434
1772562170861353500,7.030353515625,0.021137480574846268,0.018361293859779835,0.024674550393503157
1772562170871336200,7.040336181640625,0.0019224924951791761,0.021587562429904936,0.03352801119564101
1772562170881318400,7.050318359375,-0.01699731203019619,0.003663198682665825,0.04222204365236684
1772562170891301400,7.06030126953125,-0.012085574591159819,0.0020329671323299405,0.055216348852589726
1772562170901283300,7.070283447265625,0.005287000492215156,0.006867255420982837,0.049119219287578016
1772562170911266300,7.080266357421875,0.0024894787281751632,0.011933306638896465,0.039705457721557466
1772562170921249300,7.090249267578125,0.011524433577060698,0.005009937116503715,0.038261323327850545
1772562170931231200,7.100231201171875,0.011942951250076293,-0.00025017536878585813,0.03281363411489874
1772562170941214200,7.110214111328125,0.027372575572133063,-0.019230770170688628,0.014893654281832277
1772562170951196400,7.120196533203125,0.03162731040716171,-0.019353519767522812,0.013895838883519172
1772562170961179100,7.13017919921875,0.004070025917887687,-0.010226210460066795,0.03592071501845494
1772562170971161300,7.140161376953125,-0.006640168666839599,-0.003879471781849861,0.03312027064496651
1772562170981144300,7.150144287109375,0.011834814700484276,-0.014602525848150253,0.03628958486346528
1772562170991126300,7.160126220703125,-0.000810147339105606,-0.01018938558101654,0.06232418983010575
1772562171001109200,7.170109130859375,0.030957448321580885,0.010711948150396347,0.05498535310830921
1772562171011091200,7.18009130859375,0.04270984543561935,0.020150223103165624,0.06676984412735328
1772562171021074200,7.19007421875,0.04074468284249305,0.024044892454147336,0.06141432670988142
1772562171031056400,7.200056396484375,0.0557873536735773,0.008015256412327289,0.05619412610987201
1772562171041039000,7.2100390625,0.050018122622370716,0.0007405892342329024,0.07336089468915015
1772562171051021300,7.220021240234375,0.012720365363359451,0.011160860961675644,0.0787106216866523
1772562171061004300,7.23000439453125,-0.020789105528593064,0.02365355504900217,0.06556477918652817
1772562171070986200,7.239986328125,-0.047965281745791434,0.01374737032353878,0.08130021805474534
1772562171080969200,7.24996923828125,-0.01293956107199192,0.010057868155837058,0.047161399750690905
1772562171090951400,7.259951416015625,-0.014449381113052367,0.015113105718791485,0.018511095860321073
1772562171100934100,7.26993408203125,0.008851414975523948,-0.0021370120286941527,0.014413560881000011
1772562171110916400,7.279916259765625,0.03826221837699413,-0.022809505440294742,-0.0031628296787850558
1772562171120899300,7.2898994140625,0.041995559686422344,-0.009998246923089028,-0.01370214294232428
1772562171130881300,7.29988134765625,0.026043957316875456,-0.0020674539238214494,-0.029989662735350427
1772562171140864300,7.3098642578125,0.014353519523143768,-0.0017550269737839697,-0.013279734545480459
1772562171150847500,7.319847412109375,-0.013257540979981422,-0.017511983554065226,-0.01284950816836208
1772562171160829200,7.3298291015625,-0.019445874226093292,-0.020012568198144436,-0.006373973745014518
1772562171170812400,7.3398125,-0.03712766138911247,-0.026808804209530353,0.002701294847950339
1772562171180794000,7.349794189453125,-0.012404139021039009,-0.0319850378036499,0.016846450583729893
1772562171190777300,7.35977734375,0.015056114834547041,-0.020972353141009807,0.02395363397412002
1772562171200759300,7.36975927734375,0.010753449204564093,-0.0019441198050975798,0.024519305032864213
1772562171210742300,7.3797421875,-0.0033802900880575176,-0.00017038813084363936,0.030512590630911288
1772562171220724200,7.38972412109375,-0.003168693163990974,-0.005254851788282394,0.04175126606915146
1772562171230707500,7.39970751953125,-0.014919921234250068,-0.012478957822918892,0.03525635109189897
1772562171240689200,7.409689208984375,-0.016111761367321013,0.00144523037225008,0.04147358163893223
1772562171250672400,7.41967236328125,-0.007635024923086166,0.0013569675669074057,0.03375328958518803
1772562171260654300,7.429654296875,-0.0036252047598361965,0.009352350234985351,0.029574871389381585
1772562171270637300,7.43963720703125,0.010578677159547805,0.012737608759105205,0.03255028873728588
1772562171280619300,7.449619384765625,0.04289806148409843,0.0306692790299654,0.018494035127665846
1772562171290602500,7.4596025390625,0.043025487256050106,0.0438753820836544,0.008234232925251125
1772562171300584200,7.469584228515625,0.02699848156273365,0.03186813342571258,0.0030916458724066613
1772562171310567400,7.4795673828125,0.03180968123674392,0.01290595106333494,0.013770659867580979
1772562171320549400,7.48954931640625,0.03041384296417236,0.0022550854504108427,0.029750520217232405
1772562171330532400,7.499532470703125,0.008436404433846472,0.0023345804274082184,0.02127838688287884
1772562171340514300,7.509514404296875,0.012362053444981574,0.011263444553315639,0.018189791484083978
1772562171350497300,7.519497314453125,0.04354571173787117,0.01712006162703037,0.016006383030395956
1772562171360480300,7.529480224609375,0.04055471322834491,0.014906477230787276,0.004836918637156486
1772562171370462500,7.53946240234375,0.014060674056410788,0.009165010969340802,-0.004611494117137045
1772562171380445200,7.549445068359375,-0.007956511962413787,0.004142506632208824,-0.00031832696786150336
1772562171390427400,7.559427490234375,-0.005437807139754295,-0.004852700728178024,-0.007276055417582392
1772562171400410400,7.569410400390625,-0.028383798441290853,0.002146364378929138,-0.008448368866275995
1772562171410392300,7.579392333984375,-0.039411972934007646,-0.003952537018060684,-0.0092389347220771
1772562171420375300,7.589375244140625,-0.01528407837152481,-0.006369242770969868,0.004510773689020425
1772562171430357200,7.599357177734375,-0.010356558841466903,-0.008444587740302085,-0.002494282767456025
1772562171440340200,7.60934033203125,-0.015059037443995475,0.0014785481199622154,0.005980371317546814
1772562171450322400,7.619322509765625,-0.005464110624790191,-0.0009726444244384765,0.014843933388590812
1772562171460305200,7.62930517578125,0.027959435549378395,0.018796762667596337,0.015055676443129776
1772562171470287400,7.639287353515625,0.05736965442895889,0.03740209441632032,0.031178689856827257
1772562171480270300,7.649270263671875,0.028402503141760824,0.02787818700671196,0.02782183544328436
1772562171490252300,7.659252197265625,0.02374503272473812,0.011249708288908004,0.031489765099994835
1772562171500235300,7.6692353515625,0.061601592910289764,0.019691081158816813,0.034582324287854134
1772562171510217500,7.679217529296875,0.042215339916944504,0.03866992239505052,0.045073871153220535
1772562171520200200,7.6892001953125,0.03134615537822246,0.032196634727716444,0.02874338900130242
1772562171530182400,7.699182373046875,0.02636661339998245,0.01712941397726536,0.014617431156337261
1772562171540165400,7.709165283203125,0.026177228307723996,0.013251403500139713,0.04362951756380498
1772562171550147300,7.719147216796875,0.02608779645860195,0.01728168192952871,0.03978986633569002
1772562171560130300,7.72913037109375,0.017781740406155586,0.015901041226089,0.018370737541560083
1772562171570113500,7.739113525390625,0.013628712379932403,0.01305675771087408,0.011907514610514045
1772562171580095200,7.74909521484375,0.029672669208049774,0.033625206226110455,0.0156235759915784
1772562171590078500,7.759078369140625,-0.007582417953014373,0.032740240085124966,0.030747495365329086
1772562171600060200,7.76906005859375,-0.030398060873150824,0.003402501919865608,0.03338094914145767
1772562171610043400,7.77904345703125,-0.0031558336824178694,-0.011762041725218296,0.03389633305137977
1772562171620025300,7.789025390625,0.0346691623210907,0.0133195003002882,0.033353330482169985
1772562171630008300,7.79900830078125,0.02442600072622299,0.031606267619132995,0.02772805621260777
1772562171639990300,7.808990234375,0.0516483541727066,0.025249592068791387,0.034652631311398
1772562171649973500,7.818973388671875,0.07601239557862281,0.005087970788776874,0.03402140246946365
1772562171659955200,7.828955078125,0.07051788981556892,0.022032383587956426,0.02922627714741975
1772562171669938400,7.8389384765625,0.0496311691313982,0.031191257077455518,0.03445020407447591
1772562171679920400,7.84892041015625,0.016786884149909018,0.028270401194691656,0.03299585881400853
1772562171689903400,7.8589033203125,-0.009796586871147156,0.031954934926331044,0.02194823070215061
1772562171699885300,7.86888525390625,-0.02806464948952198,0.022469021439552306,0.0240983214081265
1772562171709868500,7.87886865234375,-0.043049452653527255,0.0016290625065565108,0.01567899597324431
1772562171719850200,7.888850341796875,-0.013131868773698806,-0.0008005027279257774,0.005147171896416693
1772562171729833500,7.89883349609375,-0.006408113476634025,0.010007599273324012,-0.008843962321430443
1772562171739815200,7.908815185546875,0.009353519278764724,0.011213175670802593,-0.03538222422758117
1772562171749798400,7.91879833984375,0.05357669188678264,0.0027808628901839255,-0.04135139829767868
1772562171759780400,7.9287802734375,0.058223056387901304,0.004437690186500549,-0.0302817775497213
1772562171769763300,7.938763427734375,0.037815059131383895,0.0038102059379220006,-0.020133874756563454
1772562171779745300,7.948745361328125,0.03130231623649597,-0.002622165197134018,-0.0056517056187614795
1772562171789728500,7.958728515625,0.012781155639886856,-0.0033490181669592854,-0.0036753275118768212
1772562171799711000,7.9687109375,0.030117490366101264,0.00017535656690597534,0.008370901449583471
1772562171809693000,7.97869287109375,0.030324411115050316,0.010555004023015499,0.005765322061069309
1772562171819673000,7.988673095703125,0.019879589468240737,0.018508885636925695,0.02601206434126943
1772562171829655800,7.99865576171875,0.023680735316872596,0.03412906409502029,0.044911848991923034
1772562171839638000,8.008637939453125,0.043908699831366534,0.030412966181337833,0.060232149454299354
1772562171849621000,8.01862109375,0.011774608945846556,0.03596007891446352,0.06275136573361233
1772562171859603000,8.02860302734375,-0.017395371437072753,0.019774667789041994,0.042870022699702526
1772562171869586000,8.0385859375,0.004580313527584075,0.005271510662138461,0.04616488126032054
1772562171879568000,8.04856787109375,0.02305705046057701,0.0015849311038851736,0.03223853764068335
1772562171889550800,8.05855078125,0.012339841613173485,0.025974399212002754,0.007503909356705844
1772562171899533000,8.068532958984376,0.03874561797976494,0.0328194428011775,0.003833331085182726
1772562171909515800,8.078515869140626,0.037488895916938776,0.0358060573965311,0.031559304938558484
1772562171919498000,8.088498046875,0.015953940457105634,0.03278261792212724,0.04448642665408552
1772562171929481000,8.09848095703125,0.012148118433356284,0.013868658615648746,0.039538521923124785
1772562171939463000,8.108462890625,0.018998714980483052,0.011954349426925182,0.045162864610925314
1772562171949446000,8.11844580078125,0.02025192991197109,0.023613515299558636,0.04611863096579909
1772562171959429000,8.12842919921875,0.012938392028212547,0.025811317604780195,0.04912276295153424
1772562171969410800,8.138410888671874,0.024315526089072226,0.02543167063742876,0.03585296527817845
1772562171979394000,8.14839404296875,0.030588030487298964,0.020391922904551028,0.02800802393145859
1772562171989376000,8.1583759765625,0.007387772163748741,0.013333528825640678,0.00608342983322218
1772562171999359000,8.16835888671875,-0.004146013763546943,0.004154489330947399,0.008484938016999512
1772562172009341000,8.1783408203125,0.011029928058385848,-0.0075409168988466255,0.0009153247466310859
1772562172019324200,8.18832421875,0.018110826230049133,-0.013511515741050242,-0.004977258689608424
1772562172029305900,8.198305908203125,-0.006608604484796524,-0.01917056441605091,-0.00933229382764548
1772562172039289000,8.2082890625,-0.012543255230784416,-0.022300094613432884,-0.00244679036391899
1772562172049270800,8.218270751953124,-0.0030786767929792402,-0.014550211139023304,-0.004092402146477252
1772562172059254000,8.22825390625,-0.004587912312150002,-0.002516366735100746,-0.0019146014496684073
1772562172069236000,8.238236083984376,0.0011678747355937957,0.00400455946624279,-0.009854418005608021
1772562172079219000,8.248218994140625,0.009949147084355354,-0.00005786766707897186,0.0035154425087384877
1772562172089201000,8.258200927734375,-0.0025800796210765837,-0.010184417144954204,0.003337930517364293
1772562172099184000,8.26818408203125,0.01272387249469757,-0.0004956745624542236,-0.007954539201036096
1772562172109165800,8.278165771484375,0.0059521864026784894,0.012058394323289394,-0.0021921397494152188
1772562172119149000,8.288149169921875,-0.0013245266020298003,0.0051060909673571585,0.0017906097438186407
1772562172129130800,8.298130859375,0.012428688940405845,0.006908756475150585,0.001981730135437101
1772562172139114000,8.308114013671876,0.004525952991843224,0.00602057546377182,0.004999927179142833
1772562172149096000,8.318095947265626,0.0007879355072975159,0.006199439162015915,0.012188176449108868
1772562172159079000,8.328078857421875,0.013745616757869719,0.014180208782851695,0.010219305795244871
1772562172169062000,8.338061767578125,0.0329436537027359,0.010742051027715206,0.0017598310130648314
1772562172179044000,8.348044189453125,0.03811842599213123,0.012376958753168582,-0.0004131656444631517
1772562172189026800,8.35802685546875,0.024296821388602254,0.011404898850619792,0.004495612652506679
1772562172199009000,8.368009033203125,0.0256412217348814,-0.0022191373541951176,-0.002745554114785045
1772562172208992000,8.377991943359374,0.054258828932046886,0.0010293430477380753,-0.004961001674551517
1772562172218974000,8.387973876953126,0.04133329638540745,0.018827157805860043,0.004606123822275549
1772562172228957000,8.39795703125,0.03075578826963901,0.022402093683183192,0.01450016145221889
1772562172238939100,8.407939208984375,0.003965981021523475,0.00022737901508808136,0.015026614745426922
1772562172248924000,8.417923828125,-0.02261222930252552,-0.00888268689662218,0.020768391534127295
1772562172258907000,8.427906982421876,-0.005915946045517921,-0.022430150733888148,0.04382029089555144
1772562172268888800,8.437888916015625,0.012450900772213934,-0.008679565539956092,0.03339453927539289
1772562172278872000,8.4478720703125,0.005580430480837822,-0.003982055373489856,0.03474390805773437
1772562172288853800,8.457853759765625,-0.03721124801933765,0.007408522690832614,0.030087460554018616
1772562172298837000,8.4678369140625,-0.05224398197829723,0.00440408017784357,0.028539756187982854
1772562172308819000,8.47781884765625,-0.04080138146579265,0.02145370691716671,0.04187838131384924
1772562172318802000,8.487802001953124,-0.04706102638244629,0.01605214013457298,0.02889804984005168
1772562172328784000,8.497783935546876,-0.017852467554807662,0.011035773277282715,-0.01706774691790342
1772562172338767000,8.50776708984375,-0.0030582185268402096,-0.0007195464462041854,-0.027134291570540515
1772562172348748800,8.517748779296875,0.0045090018570423124,-0.007234335167706012,-0.036419933244865386
1772562172358732000,8.52773193359375,0.0334270533055067,-0.008955167610943317,-0.04114272398306057
1772562172368713700,8.537713623046875,0.040683308044075966,-0.002470189505815506,-0.04247092211320996
1772562172378697000,8.547697021484375,0.019936288091540334,0.004488543590903282,-0.02219462494496256
1772562172388680000,8.557679931640624,0.009542904371023177,0.00990793829113245,0.006849263106565922
1772562172398662000,8.567661865234374,0.005908931782841682,0.015271511150896548,0.016777531799674034
1772562172408644900,8.577644775390626,-0.007089081478118896,0.03183189306855202,0.0354216063898988
1772562172418627000,8.587626953125,0.016893267133831977,0.026857611787319182,0.050151649341546
1772562172428609800,8.59760986328125,0.05157528893649578,0.03242868991792202,0.0546713917883113
1772562172438592000,8.607592041015625,0.04957271694242954,0.02806377270668745,0.04910710872467607
1772562172448575000,8.617574951171875,0.028110826718807217,0.021927461908757686,0.04887691669799387
1772562172458557000,8.627556884765625,-0.016409283009171483,0.023159049530327318,0.04300731227854267
1772562172468540000,8.637539794921874,-0.0437666610121727,0.030708734257519243,0.038883729542512444
1772562172478522000,8.647522216796874,-0.030471126109361646,0.025317688868939876,0.04381029922449961
1772562172488504800,8.6575048828125,-0.0008610007435083389,0.022678280276060104,0.029585137055069207
1772562172498487000,8.667487060546875,0.014605448457598685,0.04339548961222171,0.03343189387740567
1772562172508470000,8.677469970703125,0.02326046407818794,0.04236556204259395,0.029875863629952072
1772562172518452000,8.687451904296875,0.029898294657468794,0.02157353390455246,0.015048223789036273
1772562172528435000,8.69743505859375,0.01845394057929516,0.01781944206804037,0.043130043609067796
1772562172538417000,8.7074169921875,-0.00685059654712677,0.01080722521841526,0.056899516166560346
1772562172548399900,8.71739990234375,0.021197101807594296,0.007969663704931736,0.017117942735180258
1772562172558382000,8.727382080078126,0.008088613909482956,0.020036825856566427,0.026061419908329844
1772562172568364800,8.73736474609375,-0.019265256962180136,0.01348024381995201,0.0474793431260623
1772562172578347000,8.747346923828125,0.018570260435342788,0.001146247425675392,0.03649453285103663
1772562172588330000,8.757330078125,0.029209727871417998,0.009986848746240139,0.008409826954174787
1772562172598313000,8.76731298828125,0.0176852942943573,0.01951864720135927,0.011495901602320372
1772562172608295000,8.777294921875,-0.008754968863725662,-0.003484627245366573,0.012014938774053007
1772562172618278100,8.787278076171875,-0.0010889642804861068,-0.005101414792239666,-0.00162277889624238
1772562172628259800,8.797259765625,0.002570142748951912,-0.006040741468966007,-0.0158284691802226
1772562172638243000,8.8072431640625,-0.011134557476639747,-0.0003112579062581062,0.006391655532177538
1772562172648225000,8.81722509765625,-0.028750293666124343,0.005929390048980712,-0.006003733926825225
1772562172658208000,8.8272080078125,-0.014774959805607795,0.013455109378695488,-0.0011305749325081706
1772562172668190000,8.83718994140625,-0.011682839009165762,0.014376023615896702,0.004867332041729241
1772562172678173200,8.847173095703125,-0.02218377475738525,0.013113164073228835,0.011722403834573923
1772562172688155000,8.85715478515625,0.004840425768494605,0.017824118243157862,0.019546759050991385
1772562172698138000,8.86713818359375,0.03491524603664875,0.028183891955018043,0.014740509546734391
1772562172708119800,8.877119873046874,0.02271802776455879,0.03528875552415848,0.021693981946446
1772562172718103000,8.88710302734375,-0.01087912141084671,0.03409691539108753,0.025572850940097123
1772562172728085000,8.8970849609375,-0.02338204463124275,0.02795534389615059,0.027058139328099785
1772562172738068000,8.90706787109375,0.008031915286183357,0.032681495635211465,0.019493914618901906
1772562172748050000,8.9170498046875,0.0378191507846117,0.03687017949670553,0.006444609562121332
1772562172758033200,8.927033203125,0.03213935158252716,0.023686288274824618,0.0036888628468848762
1772562172768014800,8.937014892578125,0.03666062839925289,0.019847733025252817,0.0035345308016985653
1772562172777998000,8.946998046875,0.03591594751179218,0.012481880432367323,0.008331683684047311
1772562172787981000,8.95698095703125,0.03000175503194332,0.007398585818707943,-0.0036814649917185304
1772562172797963300,8.96696337890625,0.005250760135054588,0.0029909985095262527,-0.01534010114138946
1772562172807946500,8.976946533203124,-0.02185585797727108,0.004190145166218281,-0.0056740635810419915
1772562172817928200,8.98692822265625,-0.009704232412576674,-0.0005935819789767265,-0.0014884119268506765
1772562172827911400,8.996911376953125,-0.008659107273817062,-0.000045300446450710294,0.007522193932067603
1772562172837893000,9.00689306640625,-0.022655483922362326,0.013603285677731036,0.01401697191200219
1772562172847876400,9.01687646484375,0.006733107647299766,0.017789046929776668,0.015742078671557826
1772562172857858300,9.0268583984375,0.01814531302154064,0.016893267133831977,0.02726094102435745
1772562172867841300,9.03684130859375,-0.001305237379670143,0.014882511833310127,0.04497092223539948
1772562172877823200,9.0468232421875,0.020914777734875677,0.0057560793086886405,0.0453008300432004
1772562172887806500,9.056806396484374,0.04613806631863117,0.014719137965142726,0.031435806423053145
1772562172897788200,9.0667880859375,0.01428980663716793,0.036873394367098807,0.0330526853014715
1772562172907771400,9.076771484375,-0.029749241575598714,0.03685118253529072,0.032719635688513514
1772562172917753300,9.08675341796875,-0.043400165787339205,0.015489537815749644,0.012643610332719981
1772562172927736300,9.096736328125,-0.03091536274552345,0.019335984110832212,0.007135441370494663
1772562172937718300,9.10671826171875,-0.005734159737825394,0.03579612052440643,0.0015865020064637064
1772562172947701200,9.116701171875,0.004752162963151931,0.022147826661169528,-0.023473887633159756
1772562172957683200,9.12668310546875,0.030498598638176916,0.01452595348060131,-0.034732802141830325
1772562172967666400,9.13666650390625,0.036814357656240464,0.008471768008172512,-0.03350895943529904
1772562172977649200,9.146649169921876,0.018089783442020415,0.006238017606735229,-0.019605357370432466
1772562172987631400,9.15663134765625,-0.004486790025234222,0.004907061263918876,-0.011226838869974016
1772562172997614300,9.1666142578125,-0.01887596538364887,-0.006717325556278228,-0.01002993896929547
1772562173007596300,9.17659619140625,-0.034948563784360884,-0.005563771606981754,0.015251582607720046
1772562173017579300,9.186579345703125,-0.02155073755085468,-0.0065402154237031935,0.028497487948834895
1772562173027561500,9.1965615234375,0.006318097105622291,-0.002153378641605377,0.03632023573005572
1772562173037544200,9.206544189453124,0.018560908085107804,0.01629062506556511,0.03429322341447696
1772562173047526400,9.2165263671875,0.0036918402552604673,0.01591331618577242,0.03889240603931248
1772562173057509400,9.22650927734375,0.0015355390042066574,0.016257599578797816,0.038482382200006396
1772562173067491300,9.2364912109375,0.0018920973569154739,0.013935878632962704,0.03308645970690995
1772562173077474300,9.246474365234375,-0.031089550268650054,0.020833821453154086,0.05081568447453901
1772562173087456300,9.256456298828125,-0.04025309993326664,0.010856909579038619,0.03529982490744442
1772562173097439200,9.266439208984375,-0.01766074437499046,0.009743979901075362,0.022050448967609552
1772562173107421400,9.27642138671875,0.023267478340864182,0.03904226283878088,0.023813403519522398
1772562173117404200,9.286404052734374,0.03177870157659054,0.04730477201044559,0.021287465238478034
1772562173127386400,9.296386474609376,0.03251169202625751,0.04396510619372129,0.012624576838687061
1772562173137369300,9.306369384765626,0.027372575572133063,0.03370733155161142,0.020760756216943264
1772562173147351300,9.316351318359375,0.04320259738862514,0.03220627933889627,0.027929131742659954
1772562173157334300,9.326334228515625,0.043161680856347084,0.023535481627285477,0.035880657002702356
1772562173167317500,9.3363173828125,0.041215222963690755,0.01748831041753292,0.033388310464005914
1772562173177299200,9.34629931640625,0.03385492332875729,0.014445581720769405,0.02935914627946913
1772562173187282400,9.356282470703125,0.016291794109344483,0.008935586127638817,0.030241646468732505
1772562173197264400,9.366264404296874,-0.02909457705914974,0.00913198548257351,0.032981063103675844
1772562173207247400,9.376247314453124,-0.04234042760133743,-0.00199117381721735,0.02490152754979208
1772562173217229300,9.386229248046876,-0.03965922569334507,0.00014992986470460892,0.02707059695087373
1772562173227212500,9.396212646484376,-0.04503507351279259,0.0010392799198627471,0.0076445051374845205
1772562173237194200,9.4061943359375,-0.06606967823505401,-0.006930676046013832,0.002581321730092168
1772562173247177500,9.416177490234375,-0.03955810340642929,-0.009421323817968367,-0.004390325647126883
1772562173257159200,9.4261591796875,-0.014320201775431632,-0.009764730428159236,0.0012060147888958454
1772562173267142400,9.436142333984375,0.003011456775665283,0.0013446926072239874,-0.002740804874431342
1772562173277124400,9.446124267578124,0.028068741142749785,0.0039019758746027945,0.007722301347739994
1772562173287107300,9.456107421875,0.030579262658953665,0.0032277298748493192,0.005447488283552229
1772562173297089300,9.46608935546875,0.020025135418772697,0.014066227014362812,0.023997893240954724
1772562173307072500,9.476072509765626,0.021309914532303808,0.01757511191815138,0.04085382403908297
1772562173317054200,9.48605419921875,0.03964169003665447,0.023005904795229435,0.05319289846727624
1772562173327037400,9.496037353515625,0.03148117993474007,0.02860796258598566,0.0479870369198732
1772562173337019400,9.506019287109375,0.02444821255803108,0.036387656676769256,0.03631464623948559
1772562173347002400,9.51600244140625,0.013522913917899131,0.03885521583408117,0.033812125366646795
1772562173356984300,9.525984375,0.008368015372753142,0.03150602211505175,0.037092188216932116
1772562173366967600,9.535967529296874,0.0005173018723726272,0.02966623946726322,0.02820095268767327
1772562173376950300,9.5459501953125,-0.015499182426929473,0.016349077254533766,0.022973792623914777
1772562173386932500,9.555932373046875,-0.0002332242339849472,-0.00015869769304990768,0.007648834252730012
1772562173396915500,9.56591552734375,-0.0018500117808580398,0.003920388314127922,-0.003129584996309131
1772562173406897400,9.5758974609375,-0.005883212819695473,0.008486088794469833,-0.0025466888081282376
1772562173416880400,9.58588037109375,-0.01753624121248722,0.011250000549852847,0.025199688512459396
1772562173426862300,9.5958623046875,-0.031207039168477058,0.000692073917388916,0.014270535681117325
1772562173436845300,9.60584521484375,0.03275894478559494,-0.0024698972448706624,0.0003910816768184304
1772562173446827500,9.61582763671875,0.03974281232357025,0.022529227194190024,0.023622684986703096
1772562173456810200,9.625810302734376,-0.0010538929671049118,0.03446954809576273,0.02665607959954068
1772562173466792400,9.63579248046875,0.0026917233020067213,0.0019356442376971244,0.012665986561309546
1772562173476775400,9.645775390625,0.05364098929464817,-0.0016714403435587881,0.02334317392557859
1772562173486757400,9.65575732421875,0.06912731224000454,0.016346154645085334,0.024465748214721677
1772562173496740400,9.665740234375,0.05358779780268669,0.03440262033939361,0.013228716744296251
1772562173506722300,9.675722412109375,0.020927052694559096,0.03709288233667612,0.010022011391166596
1772562173516705300,9.685705322265624,-0.006176642808318138,0.0333007965773344,0.00978507909644395
1772562173526687500,9.6956875,-0.010865092885494232,0.028603870932757854,0.01902151133418083
1772562173536670200,9.705670166015626,-0.015582184535264968,0.022926409818232057,0.010445351369772106
1772562173546652400,9.71565234375,-0.013791209465265273,0.022438918562233446,-0.004378726540878414
1772562173556635400,9.725635498046875,-0.01196224047243595,0.019088439090549945,-0.0185173429380171
1772562173566618400,9.735618408203125,0.02302782436609268,0.023728373850882053,-0.02972463685730472
1772562173576600300,9.745600341796875,0.03082826898396015,0.02119184111058712,-0.031615930496621876
1772562173586583300,9.755583251953125,-0.00039396775364875793,0.010897826111316681,-0.030116978909447787
1772562173596565200,9.765565185546874,-0.014022680133581161,-0.0051841246396303175,-0.02227117904620245
1772562173606548200,9.77554833984375,-0.02226151616871357,-0.010045885457098483,-0.01617910924879834
1772562173616530400,9.785530517578126,-0.011127543213963509,-0.016163491554558276,0.0029795638000592586
1772562173626513200,9.79551318359375,-0.020166005194187164,-0.006842997762560844,0.009171184981800615
1772562173636495400,9.805495361328125,-0.00927402430176735,-0.007908288906514644,0.024916012732870876
1772562173646478300,9.815478271484375,0.002497662034630775,0.0027358547046780583,0.01364031148618087
1772562173656460300,9.825460205078125,0.03712240069210529,0.0015551204875111579,0.029630492300447075
1772562173666443300,9.835443359375,0.029787820020318028,0.01773497865498066,0.03520379892075434
1772562173676425200,9.84542529296875,-0.00798690710067749,0.02274900742471218,0.030751879279501734
1772562173686408200,9.855408203125,-0.047640872097015376,0.01894260087907314,0.03768014417272061
1772562173696390400,9.865390380859376,-0.050720717933773994,0.016437924581766128,0.04407673160834238
1772562173706373000,9.875373046875,-0.022078560817241667,0.022814181615412234,0.028587266857828943
1772562173716355300,9.885355224609375,0.014641104292869567,0.032304186755418775,0.015829035435803232
1772562173726338300,9.89533837890625,0.051042204973101614,0.040510581825673575,-0.005142806248553097
1772562173736321300,9.9053212890625,0.06344108329713344,0.044941257749497886,-0.00748936937469989
1772562173746303200,9.91530322265625,0.06418050348758697,0.04498538915216922,-0.012200944599136709
1772562173756286500,9.925286376953125,0.024664485657215116,0.024564824675023553,-0.002444141749106347
1772562173766268200,9.93526806640625,-0.008909867164492607,0.020689736807346343,0.013479878493770955
1772562173776251400,9.94525146484375,-0.009613631519675253,0.03071487173736095,0.020851813767571
1772562173786233300,9.9552333984375,-0.01656710391938686,0.019430384396016596,0.011488540279772133
1772562173796216300,9.96521630859375,0.009463409394025802,0.02784545378088951,0.004259191814437509
1772562173806198000,9.975197998046875,0.017518121033906934,0.02754179465919733,0.0017638130684383213
1772562173816181200,9.98518115234375,0.017208324432373044,0.021788053438067435,-0.0039669126032851635
1772562173826163000,9.995162841796875,0.0047784664481878274,0.02066372558325529,-0.0003195508105680346
1772562173836146200,10.005146240234374,0.02307575516104698,0.02017038910835981,-0.009587967355456202
1772562173846127900,10.0151279296875,0.012692892834544181,0.023633096782863138,-0.012331603507790714
1772562173856111000,10.025111083984376,-0.008938508737087248,0.010097323383390902,0.010875084556546061
1772562173866093000,10.035093017578125,-0.03386018402576446,-0.004716799388825893,0.017756806894298642
1772562173876076000,10.045075927734375,-0.025983167040348053,-0.004876373864710331,0.020602990105655042
1772562173886058000,10.05505810546875,0.008524667239189147,0.016821078680455685,0.0336923166455701
1772562173896041200,10.065041259765625,0.04349953450858593,0.022911796770989895,0.03187880095019936
1772562173906023000,10.07502294921875,0.056397010004520416,0.014272563241422176,0.029430731944646685
1772562173916006100,10.085006103515624,0.05807224974036217,0.021157062058150766,0.03445360160795972
1772562173925989000,10.094989013671874,0.050640053912997245,0.01564355933368206,0.028156364627275613
1772562173935971000,10.10497119140625,0.018342881420254708,0.016866379126906392,0.034130854193307456
1772562173945954000,10.1149541015625,-0.005361819294095039,0.025767770723998544,0.046733420129586006
1772562173955936300,10.124936279296875,-0.02218085214793682,0.03523381046652794,0.04550891983592883
1772562173965919000,10.1349189453125,0.009608955344557761,0.034492636710405346,0.03788005065899342
1772562173975901200,10.144901123046875,0.03296411196887493,0.02659662276357412,0.02753518225532025
1772562173985884200,10.15488427734375,0.020860417199134826,0.013439911809563635,0.020287731877714394
1772562173995866000,10.1648662109375,0.022962357914447784,-0.0011789806514978407,0.00586125671621412
1772562174005849000,10.17484912109375,0.03926525793969631,0.0040308629512786865,-0.004779982551839202
1772562174015831000,10.1848310546875,0.01563011533021927,0.013666998563706874,-0.011506678724661469
1772562174025814000,10.19481396484375,-0.0009393266767263412,0.025055823062360285,0.0014761187008582055
1772562174035796200,10.204796142578125,-0.010601473513245582,0.003183306211233139,0.0016123123011551796
1772562174045779000,10.214779052734375,-0.011079612419009208,-0.005456219579279422,0.015032989687286316
1772562174055761200,10.22476123046875,-0.005426116701960563,0.0006546645164489745,0.005081504515372217
1772562174065744100,10.234744140625,0.017953005319833754,0.0002142272725701332,0.018906945043802262
1772562174075726000,10.24472607421875,0.025612580162286756,0.012392156322300433,0.029493641113024202
1772562174085709000,10.254708984375,0.031151509588956832,0.013385551273822783,0.034078649082034826
1772562174095691000,10.26469091796875,0.011842998006939887,0.002490355511009693,0.03968516385219991
1772562174105674000,10.274674072265626,0.00914016878902912,-0.0014215572357177734,0.042175336700119075
1772562174115657200,10.2846572265625,0.01703472143113613,0.014155366602540015,0.03890946677196771
1772562174125639000,10.294638916015625,0.0018599486529827117,0.025388416017591953,0.026741912985779343
1772562174135622100,10.3046220703125,-0.030179449686408042,0.018293197059631346,0.030721575472783296
1772562174145604000,10.31460400390625,-0.026904958060383795,0.0018847908332943915,0.006546773028653114
1772562174155587000,10.324587158203125,-0.007829086190462112,0.002405307576060295,0.02716704306267202
1772562174165569000,10.334569091796874,-0.01641395918428898,0.011278349861502647,0.009060801676195114
1772562174175552300,10.34455224609375,-0.0031897359520196913,0.008372983808815479,-0.01894082904709503
1772562174185534000,10.354533935546876,0.03274374721646309,0.0017968202888965605,-0.021404223485942928
1772562174195517200,10.36451708984375,0.04071194961667061,0.004607201534509659,-0.023565383575204758
1772562174205499100,10.3744990234375,0.040703181788325306,0.013474398601055145,-0.014281659863330423
1772562174215482000,10.384482177734375,0.012789923468232154,0.005327624763548374,-0.014749496570788324
1772562174225464000,10.394464111328125,-0.01743161179423332,-0.009982757093012332,0.0031058935934677716
1772562174235447300,10.404447265625,-0.03277531139850616,-0.00876373669207096,0.010665040268748998
1772562174245429000,10.414428955078124,-0.03653261810541153,-0.0034799510702490806,0.015924696096312255
1772562174255412200,10.424412109375,-0.01723813504874706,-0.0021598083823919294,0.027127715699281543
1772562174265394000,10.434393798828125,-0.02559153737425804,0.007837561757862568,0.028799868428893385
1772562174275377200,10.444377197265625,-0.011912556111812592,0.006938274830579757,0.03507927749194205
1772562174285359000,10.454359130859375,0.005472293931245803,0.010754325987398623,0.04276221494367346
1772562174295342000,10.464342041015625,0.005457096362113952,0.02713876681625843,0.039147915170341725
1772562174305325000,10.474324951171875,-0.0021738369077444076,0.022448563173413275,0.01895049192458391
1772562174315307300,10.484307373046875,0.012468436428904533,0.008919804036617279,0.01812768603330478
1772562174325290000,10.4942900390625,0.043430560925602914,0.012081775198876857,0.014461674339044838
1772562174335272200,10.504272216796876,0.08311959723532199,0.03540449085831642,-0.003686013302672654
1772562174345255200,10.514255126953126,0.09242518571913241,0.039729952841997145,-0.013697393701970576
1772562174355237000,10.524237060546875,0.06943126362264156,0.02859276501685381,0.010938742643594741
1772562174365220000,10.53422021484375,0.034278117176890374,0.018242635916173457,0.009214037742838263
1772562174375202300,10.544202392578125,0.005711947906017303,0.012180559398233889,0.007164685731288045
1772562174385185000,10.55418505859375,0.005737666869163513,0.015664602121710777,0.017416998746991156
1772562174395167200,10.564167236328124,-0.006678747111558914,0.024998832178115844,0.02096736643863842
1772562174405150200,10.574150146484374,0.0008376198679208755,0.02801525738984346,0.0012250117503106593
1772562174415132200,10.584132080078126,0.02796878789961338,0.017812720066308973,-0.011819014343153685
1772562174425115100,10.594115234375,0.030856910556554793,0.02468698974996805,-0.01846630687052384
1772562174435097000,10.60409716796875,0.017034136909246444,0.03124211048185825,-0.023581256997771558
1772562174445080000,10.614080078125,-0.009972527959942816,0.007517536023259163,-0.033872933909483254
1772562174455062300,10.624062255859375,-0.04632452880144119,-0.009053367288410663,-0.014078520240355281
1772562174465045000,10.634044921875,-0.08643208278417587,-0.027046120096743106,-0.0039935266155749554
1772562174475027200,10.644027099609374,0.024941549032926558,-0.011017068576812743,0.023167671228200196
1772562174485010200,10.65401025390625,0.011201777493953704,0.009579144728183745,-0.000978325246553868
1772562174494993000,10.663992919921874,-0.03243278157114982,-0.00379325480312109,0.019218805738259105
1772562174504975000,10.67397509765625,0.022937807995080946,0.0026005378872156143,0.06940647624125704
1772562174514958000,10.6839580078125,0.030317396852374074,0.010595336033403872,0.05556560068167746
1772562174524940000,10.69393994140625,0.012646131083369254,0.008891746985912323,0.050052335419226435
1772562174534923000,10.703923095703125,0.045757542568445206,0.01698123767822981,0.0669276833038777
1772562174544905200,10.7139052734375,0.03831014917194843,0.016558336091041563,0.05680844034962356
1772562174554888000,10.723887939453125,0.04049801460504532,0.021486440142989158,0.05103789412416517
1772562174564870100,10.7338701171875,0.015141455030441283,0.015704349610209466,0.04959690153561532
1772562174574853000,10.74385302734375,-0.00781564218699932,0.02952215482145548,0.044717020539566874
1772562174584835000,10.7538349609375,-0.021148001968860623,0.0041524435043334956,0.048503261080011725
1772562174594818000,10.763818115234375,-0.020350714111328123,-0.004402911134064197,0.035049850468058134
1772562174604800000,10.773800048828125,-0.01396481246650219,0.0041983284726738925,0.02442632951978594
1772562174614783000,10.783782958984375,-0.008684826236963272,-0.0025721885755658146,0.014342724134493619
1772562174624765200,10.79376513671875,0.024715923583507535,-0.01600128673017025,-0.0007743636396713554
1772562174634748000,10.803747802734375,0.03934358387291431,-0.0004720014259219169,-0.014716580681875348
1772562174644730000,10.813730224609374,0.016380641436576842,0.015018997694551945,-0.008465630528330803
1772562174654713000,10.823713134765624,0.014430676412582397,-0.0033078093737363813,0.0005375044101849198
1772562174664696000,10.833696044921876,0.01979191118478775,-0.02543517776876688,-0.005245627302210777
1772562174674678000,10.843677978515625,0.011717325800657272,-0.008412439036369323,0.036202162308339024
1772562174684661200,10.8536611328125,0.012923778980970382,0.006040741468966007,0.02338730532824993
1772562174694643000,10.863642822265625,0.04110124119520187,0.008868658371269702,0.0203902150046546
1772562174704626200,10.873626220703125,0.04307107996344566,0.01337912153303623,0.027855281055159865
1772562174714608000,10.883608154296875,0.04063771533668041,0.009959668478369712,0.04717170194899663
1772562174724591000,10.893591064453124,0.05435936669707298,0.010865677407383919,0.05272908034780994
1772562174734573000,10.903572998046876,0.038483752173185344,0.026568565712869165,0.045480378728033975
1772562174744556300,10.913556396484376,0.03059329118430614,0.02394932312518358,0.032742441175365816
1772562174754538000,10.9235380859375,0.016542554000020027,0.01726736114323139,0.03708188601862639
1772562174764521200,10.933521240234375,-0.010575170028209686,0.0012108370944857597,0.032411747916275636
1772562174774503000,10.9435029296875,-0.0058294368058443066,0.004699555993080139,0.016142183905048294
1772562174784486100,10.953486083984375,-0.0029062428355216977,0.006638707362115383,0.011846258543105795
1772562174794468000,10.963468017578125,0.007202478724718094,0.009262333863973618,-0.0017493552848231047
1772562174804451600,10.97345166015625,0.03553776184916496,0.015562018530070781,-0.013439774812245741
1772562174814433800,10.983433837890624,0.032742578172683716,0.011386778672039508,-0.005917133355606347
1772562174824416500,10.99341650390625,0.003794716107845306,0.010946049167215824,-0.0009786175074987112
1772562174834398700,11.003398681640626,-0.012543839752674101,0.0051914311632514,0.012459175410214811
1772562174844381700,11.013381591796875,-0.027105449068546294,-0.007503507497906684,0.012403088708268478
1772562174854364700,11.02336474609375,-0.033250527694821355,0.006424772350490093,0.008210778984427451
1772562174864346600,11.0333466796875,-0.006637830579280853,0.011536416275799273,0.020365299759106708
1772562174874329900,11.043329833984375,-0.004370470169186592,0.012397417019307612,0.02669094085036777
1772562174884311600,11.0533115234375,-0.021174889975786208,0.008993161533772945,0.03497399961971678
1772562174894294800,11.063294677734374,0.004089899662137031,-0.01236000761836767,0.0183359128233511
1772562174904276700,11.07327685546875,0.03132511259019374,-0.002059270617365837,-0.008201846759300678
1772562174914259700,11.083259765625,0.04752513676285743,0.02399374678879976,0.0029838289832230655
1772562174924241700,11.09324169921875,0.019846856242418286,0.027297464509308336,0.017096708150906487
1772562174934225000,11.103224853515625,-0.00658171647787094,0.008028408154845238,0.01053118475601077
1772562174944206600,11.11320654296875,0.0015279402196407318,0.000609071809053421,0.0004377520964480936
1772562174954189800,11.12318994140625,-0.0022369652718305585,0.008119009047746657,-0.01852812919351272
1772562174964171800,11.133171875,-0.0042108956933021545,0.0219943896651268,-0.019303241751855237
1772562174974154800,11.14315478515625,-0.026615035203099248,0.009773498256504535,-0.012624412441905587
1772562174984136700,11.15313671875,-0.027948329633474347,-0.002397124269604683,-0.003914862755639478
1772562174994119700,11.16311962890625,-0.02873158896565437,0.002268529453873634,-0.0028669702710583805
1772562175004101600,11.1731015625,-0.026068507236242294,-0.003477320721745491,0.0047742286644876
1772562175014084900,11.1830849609375,-0.016274842974543572,-0.01238835693001747,0.008656394726922735
1772562175024067600,11.193067626953125,-0.01704991900026798,-0.013858137221634387,-0.010649678302835672
1772562175034049800,11.2030498046875,0.0052402387410402295,-0.014481529816985129,-0.019813109236443416
1772562175044032800,11.21303271484375,0.019044307687878608,-0.008890870203077793,-0.011705754093872383
1772562175054014700,11.2230146484375,0.015327332991361617,-0.005123918884992599,-0.005077148000663146
1772562175063997700,11.232997802734374,0.03732464526593685,0.0140688573628664,-0.006398825058480724
1772562175073980000,11.24297998046875,0.04623158982098102,0.01795183627605438,0.002556506949244067
1772562175083962600,11.252962646484375,0.029891280394792556,0.02168196271508932,0.018798552765883506
1772562175093944800,11.26294482421875,0.00589724134504795,0.018665537503361702,0.03043395417043939
1772562175103927800,11.272927734375,0.014936287847161292,0.013443711201846599,0.01942844816725701
1772562175113909800,11.28290966796875,0.012077391284704208,0.026469196991622448,0.018024801047565413
1772562175123892700,11.292892822265625,0.028077508971095084,0.03150748341977596,0.017363542393548412
1772562175133874700,11.302874755859374,0.038539866274595255,0.026976269730925557,0.018752055876189843
1772562175143857700,11.312857666015624,0.03514613218307495,0.02361000816822052,0.02151963915969245
1772562175153839900,11.32283984375,0.038410102415084836,0.0249310276389122,0.03387096114810556
1772562175163822600,11.332822509765625,0.017666005071997642,0.02176642612814903,0.023865343769313766
1772562175173804800,11.3428046875,-0.0017599954098463056,0.02332330018132925,0.02263376528089866
1772562175183787800,11.352787841796875,0.0029009821385145187,0.032734979388117785,0.02665662758881226
1772562175193769700,11.362769775390625,0.0206435595780611,0.02808423097282648,0.04515409678258001
1772562175203752700,11.372752685546875,0.015686813953518865,0.02527648007571697,0.041154067360982295
1772562175213736000,11.38273583984375,0.0017746084570884704,0.013109949202835558,0.04127738321339711
1772562175223717600,11.392717529296876,0.007207154899835586,-0.008163140450417996,0.033237631680630146
1772562175233700900,11.402700927734376,0.015814239725470542,-0.026952888855338097,0.01598961455868557
1772562175243682800,11.412682861328125,0.02671557296812534,-0.003837386205792427,0.005895743507705629
1772562175253665800,11.422665771484375,0.020810732838511467,0.00595043283700943,0.01416917593218386
1772562175263647700,11.432647705078125,0.02026712748110294,0.007897475251555442,0.02964122375701554
1772562175273631000,11.442630859375,0.008418868777155876,-0.0018681319594383238,0.049145705435704436
1772562175283612700,11.45261279296875,0.009606032735109328,0.0041983284726738925,0.037628614914882924
1772562175293596000,11.462595947265624,0.029643443113565444,0.029480946028232573,0.03781581718320958
1772562175303577600,11.47257763671875,0.03852876035869121,0.03796615803986787,0.03590758154224604
1772562175313560800,11.482560791015626,0.054037879657745355,0.032846623069047926,0.03237610121415928
1772562175323542800,11.492542724609375,0.055088850015401834,0.027264146761596202,0.03192928902842104
1772562175333525800,11.50252587890625,0.05478665219843387,0.026223697797954082,0.02695443235845305
1772562175343507700,11.5125078125,0.030630700585246085,0.025997487826645373,0.023654596228618173
1772562175353491000,11.522490966796875,0.011283026036620139,0.023187398841977118,0.01624835682641715
1772562175363472600,11.53247265625,-0.012182605224847792,0.029798341414332387,0.016328344993758945
1772562175373456000,11.542455810546874,-0.02708206819295883,0.028772797758877276,0.025800677479756996
1772562175383438800,11.55243896484375,-0.008024901023507117,0.01932838532626629,0.015215634511504322
1772562175393420800,11.5624208984375,0.007070376777648925,0.030128888542950153,-0.013336341837234793
1772562175403403800,11.57240380859375,0.017644962283968925,0.019628245055675505,-0.03175627054907381
1772562175413385700,11.5823857421875,0.019873159727454185,0.018110533969104288,-0.027068605923186988
1772562175423368700,11.59236865234375,0.00689502021074295,0.0013990531429648398,-0.022700318577932192
1772562175433351000,11.602350830078125,0.008903437423706055,-0.010377017107605933,-0.007966430568229406
1772562175443333600,11.612333740234375,-0.017398878568410873,-0.00545329696983099,0.001981209545629099
1772562175453315800,11.62231591796875,-0.01785772825181484,-0.004752455224096775,0.014483520844671874
1772562175463298800,11.632298828125,-0.00978723452091217,-0.0057297758236527436,0.009928058630554005
1772562175473280800,11.64228076171875,0.011674655702710151,-0.0011459551647305488,0.013411261103814466
1772562175483263700,11.652263671875,0.013021978658437728,0.018682780899107455,0.02883376156534068
1772562175493246000,11.662245849609375,-0.0038987610042095183,0.014389759880304335,0.02300959458965808
1772562175503228700,11.672228759765625,0.0075479311615228644,0.01459784967303276,0.020636746244784444
1772562175513211000,11.6822109375,0.0068336454123258585,0.012120353643596172,0.01956718078451231
1772562175523193900,11.69219384765625,-0.006886836904287338,0.02965980972647667,0.009629459276469424
1772562175533175800,11.70217578125,-0.013722820404171943,0.033487551321089264,0.0061075504943262785
1772562175543158800,11.71215869140625,-0.03291442760825157,0.02023877816945314,0.009632162690209225
1772562175553141800,11.722141845703124,-0.014429507368803024,0.018557400953769683,-0.010266697734082116
1772562175563123700,11.732123779296876,0.028804654201865194,0.02935994999706745,-0.003035212110588327
1772562175573106700,11.742106689453125,0.019898878690600395,0.04174100040346384,0.0027709534175228328
1772562175583088600,11.752088623046875,0.001322188514471054,0.024873452232778072,-0.005332565800147131
1772562175593071600,11.762071533203125,0.009155950880050659,0.016237725834548473,0.0134857511121314
1772562175603053800,11.7720537109375,0.03375087843239307,0.012251286546885967,0.033494218523893504
1772562175613036500,11.78203662109375,0.015347206735610961,0.0202492995634675,0.027893777301488443
1772562175623018800,11.792018798828124,-0.00957154594361782,0.014760931280255317,0.021386422967771067
1772562175633001700,11.802001708984376,0.018664952981472013,0.010947218210995197,0.019691373419761658
1772562175642983700,11.811983642578125,0.026988544690608976,0.009004851971566677,0.025348732461174948
1772562175652966700,11.821966552734375,0.021060323685407636,0.020695289765298365,0.01612674887389876
1772562175662948900,11.831948974609375,0.004444119927287101,0.012578911066055297,0.00571270595784299
1772562175672931600,11.841931640625,0.004615384840965271,0.0017579495832324027,-0.005508360758470371
1772562175682913800,11.851913818359375,-0.006149170279502869,-0.011782499991357326,0.003881243613827973
1772562175692896800,11.861896728515624,-0.006885083338618278,0.002734393399953842,0.012837023146124556
1772562175702878700,11.871878662109374,-0.009511924710869788,0.005300736756622791,-0.0005500168318860232
1772562175712861700,11.88186181640625,-0.030556466305255887,0.020605565655231476,-0.0009544420474674552
1772562175722843600,11.89184375,-0.016011808124184606,0.015623977850377559,0.02653497397052124
1772562175732826600,11.90182666015625,0.00946224035024643,0.013469722425937651,0.041725729769095776
1772562175742809900,11.911809814453125,0.025626024165749547,0.018854338073730468,0.04410484345797449
1772562175752791600,11.92179150390625,0.038543373405933376,0.015359481695294379,0.034288154513714836
1772562175762774800,11.93177490234375,0.0429039067029953,0.016686346384882925,0.04816858576554805
1772562175772756700,11.9417568359375,0.03388707203269005,0.01962766053378582,0.04967918212474323
1772562175782739700,11.95173974609375,0.004356441643834114,0.010631868651509285,0.05309080806598067
1772562175792721700,11.9617216796875,0.0009796586871147156,-0.0017073884397745133,0.04086166028566658
1772562175802705000,11.971704833984376,0.02650222247838974,0.01064297456741333,0.05602135422569699
1772562175812686600,11.9816865234375,0.017380173867940902,0.018624913232028483,0.042178916896693404
1772562175822666800,11.991666748046875,0.0031628479450941083,-0.006116437053680419,0.016686684311600402
1772562175832649700,12.001649658203124,0.024841011267900465,0.0013172200784087181,0.011218281104182824
1772562175842632000,12.0116318359375,-0.001771101325750351,-0.003291442760825157,-0.0022195118135306985
1772562175852614700,12.02161474609375,-0.022591186514496802,-0.019644319407641886,-0.01598881084108725
1772562175862596900,12.031596923828126,-0.034248891082406044,-0.00957592985779047,0.0038080870460718867
1772562175872579800,12.041579833984375,-0.06262450621724128,0.00046323359757661814,0.03763942856984213
1772562175882562600,12.0515625,-0.037731472501158714,-0.00495265397131443,0.02415241708238609
1772562175892544800,12.061544677734375,0.06507365293502808,0.001744213318824768,-0.014523971586069091
1772562175902527700,12.07152783203125,0.049770285341143604,0.03162088066637516,-0.037455322440899906
