time,seconds_elapsed,z,y,x
1772562163913525500,0.082525390625,0.010767102241516113,0.017301790416240692,-0.1063232421875
1772562163923507700,0.0925078125,0.012105340138077736,0.07281458377838135,-0.14424081146717072
1772562163933490400,0.102490478515625,0.012757805176079273,0.1219174787402153,-0.19395017623901367
1772562163943472600,0.11247265625,0.016299009323120117,0.17246614396572113,-0.24829518795013428
1772562163953455600,0.12245556640625,0.021268043667078018,0.20326772332191467,-0.28734180331230164
1772562163963437600,0.1324375,0.02512829564511776,0.22720076143741608,-0.30519458651542664
1772562163973420500,0.142420654296875,0.020818470045924187,0.25952035188674927,-0.30602070689201355
1772562163983402500,0.152402587890625,0.011183420196175575,0.2851809859275818,-0.2986653447151184
1772562163993385500,0.162385498046875,-0.0002378113567829132,0.30408161878585815,-0.29217857122421265
1772562164003367700,0.17236767578125,-0.00661261985078454,0.3238079249858856,-0.2920917272567749
1772562164013350400,0.182350341796875,-0.01310026552528143,0.3295510411262512,-0.3019908666610718
1772562164023332600,0.19233251953125,-0.018413804471492767,0.33136412501335144,-0.3197528123855591
1772562164033315600,0.202315673828125,-0.019779648631811142,0.33674323558807373,-0.34297752380371094
1772562164043297500,0.212297607421875,-0.018958063796162605,0.346097856760025,-0.35732051730155945
1772562164053280500,0.222280517578125,-0.006245209835469723,0.32596349716186523,-0.3531530499458313
1772562164063262500,0.232262451171875,0.009863452985882759,0.2764201760292053,-0.3320237696170807
1772562164073245400,0.242245361328125,0.021662641316652298,0.22309230268001556,-0.29668399691581726
1772562164083227600,0.2522275390625,0.029653456062078476,0.16576510667800903,-0.25265687704086304
1772562164093210400,0.26221044921875,0.028677264228463173,0.10481252521276474,-0.2151879370212555
1772562164103192600,0.272192626953125,0.025096911936998367,0.03618872910737991,-0.1874159574508667
1772562164113175600,0.282175537109375,0.029191184788942337,-0.03392864018678665,-0.17593155801296234
1772562164123157500,0.292157470703125,0.02963460050523281,-0.10852431505918503,-0.17136050760746002
1772562164133140500,0.302140380859375,0.03158441185951233,-0.17802555859088898,-0.1746002584695816
1772562164143122700,0.312122802734375,0.0320185050368309,-0.24891118705272675,-0.18232715129852295
1772562164153105400,0.32210546875,0.02455066703259945,-0.2967384159564972,-0.18132388591766357
1772562164163087600,0.332087646484375,0.020859260112047195,-0.32488536834716797,-0.18277157843112946
1772562164173070600,0.342070556640625,0.01637362688779831,-0.32689446210861206,-0.17591480910778046
1772562164183052500,0.352052490234375,0.017475642263889313,-0.32695090770721436,-0.1698172390460968
1772562164193035500,0.362035400390625,0.014937147498130798,-0.32283422350883484,-0.1671295464038849
1772562164203017500,0.372017578125,0.016855422407388687,-0.3217140734195709,-0.15865324437618256
1772562164213000400,0.38200048828125,0.01961701363325119,-0.31590548157691956,-0.15172885358333588
1772562164222982700,0.391982666015625,0.019096365198493004,-0.3029308021068573,-0.14045968651771545
1772562164232965400,0.40196533203125,0.011142510920763016,-0.3087078630924225,-0.12567280232906342
1772562164242947600,0.411947509765625,-0.0033080680295825005,-0.3222396671772003,-0.10776198655366898
1772562164252930600,0.4219306640625,-0.023639429360628128,-0.35506317019462585,-0.07571522891521454
1772562164262912500,0.43191259765625,-0.04386880248785019,-0.3873361647129059,-0.03595849499106407
1772562164272895500,0.4418955078125,-0.052027106285095215,-0.4270640015602112,-0.0015983711928129196
1772562164282877700,0.451877685546875,-0.05362660065293312,-0.4527975916862488,0.037789247930049896
1772562164292860400,0.4618603515625,-0.05458485707640648,-0.45359382033348083,0.07829360663890839
1772562164302842600,0.471842529296875,-0.06425825506448746,-0.4569190442562103,0.12298358976840973
1772562164312825600,0.48182568359375,-0.07559476792812347,-0.3998081088066101,0.1756388396024704
1772562164322807600,0.4918076171875,-0.08736886829137802,-0.2976870536804199,0.21780653297901154
1772562164332790500,0.50179052734375,-0.10790584981441498,-0.1685664802789688,0.2481686919927597
1772562164342772500,0.5117724609375,-0.12799008190631866,-0.030914073809981346,0.2554449737071991
1772562164352755500,0.52175537109375,-0.14020100235939026,0.09903819859027863,0.2236635535955429
1772562164362737700,0.531737548828125,-0.15246379375457764,0.2226163148880005,0.17152658104896545
1772562164372720400,0.541720458984375,-0.1618771255016327,0.3299029767513275,0.10885162651538849
1772562164382702600,0.55170263671875,-0.1667104959487915,0.3831169307231903,0.04229310154914856
1772562164392685600,0.561685546875,-0.17194023728370667,0.39278820157051086,-0.026355015113949776
1772562164402667500,0.57166748046875,-0.18033957481384277,0.3709675967693329,-0.06650349497795105
1772562164412650500,0.581650390625,-0.19219714403152466,0.3145880103111267,-0.08991266787052155
1772562164422632700,0.5916328125,-0.20811620354652405,0.23481008410453796,-0.09474683552980423
1772562164432615400,0.601615478515625,-0.22195738554000854,0.16103658080101013,-0.06659197807312012
1772562164442597600,0.61159765625,-0.2527424693107605,0.10148271173238754,-0.014281105250120163
1772562164452580600,0.62158056640625,-0.2834402024745941,0.047110818326473236,0.048816367983818054
1772562164462562600,0.6315625,-0.31880563497543335,-0.002608268754556775,0.1171237900853157
1772562164472545500,0.641545654296875,-0.3354940414428711,-0.04638244956731796,0.17997799813747406
1772562164482528800,0.65152880859375,-0.34913474321365356,-0.09266392141580582,0.2299189269542694
1772562164492510500,0.661510498046875,-0.3582533299922943,-0.16231177747249603,0.28299781680107117
1772562164502493700,0.67149365234375,-0.3608059585094452,-0.23394174873828888,0.31260204315185547
1772562164512475400,0.681475341796875,-0.35401594638824463,-0.27154478430747986,0.322452574968338
1772562164522458600,0.691458740234375,-0.34916234016418457,-0.28151726722717285,0.3151608407497406
1772562164532440600,0.701440673828125,-0.3449276387691498,-0.2860226631164551,0.29469847679138184
1772562164542423600,0.711423583984375,-0.3349865972995758,-0.2749529778957367,0.25010597705841064
1772562164552405500,0.721405517578125,-0.3229273855686188,-0.23862099647521973,0.19717803597450256
1772562164562388700,0.731388671875,-0.31180256605148315,-0.19632279872894287,0.13136732578277588
1772562164572370400,0.741370361328125,-0.30383098125457764,-0.16426686942577362,0.057259492576122284
1772562164582353700,0.751353759765625,-0.29540500044822693,-0.13135206699371338,-0.0173319224268198
1772562164592335400,0.76133544921875,-0.29446056485176086,-0.11371734738349915,-0.08445293456315994
1772562164602318600,0.771318603515625,-0.30119410157203674,-0.09863266348838806,-0.13064706325531006
1772562164612300500,0.781300537109375,-0.30912595987319946,-0.09199973195791245,-0.1711210459470749
1772562164622283500,0.791283447265625,-0.31098324060440063,-0.08779752999544144,-0.1940348893404007
1772562164632265500,0.801265380859375,-0.31409284472465515,-0.08978558331727982,-0.21268987655639648
1772562164642248700,0.811248779296875,-0.3073662221431732,-0.08735757321119308,-0.2255082130432129
1772562164652230400,0.82123046875,-0.2935198247432709,-0.09535451233386993,-0.23051247000694275
1772562164662213600,0.831213623046875,-0.2862906754016876,-0.10194370895624161,-0.23524117469787598
1772562164672195600,0.841195556640625,-0.273761123418808,-0.1023283377289772,-0.2344573438167572
1772562164682178600,0.851178466796875,-0.25948500633239746,-0.09959806501865387,-0.23916341364383698
1772562164692160500,0.861160400390625,-0.2461642473936081,-0.08965808153152466,-0.2544085383415222
1772562164702143700,0.871143798828125,-0.23749326169490814,-0.07109105587005615,-0.2812345623970032
1772562164712125400,0.88112548828125,-0.2385401874780655,-0.06508629024028778,-0.3005579710006714
1772562164722108700,0.891108642578125,-0.24779440462589264,-0.07149092853069305,-0.3169340193271637
1772562164732090400,0.90109033203125,-0.2522941827774048,-0.08391284197568893,-0.33658427000045776
1772562164742073600,0.911073486328125,-0.25453418493270874,-0.10599151253700256,-0.3483272194862366
1772562164752055600,0.9210556640625,-0.25335654616355896,-0.11627204716205597,-0.35593095421791077
1772562164762038500,0.93103857421875,-0.24738045036792755,-0.1255829930305481,-0.3391812741756439
1772562164772020500,0.9410205078125,-0.25240716338157654,-0.12539318203926086,-0.31122729182243347
1772562164782003700,0.951003662109375,-0.2576221823692322,-0.1263098418712616,-0.27161115407943726
1772562164791985400,0.9609853515625,-0.26245975494384766,-0.12068171054124832,-0.2274845391511917
1772562164801964800,0.97096484375,-0.26483607292175293,-0.11032441258430481,-0.1882079690694809
1772562164811946800,0.98094677734375,-0.2737692892551422,-0.105284184217453,-0.16157373785972595
1772562164821930000,0.990929931640625,-0.27985650300979614,-0.10655956715345383,-0.13881435990333557
1772562164831911700,1.00091162109375,-0.2757161259651184,-0.10152126848697662,-0.12320243567228317
1772562164841895000,1.01089501953125,-0.26974159479141235,-0.09755129367113113,-0.11267469823360443
1772562164851876600,1.020876708984375,-0.26607686281204224,-0.09989999979734421,-0.10798850655555725
1772562164861859800,1.03085986328125,-0.2636869251728058,-0.11156091094017029,-0.10171382874250412
1772562164871841800,1.040841796875,-0.2657238841056824,-0.13205887377262115,-0.09499727189540863
1772562164881824800,1.05082470703125,-0.25987640023231506,-0.15217000246047974,-0.09598343819379807
1772562164891806700,1.060806640625,-0.2517867684364319,-0.1635512113571167,-0.10037776082754135
1772562164901790000,1.0707900390625,-0.2438438981771469,-0.16770388185977936,-0.1067296639084816
1772562164911771600,1.080771728515625,-0.2416326254606247,-0.1569187492132187,-0.10907295346260071
1772562164921755000,1.0907548828125,-0.24726973474025726,-0.13786515593528748,-0.10915923863649368
1772562164931736800,1.10073681640625,-0.2553396224975586,-0.10987234115600586,-0.11131170392036438
1772562164941719800,1.1107197265625,-0.2599160075187683,-0.09297537803649902,-0.11090210825204849
1772562164951701800,1.12070166015625,-0.26247644424438477,-0.0643964633345604,-0.1059734895825386
1772562164961685000,1.13068505859375,-0.26391881704330444,-0.040637075901031494,-0.0984809473156929
1772562164971667700,1.140667724609375,-0.2688046097755432,-0.025131551548838615,-0.08776233345270157
1772562164981650000,1.15064990234375,-0.27270588278770447,-0.018445419147610664,-0.07772008329629898
1772562164991633000,1.1606328125,-0.2750348746776581,-0.016863305121660233,-0.06914037466049194
1772562165001614800,1.17061474609375,-0.2702302634716034,-0.016884610056877136,-0.059234216809272766
1772562165011597800,1.180597900390625,-0.26638150215148926,-0.029728369787335396,-0.04888949543237686
1772562165021579800,1.190579833984375,-0.261503666639328,-0.035866424441337585,-0.03829650580883026
1772562165031562800,1.200562744140625,-0.25558945536613464,-0.03273754194378853,-0.02232205495238304
1772562165041545000,1.210544921875,-0.253437340259552,-0.024726221337914467,-0.008295184001326561
1772562165051527700,1.220527587890625,-0.25080278515815735,-0.016199911013245583,-0.004418146796524525
1772562165061510000,1.230510009765625,-0.24896229803562164,-0.004937668330967426,0.007337046321481466
1772562165071492900,1.240492919921875,-0.2472759187221527,0.00032879970967769623,0.012297920882701874
1772562165081474800,1.250474853515625,-0.24557308852672577,-0.0027167913503944874,0.01233227550983429
1772562165091457800,1.260457763671875,-0.2417755126953125,-0.018307402729988098,0.01780005171895027
1772562165101439700,1.270439697265625,-0.23316684365272522,-0.03391379490494728,0.016875403001904488
1772562165111422700,1.280422607421875,-0.22735901176929474,-0.05123233050107956,0.008771403692662716
1772562165121405000,1.290405029296875,-0.22122974693775177,-0.06566719710826874,0.0012264023534953594
1772562165131387600,1.3003876953125,-0.21456867456436157,-0.07386060804128647,-0.008978708647191525
1772562165141369900,1.310369873046875,-0.20738212764263153,-0.07386354357004166,-0.01679348759353161
1772562165151352800,1.320352783203125,-0.2065660059452057,-0.05692976340651512,-0.021257221698760986
1772562165161334800,1.330334716796875,-0.20287193357944489,-0.05305992439389229,-0.022676952183246613
1772562165171317800,1.34031787109375,-0.19684924185276031,-0.052079346030950546,-0.02657480165362358
1772562165181300000,1.350300048828125,-0.18921954929828644,-0.049916595220565796,-0.01844736561179161
1772562165191282700,1.36028271484375,-0.1832433044910431,-0.05334421619772911,-0.008161060512065887
1772562165201265000,1.370264892578125,-0.17375527322292328,-0.060279086232185364,0.0036998598370701075
1772562165211247900,1.380247802734375,-0.16990001499652863,-0.05864537134766579,0.011940810829401016
1772562165221229800,1.390229736328125,-0.1633872538805008,-0.056706324219703674,0.012980774976313114
1772562165231212800,1.400212890625,-0.15739856660366058,-0.058608751744031906,0.010076886042952538
1772562165241194800,1.41019482421875,-0.15481850504875183,-0.0604466013610363,0.007286691572517157
1772562165251177700,1.420177734375,-0.14635080099105835,-0.05647522583603859,0.005287512205541134
1772562165261160000,1.430159912109375,-0.14475983381271362,-0.048324890434741974,0.003992949612438679
1772562165271142700,1.440142578125,-0.1421457827091217,-0.04139314591884613,0.007309129927307367
1772562165281124900,1.450124755859375,-0.14223553240299225,-0.0435660220682621,0.011424247175455093
1772562165291107800,1.46010791015625,-0.14145109057426453,-0.049041278660297394,0.02749883197247982
1772562165301089800,1.47008984375,-0.137904554605484,-0.052652791142463684,0.04950905591249466
1772562165311072800,1.48007275390625,-0.13865819573402405,-0.05334814637899399,0.0739089846611023
1772562165321055000,1.490054931640625,-0.13671967387199402,-0.06023161858320236,0.10303597152233124
1772562165331037700,1.50003759765625,-0.13624727725982666,-0.06395091861486435,0.1188480481505394
1772562165341020000,1.51002001953125,-0.13269194960594177,-0.06963410973548889,0.12044381350278854
1772562165351003000,1.5200029296875,-0.13019470870494843,-0.07230765372514725,0.11501655727624893
1772562165360984800,1.52998486328125,-0.12650969624519348,-0.07289301604032516,0.10494554787874222
1772562165370967800,1.5399677734375,-0.12212904542684555,-0.06720570474863052,0.08913624286651611
1772562165380949800,1.54994970703125,-0.11680351942777634,-0.058965884149074554,0.07994727045297623
1772562165390932700,1.5599326171875,-0.11676130443811417,-0.055575013160705566,0.06735066324472427
1772562165400915000,1.5699150390625,-0.1177128478884697,-0.056765712797641754,0.06915335357189178
1772562165410897700,1.579897705078125,-0.11704655736684799,-0.058291371911764145,0.06855742633342743
1772562165420880000,1.5898798828125,-0.11252637207508087,-0.054436713457107544,0.0678120031952858
1772562165430862800,1.59986279296875,-0.11274871975183487,-0.04903748631477356,0.07045350968837738
1772562165440845800,1.609845703125,-0.10771773755550385,-0.05048704519867897,0.06112632155418396
1772562165450827800,1.619827880859375,-0.10347867012023926,-0.04504227638244629,0.04815084487199783
1772562165460811000,1.62981103515625,-0.09740426391363144,-0.04063874110579491,0.04098774492740631
1772562165470792700,1.639792724609375,-0.09335549175739288,-0.03812798112630844,0.024907143786549568
1772562165480776000,1.64977587890625,-0.08935808390378952,-0.04537869989871979,0.014970622956752777
1772562165490758000,1.6597578125,-0.08075527846813202,-0.0551554337143898,0.014647848904132843
1772562165500740900,1.669740966796875,-0.07795922458171844,-0.06354784965515137,0.018640194088220596
1772562165510722800,1.679722900390625,-0.07911547273397446,-0.07788244634866714,0.033760398626327515
1772562165520706000,1.6897060546875,-0.07552526146173477,-0.09506915509700775,0.05456607788801193
1772562165530687700,1.699687744140625,-0.07577507197856903,-0.10180322825908661,0.07473845779895782
1772562165540671000,1.7096708984375,-0.07624565064907074,-0.09700793772935867,0.10051279515028
1772562165550652700,1.719652587890625,-0.07924098521471024,-0.09105098247528076,0.11309242248535156
1772562165560636000,1.729635986328125,-0.08291401714086533,-0.08137199282646179,0.11837133765220642
1772562165570617900,1.739617919921875,-0.0827709287405014,-0.06966180354356766,0.11585047096014023
1772562165580600800,1.749600830078125,-0.0817975401878357,-0.05819796025753021,0.10473071038722992
1772562165590582800,1.759582763671875,-0.08257254213094711,-0.04857662692666054,0.09491108357906342
1772562165600566000,1.76956591796875,-0.0822971761226654,-0.04658644646406174,0.08689017593860626
1772562165610547700,1.779547607421875,-0.0771993026137352,-0.040364235639572144,0.08448431640863419
1772562165620531000,1.789531005859375,-0.07686161994934082,-0.0363127700984478,0.07819525897502899
1772562165630512600,1.7995126953125,-0.07071885466575623,-0.0369340181350708,0.07768663018941879
1772562165640495900,1.809495849609375,-0.07001525163650513,-0.042969804257154465,0.07241463661193848
1772562165650477800,1.819477783203125,-0.061974164098501205,-0.05402657762169838,0.06588208675384521
1772562165660460800,1.829460693359375,-0.05649257451295853,-0.07040848582983017,0.059506483376026154
1772562165670442800,1.83944287109375,-0.05150548741221428,-0.07988308370113373,0.0561901330947876
1772562165680426000,1.849426025390625,-0.051783252507448196,-0.0889279767870903,0.047875478863716125
1772562165690407700,1.85940771484375,-0.05160359665751457,-0.09191657602787018,0.04374641180038452
1772562165700391000,1.869390869140625,-0.049269068986177444,-0.08845126628875732,0.040043819695711136
1772562165710372900,1.879372802734375,-0.05136341601610184,-0.08534495532512665,0.036923885345458984
1772562165720355800,1.88935595703125,-0.0569230318069458,-0.07392106205224991,0.03064575046300888
1772562165730337800,1.899337890625,-0.05475218594074249,-0.06712973117828369,0.029348354786634445
1772562165740321000,1.909321044921875,-0.05552743375301361,-0.061100076884031296,0.026013009250164032
1772562165750302700,1.919302734375,-0.05406016483902931,-0.05817705765366554,0.025067061185836792
1772562165760286000,1.929285888671875,-0.05458853393793106,-0.054035309702157974,0.02096898853778839
1772562165770267600,1.939267578125,-0.04928755387663841,-0.05109997093677521,0.019971860572695732
1772562165780251000,1.9492509765625,-0.04577404633164406,-0.04857289791107178,0.011610333807766438
1772562165790232800,1.95923291015625,-0.04471156746149063,-0.03954504430294037,0.00796167179942131
1772562165800215000,1.969215087890625,-0.04173415154218674,-0.03291963413357735,-0.0010832217521965504
1772562165810197000,1.979197021484375,-0.04225911572575569,-0.029713522642850876,-0.0063743009231984615
1772562165820180000,1.989179931640625,-0.03829659894108772,-0.029111914336681366,-0.013750990852713585
1772562165830162200,1.999162109375,-0.03287706524133682,-0.03379814326763153,-0.021140210330486298
1772562165840145000,2.009144775390625,-0.027705471962690353,-0.0442742183804512,-0.025883566588163376
1772562165850127000,2.019127197265625,-0.023755304515361786,-0.045799948275089264,-0.022432198747992516
1772562165860110000,2.029110107421875,-0.015380463562905788,-0.04325609654188156,-0.019539207220077515
1772562165870092800,2.0390927734375,-0.009931625798344612,-0.03464243561029434,-0.01416267454624176
1772562165880075000,2.049074951171875,-0.002394347684457898,-0.02379697747528553,-0.0029920446686446667
1772562165890058000,2.05905810546875,0.005664180498570204,-0.014408467337489128,0.009532207623124123
1772562165900040000,2.0690400390625,0.013168435543775558,-0.011026785708963871,0.02341286838054657
1772562165910023000,2.07902294921875,0.01897009275853634,-0.004522016271948814,0.03714009001851082
1772562165920004900,2.0890048828125,0.020815663039684296,-0.005624564364552498,0.04549842327833176
1772562165929987800,2.09898779296875,0.02633807621896267,-0.01198698952794075,0.047830890864133835
1772562165939970000,2.108969970703125,0.0307442769408226,-0.012876219116151333,0.03925684466958046
1772562165949952800,2.118952880859375,0.03818559646606445,-0.0174587182700634,0.030571117997169495
1772562165959935000,2.12893505859375,0.043124694377183914,-0.02101510390639305,0.01929103210568428
1772562165969918000,2.13891796875,0.04879292845726013,-0.02736128494143486,0.0035533285699784756
1772562165979900000,2.14889990234375,0.05376771464943886,-0.028232937678694725,-0.005173051729798317
1772562165989883000,2.1588828125,0.05589527264237404,-0.03505728766322136,-0.015293639153242111
1772562165999865000,2.168864990234375,0.060438625514507294,-0.0433058962225914,-0.019157884642481804
1772562166009847800,2.178847900390625,0.06335270404815674,-0.04058234766125679,-0.012400727719068527
1772562166019830000,2.188830078125,0.06324777752161026,-0.038625724613666534,-0.007639260496944189
1772562166029813000,2.19881298828125,0.06371749937534332,-0.03621402755379677,-0.0019989064894616604
1772562166039795000,2.208794921875,0.06188790872693062,-0.03383715823292732,0.007576222997158766
1772562166049778000,2.21877783203125,0.061702340841293335,-0.03170403093099594,0.01261591725051403
1772562166059759900,2.228759765625,0.06327387690544128,-0.025402728468179703,0.01489185355603695
1772562166069742800,2.238742919921875,0.0608316995203495,-0.016800720244646072,0.009751915000379086
1772562166079725000,2.24872509765625,0.058972280472517014,-0.006434631533920765,0.01269763708114624
1772562166089707800,2.258707763671875,0.05603495240211487,-0.0015707667917013168,0.012788597494363785
1772562166099690000,2.26868994140625,0.05461442098021507,-0.004646717570722103,0.008568286895751953
1772562166109673000,2.2786728515625,0.05446795001626015,-0.002896621124818921,0.004704558290541172
1772562166119655000,2.288655029296875,0.05606158450245857,-0.008108427748084068,0.0028515311423689127
1772562166129638000,2.298637939453125,0.05625284090638161,-0.008436795324087143,-0.0010414323769509792
1772562166139620000,2.3086201171875,0.05397956818342209,-0.004497181624174118,-0.002149573527276516
1772562166149602800,2.318602783203125,0.053630176931619644,0.006235891953110695,-0.004600985441356897
1772562166159585000,2.3285849609375,0.04995421692728996,0.009978431276977062,-0.008659375831484795
1772562166169568000,2.338568115234375,0.0475294254720211,0.015142099931836128,-0.007308482192456722
1772562166179550000,2.348550048828125,0.0487760491669178,0.014514925889670849,-0.006429906003177166
1772562166189533000,2.358532958984375,0.04760350286960602,0.008048237301409245,-0.0073132324032485485
1772562166199515000,2.368514892578125,0.04826316609978676,0.0022774336393922567,-0.006037843879312277
1772562166209497900,2.378497802734375,0.05054662004113197,0.0030892984941601753,-0.008916390128433704
1772562166219480000,2.38847998046875,0.051329854875802994,0.007286973297595978,-0.00985116045922041
1772562166229462800,2.398462890625,0.04901699349284172,0.005317633040249348,-0.011147641576826572
1772562166239445000,2.408445068359375,0.046444378793239594,-0.003179182531312108,-0.009465322829782963
1772562166249428000,2.418427978515625,0.04616900905966759,-0.01260011550039053,-0.006041829474270344
1772562166259410000,2.428409912109375,0.04250716045498848,-0.02183649130165577,-0.004315035417675972
1772562166269393000,2.438392822265625,0.04042670875787735,-0.02059219591319561,-0.00031214719638228416
1772562166279374800,2.448374755859375,0.035904660820961,-0.01877432130277157,0.004166490864008665
1772562166289357800,2.45835791015625,0.03387036919593811,-0.008532270789146423,0.009105011820793152
1772562166299341000,2.468341064453125,0.03091665543615818,0.004000831861048937,0.01433386281132698
1772562166309322800,2.47832275390625,0.02421773038804531,0.005365768447518349,0.021932516247034073
1772562166319306000,2.488305908203125,0.019242679700255394,0.016770489513874054,0.021898958832025528
1772562166329288000,2.498287841796875,0.01920541562139988,0.01851419359445572,0.029742257669568062
1772562166339271200,2.508271240234375,0.016514025628566742,0.017286742106080055,0.03400544449687004
1772562166349252900,2.5182529296875,0.015690043568611145,0.014052066951990128,0.03290955349802971
1772562166359236000,2.528236083984375,0.016616646200418472,0.015123657882213593,0.03847765550017357
1772562166369217800,2.5382177734375,0.01615951769053936,0.01913204789161682,0.04376242309808731
1772562166379201000,2.548200927734375,0.01393258199095726,0.02531217783689499,0.04206971824169159
1772562166389183000,2.558182861328125,0.011255101300776005,0.0320996455848217,0.037232689559459686
1772562166399166000,2.568166015625,0.01038557942956686,0.036026209592819214,0.029686618596315384
1772562166409148000,2.57814794921875,0.002958409721031785,0.02471350133419037,0.019434889778494835
1772562166419131100,2.588131103515625,0.0008169619832187891,0.01325604971498251,0.009792915545403957
1772562166429112800,2.59811279296875,-0.0000247173011302948,0.0016373428516089916,0.0037218639627099037
1772562166439096000,2.608095947265625,0.0018275112379342318,-0.006275707855820656,0.004575673490762711
1772562166449077800,2.618077880859375,0.003860392142087221,-0.005327688530087471,0.0112183578312397
1772562166459061000,2.62806103515625,0.0010097443591803312,0.0054951319471001625,0.01584719866514206
1772562166469043000,2.63804296875,-0.0011367539409548044,0.014377640560269356,0.01477247104048729
1772562166479026000,2.64802587890625,-0.0027556896675378084,0.01615077257156372,0.017078768461942673
1772562166489007900,2.6580078125,-0.0006590918637812138,0.021644745022058487,0.008599143475294113
1772562166498991000,2.6679912109375,-0.001605046447366476,0.019031118601560593,-0.0013301866129040718
1772562166508972800,2.677972900390625,-0.004769395105540752,0.015309945680201054,-0.007118922658264637
1772562166518956000,2.6879560546875,-0.004569658078253269,0.012678742408752441,-0.0062009310349822044
1772562166528938000,2.69793798828125,-0.007182248868048191,0.012178267352283001,-0.00046944059431552887
1772562166538921000,2.7079208984375,-0.005363043397665024,0.009329750202596188,0.006887807976454496
1772562166548903000,2.71790283203125,-0.005331639666110277,0.009427621960639954,0.017120182514190674
1772562166558886100,2.72788623046875,-0.0071692210622131824,0.011127782985568047,0.01771167293190956
1772562166568867800,2.737867919921875,-0.00879650842398405,0.00854525063186884,0.01901639997959137
1772562166578851000,2.74785107421875,-0.009381605312228203,0.005773432552814484,0.01384107954800129
1772562166588832800,2.757832763671875,-0.009120072238147259,0.0036612129770219326,0.016279613599181175
1772562166598816000,2.76781591796875,-0.006387135945260525,0.0023259040899574757,0.01697123609483242
1772562166608798000,2.7777978515625,-0.006536014843732119,0.00038386054802685976,0.023887041956186295
1772562166618781000,2.787781005859375,-0.01128496415913105,-0.0006963175255805254,0.03739193081855774
1772562166628763000,2.797762939453125,-0.013669954612851143,-0.0013371417298913002,0.049007318913936615
1772562166638746000,2.80774609375,-0.011233962140977383,-0.0014122428838163614,0.06577218323945999
1772562166648727800,2.817727783203125,-0.01643809676170349,-0.002678242977708578,0.07778764516115189
1772562166658711000,2.8277109375,-0.017968082800507545,0.0033817801158875227,0.08692468702793121
1772562166668694000,2.837694091796875,-0.02153759077191353,0.005682419054210186,0.09506230056285858
1772562166678676000,2.847676025390625,-0.028610680252313614,0.013618906028568745,0.10133697092533112
1772562166688659000,2.857658935546875,-0.03287133574485779,0.02199188619852066,0.10781230032444
1772562166698641200,2.86764111328125,-0.03601839393377304,0.036333274096250534,0.11283902078866959
1772562166708624000,2.877623779296875,-0.03703809529542923,0.046790242195129395,0.1179969385266304
1772562166718606000,2.887606201171875,-0.04169703274965286,0.051121339201927185,0.1193988248705864
1772562166728589000,2.897589111328125,-0.04455992206931114,0.053120240569114685,0.11546708643436432
1772562166738571000,2.907571044921875,-0.041500214487314224,0.057451605796813965,0.10537183284759521
1772562166748554000,2.917553955078125,-0.0416109524667263,0.06751669198274612,0.10453978180885315
1772562166758536000,2.927535888671875,-0.038903847336769104,0.08482670038938522,0.09900866448879242
1772562166768519000,2.937518798828125,-0.041389111429452896,0.09049071371555328,0.09190574288368225
1772562166778501000,2.947501220703125,-0.039084941148757935,0.09106142818927765,0.08734747767448425
1772562166788483800,2.95748388671875,-0.030739612877368927,0.0870577022433281,0.08608292043209076
1772562166798466600,2.967466552734375,-0.025480667129158974,0.0781845822930336,0.0833505168557167
1772562166808449800,2.97744970703125,-0.02091686986386776,0.07079137861728668,0.07547257095575333
1772562166818431500,2.987431396484375,-0.015965253114700317,0.04889274016022682,0.06362096965312958
1772562166828414700,2.997414794921875,-0.006421138998121023,0.03400859609246254,0.04744133725762367
1772562166838396700,3.007396728515625,0.004347353242337704,0.013352854177355766,0.031039461493492126
1772562166848379600,3.017379638671875,0.012730789370834827,0.0007721483707427979,0.018899118527770042
1772562166858361600,3.027361572265625,0.014090865850448608,-0.018306471407413483,0.010936266742646694
1772562166868344800,3.0373447265625,0.019690869376063347,-0.023646576330065727,0.001190729672089219
1772562166878326500,3.047326416015625,0.023757249116897583,-0.015287977643311024,-0.005029083229601383
1772562166888309800,3.057309814453125,0.021408842876553535,-0.002848684787750244,-0.008021310903131962
1772562166898291700,3.067291748046875,0.026755139231681824,0.004733601119369268,-0.015248598530888557
1772562166908274700,3.077274658203125,0.029715394601225853,0.010608067736029625,-0.021477701142430305
1772562166918256600,3.087256591796875,0.03517088294029236,0.008002164773643017,-0.03142620623111725
1772562166928239600,3.097239501953125,0.0354672409594059,0.003723596688359976,-0.03455347567796707
1772562166938221600,3.1072216796875,0.038574084639549255,-0.0010607722215354443,-0.034572385251522064
1772562166948204800,3.117204833984375,0.04088665917515755,0.0003034991677850485,-0.029544059187173843
1772562166958186800,3.127186767578125,0.039262931793928146,0.0041464404202997684,-0.018108179792761803
1772562166968169700,3.137169677734375,0.03704306110739708,0.010771985165774822,-0.013091428205370903
1772562166978151700,3.147151611328125,0.036664627492427826,0.003516469383612275,-0.009512938559055328
1772562166988134700,3.157134765625,0.033334795385599136,-0.010281633585691452,-0.005119075998663902
1772562166998116600,3.16711669921875,0.029384795576334,-0.03482292965054512,0.003449112642556429
1772562167008099800,3.177099853515625,0.029459046199917793,-0.04990274831652641,0.007732884492725134
1772562167018081800,3.187081787109375,0.027911482378840446,-0.06396050751209259,0.01976105198264122
1772562167028064800,3.197064697265625,0.024336036294698715,-0.066395103931427,0.029560938477516174
1772562167038047700,3.2070478515625,0.02026406303048134,-0.06309997290372849,0.03638182953000069
1772562167048029700,3.21702978515625,0.016788775101304054,-0.05222215875983238,0.03922249749302864
1772562167058012700,3.2270126953125,0.012236634269356728,-0.03432971239089966,0.03872209042310715
1772562167067994600,3.23699462890625,0.012847363948822021,-0.02422940731048584,0.028430361300706863
1772562167077977600,3.2469775390625,0.012910481542348862,-0.015224460512399673,0.028622642159461975
1772562167087959800,3.256959716796875,0.011966656893491745,-0.012864634394645691,0.027913708239793777
1772562167097942500,3.266942626953125,0.009641983546316624,-0.0028375666588544846,0.041087035089731216
1772562167107924700,3.2769248046875,0.0016276389360427856,0.00021075503900647163,0.047996636480093
1772562167117907700,3.28690771484375,0.002618601080030203,0.002526639960706234,0.06050923466682434
1772562167127889700,3.2968896484375,0.0009479683358222246,0.015450894832611084,0.06307875365018845
1772562167137872600,3.30687255859375,0.002891809679567814,0.024167155846953392,0.05491269752383232
1772562167147854800,3.316854736328125,-0.0009076585993170738,0.03387930244207382,0.03973008692264557
1772562167157837600,3.326837646484375,-0.003844592487439513,0.031112810596823692,0.016728632152080536
1772562167167819800,3.33681982421875,-0.006037069484591484,0.02686120755970478,-0.0020864903926849365
1772562167177802800,3.346802734375,-0.003545149927958846,0.013659650459885597,-0.018101675435900688
1772562167187784700,3.35678466796875,-0.0015623490326106548,0.006432499270886183,-0.017913594841957092
1772562167197767700,3.366767578125,-0.0008579427376389503,0.006071108393371105,-0.012845865450799465
1772562167207749600,3.37674951171875,-0.0010350430384278297,0.0017386780818924308,0.0019064496736973524
1772562167217732600,3.386732666015625,-0.006379208527505398,-0.009099588729441166,0.013176947832107544
1772562167227714800,3.39671484375,-0.010350305587053299,-0.009464443661272526,0.025005601346492767
1772562167237697500,3.406697509765625,-0.01201531384140253,-0.008336328901350498,0.0384063646197319
1772562167247679700,3.4166796875,-0.01706850901246071,-0.0022529358975589275,0.047484561800956726
1772562167257662700,3.426662841796875,-0.020352985709905624,0.00990546029061079,0.05097143352031708
1772562167267644700,3.436644775390625,-0.02330130897462368,0.01561700738966465,0.04002884030342102
1772562167277627600,3.446627685546875,-0.02672426961362362,0.021173426881432533,0.025203820317983627
1772562167287609900,3.45660986328125,-0.029633568599820137,0.022893963381648064,0.010831738822162151
1772562167297592600,3.466592529296875,-0.0312863290309906,0.013345997780561447,0.004530433099716902
1772562167307574800,3.47657470703125,-0.030397724360227585,0.004278268665075302,0.00084651168435812
1772562167317557800,3.486557861328125,-0.029667221009731293,-0.0020280969329178333,0.002806598087772727
1772562167327539700,3.496539794921875,-0.027819188311696053,-0.01363561861217022,0.008265615440905094
1772562167337522700,3.506522705078125,-0.027725711464881897,-0.024677351117134094,0.014586628414690495
1772562167347504600,3.516504638671875,-0.02849099226295948,-0.02635987102985382,0.013340258039534092
1772562167357487600,3.526487548828125,-0.028595121577382088,-0.018160797655582428,0.013173544779419899
1772562167367469800,3.5364697265625,-0.023604704067111015,-0.004726213403046131,0.0072857397608459
1772562167377452500,3.54645263671875,-0.0246523916721344,0.016400376334786415,0.0013506188988685608
1772562167387434800,3.556434814453125,-0.021327394992113113,0.04000184312462807,-0.012885263189673424
1772562167397417700,3.566417724609375,-0.023022497072815895,0.05079669877886772,-0.030224839225411415
1772562167407400700,3.576400634765625,-0.025452056899666786,0.059365417808294296,-0.047326017171144485
1772562167417382700,3.586382568359375,-0.024797985330224037,0.04133288934826851,-0.05932169780135155
1772562167427366000,3.596365966796875,-0.022641567513346672,0.026462599635124207,-0.055057935416698456
1772562167437347600,3.60634765625,-0.02130972035229206,0.008926483802497387,-0.03608717396855354
1772562167447330800,3.616330810546875,-0.023089712485671043,-0.007930660620331764,-0.01747586764395237
1772562167457312500,3.6263125,-0.024887878447771072,-0.02277006022632122,0.00023894663900136948
1772562167467295700,3.636295654296875,-0.019462116062641144,-0.024615764617919922,0.011982801370322704
1772562167477277700,3.646277587890625,-0.019274896010756493,-0.022451147437095642,0.014208937995135784
1772562167487261000,3.656260986328125,-0.020303962752223015,-0.02156125381588936,0.010089271701872349
1772562167497242600,3.66624267578125,-0.022789757698774338,-0.019918881356716156,0.00703089777380228
1772562167507225900,3.676225830078125,-0.02354498766362667,-0.012625211849808693,0.0012099118903279305
1772562167517207600,3.68620751953125,-0.0232432521879673,-0.005891409236937761,0.007895777933299541
1772562167527190800,3.696190673828125,-0.02368825487792492,0.00028272601775825024,0.01612418331205845
1772562167537172700,3.7061728515625,-0.022399019449949265,0.006370179820805788,0.028620000928640366
1772562167547155700,3.71615576171875,-0.02373436838388443,0.006902545690536499,0.0373292900621891
1772562167557137700,3.7261376953125,-0.022673098370432854,0.012856574729084969,0.04251047223806381
1772562167567121000,3.736120849609375,-0.026624325662851334,0.021839618682861328,0.03993222489953041
1772562167577102600,3.7461025390625,-0.021225830540060997,0.021513648331165314,0.030988533049821854
1772562167587085800,3.7560859375,-0.019672833383083344,0.026728782802820206,0.014636041596531868
1772562167597067500,3.766067626953125,-0.011726494878530502,0.02500332146883011,0.0020052012987434864
1772562167607050800,3.77605078125,-0.0084541542455554,0.020737268030643463,-0.00695102009922266
1772562167617032700,3.78603271484375,-0.0037054719869047403,0.013900400139391422,-0.007006147876381874
1772562167627015700,3.796015625,-0.006568729877471924,0.004273939412087202,-0.0023391908034682274
1772562167636997600,3.80599755859375,-0.001028822036460042,-0.003954696003347635,0.006234057247638702
1772562167646980900,3.81598095703125,-0.0006997617892920971,-0.005159375257790089,0.012090498581528664
1772562167656962600,3.825962646484375,0.0008336864411830902,0.0007235477678477764,0.014085207134485245
1772562167666945800,3.83594580078125,0.0033550073858350515,0.0065229786559939384,0.015536212362349033
1772562167676927700,3.845927734375,0.003856480587273836,0.009038068354129791,0.015864847227931023
1772562167686910700,3.85591064453125,0.0026357602328062057,0.005122488830238581,0.01414838433265686
1772562167696892700,3.865892578125,0.0066933524794876575,-0.005485148169100285,0.0030749603174626827
1772562167706876000,3.8758759765625,0.012787966057658195,-0.014842498116195202,0.00046090129762887955
1772562167716857600,3.885857666015625,0.012345881201326847,-0.017730694264173508,0.004746460355818272
1772562167726840800,3.8958408203125,0.01218434888869524,-0.01840527541935444,0.00411142548546195
1772562167736823800,3.90582373046875,0.009244218468666077,-0.015406821854412556,0.009440410882234573
1772562167746805800,3.9158056640625,0.009709958918392658,-0.004714093171060085,0.005771302618086338
1772562167756788700,3.925788818359375,0.01008386630564928,0.0004785379860550165,0.0003011696971952915
1772562167766770700,3.935770751953125,0.006803441792726517,0.0067788418382406235,-0.005015882663428783
1772562167776753700,3.945753662109375,0.005582914687693119,0.011611414141952991,-0.008775467053055763
1772562167786735900,3.95573583984375,0.009982069954276085,0.01312941499054432,-0.009685598313808441
1772562167796718800,3.96571875,0.010214563459157944,0.012964032590389252,-0.005749445408582687
1772562167806700800,3.97570068359375,0.011512844823300838,0.009808254428207874,-0.0036006858572363853
1772562167816683800,3.985683837890625,0.012976517900824547,-0.0036188713274896145,0.003301961813122034
1772562167826665700,3.995665771484375,0.01232470478862524,-0.004489656537771225,0.015767671167850494
1772562167836648700,4.005648681640625,0.013105276972055435,-0.009207179769873619,0.019745901226997375
1772562167846631000,4.015630859375,0.012839226983487606,-0.012389125302433968,0.018880106508731842
1772562167856613600,4.025613525390625,0.00850013829767704,-0.010823452845215797,0.02066975086927414
1772562167866595800,4.035595947265625,0.0036753753665834665,-0.00583428842946887,0.014966683462262154
1772562167876578800,4.045578857421875,0.001948315417394042,-0.0005266082007437944,0.006951901130378246
1772562167886560800,4.055560791015625,-0.001670284429565072,0.004972419701516628,0.009544599801301956
1772562167896543700,4.065543701171875,-0.001999451080337167,-0.0005541724385693669,0.009921969845890999
1772562167906526000,4.07552587890625,-0.0028921940829604864,-0.009802998043596745,0.010442162863910198
1772562167916508700,4.0855087890625,-0.0038610517513006926,-0.018928583711385727,0.01066293939948082
1772562167926491000,4.095490966796875,-0.004146798979490995,-0.021720442920923233,0.013258866034448147
1772562167936473900,4.105473876953125,-0.004817915614694357,-0.025045134127140045,0.017960144206881523
1772562167946455800,4.115455810546875,-0.008566068485379219,-0.021748274564743042,0.01243832428008318
1772562167956438800,4.125438720703125,-0.009019073098897934,-0.017071496695280075,0.000014944002032279968
1772562167966420700,4.135420654296875,-0.007717565167695284,-0.012240123003721237,-0.004863678477704525
1772562167976403700,4.14540380859375,-0.00791889987885952,-0.005658653099089861,-0.010756720788776875
1772562167986386000,4.155385986328125,-0.008285659365355968,-0.000124071491882205,-0.011553582735359669
1772562167996368600,4.16536865234375,-0.00868140533566475,0.00641319015994668,-0.007383340038359165
1772562168006350800,4.175350830078125,-0.006671178620308638,0.016939133405685425,-0.004419829696416855
1772562168016333800,4.185333740234375,-0.004723875317722559,0.02358505129814148,-0.0029670754447579384
1772562168026315800,4.195315673828125,-0.0023781524505466223,0.02614481747150421,-0.0008529140613973141
1772562168036298800,4.205298828125,-0.003957673907279968,0.020675482228398323,-0.0029040807858109474
1772562168046281700,4.21528173828125,-0.0034738313406705856,0.006680442951619625,-0.0073955850675702095
1772562168056263700,4.225263671875,0.0014974913792684674,-0.011844239197671413,-0.007534336298704147
1772562168066246700,4.23524658203125,-0.0007776247803121805,-0.030604742467403412,-0.006049066316336393
1772562168076228900,4.245228759765625,0.0009901814628392458,-0.040682945400476456,-0.007635244634002447
1772562168086211600,4.255211669921875,0.001245688064955175,-0.043069541454315186,-0.012738273479044437
1772562168096193800,4.26519384765625,0.0029455837793648243,-0.03782045096158981,-0.010801888071000576
1772562168106176800,4.2751767578125,0.000145704485476017,-0.018567927181720734,-0.007695395965129137
1772562168116158700,4.28515869140625,-0.0001507052220404148,-0.008145113475620747,-0.0036716260947287083
1772562168126141700,4.2951416015625,0.0022667227312922478,0.0014573154039680958,-0.002922949381172657
1772562168136123600,4.30512353515625,0.0030001571867614985,0.004568952601402998,-0.0036481283605098724
1772562168146106600,4.315106689453125,0.005405140109360218,0.00124093156773597,0.003957754001021385
1772562168156088800,4.3250888671875,0.005706876516342163,-0.0010488543193787336,0.001505515305325389
1772562168166071600,4.335071533203125,0.005996820982545614,0.0005588301573880017,0.006140002049505711
1772562168176053800,4.3450537109375,0.004510244354605675,0.00469605065882206,0.0070119211450219154
1772562168186036700,4.35503662109375,0.006368180736899376,0.006959004793316126,0.00848570466041565
1772562168196018700,4.365018798828125,0.0037449668161571026,0.011796636506915092,0.003305057529360056
1772562168206003700,4.375003662109375,0.004615065176039934,0.016130734235048294,0.0006452505476772785
1772562168215986700,4.384986572265625,0.005382055416703224,0.018109729513525963,-0.003003546968102455
1772562168225969000,4.394968994140625,0.005940240807831287,0.009614243172109127,-0.004412352107465267
1772562168235951600,4.40495166015625,0.007150114513933659,-0.0030139347072690725,-0.0030410904437303543
1772562168245933800,4.414933837890625,0.012807578779757023,-0.011742244474589825,0.01031675934791565
1772562168255916800,4.424916748046875,0.012996130622923374,-0.015203820541501045,0.018156839534640312
1772562168265898800,4.434898681640625,0.014851617626845837,-0.005924169905483723,0.028926465660333633
1772562168275881700,4.4448818359375,0.016514496877789497,0.000956106698140502,0.028012201189994812
1772562168285863700,4.45486376953125,0.016420412808656693,0.006757470779120922,0.01808984950184822
1772562168295846700,4.4648466796875,0.014845152385532856,0.0009874661918729544,0.006292578298598528
1772562168305828900,4.474828857421875,0.01700870506465435,-0.0017755633452907205,-0.009409685619175434
1772562168315811600,4.4848115234375,0.01761244237422943,-0.006703210528939962,-0.010114890523254871
1772562168325793800,4.494793701171875,0.015569542534649372,-0.003825997933745384,-0.012150200083851814
1772562168335776800,4.50477685546875,0.012670425698161125,-0.004171143285930157,-0.02107844687998295
1772562168345758700,4.5147587890625,0.007826348766684532,-0.0006405232707038522,-0.018037840723991394
1772562168355741700,4.52474169921875,0.008211974054574966,0.003417601343244314,-0.021518860012292862
1772562168365724000,4.534723876953125,0.006388806737959385,0.008609499782323837,-0.01766563020646572
1772562168375706600,4.54470654296875,-0.0002573784440755844,0.012492654845118523,-0.012370467185974121
1772562168385689900,4.55468994140625,-0.0017754791770130396,0.014266318641602993,-0.006145680323243141
1772562168395671800,4.564671875,-0.0002774512395262718,0.009338139556348324,0.0012754842173308134
1772562168405654800,4.57465478515625,-0.0014324190560728312,0.009960855357348919,0.014805302023887634
1772562168415636700,4.58463671875,-0.0010843437630683184,0.009679093025624752,0.02019873447716236
1772562168425620000,4.594619873046875,-0.005874392110854387,0.0041311271488666534,0.019525816664099693
1772562168435601700,4.6046015625,-0.00613245228305459,0.006540488917380571,0.020093869417905807
1772562168445585000,4.6145849609375,-0.007928135804831982,0.004500043578445911,0.014972813427448273
1772562168455566600,4.624566650390625,-0.0116445766761899,0.0031865728087723255,0.007906915619969368
1772562168465549800,4.6345498046875,-0.01092589646577835,0.0018164407229050994,0.002375037409365177
1772562168475531800,4.64453173828125,-0.010231344029307365,0.001223088474944234,-0.0019110538996756077
1772562168485514800,4.6545146484375,-0.012760109268128872,0.00040796236135065556,-0.0033584516495466232
1772562168495496700,4.66449658203125,-0.011602699756622314,-0.008759169839322567,0.0008157873526215553
1772562168505480000,4.67447998046875,-0.012979480437934399,-0.01875687763094902,-0.0026258686557412148
1772562168515461600,4.684461669921875,-0.011557352729141712,-0.022012857720255852,0.0012423726730048656
1772562168525444900,4.69444482421875,-0.010452335700392723,-0.018670525401830673,-0.0007766257040202618
1772562168535426800,4.7044267578125,-0.015058537945151329,-0.016708308830857277,-0.002844303846359253
1772562168545409800,4.714409912109375,-0.016446342691779137,-0.01670331507921219,-0.005007223226130009
1772562168555391700,4.724391845703125,-0.0159912072122097,-0.002684701234102249,-0.0018521756865084171
1772562168565375000,4.734375,-0.016698522493243217,0.010644091293215752,0.006968344561755657
1772562168575356700,4.744356689453125,-0.01605270616710186,0.019684191793203354,0.015159429050981998
1772562168585340000,4.75433984375,-0.01645393669605255,0.023379990831017494,0.02175327017903328
1772562168595321600,4.764321533203125,-0.01656925119459629,0.023046297952532768,0.019360153004527092
1772562168605304800,4.774304931640625,-0.015378988347947598,0.020582005381584167,0.009367144666612148
1772562168615286800,4.784286865234375,-0.01728927344083786,0.01801951229572296,-0.0016604727134108543
1772562168625269800,4.794269775390625,-0.013521486893296242,0.010085223242640495,-0.01245871651917696
1772562168635251700,4.804251708984375,-0.014586752280592918,0.0005681512411683798,-0.015544786117970943
1772562168645235000,4.81423486328125,-0.015120714902877808,-0.016515761613845825,-0.015301640145480633
1772562168655216600,4.824216552734375,-0.012035708874464035,-0.03375014290213585,-0.014533317647874355
1772562168665199900,4.834199951171875,-0.011371782049536705,-0.03675578534603119,-0.00854440126568079
1772562168675182800,4.844182861328125,-0.015351345762610435,-0.03241083770990372,-0.002973334863781929
1772562168685164800,4.854164794921875,-0.013063423335552216,-0.016040120273828506,0.0018115665297955275
1772562168695147800,4.864147705078125,-0.019139425829052925,0.0017910748720169067,0.006367436144500971
1772562168705130000,4.8741298828125,-0.018531842157244682,0.014084628783166409,0.008196860551834106
1772562168715112700,4.88411279296875,-0.01750226505100727,0.01966421864926815,0.008236009627580643
1772562168725095000,4.894094970703125,-0.01394055224955082,0.014936769381165504,0.010528082959353924
1772562168735078000,4.904077880859375,-0.013684889301657677,0.013633152469992638,0.01330363005399704
1772562168745059800,4.914059814453125,-0.009751422330737114,0.0065018730238080025,0.013558737933635712
1772562168755042800,4.924042724609375,-0.010424401611089706,0.003409410361200571,0.014109480194747448
1772562168765024800,4.934024658203125,-0.008079050108790398,0.0047991154715418816,0.010594405233860016
1772562168775007700,4.9440078125,-0.008190371096134186,0.003005476202815771,0.004435312934219837
1772562168784990000,4.953989990234375,-0.011587617918848991,0.0038467044942080975,0.00572615023702383
1772562168794972700,4.96397265625,-0.01235993392765522,0.005760984495282173,0.0030965448822826147
1772562168804954600,4.97395458984375,-0.01138739101588726,0.010553806088864803,0.0031789455097168684
1772562168814937600,4.9839375,-0.008301053196191788,0.01239804457873106,0.004544880706816912
1772562168824919600,4.99391943359375,-0.010504266247153282,0.005161836743354797,0.0076759811490774155
1772562168834902500,5.003902587890625,-0.0064048622734844685,-0.002593022072687745,0.015415660105645657
1772562168844884700,5.013884765625,-0.001235312782227993,-0.007480919361114502,0.023481782525777817
1772562168854867500,5.023867431640625,0.0011231827083975077,-0.004262489266693592,0.028544984757900238
1772562168864849700,5.033849609375,0.0027336496859788895,-0.0016673060599714518,0.031161200255155563
1772562168874832600,5.04383251953125,0.004796267952769995,0.00378232030197978,0.026946213096380234
1772562168884814600,5.053814697265625,0.004778424743562937,0.001955125480890274,0.01584536023437977
1772562168894797600,5.063797607421875,0.005216248333454132,-0.0011815456673502922,0.005568754393607378
1772562168904779800,5.07377978515625,0.004716918803751469,-0.005202712491154671,-0.004081090446561575
1772562168914762500,5.083762451171875,0.006607497110962868,-0.008614222519099712,-0.010468682274222374
1772562168924744700,5.09374462890625,0.006716087460517883,-0.01608426123857498,-0.01632928103208542
1772562168934727700,5.103727783203125,0.005355478264391422,-0.01565495878458023,-0.016952991485595703
1772562168944710400,5.11371044921875,0.001903423690237105,-0.012503772042691708,-0.010324189439415932
1772562168954692600,5.123692626953125,0.0028256764635443687,-0.015839114785194397,-0.008877825923264027
1772562168964675600,5.133675537109375,0.003529537469148636,-0.010320517234504223,-0.00641093123704195
1772562168974657500,5.143657470703125,0.0044611115008592606,-0.0010428624227643013,0.002366048516705632
1772562168984640500,5.153640625,0.002043645828962326,0.003549426794052124,0.007461485452950001
1772562168994622500,5.16362255859375,0.002585066482424736,0.001177881844341755,0.006290227174758911
1772562169004605400,5.17360546875,0.00508477259427309,-0.0029227212071418762,0.008571824990212917
1772562169014587600,5.183587646484375,0.005128447897732258,-0.005616774782538414,0.00843706913292408
1772562169024570400,5.1935703125,0.006234699860215187,-0.011949567124247551,0.011812439188361168
1772562169034552600,5.203552490234375,0.005192871205508709,-0.02091722935438156,0.014331256970763206
1772562169044535600,5.21353564453125,0.0036062707658857107,-0.018518390133976936,0.010160603560507298
1772562169054517500,5.223517578125,0.002845405600965023,-0.02191205509006977,0.009974448941648006
1772562169064500500,5.23350048828125,-0.00027337903156876564,-0.01816685125231743,0.005776022560894489
1772562169074482700,5.243482666015625,-0.0035045924596488476,-0.012662365101277828,0.004394907504320145
1772562169084465400,5.25346533203125,-0.005341651383787394,-0.01157599501311779,0.007283227518200874
1772562169094447600,5.263447509765625,-0.006986153777688742,-0.012910771183669567,0.003938829526305199
1772562169104430600,5.2734306640625,-0.005973641760647297,-0.014379637315869331,0.0010143881663680077
1772562169114412500,5.28341259765625,-0.004850585944950581,-0.014241419732570648,-0.003241076599806547
1772562169124395500,5.2933955078125,-0.001855712616816163,-0.018236562609672546,-0.007379466667771339
1772562169134377500,5.30337744140625,-0.0066952090710401535,-0.008071277290582657,-0.00843407865613699
1772562169144360400,5.3133603515625,-0.005215238779783249,-0.0036150761879980564,-0.013610543683171272
1772562169154342700,5.3233427734375,-0.004915366880595684,0.010167048312723637,-0.0049483454786241055
1772562169164325400,5.333325439453125,-0.0055242376402020454,0.01649145781993866,0.0024686139076948166
1772562169174307600,5.3433076171875,-0.008043854497373104,0.016348712146282196,0.010359560139477253
1772562169184290600,5.35329052734375,-0.0060914913192391396,0.007931258529424667,0.012104995548725128
1772562169194272500,5.3632724609375,-0.00017474638298153877,0.0039160107262432575,0.010348641313612461
1772562169204255500,5.37325537109375,0.0005198479630053043,-0.004454837646335363,0.004895330872386694
1772562169214238700,5.38323876953125,0.0029329382814466953,-0.01001498568803072,-0.0014323396608233452
1772562169224220400,5.393220458984375,0.003921311814337969,-0.014784837141633034,-0.009037470445036888
1772562169234203600,5.40320361328125,0.005214543081820011,-0.01897851750254631,-0.015938786789774895
1772562169244185600,5.413185546875,0.0006801672279834747,-0.025552328675985336,-0.02505926787853241
1772562169254168600,5.42316845703125,0.002424537669867277,-0.0323236808180809,-0.02884521707892418
1772562169264150500,5.433150634765625,0.004754018038511276,-0.030810343101620674,-0.022393137216567993
1772562169274133800,5.4431337890625,-0.0004934747703373432,-0.027077391743659973,-0.011234759353101254
1772562169284115500,5.453115478515625,-0.0022865913342684507,-0.022292159497737885,-0.0008304654620587826
1772562169294098700,5.4630986328125,-0.004945225082337856,-0.006852481514215469,0.010692499577999115
1772562169304080400,5.473080322265625,-0.0035882045049220324,-0.008277270942926407,0.017954537644982338
1772562169314063600,5.483063720703125,-0.002060615224763751,-0.010403272695839405,0.021168971434235573
1772562169324045600,5.493045654296875,-0.0028282038401812315,-0.006941028870642185,0.02844412438571453
1772562169334028500,5.503028564453125,0.004476048052310944,0.004227736033499241,0.026902154088020325
1772562169344010500,5.513010498046875,-0.0020512945484369993,0.0067461528815329075,0.027545643970370293
1772562169353993700,5.52299365234375,0.0005306403618305922,0.01309912372380495,0.028641801327466965
1772562169363975400,5.532975341796875,-0.0008312049321830273,0.010981576517224312,0.02240891009569168
1772562169373958700,5.542958740234375,-0.0027380280662328005,0.004802776500582695,0.011354128830134869
1772562169383940400,5.5529404296875,0.0003946272190660238,-0.008581871166825294,0.003144379472360015
1772562169393923600,5.562923583984375,0.0025840119924396276,-0.008467089384794235,-0.0015877913683652878
1772562169403905500,5.572905517578125,-0.0002382686361670494,-0.011034374125301838,-0.004791714251041412
1772562169413888800,5.582888671875,0.0020824100356549025,-0.019178587943315506,-0.007417324930429459
1772562169423870500,5.592870361328125,-0.0016879490576684475,-0.02531404048204422,-0.005876688752323389
1772562169433853700,5.602853759765625,0.0008828002028167248,-0.02001861110329628,-0.0011485125869512558
1772562169443835400,5.61283544921875,0.001623676042072475,-0.012210695073008537,0.0004370100796222687
1772562169453818600,5.622818603515625,0.0024412665516138077,-0.0030467575415968895,0.0026884463150054216
1772562169463800600,5.632800537109375,0.0038149666506797075,-0.0021988071966916323,0.005274953320622444
1772562169473783600,5.642783447265625,0.003498583100736141,-0.00395143311470747,0.005943673197180033
1772562169483766500,5.6527666015625,0.005657214671373367,-0.000238718930631876,0.006760593503713608
1772562169493748700,5.662748779296875,0.0074420650489628315,-0.005098987836390734,0.0015240197535604239
1772562169503731500,5.6727314453125,0.006435720715671778,-0.01394268125295639,-0.00023066718131303787
1772562169513713700,5.682713623046875,0.0030812029726803303,-0.01893317885696888,-0.0047063762322068214
1772562169523696600,5.692696533203125,0.004065272398293018,-0.021135812625288963,-0.011404324322938919
1772562169533678600,5.7026787109375,0.004422934725880623,-0.01738128811120987,-0.011373965069651604
1772562169543661600,5.71266162109375,0.0008256642613559961,-0.018371649086475372,-0.01789579726755619
1772562169553643500,5.7226435546875,0.0030821606051176786,-0.01667548157274723,-0.011430975049734116
1772562169563626500,5.73262646484375,0.00008364277891814709,-0.01766345091164112,-0.009786654263734818
1772562169573608700,5.742608642578125,0.001749449991621077,-0.0197103563696146,-0.006713366601616144
1772562169583591400,5.75259130859375,-0.0011329518165439367,-0.01942579634487629,0.002720549004152417
1772562169593573600,5.76257373046875,0.0012071679811924696,-0.019962957128882408,0.005278781522065401
1772562169603556600,5.772556640625,-0.0009148598182946444,-0.022579379379749298,0.008443126454949379
1772562169613538600,5.78253857421875,-0.0006299014203250408,-0.020931415259838104,0.0025021471083164215
1772562169623521500,5.792521484375,-0.0010946022812277079,-0.01793069764971733,-0.0020627547055482864
1772562169633503700,5.802503662109375,-0.0045575108379125595,-0.020314227789640427,-0.009575798176229
1772562169643486500,5.812486572265625,-0.0073801008984446526,-0.022697221487760544,-0.010062811896204948
1772562169653468700,5.82246875,-0.010216900147497654,-0.017903264611959457,-0.008011380210518837
1772562169663451600,5.83245166015625,-0.016792265698313713,-0.011070791631937027,-0.010587479919195175
1772562169673433600,5.84243359375,-0.016490263864398003,-0.016079131513834,-0.0119089400395751
1772562169683416600,5.85241650390625,-0.017156722024083138,-0.018448548391461372,-0.01694030687212944
1772562169693398500,5.8623984375,-0.015266411006450653,-0.019377725198864937,-0.013965023681521416
1772562169703381500,5.872381591796875,-0.013122843578457832,-0.01990549825131893,-0.010186407715082169
1772562169713363700,5.88236376953125,-0.015543922781944275,-0.023477328941226006,-0.009460696950554848
1772562169723346400,5.892346435546875,-0.009247716516256332,-0.02150166593492031,-0.010101476684212685
1772562169733328600,5.90232861328125,-0.006635155063122511,-0.013713517226278782,-0.010707611218094826
1772562169743311600,5.9123115234375,-0.007251127623021603,-0.006627109833061695,-0.012640534900128841
1772562169753294600,5.922294677734375,-0.007964321412146091,-0.004069409798830748,-0.017932500690221786
1772562169763276500,5.932276611328125,-0.0046992115676403046,0.0008338014013133943,-0.015760213136672974
1772562169773259500,5.942259521484375,-0.004456597380340099,0.009196126833558083,-0.01807689666748047
1772562169783241500,5.952241455078125,-0.006517469417303801,0.0032023522071540356,-0.012761490419507027
1772562169793224400,5.962224365234375,-0.008674364537000656,-0.0035122758708894253,-0.004243102855980396
1772562169803206400,5.972206298828125,-0.005771719850599766,-0.006208061706274748,-0.000854425597935915
1772562169813189400,5.982189453125,-0.005600478500127792,-0.007267999928444624,-0.0021053124219179153
1772562169823171300,5.99217138671875,-0.004308546893298626,-0.013345800340175629,-0.006512143649160862
1772562169833154600,6.002154541015625,-0.005238256882876158,-0.016809774562716484,-0.011659500189125538
1772562169843136300,6.01213623046875,-0.008679967373609543,-0.01849701628088951,-0.015559818595647812
1772562169853119500,6.022119384765625,-0.010029656812548637,-0.030082033947110176,-0.01903737336397171
1772562169863101200,6.03210107421875,-0.0107047688215971,-0.039768487215042114,-0.02223236858844757
1772562169873084400,6.04208447265625,-0.010383857414126396,-0.03912080451846123,-0.022674452513456345
1772562169883066400,6.05206640625,-0.010314742103219032,-0.030126046389341354,-0.015219448134303093
1772562169893049300,6.06204931640625,-0.013716663233935833,-0.01795060560107231,-0.004126050043851137
1772562169903031300,6.07203125,-0.019314290955662727,-0.005125022027641535,-0.0009995540603995323
1772562169913014500,6.0820146484375,-0.016419168561697006,0.00803285837173462,0.006133722607046366
1772562169922996200,6.091996337890625,-0.016692696139216423,0.010999219492077827,0.008593662641942501
1772562169932979500,6.1019794921875,-0.019103122875094414,0.009001849219202995,0.010532177984714508
1772562169942961200,6.111961181640625,-0.01579444110393524,0.008399642072618008,0.009193772450089455
1772562169952944400,6.1219443359375,-0.009879827499389648,0.007623862940818071,0.011641217395663261
1772562169962926300,6.13192626953125,-0.01016956940293312,0.004298307001590729,0.0053632259368896484
1772562169972909300,6.141909423828125,-0.006290675140917301,-0.0019289625342935324,0.00031706830486655235
1772562169982892300,6.151892333984375,-0.006575560197234154,-0.002843425842002034,-0.00445191003382206
1772562169992874500,6.16187451171875,-0.0037193207535892725,-0.008035258390009403,-0.005745939910411835
1772562170002857200,6.171857177734375,-0.0006097685545682907,-0.007853295654058456,-0.009969020262360573
1772562170012839400,6.18183935546875,-0.0013559863436967134,-0.009582219645380974,-0.015873514115810394
1772562170022822400,6.191822509765625,-0.0019545366521924734,-0.012736468575894833,-0.012559071183204651
1772562170032804400,6.201804443359375,-0.0024639994371682405,-0.013962854631245136,-0.009958494454622269
1772562170042787300,6.211787353515625,0.0005322701763361692,-0.011224259622395039,-0.00657327426597476
1772562170052769500,6.22176953125,-0.0011007804423570633,-0.00203981576487422,-0.0025082253850996494
1772562170062752300,6.231752197265625,-0.001698299078270793,0.006555469240993261,0.004093186929821968
1772562170072734500,6.241734375,-0.004213388077914715,0.008355766534805298,0.005437550600618124
1772562170082717400,6.251717529296875,-0.004344712942838669,0.0038413754664361477,0.0027585101779550314
1772562170092699400,6.261699462890625,-0.0025361606385558844,-0.006875184364616871,-0.002837057691067457
1772562170102682400,6.271682373046875,0.0007027550600469112,-0.010581905953586102,-0.0072150505147874355
1772562170112664300,6.281664306640625,-0.0003324158024042845,-0.015304489992558956,-0.009012950584292412
1772562170122647300,6.291647216796875,-0.00010870001278817654,-0.015914153307676315,-0.012040287256240845
1772562170132629500,6.30162939453125,-0.0017979431431740522,-0.009975037537515163,-0.017083782702684402
1772562170142612200,6.3116123046875,-0.0005708432290703058,-0.006169112864881754,-0.015214867889881134
1772562170152594400,6.321594482421875,0.0011168019846081734,-0.005147258285433054,-0.016263354569673538
1772562170162577400,6.331577392578125,-0.0007220152765512466,0.0011571754002943635,-0.01427160669118166
1772562170172559400,6.341559326171875,0.003618404734879732,0.0030813091434538364,-0.007328744977712631
1772562170182542300,6.351542236328125,0.00461573014035821,0.0069135380908846855,-0.001956807915121317
1772562170192524500,6.361524658203125,0.006610171869397163,0.0032024229876697063,-0.00010804133489727974
1772562170202507300,6.37150732421875,0.00911945104598999,0.0015181666240096092,-0.0028447583317756653
1772562170212489500,6.381489501953125,0.008973509073257446,0.006907605566084385,0.005091728176921606
1772562170222472400,6.391472412109375,0.011502405628561974,0.011238704435527325,0.01585032045841217
1772562170232455200,6.401455078125,0.009306362830102444,0.016633469611406326,0.01981310546398163
1772562170242437400,6.411437255859375,0.008993346244096756,0.012528542429208755,0.028121663257479668
1772562170252420400,6.42142041015625,0.013837901875376701,0.009858191013336182,0.026888353750109673
1772562170262402300,6.43140234375,0.012781605124473572,0.0070343720726668835,0.022791672497987747
1772562170272385300,6.44138525390625,0.01322342362254858,0.0024164505302906036,0.01323997974395752
1772562170282367200,6.4513671875,0.014228928834199905,-0.0005608294159173965,0.006741488352417946
1772562170292350200,6.46135009765625,0.012518913485109806,-0.005806457716971636,-0.0075037600472569466
1772562170302332400,6.47133251953125,0.014719195663928986,-0.0063727786764502525,-0.01609753631055355
1772562170312315100,6.481315185546875,0.011342307552695274,-0.01038536336272955,-0.019729822874069214
1772562170322297300,6.49129736328125,0.014702246524393559,-0.0070333098992705345,-0.024491319432854652
1772562170332280300,6.5012802734375,0.01630759984254837,-0.0012401361018419266,-0.02014237828552723
1772562170342262300,6.51126220703125,0.01712696999311447,-0.00014717376325279474,-0.012650462798774242
1772562170352245200,6.521245361328125,0.017035624012351036,0.003909885883331299,-0.007107093930244446
1772562170362227500,6.5312275390625,0.020076433196663857,0.01591721922159195,0.003536615055054426
1772562170372210200,6.541210205078125,0.021444233134388924,0.02692699432373047,0.019114242866635323
1772562170382192400,6.5511923828125,0.023779915645718575,0.031779006123542786,0.021177228540182114
1772562170392175400,6.56117529296875,0.022746343165636063,0.027001824229955673,0.02055671066045761
1772562170402157300,6.5711572265625,0.024113589897751808,0.020736534148454666,0.01475595124065876
1772562170412140300,6.581140380859375,0.02700631506741047,0.019125323742628098,0.008475151844322681
1772562170422122200,6.591122314453125,0.02690146118402481,0.01874409429728985,0.004013350233435631
1772562170432105200,6.601105224609375,0.028325187042355537,0.024313030764460564,-0.0027707861736416817
1772562170442087400,6.61108740234375,0.02864351123571396,0.01777556911110878,-0.005627342965453863
1772562170452070100,6.621070068359375,0.026198729872703552,0.004807038698345423,-0.013620555400848389
1772562170462053400,6.631053466796875,0.028446383774280548,-0.009423761628568172,-0.017214149236679077
1772562170472035300,6.641035400390625,0.03427631035447121,-0.018803680315613747,-0.014314766973257065
1772562170482018300,6.651018310546875,0.03562958911061287,-0.018839901313185692,-0.016963673755526543
1772562170492000300,6.661000244140625,0.0334298200905323,-0.009689812548458576,-0.009073525667190552
1772562170501983500,6.6709833984375,0.029231639578938484,0.0024463501758873463,-0.0005335635505616665
1772562170511965200,6.680965087890625,0.027599388733506203,0.01569504290819168,0.007397329900413752
1772562170521948400,6.690948486328125,0.02799193188548088,0.02879139967262745,0.012323398143053055
1772562170531930000,6.70093017578125,0.024834753945469856,0.03371212258934975,0.018751736730337143
1772562170541913300,6.710913330078125,0.024957749992609024,0.02807900309562683,0.019429732114076614
1772562170551895300,6.720895263671875,0.019688952714204788,0.01905834674835205,0.01790720224380493
1772562170561878500,6.73087841796875,0.016334794461727142,0.013203655369579792,0.017043616622686386
1772562170571860200,6.740860107421875,0.015254084020853043,0.008838734589517117,0.01935523934662342
1772562170581843500,6.750843505859375,0.011635590344667435,0.013347001746296883,0.01552142295986414
1772562170591825200,6.7608251953125,0.004940936341881752,0.016737738624215126,0.016190409660339355
1772562170601808400,6.770808349609375,0.0012083055917173624,0.0159861259162426,0.012317569926381111
1772562170611790300,6.780790283203125,-0.001512646209448576,0.01599225215613842,0.011760169640183449
1772562170621773300,6.790773193359375,-0.007638982031494379,0.006319383624941111,0.01249546930193901
1772562170631755300,6.80075537109375,-0.004748919513076544,0.0009184932569041848,0.01243581436574459
1772562170641738500,6.810738525390625,-0.00952865369617939,0.004954651929438114,0.018114827573299408
1772562170651720200,6.82072021484375,-0.007466567680239677,0.008912642486393452,0.0202336385846138
1772562170661703400,6.830703369140625,-0.009780705906450748,0.024983877316117287,0.023696471005678177
1772562170671685000,6.84068505859375,-0.013900616206228733,0.02868247590959072,0.01866309717297554
1772562170681668400,6.85066845703125,-0.015398760326206684,0.02610020898282528,0.01851050741970539
1772562170691650300,6.860650390625,-0.013341200537979603,0.018136292695999146,0.015230823308229446
1772562170701633300,6.87063330078125,-0.008829636499285698,0.005335344932973385,0.010701878927648067
1772562170711616300,6.8806162109375,-0.010566283948719501,0.0005464486312121153,0.008229134604334831
1772562170721598500,6.890598388671875,-0.008174844086170197,-0.0037468981463462114,0.006256311200559139
1772562170731581200,6.900581298828125,-0.006243785377591848,-0.0014137024991214275,0.004474123474210501
1772562170741563400,6.9105634765625,-0.007062522228807211,0.0035120095126330853,0.007387693040072918
1772562170751546400,6.92054638671875,-0.009911837056279182,0.011501758359372616,0.00281344773247838
1772562170761528300,6.9305283203125,-0.013541193678975105,0.013232546858489513,0.00863378681242466
1772562170771511300,6.94051123046875,-0.0126104187220335,0.013446665368974209,0.008886519819498062
1772562170781493500,6.950493408203125,-0.010413195937871933,0.010005464777350426,0.009178767912089825
1772562170791476200,6.960476318359375,-0.008273079991340637,0.011952768079936504,0.01405954360961914
1772562170801458400,6.97045849609375,-0.008186109364032745,0.014781175181269646,0.019721858203411102
1772562170811441400,6.98044140625,-0.011141153052449226,0.019187908619642258,0.02062040939927101
1772562170821423400,6.99042333984375,-0.01345826406031847,0.023282650858163834,0.017720604315400124
1772562170831406300,7.00040625,-0.012219894677400589,0.025759389623999596,0.009379317052662373
1772562170841388300,7.01038818359375,-0.016077186912298203,0.026831716299057007,0.005426398944109678
1772562170851371300,7.020371337890625,-0.01751263067126274,0.023682262748479843,-0.0012405584566295147
1772562170861353500,7.030353515625,-0.017885994166135788,0.018392624333500862,-0.003955505788326263
1772562170871336200,7.040336181640625,-0.013919214718043804,0.00841881986707449,-0.006624259054660797
1772562170881318400,7.050318359375,-0.01338869147002697,0.00014078221283853054,-0.010001123882830143
1772562170891301400,7.06030126953125,-0.010471997782588005,-0.0029000150971114635,-0.009363030083477497
1772562170901283300,7.070283447265625,-0.007695796899497509,-0.006485625170171261,-0.002165067009627819
1772562170911266300,7.080266357421875,-0.005655549466609955,-0.004031787626445293,-0.0017658588476479053
1772562170921249300,7.090249267578125,-0.00565001368522644,0.00075876759365201,-0.0020131669007241726
1772562170931231200,7.100231201171875,-0.005475043319165707,0.0014911368489265442,0.0043629733845591545
1772562170941214200,7.110214111328125,-0.0029319697059690952,0.004931541159749031,0.005697506479918957
1772562170951196400,7.120196533203125,-0.00577276386320591,0.005269229877740145,0.0010015545412898064
1772562170961179100,7.13017919921875,-0.006355729885399342,0.007664476986974478,0.00216695386916399
1772562170971161300,7.140161376953125,-0.007207142189145088,0.020645789802074432,-0.0028054341673851013
1772562170981144300,7.150144287109375,-0.0035261528100818396,0.026276711374521255,-0.005562240723520517
1772562170991126300,7.160126220703125,-0.0020174721721559763,0.03471866622567177,-0.0018266248516738415
1772562171001109200,7.170109130859375,-0.0016151119489222765,0.03664280101656914,0.003401912050321698
1772562171011091200,7.18009130859375,-0.0014004611875861883,0.03574664890766144,0.007246185094118118
1772562171021074200,7.19007421875,0.004460965283215046,0.034140825271606445,0.00720725255087018
1772562171031056400,7.200056396484375,0.009453060105443,0.02544400654733181,0.0057957773096859455
1772562171041039000,7.2100390625,0.010139703750610352,0.012694993056356907,0.0005287709645926952
1772562171051021300,7.220021240234375,0.011199908331036568,-0.0017515908693894744,-0.00702368700876832
1772562171061004300,7.23000439453125,0.012949364259839058,-0.029546407982707024,-0.014022556133568287
1772562171070986200,7.239986328125,0.017039712518453598,-0.03421013802289963,-0.017423145473003387
1772562171080969200,7.24996923828125,0.01995440572500229,-0.03843037784099579,-0.01934010535478592
1772562171090951400,7.259951416015625,0.018615899607539177,-0.03406199440360069,-0.015505153685808182
1772562171100934100,7.26993408203125,0.0158833060413599,-0.024002637714147568,-0.015417320653796196
1772562171110916400,7.279916259765625,0.010928494855761528,-0.007237774319946766,-0.012419134378433228
1772562171120899300,7.2898994140625,0.004789990838617086,0.007778529543429613,-0.007259593345224857
1772562171130881300,7.29988134765625,0.0030288423877209425,0.020109765231609344,-0.005224139429628849
1772562171140864300,7.3098642578125,0.0017670470988377929,0.025657789781689644,-0.0005396045744419098
1772562171150847500,7.319847412109375,0.0034831881057471037,0.024930480867624283,0.007699150592088699
1772562171160829200,7.3298291015625,0.0014844030374661088,0.01686243526637554,0.010339586064219475
1772562171170812400,7.3398125,0.005239460151642561,0.009810918010771275,0.013943109661340714
1772562171180794000,7.349794189453125,0.009069520980119705,0.011714620515704155,0.016465118154883385
1772562171190777300,7.35977734375,0.011828822083771229,0.012592398561537266,0.013832850381731987
1772562171200759300,7.36975927734375,0.007741893641650677,0.012972158379852772,0.005878773517906666
1772562171210742300,7.3797421875,0.008473729714751244,0.011582787148654461,-0.00005421694368124008
1772562171220724200,7.38972412109375,0.008557254448533058,0.009110111743211746,-0.004365053493529558
1772562171230707500,7.39970751953125,0.011800983920693398,0.008555907756090164,-0.001193495001643896
1772562171240689200,7.409689208984375,0.011351649649441242,0.005703724455088377,0.0019209005404263735
1772562171250672400,7.41967236328125,0.010559359565377235,-0.000913431984372437,0.012671282514929771
1772562171260654300,7.429654296875,0.010335568338632584,0.0029950246680527925,0.022013824433088303
1772562171270637300,7.43963720703125,0.010298283770680428,0.014951552264392376,0.022856716066598892
1772562171280619300,7.449619384765625,0.01028178259730339,0.02572770044207573,0.018596867099404335
1772562171290602500,7.4596025390625,0.007859105244278908,0.028248116374015808,0.01477576419711113
1772562171300584200,7.469584228515625,0.005577176809310913,0.021805932745337486,0.0077203712426126
1772562171310567400,7.4795673828125,0.010512013919651508,0.010460334829986095,0.004567721392959356
1772562171320549400,7.48954931640625,0.010233225300908089,-0.006257927045226097,-0.0067682405933737755
1772562171330532400,7.499532470703125,0.010592220351099968,-0.015127585269510746,-0.015544687397778034
1772562171340514300,7.509514404296875,0.0111171193420887,-0.015224527567625046,-0.0181745458394289
1772562171350497300,7.519497314453125,0.008254753425717354,-0.016851985827088356,-0.02050561085343361
1772562171360480300,7.529480224609375,0.00781320035457611,-0.010362589731812477,-0.022257065400481224
1772562171370462500,7.53946240234375,0.005278669763356447,-0.006829640828073025,-0.017866844311356544
1772562171380445200,7.549445068359375,0.004678002558648586,-0.0012674250174313784,-0.01135249063372612
1772562171390427400,7.559427490234375,0.0033522811718285084,-0.0036304478999227285,-0.0072280531749129295
1772562171400410400,7.569410400390625,0.005393729545176029,-0.0017587825423106551,0.0006614462472498417
1772562171410392300,7.579392333984375,0.005327949300408363,0.0008897311054170132,0.003795454278588295
1772562171420375300,7.589375244140625,0.00485769659280777,0.002717865165323019,0.0134550416842103
1772562171430357200,7.599357177734375,0.0013220837572589517,0.0008656367426738143,0.01925487443804741
1772562171440340200,7.60934033203125,0.002044845372438431,0.0033954286482185125,0.01618068665266037
1772562171450322400,7.619322509765625,-0.0008068676106631756,0.008877279236912727,0.014355088584125042
1772562171460305200,7.62930517578125,-0.0031500132754445076,0.012751251459121704,0.012225495651364326
1772562171470287400,7.639287353515625,-0.00642942963168025,0.012212494388222694,0.0057532149367034435
1772562171480270300,7.649270263671875,-0.00832225102931261,0.009847204200923443,0.001748524373397231
1772562171490252300,7.659252197265625,-0.008374981582164764,0.007646101992577314,0.00031174905598163605
1772562171500235300,7.6692353515625,-0.00727914460003376,0.0040658158250153065,-0.0005899239331483841
1772562171510217500,7.679217529296875,-0.0027653530705720186,0.005347062833607197,-0.002659732475876808
1772562171520200200,7.6892001953125,-0.002936925273388624,0.0012346729636192322,-0.00943392887711525
1772562171530182400,7.699182373046875,-0.0012234472669661045,-0.00546983489766717,-0.009587060660123825
1772562171540165400,7.709165283203125,-0.0038404061924666166,-0.006774449720978737,-0.010564189404249191
1772562171550147300,7.719147216796875,-0.0030278756748884916,-0.006765394471585751,-0.01350511983036995
1772562171560130300,7.72913037109375,-0.002024561632424593,0.0012163028586655855,-0.010717105120420456
1772562171570113500,7.739113525390625,-0.0035561453551054,0.012820228934288025,-0.010416434146463871
1772562171580095200,7.74909521484375,-0.006911206524819136,0.017600135877728462,-0.009881550446152687
1772562171590078500,7.759078369140625,-0.008423881605267525,0.017450999468564987,-0.00729615380987525
1772562171600060200,7.76906005859375,-0.003801578190177679,0.014384699054062366,0.004638805519789457
1772562171610043400,7.77904345703125,-0.00019752210937440395,0.013103718869388103,0.010049816220998764
1772562171620025300,7.789025390625,-0.0023987945169210434,0.004198572598397732,0.013049573637545109
1772562171630008300,7.79900830078125,-0.0005444353446364403,-0.0002984413877129555,0.011953949928283691
1772562171639990300,7.808990234375,0.0017829748103395104,-0.0010392668191343546,0.0019601169042289257
1772562171649973500,7.818973388671875,0.0015251807635650039,0.0005285360384732485,-0.010409999638795853
1772562171659955200,7.828955078125,-0.003705226816236973,-0.0008455846691504121,-0.023948024958372116
1772562171669938400,7.8389384765625,0.0002663454506546259,-0.0021646483801305294,-0.0312056727707386
1772562171679920400,7.84892041015625,-0.0019784632604569197,-0.008821888826787472,-0.03474555164575577
1772562171689903400,7.8589033203125,-0.005748700350522995,-0.024220552295446396,-0.03250131011009216
1772562171699885300,7.86888525390625,-0.0035287311766296625,-0.030192958191037178,-0.03239775449037552
1772562171709868500,7.87886865234375,-0.002588369185104966,-0.03469476476311684,-0.024795230478048325
1772562171719850200,7.888850341796875,-0.002290691016241908,-0.03172653913497925,-0.018550187349319458
1772562171729833500,7.89883349609375,-0.00441695936024189,-0.02487422339618206,-0.014783944934606552
1772562171739815200,7.908815185546875,-0.006071721203625202,-0.006790563464164734,-0.0028134332969784737
1772562171749798400,7.91879833984375,-0.008191331289708614,0.006262388080358505,0.0067827352322638035
1772562171759780400,7.9287802734375,-0.007222186308354139,0.017293671146035194,0.012637294828891754
1772562171769763300,7.938763427734375,-0.009492531418800354,0.023718547075986862,0.01339789293706417
1772562171779745300,7.948745361328125,-0.0075327735394239426,0.02240860089659691,0.00612409133464098
1772562171789728500,7.958728515625,-0.007983646355569363,0.019747570157051086,-0.005909668281674385
1772562171799711000,7.9687109375,-0.008851731196045876,0.013058445416390896,-0.014368440955877304
1772562171809693000,7.97869287109375,-0.009681571274995804,0.013208114542067051,-0.022727837786078453
1772562171819673000,7.988673095703125,-0.013053987175226212,0.0032945657148957253,-0.03328640013933182
1772562171829655800,7.99865576171875,-0.012939736247062683,0.0074293892830610275,-0.02649187669157982
1772562171839638000,8.008637939453125,-0.011671187356114388,0.004376073367893696,-0.02758687362074852
1772562171849621000,8.01862109375,-0.010742008686065674,0.00005269749090075493,-0.021434437483549118
1772562171859603000,8.02860302734375,-0.007284327410161495,-0.0032315747812390327,-0.008847324177622795
1772562171869586000,8.0385859375,-0.002133241156116128,-0.003153278026729822,-0.0035268617793917656
1772562171879568000,8.04856787109375,-0.0029843091033399105,0.0008330057607963681,0.0004782206378877163
1772562171889550800,8.05855078125,-0.000813300022855401,0.012668093666434288,-0.004114134237170219
1772562171899533000,8.068532958984376,0.0038374222349375486,0.019915886223316193,-0.008677144534885883
1772562171909515800,8.078515869140626,0.0031732297502458096,0.014115787111222744,-0.015890849754214287
1772562171919498000,8.088498046875,-0.00011107581667602062,0.009248857386410236,-0.025842096656560898
1772562171929481000,8.09848095703125,0.0030935059767216444,-0.0024133913684636354,-0.03444623947143555
1772562171939463000,8.108462890625,0.0027405202854424715,-0.011059941723942757,-0.038439374417066574
1772562171949446000,8.11844580078125,0.0030912586953490973,-0.014204069040715694,-0.038865748792886734
1772562171959429000,8.12842919921875,0.006253574043512344,-0.011990644969046116,-0.036966722458601
1772562171969410800,8.138410888671874,0.005373932421207428,-0.0073125362396240234,-0.031067289412021637
1772562171979394000,8.14839404296875,0.007659342139959335,-0.002253191312775016,-0.024211909621953964
1772562171989376000,8.1583759765625,0.00849797111004591,0.00707026943564415,-0.019230734556913376
1772562171999359000,8.16835888671875,0.004617384634912014,0.01552826352417469,-0.010236911475658417
1772562172009341000,8.1783408203125,0.007257642224431038,0.0151602141559124,-0.0074376631528139114
1772562172019324200,8.18832421875,0.009757074527442455,0.01474735513329506,-0.0071850004605948925
1772562172029305900,8.198305908203125,0.0090904850512743,0.0014941347762942314,-0.010222602635622025
1772562172039289000,8.2082890625,0.01026468351483345,-0.0004913185257464647,-0.013135422021150589
1772562172049270800,8.218270751953124,0.011595997959375381,-0.009588143788278103,-0.022187506780028343
1772562172059254000,8.22825390625,0.013887468725442886,-0.010997224599123001,-0.024684658274054527
1772562172069236000,8.238236083984376,0.008244230411946774,-0.00966591015458107,-0.026517443358898163
1772562172079219000,8.248218994140625,0.004681507125496864,-0.007317868061363697,-0.024053296074271202
1772562172089201000,8.258200927734375,0.00329293473623693,-0.004612362943589687,-0.02578062377870083
1772562172099184000,8.26818408203125,0.002541891299188137,-0.0037237321957945824,-0.015026412904262543
1772562172109165800,8.278165771484375,0.00031895097345113754,-0.006256664637476206,-0.008840955793857574
1772562172119149000,8.288149169921875,0.0015085097402334213,-0.004009288735687733,-0.005147633608430624
1772562172129130800,8.298130859375,0.0021423420403152704,-0.008193114772439003,-0.0032016620971262455
1772562172139114000,8.308114013671876,-0.0005706758238375187,-0.00676699448376894,-0.005994024686515331
1772562172149096000,8.318095947265626,-0.000579730374738574,-0.010193683207035065,-0.0051838913932442665
1772562172159079000,8.328078857421875,0.003372600767761469,-0.007316731382161379,-0.011283292435109615
1772562172169062000,8.338061767578125,0.000924356747418642,-0.0011152946390211582,-0.014631419442594051
1772562172179044000,8.348044189453125,-0.0006264925468713045,0.00257957074791193,-0.024053221568465233
1772562172189026800,8.35802685546875,-0.0004581806715577841,0.007739445194602013,-0.02282736822962761
1772562172199009000,8.368009033203125,0.004205215722322464,0.0171397402882576,-0.019920065999031067
1772562172208992000,8.377991943359374,0.002319431398063898,0.022640764713287354,-0.014058981090784073
1772562172218974000,8.387973876953126,0.0018835151568055153,0.024229340255260468,-0.01233666855841875
1772562172228957000,8.39795703125,0.003858515527099371,0.018182631582021713,-0.01287036668509245
1772562172238939100,8.407939208984375,0.0030795300845056772,0.011365539394319057,-0.00952904298901558
1772562172248924000,8.417923828125,0.003910969011485577,0.0067944894544780254,-0.012427359819412231
1772562172258907000,8.427906982421876,0.006595081649720669,0.0076997000724077225,-0.015062921680510044
1772562172268888800,8.437888916015625,0.006097336765378714,0.004907908383756876,-0.01468075904995203
1772562172278872000,8.4478720703125,0.0025602243840694427,-0.009638345800340176,-0.017394278198480606
1772562172288853800,8.457853759765625,0.006558694411069155,-0.02029471844434738,-0.019076328724622726
1772562172298837000,8.4678369140625,0.006409736350178719,-0.028627481311559677,-0.020577386021614075
1772562172308819000,8.47781884765625,0.005196134094148874,-0.03392397612333298,-0.021257556974887848
1772562172318802000,8.487802001953124,0.0015751958126202226,-0.03222774714231491,-0.015691237524151802
1772562172328784000,8.497783935546876,0.0005109966732561588,-0.02193329483270645,-0.010474104434251785
1772562172338767000,8.50776708984375,-0.0032756482250988483,-0.00866662710905075,-0.002066927496343851
1772562172348748800,8.517748779296875,-0.00397632597014308,0.008701443672180176,0.005213356111198664
1772562172358732000,8.52773193359375,-0.006322951056063175,0.016099905595183372,0.013829225674271584
1772562172368713700,8.537713623046875,-0.0073293596506118774,0.022088022902607918,0.015699829906225204
1772562172378697000,8.547697021484375,-0.0050923023372888565,0.02018866315484047,0.005926535930484533
1772562172388680000,8.557679931640624,-0.004553277976810932,0.010303808376193047,0.0005070031620562077
1772562172398662000,8.567661865234374,-0.006644992157816887,-0.00016654736828058958,-0.00619089137762785
1772562172408644900,8.577644775390626,-0.0053842514753341675,-0.004969291854649782,-0.01595909893512726
1772562172418627000,8.587626953125,-0.005315429996699095,0.00007993204053491354,-0.020832855254411697
1772562172428609800,8.59760986328125,-0.004941255319863558,0.0019382857717573643,-0.019189152866601944
1772562172438592000,8.607592041015625,-0.0019880200270563364,0.0057073188945651054,-0.018721681088209152
1772562172448575000,8.617574951171875,0.0023979400284588337,0.004824480973184109,-0.022692454978823662
1772562172458557000,8.627556884765625,0.0018140067113563418,0.0015746273566037416,-0.01748242974281311
1772562172468540000,8.637539794921874,0.0017466286662966013,-0.004316551145166159,-0.009191474877297878
1772562172478522000,8.647522216796874,0.0075386506505310535,-0.0030041434802114964,-0.0015011616051197052
1772562172488504800,8.6575048828125,0.004532208200544119,0.0058221048675477505,0.0036664362996816635
1772562172498487000,8.667487060546875,0.004936574026942253,0.012418153695762157,0.002638431265950203
1772562172508470000,8.677469970703125,0.006983745843172073,0.020551715046167374,-0.001377349253743887
1772562172518452000,8.687451904296875,0.007063352502882481,0.017559252679347992,-0.009139688685536385
1772562172528435000,8.69743505859375,0.007474544923752546,0.0070932963863015175,-0.015653513371944427
1772562172538417000,8.7074169921875,0.0133476248010993,0.002063583815470338,-0.016535408794879913
1772562172548399900,8.71739990234375,0.00958431139588356,-0.0090311449021101,-0.019862495362758636
1772562172558382000,8.727382080078126,0.011628477834165096,-0.02038905955851078,-0.018717020750045776
1772562172568364800,8.73736474609375,0.009252937510609627,-0.018169047310948372,-0.016595812514424324
1772562172578347000,8.747346923828125,0.01368431281298399,-0.007917278446257114,-0.016552649438381195
1772562172588330000,8.757330078125,0.007909514009952545,-0.001990680582821369,-0.019189978018403053
1772562172598313000,8.76731298828125,0.008205913007259369,0.0037418403662741184,-0.014133843593299389
1772562172608295000,8.777294921875,0.0074903215281665325,0.00996431615203619,-0.007507632486522198
1772562172618278100,8.787278076171875,0.007024649530649185,0.012146646156907082,-0.004256879910826683
1772562172628259800,8.797259765625,0.006441949866712093,0.007446699775755405,-0.00008503766730427742
1772562172638243000,8.8072431640625,0.0066972216591238976,0.008132927119731903,0.005604828707873821
1772562172648225000,8.81722509765625,0.006163258105516434,0.009121226146817207,0.0035728365182876587
1772562172658208000,8.8272080078125,0.003838177304714918,0.002784836571663618,0.0031344578601419926
1772562172668190000,8.83718994140625,0.005195856560021639,0.00030676519963890314,-0.0020254170522093773
1772562172678173200,8.847173095703125,0.003656093729659915,0.0010780813172459602,0.002662764163687825
1772562172688155000,8.85715478515625,0.0007425956428050995,0.004450974985957146,0.0009175948798656464
1772562172698138000,8.86713818359375,-0.0024761336389929056,0.005686616059392691,-0.0007569040171802044
1772562172708119800,8.877119873046874,-0.002084648935124278,0.0022271694615483284,-0.004127400927245617
1772562172718103000,8.88710302734375,-0.004249511286616325,0.0013066474348306656,-0.00857219286262989
1772562172728085000,8.8970849609375,-0.002205800963565707,-0.004191981628537178,-0.004926858004182577
1772562172738068000,8.90706787109375,-0.0024510829243808985,-0.0066529992036521435,-0.0041513824835419655
1772562172748050000,8.9170498046875,-0.000974360154941678,-0.011507408693432808,-0.008501656353473663
1772562172758033200,8.927033203125,-0.0006727862637490034,-0.016704373061656952,-0.006280861329287291
1772562172768014800,8.937014892578125,0.001285702339373529,-0.008997451514005661,-0.00966573879122734
1772562172777998000,8.946998046875,-0.00009802007116377354,-0.0034621949307620525,-0.012505440972745419
1772562172787981000,8.95698095703125,-0.001219211146235466,0.004500922746956348,-0.02354983612895012
1772562172797963300,8.96696337890625,-0.002409377135336399,0.014302477240562439,-0.025145165622234344
1772562172807946500,8.976946533203124,-0.00354281859472394,0.024700522422790527,-0.02343674935400486
1772562172817928200,8.98692822265625,-0.006339570973068476,0.03037245385348797,-0.00965118408203125
1772562172827911400,8.996911376953125,-0.0018404261209070683,0.026378512382507324,0.0013127836864441633
1772562172837893000,9.00689306640625,0.00023422203958034515,0.019960690289735794,0.016846537590026855
1772562172847876400,9.01687646484375,-0.0015349157620221376,0.008361824788153172,0.023233331739902496
1772562172857858300,9.0268583984375,-0.001235943753272295,-0.005760714877396822,0.016386080533266068
1772562172867841300,9.03684130859375,-0.0004047711845487356,-0.009234009310603142,0.004687879700213671
1772562172877823200,9.0468232421875,0.0014989332994446158,-0.005340935662388802,-0.009091096930205822
1772562172887806500,9.056806396484374,0.0011529886396601796,-0.010091749019920826,-0.018882742151618004
1772562172897788200,9.0667880859375,-0.004749598912894726,-0.0216397475451231,-0.028041306883096695
1772562172907771400,9.076771484375,-0.00024086679331958294,-0.030144019052386284,-0.028338514268398285
1772562172917753300,9.08675341796875,0.001466665300540626,-0.03649565950036049,-0.025975320488214493
1772562172927736300,9.096736328125,-0.003410115372389555,-0.03482132777571678,-0.016288870945572853
1772562172937718300,9.10671826171875,-0.005237399134784937,-0.025500796735286713,-0.011529101990163326
1772562172947701200,9.116701171875,-0.00588934076949954,-0.003512139432132244,-0.0038432199507951736
1772562172957683200,9.12668310546875,-0.011074226349592209,0.010657341219484806,0.002269292715936899
1772562172967666400,9.13666650390625,-0.011448133736848831,0.022598156705498695,0.009517351165413857
1772562172977649200,9.146649169921876,-0.01471454743295908,0.029148202389478683,0.00770155806094408
1772562172987631400,9.15663134765625,-0.010244697332382202,0.021680166944861412,0.004894586745649576
1772562172997614300,9.1666142578125,-0.008785994723439217,0.01046798937022686,0.0006085946224629879
1772562173007596300,9.17659619140625,-0.008906634524464607,-0.0007066343678161502,0.003984684124588966
1772562173017579300,9.186579345703125,-0.009612073190510273,-0.00974080990999937,0.0006327335722744465
1772562173027561500,9.1965615234375,-0.002618346596136689,-0.010056127794086933,0.0019797603599727154
1772562173037544200,9.206544189453124,-0.0053688595071434975,-0.01150914840400219,-0.000845054630190134
1772562173047526400,9.2165263671875,-0.00577339343726635,-0.007478986866772175,-0.00814318098127842
1772562173057509400,9.22650927734375,-0.0053990688174963,-0.003703027032315731,-0.010378475300967693
1772562173067491300,9.2364912109375,-0.007112546823918819,-0.009844808839261532,-0.01381848007440567
1772562173077474300,9.246474365234375,-0.005936523899435997,-0.01586174964904785,-0.00666888477280736
1772562173087456300,9.256456298828125,-0.0027926627080887556,-0.014413788914680481,0.008275443688035011
1772562173097439200,9.266439208984375,-0.0029753795824944973,-0.010768325999379158,0.014792734757065773
1772562173107421400,9.27642138671875,-0.0009223485831171274,-0.005407649092376232,0.02012890949845314
1772562173117404200,9.286404052734374,-0.000504395691677928,-0.0010305404430255294,0.02110437862575054
1772562173127386400,9.296386474609376,-0.0016777846030890942,-0.0038516269996762276,0.013735678046941757
1772562173137369300,9.306369384765626,0.00228342367336154,-0.005028878338634968,0.004109440837055445
1772562173147351300,9.316351318359375,0.002105258172377944,-0.008573545143008232,-0.011102003045380116
1772562173157334300,9.326334228515625,0.004527868703007698,-0.015833720564842224,-0.01934136636555195
1772562173167317500,9.3363173828125,0.0025600590743124485,-0.013413971289992332,-0.025272492319345474
1772562173177299200,9.34629931640625,0.0030097116250544786,-0.016947589814662933,-0.028946995735168457
1772562173187282400,9.356282470703125,0.004525316879153252,-0.021056048572063446,-0.023385783657431602
1772562173197264400,9.366264404296874,0.004681892693042755,-0.017781883478164673,-0.017485737800598145
1772562173207247400,9.376247314453124,0.005337562877684832,-0.012171933427453041,-0.010394804179668427
1772562173217229300,9.386229248046876,0.0026181854773312807,-0.008665747940540314,0.0020029819570481777
1772562173227212500,9.396212646484376,0.0022674473002552986,-0.00834457017481327,0.01105826161801815
1772562173237194200,9.4061943359375,0.004709563218057156,-0.0006304011913016438,0.016966117545962334
1772562173247177500,9.416177490234375,0.001450653187930584,0.0033363769762218,0.026783060282468796
1772562173257159200,9.4261591796875,0.004194835666567087,0.006909680552780628,0.028207886964082718
1772562173267142400,9.436142333984375,0.0030318330973386765,0.007710759527981281,0.027886979281902313
1772562173277124400,9.446124267578124,0.004244863986968994,0.01210310310125351,0.022854657843708992
1772562173287107300,9.456107421875,0.0016639942768961191,0.0062063317745924,0.013806035742163658
1772562173297089300,9.46608935546875,0.003658767556771636,0.003706820774823427,0.00606616260483861
1772562173307072500,9.476072509765626,0.003897386835888028,0.0026756448205560446,-0.0014673876576125622
1772562173317054200,9.48605419921875,0.0016626184806227684,0.00016441987827420235,-0.0026371697895228863
1772562173327037400,9.496037353515625,0.0010056166211143136,0.0038001672364771366,0.00018871063366532326
1772562173337019400,9.506019287109375,-0.001602883217856288,-2.9837246984243393e-7,0.003754757344722748
1772562173347002400,9.51600244140625,0.0003718507941812277,-0.0034051495604217052,0.0067039416171610355
1772562173356984300,9.525984375,0.00419902428984642,-0.005402452778071165,0.0073181381449103355
1772562173366967600,9.535967529296874,0.004603824578225613,-0.010997221805155277,0.005777765531092882
1772562173376950300,9.5459501953125,0.0066531384363770485,-0.015800831839442253,0.005736898630857468
1772562173386932500,9.555932373046875,0.009334941394627094,-0.016153434291481972,0.006336376070976257
1772562173396915500,9.56591552734375,0.008065745234489441,-0.010502607561647892,0.0020572820212692022
1772562173406897400,9.5758974609375,0.0030552735552191734,-0.004917692393064499,0.00008521135896444321
1772562173416880400,9.58588037109375,0.0033508404158055782,-0.0007240120321512222,0.00019248807802796364
1772562173426862300,9.5958623046875,0.005268849432468414,0.010247145779430866,0.005661556031554937
1772562173436845300,9.60584521484375,0.007301961071789265,0.01812870427966118,0.016429176554083824
1772562173446827500,9.61582763671875,0.0012477971613407135,0.009392203763127327,0.022622091695666313
1772562173456810200,9.625810302734376,0.0036947419866919518,0.0019529956625774503,0.022342359647154808
1772562173466792400,9.63579248046875,0.007586153224110603,-0.0028473520651459694,0.019992120563983917
1772562173476775400,9.645775390625,0.00829945970326662,-0.0035665351897478104,0.018217220902442932
1772562173486757400,9.65575732421875,0.002362208440899849,-0.004514620639383793,0.009110275655984879
1772562173496740400,9.665740234375,0.0045709204860031605,-0.006887359544634819,0.00015500187873840332
1772562173506722300,9.675722412109375,0.004589828662574291,-0.014525305479764938,-0.008250201120972633
1772562173516705300,9.685705322265624,0.003860635217279196,-0.02589128538966179,-0.01428225263953209
1772562173526687500,9.6956875,0.004346662200987339,-0.031337447464466095,-0.01669933646917343
1772562173536670200,9.705670166015626,0.001764928107149899,-0.033477697521448135,-0.015559043735265732
1772562173546652400,9.71565234375,-0.00020554475486278534,-0.03148325905203819,-0.011360837146639824
1772562173556635400,9.725635498046875,-0.0027819983661174774,-0.02228243090212345,-0.004241267219185829
1772562173566618400,9.735618408203125,-0.0046267700381577015,-0.007806818932294846,0.001054961234331131
1772562173576600300,9.745600341796875,-0.009158751927316189,0.0036058281548321247,0.006516614463180304
1772562173586583300,9.755583251953125,-0.009322003461420536,0.012118889018893242,0.009651420637965202
1772562173596565200,9.765565185546874,-0.008129069581627846,0.018347153440117836,0.0059317671693861485
1772562173606548200,9.77554833984375,-0.005659787449985743,0.014198480173945427,0.01152626983821392
1772562173616530400,9.785530517578126,-0.00569871673360467,0.011999770067632198,0.009915299713611603
1772562173626513200,9.79551318359375,-0.006191402208060026,0.007957357913255692,0.00977441854774952
1772562173636495400,9.805495361328125,-0.0040203118696808815,0.0059600574895739555,0.013276670128107071
1772562173646478300,9.815478271484375,0.0008543380536139011,0.003407684387639165,0.014643670991063118
1772562173656460300,9.825460205078125,-0.001686306670308113,0.004780210554599762,0.013541268184781075
1772562173666443300,9.835443359375,-0.00455692782998085,0.0054971338249742985,0.0062735010869801044
1772562173676425200,9.84542529296875,-0.0025246362201869488,-0.0068974182941019535,-0.0018228711560368538
1772562173686408200,9.855408203125,-0.0026024002581834793,-0.015068263746798038,-0.0005980837158858776
1772562173696390400,9.865390380859376,-0.002814034465700388,-0.023624204099178314,0.0033450894989073277
1772562173706373000,9.875373046875,-0.0009929651860147715,-0.017680026590824127,0.009928423911333084
1772562173716355300,9.885355224609375,-0.0009648674167692661,-0.006353866308927536,0.01833507791161537
1772562173726338300,9.89533837890625,0.000038611702620983124,0.0041554998606443405,0.02217269316315651
1772562173736321300,9.9053212890625,-0.0006000821013003588,0.009930433705449104,0.02404055744409561
1772562173746303200,9.91530322265625,-0.00008848891593515873,0.006408935412764549,0.02006472460925579
1772562173756286500,9.925286376953125,0.0021823772694915533,-0.008623476140201092,0.012527034617960453
1772562173766268200,9.93526806640625,0.0019320400897413492,-0.019258810207247734,0.0003478662110865116
1772562173776251400,9.94525146484375,0.0005728306714445353,-0.0257117860019207,-0.007573630195111036
1772562173786233300,9.9552333984375,-0.0011648819781839848,-0.027203954756259918,-0.010908972471952438
1772562173796216300,9.96521630859375,-0.0007261163555085659,-0.022482771426439285,-0.011781132780015469
1772562173806198000,9.975197998046875,-0.003639081958681345,-0.013263707049190998,-0.009692149236798286
1772562173816181200,9.98518115234375,-0.002135128015652299,-0.0001688057091087103,-0.004023300018161535
1772562173826163000,9.995162841796875,-0.004197213798761368,0.012515297159552574,0.005829863250255585
1772562173836146200,10.005146240234374,-0.004985697101801634,0.020154904574155807,0.013442197814583778
1772562173846127900,10.0151279296875,-0.0049886261112987995,0.017621172592043877,0.013134868815541267
1772562173856111000,10.025111083984376,-0.005440376698970795,0.010154671967029572,0.01585666462779045
1772562173866093000,10.035093017578125,-0.0036685762461274862,-0.00042367028072476387,0.012343688867986202
1772562173876076000,10.045075927734375,-0.005461581517010927,-0.005681885406374931,0.01237216405570507
1772562173886058000,10.05505810546875,-0.002330502960830927,-0.00424351217225194,0.012774568051099777
1772562173896041200,10.065041259765625,-0.0039306022226810455,-0.0009730205638334155,0.012263454496860504
1772562173906023000,10.07502294921875,-0.0006407995242625475,0.003771134652197361,0.008917724713683128
1772562173916006100,10.085006103515624,-0.0016668541356921196,0.006129034794867039,0.002136691939085722
1772562173925989000,10.094989013671874,0.0010961752850562334,0.003524197032675147,-0.0036080130375921726
1772562173935971000,10.10497119140625,0.002338346093893051,0.0003862677258439362,-0.009454535320401192
1772562173945954000,10.1149541015625,0.00003657583147287369,-0.004939521662890911,-0.01055628526955843
1772562173955936300,10.124936279296875,0.0007866937667131424,-0.009035402908921242,-0.0066807931289076805
1772562173965919000,10.1349189453125,0.00037470273673534393,-0.010308926925063133,0.0002218545414507389
1772562173975901200,10.144901123046875,0.004119849763810635,-0.010063315741717815,0.0009865178726613522
1772562173985884200,10.15488427734375,0.0019895872101187706,-0.01192593015730381,-0.003170143812894821
1772562173995866000,10.1648662109375,0.007428482640534639,-0.006993028335273266,0.001272084889933467
1772562174005849000,10.17484912109375,0.005187166389077902,-0.003439572174102068,-0.0031093480065464973
1772562174015831000,10.1848310546875,0.0019162613898515701,0.002720652148127556,-0.006304487120360136
1772562174025814000,10.19481396484375,0.001647814642637968,0.014519521035254002,-0.0045318868942558765
1772562174035796200,10.204796142578125,0.0012036655098199844,0.022451352328062057,-0.0036609903909265995
1772562174045779000,10.214779052734375,-0.0006195346359163523,0.024253513664007187,-0.0014479029923677444
1772562174055761200,10.22476123046875,0.002558449748903513,0.02442854829132557,0.005787011701613665
1772562174065744100,10.234744140625,0.0011048964224755764,0.021391212940216064,0.016298774629831314
1772562174075726000,10.24472607421875,0.0014971800846979022,0.016161831095814705,0.01664338819682598
1772562174085709000,10.254708984375,0.0035267751663923264,0.006670856848359108,0.015792241320014
1772562174095691000,10.26469091796875,0.0067067984491586685,0.006620051804929972,0.010643384419381618
1772562174105674000,10.274674072265626,0.007751557044684887,0.008309828117489815,0.004102927166968584
1772562174115657200,10.2846572265625,0.003694187616929412,0.0071082101203501225,0.001744384877383709
1772562174125639000,10.294638916015625,0.0022406342905014753,-0.0044038365595042706,-0.004837617743760347
1772562174135622100,10.3046220703125,0.005533386953175068,-0.011993705295026302,-0.005480246618390083
1772562174145604000,10.31460400390625,0.004501412156969309,-0.018015645444393158,-0.006841122172772884
1772562174155587000,10.324587158203125,0.0027856400702148676,-0.023397164419293404,-0.0015438464470207691
1772562174165569000,10.334569091796874,0.0019054652657359838,-0.020226405933499336,0.0024325193371623755
1772562174175552300,10.34455224609375,0.0012816961389034986,-0.005762708839029074,0.0011468145530670881
1772562174185534000,10.354533935546876,-0.002675228752195835,0.00989481434226036,0.008522173389792442
1772562174195517200,10.36451708984375,-0.005091990809887648,0.023004688322544098,0.013470256701111794
1772562174205499100,10.3744990234375,-0.00818924605846405,0.029228229075670242,0.00990268588066101
1772562174215482000,10.384482177734375,-0.007412335369735956,0.025779834017157555,0.011244727298617363
1772562174225464000,10.394464111328125,-0.003809078596532345,0.017897143959999084,0.014126000925898552
1772562174235447300,10.404447265625,-0.001062527997419238,0.005912185646593571,0.014419651590287685
1772562174245429000,10.414428955078124,0.0009268535068258643,-0.0005694158608093858,0.009946873411536217
1772562174255412200,10.424412109375,-0.0012320387177169323,-0.008073135279119015,0.010656455531716347
1772562174265394000,10.434393798828125,-0.0015470907092094421,-0.01093123946338892,0.009415156207978725
1772562174275377200,10.444377197265625,0.0031604901887476444,-0.006959139835089445,0.005470945965498686
1772562174285359000,10.454359130859375,-0.0007192029152065516,-0.007175920996814966,0.004131109919399023
1772562174295342000,10.464342041015625,-0.003808160312473774,-0.004178525879979134,0.009481684304773808
1772562174305325000,10.474324951171875,0.0008300011977553368,-0.004318875260651112,0.012519551441073418
1772562174315307300,10.484307373046875,-0.00041601224802434444,0.001830427790991962,0.020331358537077904
1772562174325290000,10.4942900390625,-0.0001803224440664053,0.010070247575640678,0.024446740746498108
1772562174335272200,10.504272216796876,-0.0006218187045305967,0.021570242941379547,0.026860028505325317
1772562174345255200,10.514255126953126,-0.002259929198771715,0.023467745631933212,0.01814350113272667
1772562174355237000,10.524237060546875,-0.005196431651711464,0.015151028521358967,0.002230867277830839
1772562174365220000,10.53422021484375,-0.0008845077827572823,0.003953767474740744,-0.009807419031858444
1772562174375202300,10.544202392578125,-0.0009777527302503586,-0.008326939307153225,-0.021944386884570122
1772562174385185000,10.55418505859375,-0.002590829273685813,-0.020566560328006744,-0.025398772209882736
1772562174395167200,10.564167236328124,-0.006087358109652996,-0.02477262355387211,-0.019426437094807625
1772562174405150200,10.574150146484374,-0.0029152671340852976,-0.01666409708559513,-0.01861177757382393
1772562174415132200,10.584132080078126,-0.008985721506178379,-0.0006854662206023932,-0.008497252129018307
1772562174425115100,10.594115234375,-0.013423079624772072,0.013715044595301151,-0.0036742668598890305
1772562174435097000,10.60409716796875,-0.014485337771475315,0.022816266864538193,-0.002444090321660042
1772562174445080000,10.614080078125,-0.01219635084271431,0.029254190623760223,0.0009719463996589184
1772562174455062300,10.624062255859375,-0.009091759100556374,0.016968699172139168,0.012737791985273361
1772562174465045000,10.634044921875,-0.008962862193584442,0.03111221455037594,0.0344015434384346
1772562174475027200,10.644027099609374,-0.008846770972013474,0.029061181470751762,0.04280538484454155
1772562174485010200,10.65401025390625,-0.01279730349779129,0.0204988531768322,0.044654153287410736
1772562174494993000,10.663992919921874,-0.015083537437021732,0.020448783412575722,0.03723255544900894
1772562174504975000,10.67397509765625,-0.01672191545367241,0.018908144906163216,0.01815766468644142
1772562174514958000,10.6839580078125,-0.015118541195988655,0.013940415345132351,0.0018464995082467794
1772562174524940000,10.69393994140625,-0.016809117048978806,0.014533234760165215,-0.008925721049308777
1772562174534923000,10.703923095703125,-0.013163024559617043,0.017483225092291832,-0.012081637978553772
1772562174544905200,10.7139052734375,-0.008620202541351318,0.014152942225337029,-0.009881069883704185
1772562174554888000,10.723887939453125,-0.0033249384723603725,0.008240921422839165,-0.004303897265344858
1772562174564870100,10.7338701171875,-0.0012090569362044334,-0.0015150364488363266,0.00186904426664114
1772562174574853000,10.74385302734375,0.0012718880316242576,-0.006219974718987942,0.005087012425065041
1772562174584835000,10.7538349609375,0.002642084378749132,-0.009238135069608688,0.0068007567897439
1772562174594818000,10.763818115234375,0.0017113655339926481,-0.0166468508541584,-0.00016747508198022842
1772562174604800000,10.773800048828125,0.0017539761029183865,-0.020635467022657394,0.0030988920480012894
1772562174614783000,10.783782958984375,0.0035545057617127895,-0.013212770223617554,0.0026419893838465214
1772562174624765200,10.79376513671875,0.005662131123244762,-0.006972185801714659,0.0029309424571692944
1772562174634748000,10.803747802734375,0.0020438004285097122,0.0036369222216308117,-0.0004453277215361595
1772562174644730000,10.813730224609374,0.00011141062714159489,0.017566319555044174,-0.0022951592691242695
1772562174654713000,10.823713134765624,0.00625935522839427,0.025784626603126526,-0.0038062967360019684
1772562174664696000,10.833696044921876,0.0018070824444293976,0.025777969509363174,0.0009759413078427315
1772562174674678000,10.843677978515625,0.0006894548423588276,0.02383885718882084,-0.001610837411135435
1772562174684661200,10.8536611328125,-0.0002461136318743229,0.01765233464539051,0.0024840389378368855
1772562174694643000,10.863642822265625,0.00171297462657094,0.012689931318163872,0.007651179097592831
1772562174704626200,10.873626220703125,-0.00048067118041217327,0.010626514442265034,0.0039121005684137344
1772562174714608000,10.883608154296875,0.003101813141256571,0.008687999099493027,0.0006137755699455738
1772562174724591000,10.893591064453124,0.0021223025396466255,0.015499033965170383,-0.007349075749516487
1772562174734573000,10.903572998046876,0.0008167650084942579,0.011242572218179703,-0.012052946723997593
1772562174744556300,10.913556396484376,-0.001515897922217846,0.0016333538806065917,-0.0134196812286973
1772562174754538000,10.9235380859375,0.002103127771988511,-0.010459862649440765,-0.01927497610449791
1772562174764521200,10.933521240234375,0.006513589061796665,-0.01835799776017666,-0.02548493817448616
1772562174774503000,10.9435029296875,0.0022255773656070232,-0.021883957087993622,-0.02571842446923256
1772562174784486100,10.953486083984375,0.007149229291826487,-0.015238836407661438,-0.021366819739341736
1772562174794468000,10.963468017578125,0.0037852460518479347,-0.006455934606492519,-0.015506796538829803
1772562174804451600,10.97345166015625,0.0007255403324961662,0.00936057884246111,-0.008725324645638466
1772562174814433800,10.983433837890624,0.002182167721912265,0.022729583084583282,-0.0021968535147607327
1772562174824416500,10.99341650390625,-0.0011102985590696335,0.024924028664827347,-0.0016852603293955326
1772562174834398700,11.003398681640626,0.0031160125508904457,0.026517335325479507,0.004816306289285421
1772562174844381700,11.013381591796875,0.004148520063608885,0.019292978569865227,0.006971868686378002
1772562174854364700,11.02336474609375,0.005833994131535292,0.013822573237121105,0.007682919502258301
1772562174864346600,11.0333466796875,0.002779081929475069,0.003412542399019003,0.006371312774717808
1772562174874329900,11.043329833984375,0.004076683893799782,-0.004675872623920441,0.003933013882488012
1772562174884311600,11.0533115234375,0.006804825738072395,-0.011620065197348595,-0.01081131026148796
1772562174894294800,11.063294677734374,0.01357896625995636,-0.00933048315346241,-0.010504776611924171
1772562174904276700,11.07327685546875,0.009676103480160236,-0.008149636909365654,-0.010869895108044147
1772562174914259700,11.083259765625,0.003993071615695953,-0.0013155629858374596,-0.01237550564110279
1772562174924241700,11.09324169921875,0.0008832986932247877,-0.0013991862069815397,-0.00978424958884716
1772562174934225000,11.103224853515625,0.004923567175865173,-0.001748798880726099,-0.0060820430517196655
1772562174944206600,11.11320654296875,0.004727558232843876,0.006868391297757626,0.0045692697167396545
1772562174954189800,11.12318994140625,0.007989822886884212,0.009926102124154568,0.010248608887195587
1772562174964171800,11.133171875,0.004581242799758911,0.005814181175082922,0.01204491127282381
1772562174974154800,11.14315478515625,0.003826568368822336,-0.003313938155770302,0.01598912477493286
1772562174984136700,11.15313671875,0.008303875103592873,-0.004814363084733486,0.01495288871228695
1772562174994119700,11.16311962890625,0.006018882617354393,-0.013385213911533356,0.008479808457195759
1772562175004101600,11.1731015625,0.0050644055008888245,-0.01323527842760086,0.0033297878690063953
1772562175014084900,11.1830849609375,0.0009469668148085475,-0.01324693113565445,0.0015691197477281094
1772562175024067600,11.193067626953125,0.0028660406824201345,-0.008908375166356564,-0.0009102830663323402
1772562175034049800,11.2030498046875,0.003003522055223584,-0.004305234644562006,0.0012839625123888254
1772562175044032800,11.21303271484375,0.0032964698038995266,-0.002894824370741844,0.006622002460062504
1772562175054014700,11.2230146484375,0.0002927766181528568,0.00030822830740362406,0.01387585885822773
1772562175063997700,11.232997802734374,0.0037551524583250284,0.004842526279389858,0.020715389400720596
1772562175073980000,11.24297998046875,0.0009983243653550744,0.003563482314348221,0.018961619585752487
1772562175083962600,11.252962646484375,-0.0005295311566442251,0.0002004423877224326,0.0160909965634346
1772562175093944800,11.26294482421875,0.0023039299994707108,-0.005319961812347174,0.010724732652306557
1772562175103927800,11.272927734375,0.0040469691157341,-0.009696334600448608,0.0036953194066882133
1772562175113909800,11.28290966796875,0.003091268241405487,-0.004552566446363926,-0.003958250395953655
1772562175123892700,11.292892822265625,0.002826283685863018,-0.007367794401943684,-0.0039004599675536156
1772562175133874700,11.302874755859374,0.0010450322879478335,-0.002153652021661401,-0.005157219711691141
1772562175143857700,11.312857666015624,0.0008868405129760504,0.000529216427821666,-0.010584741830825806
1772562175153839900,11.32283984375,-0.000633360119536519,-0.0025191123131662607,-0.010309546254575253
1772562175163822600,11.332822509765625,0.0016345877666026354,-0.006353531964123249,-0.013994029723107815
1772562175173804800,11.3428046875,0.0016256560338661075,-0.00981264840811491,-0.009192345663905144
1772562175183787800,11.352787841796875,-0.00039541698060929775,-0.008657635189592838,-0.0033842576667666435
1772562175193769700,11.362769775390625,-0.0006548978853970766,-0.006014445796608925,0.00036590639501810074
1772562175203752700,11.372752685546875,0.0007248860783874989,-0.007811014074832201,0.0034237478394061327
1772562175213736000,11.38273583984375,0.0027728790882974863,-0.0077150072902441025,-0.0010074605233967304
1772562175223717600,11.392717529296876,0.0012231857981532812,-0.0036811179015785456,-0.0023089474998414516
1772562175233700900,11.402700927734376,0.0020416933111846447,0.003132385201752186,0.00043061235919594765
1772562175243682800,11.412682861328125,-0.00035861367359757423,0.011392445303499699,-0.004989985842257738
1772562175253665800,11.422665771484375,-0.000969763146713376,0.018722254782915115,-0.0026705567725002766
1772562175263647700,11.432647705078125,0.00479038804769516,0.015896108001470566,-0.0023038391955196857
1772562175273631000,11.442630859375,0.005333486013114452,0.009878767654299736,-0.0002791113220155239
1772562175283612700,11.45261279296875,0.008100510574877262,0.007542908191680908,0.004818711429834366
1772562175293596000,11.462595947265624,0.006480441428720951,0.006719860248267651,0.008450121618807316
1772562175303577600,11.47257763671875,0.00574887078255415,0.0076040299609303474,0.00875105895102024
1772562175313560800,11.482560791015626,0.0048895953223109245,0.008779821917414665,-0.00029798923060297966
1772562175323542800,11.492542724609375,0.008168213069438934,0.008481547236442566,-0.010512810200452805
1772562175333525800,11.50252587890625,0.007884287275373936,0.004779939539730549,-0.021245725452899933
1772562175343507700,11.5125078125,0.005574794020503759,-0.005349659826606512,-0.03007330559194088
1772562175353491000,11.522490966796875,0.0088764987885952,-0.01736716739833355,-0.03523542732000351
1772562175363472600,11.53247265625,0.007245312910526991,-0.026493286713957787,-0.03537897393107414
1772562175373456000,11.542455810546874,0.010027684271335602,-0.024885741993784904,-0.03360365331172943
1772562175383438800,11.55243896484375,0.005444916896522045,-0.019933858886361122,-0.028078926727175713
1772562175393420800,11.5624208984375,0.0016828362131491303,-0.007778324652463198,-0.017982594668865204
1772562175403403800,11.57240380859375,-0.00393563462421298,0.0016689733602106571,-0.012307930737733841
1772562175413385700,11.5823857421875,-0.004591694567352533,0.013001185841858387,-0.00908441562205553
1772562175423368700,11.59236865234375,-0.00454002944752574,0.019408751279115677,-0.0011892085894942284
1772562175433351000,11.602350830078125,-0.003543506609275937,0.020451046526432037,-0.00005007721483707428
1772562175443333600,11.612333740234375,-0.004600249230861664,0.015553227625787258,0.0036967238411307335
1772562175453315800,11.62231591796875,-0.0004261434078216553,0.008344320580363274,0.0004877331666648388
1772562175463298800,11.632298828125,-0.0006320057436823845,0.004377009347081184,-0.0012031076475977898
1772562175473280800,11.64228076171875,-0.0009836440440267324,0.0003109574317932129,-0.004869963973760605
1772562175483263700,11.652263671875,-0.001508020330220461,-0.0036294558085501194,-0.009030620567500591
1772562175493246000,11.662245849609375,-0.0002766731195151806,-0.0007776740239933133,-0.010064435191452503
1772562175503228700,11.672228759765625,-0.002790430560708046,0.00023672403767704964,-0.012706822715699673
1772562175513211000,11.6822109375,-0.0018875342793762684,0.0018319636583328247,-0.014344071969389915
1772562175523193900,11.69219384765625,-0.0045578861609101295,0.0016940118512138724,-0.010087275877594948
1772562175533175800,11.70217578125,-0.006947947200387716,-0.0031867013312876225,-0.007485092617571354
1772562175543158800,11.71215869140625,-0.005244323518127203,-0.0016439321916550398,-0.0008445004932582378
1772562175553141800,11.722141845703124,-0.0020150081254541874,0.006585968658328056,0.005915230140089989
1772562175563123700,11.732123779296876,-0.00376071035861969,0.014871861785650253,0.009930212050676346
1772562175573106700,11.742106689453125,-0.005759289488196373,0.012940601445734501,0.007797556929290295
1772562175583088600,11.752088623046875,-0.005031181499361992,0.003905293997377157,0.005343986675143242
1772562175593071600,11.762071533203125,-0.0031451862305402756,-0.0071126678958535194,0.003736840095371008
1772562175603053800,11.7720537109375,-0.004000593442469835,-0.018317386507987976,-0.00753312511369586
1772562175613036500,11.78203662109375,-0.005671006627380848,-0.025013435631990433,-0.016853079199790955
1772562175623018800,11.792018798828124,-0.0033308875281363726,-0.025143664330244064,-0.020176703110337257
1772562175633001700,11.802001708984376,-0.007181129883974791,-0.021511249244213104,-0.021249251440167427
1772562175642983700,11.811983642578125,-0.01116202212870121,-0.01529490016400814,-0.01993897557258606
1772562175652966700,11.821966552734375,-0.009285826236009598,-0.007837781682610512,-0.01633438654243946
1772562175662948900,11.831948974609375,-0.006762480828911066,-0.0017327516106888652,-0.017033733427524567
1772562175672931600,11.841931640625,-0.004226085729897022,-0.0012192941503599286,-0.009575550444424152
1772562175682913800,11.851913818359375,-0.00507297134026885,0.004319015424698591,-0.004089704714715481
1772562175692896800,11.861896728515624,-0.00023832358419895172,0.00518967118114233,0.003236190415918827
1772562175702878700,11.871878662109374,-0.00001887907274067402,0.004030663054436445,0.002846303628757596
1772562175712861700,11.88186181640625,-0.00011656200513243675,-0.0030925613828003407,0.0030590184032917023
1772562175722843600,11.89184375,0.0023876081686466932,-0.00406621303409338,0.006916607264429331
