time,seconds_elapsed,z,y,x
1772656087571549000,0.077548828125,0.07282616675794124,0.010671616140007972,-0.027993744244356637
1772656087581531100,0.08753125,-0.015310381856560706,-0.0021405374263413247,0.014553850701102055
1772656087591512800,0.097512939453125,-0.043293782803416246,-0.008673628989513963,0.018197477033617904
1772656087601496000,0.10749609375,0.031229835522174832,0.004362341661658138,-0.020891026966529898
1772656087611478000,0.11747802734375,0.029437106886506078,0.0074009969715029,-0.006751579452329315
1772656087621461000,0.1274609375,-0.023537527453899382,0.0010955036191269754,0.009381594595778734
1772656087631443000,0.13744287109375,-0.015606149932742118,0.0045188108650036155,0.0026093970471061764
1772656087641426200,0.14742626953125,0.032277883270382876,0.0034711467092856762,-0.012196492186305112
1772656087651408000,0.157407958984375,0.0047474867880344385,-0.00015003946255892514,-0.0045513796940445895
1772656087661390000,0.16739013671875,-0.02203530619740486,0.0014649945186451076,0.009442494470160453
1772656087671373000,0.177373046875,0.006396423038840294,-0.0044815293282270425,-0.005532504252460785
1772656087681355000,0.18735498046875,0.014477438163757324,-0.004285148239601403,-0.014214996968442573
1772656087691338000,0.197337890625,-0.001685176607966423,-0.0024705182993784544,-0.004745322230411693
1772656087701320000,0.20731982421875,-0.00527940170764923,-0.0024388445194810627,0.0060090859553776675
1772656087711303000,0.217302978515625,0.017615736189484595,-0.0061715099754743276,-0.014138502232707104
1772656087721285000,0.22728515625,0.010882044020295143,-0.0008487440501339733,-0.004397549972357228
1772656087731267800,0.237267822265625,-0.005730068084597587,-0.0030506745412014423,0.005524142849491909
1772656087741250000,0.24725,0.0016027590215206145,0.0004529313992708921,0.00038405371441040185
1772656087751232000,0.25723193359375,0.009079963034391403,-0.0045572614455595606,-0.0009794714574469254
1772656087761215000,0.267215087890625,0.0030921207964420315,0.00019312968561425805,0.0028050794494105503
1772656087771197200,0.277197265625,-0.00573649782538414,0.005106986016500741,0.004387325405864976
1772656087781180000,0.287179931640625,0.009974866047501564,0.0005279511305503547,0.002092816693941131
1772656087791162000,0.297162109375,0.01640343779027462,-0.005353435058239847,0.0011069291954394428
1772656087801144000,0.30714404296875,-0.0027495909690856933,-0.005711947906017303,0.004140205077268183
1772656087811127000,0.317126953125,-0.005292261189222335,0.011490202513895929,0.005374445880227722
1772656087821109000,0.32710888671875,0.019400281518697736,0.01153199582900852,-0.007278343272791244
1772656087831092200,0.33709228515625,0.00024549919366836546,-0.0027438005491159856,-0.008685214396030642
1772656087841074000,0.347073974609375,-0.009030278673768042,-0.005653751445375383,-0.006230674550496041
1772656087851057200,0.35705712890625,-0.001247369712591171,-0.0020941958002746106,-0.006820749398134649
1772656087861038800,0.367038818359375,0.01341711545586586,-0.0070065908264368764,0.005091276990715414
1772656087871021000,0.37702099609375,0.0077250412940979,-0.0011207841908559201,0.004814378011785447
1772656087881004000,0.387004150390625,-0.001550152051448822,0.004983195240050554,0.005036172102880664
1772656087890986200,0.396986328125,0.006986790147423744,0.0036853739818558094,-0.00020753723687957971
1772656087900969000,0.406968994140625,0.008934417083859444,-0.009300583515129983,-0.0008697685718536376
1772656087910951200,0.416951171875,0.007136427751183509,-0.00030853622620925303,0.003138923646812327
1772656087920934100,0.42693408203125,0.005039747732877731,0.0009455737544223666,0.004055079510505311
1772656087930916000,0.436916015625,0.008628712135553359,-0.001204297755844891,0.004580660587456077
1772656087940899000,0.446899169921875,0.011170797833800315,0.007144830253347754,0.001449833482131362
1772656087950881000,0.456881103515625,-0.0012497078001499175,0.004526153921242803,0.004756318548461422
1772656087960863200,0.46686328125,0.009377484676241873,0.0006159399412572383,0.005483587076817639
1772656087970846200,0.47684619140625,0.006985621103644371,-0.0028808709322474895,0.004151954880566336
1772656087980828200,0.486828125,0.01566226403415203,0.002239632152952254,-0.0023704508918104693
1772656087990811100,0.49681103515625,0.0066845923304557795,0.004863149056956171,-0.0030741969806840643
1772656088000793300,0.50679345703125,0.0020475801795721052,0.001351560739427805,0.004465546307805926
1772656088010776000,0.516776123046875,-0.00004793079495429992,-0.0020898849513381716,-0.009206064498936756
1772656088020758300,0.52675830078125,-0.004088730618357658,-0.0027281645885668692,0.0041128558460390196
1772656088030740000,0.536739990234375,0.011926000115275382,-0.0062154221824370325,0.0027162275556009263
1772656088040723200,0.54672314453125,0.01252864218354225,-0.0017694390916265547,-0.0033851260933792215
1772656088050705200,0.556705078125,0.016867548170685767,0.002625818458944559,-0.004953594686230644
1772656088060688100,0.566688232421875,0.002203647524118423,0.0021264723683707414,-0.00568235648535192
1772656088070670000,0.576670166015625,0.007590016737580299,-0.002233165879547596,0.004628184957033954
1772656088080652000,0.586652099609375,0.0026519758135080335,-0.0006660078943707048,0.0031278907961444927
1772656088090635000,0.596635009765625,0.009683774146437644,0.003749835786502808,0.007493429061886854
1772656088100617200,0.6066171875,0.011927169159054755,0.0002552534027025103,0.014004948114068246
1772656088110600000,0.616599853515625,0.006837152543663978,-0.0021724121356382965,-0.0003087006229907274
1772656088120582100,0.62658203125,0.0038397242933511733,0.004165576980542391,-0.009266749744187109
1772656088130565000,0.636565185546875,0.0026437925070524216,0.004694003035128116,-0.003529420801741071
1772656088140547000,0.646547119140625,0.014015665870904921,0.004509221052750945,0.0016802721039857714
1772656088150529000,0.656529052734375,0.0093763156324625,0.001418780756741762,-0.003099742413894273
1772656088160512300,0.66651220703125,-0.0009475099831819534,-0.001821315409336239,0.004708835278078914
1772656088170494000,0.676493896484375,-0.0025929391026496885,0.0028520649628713726,-0.007753787897969595
1772656088180477200,0.686477294921875,0.0068348144561052315,0.006284980287309736,0.0049444204325089225
1772656088190459100,0.696459228515625,0.007434533914923667,-0.0007290814595296978,0.0008324094032635911
1772656088200442000,0.706442138671875,0.0036935938209295273,-0.0007650478220544755,-0.003994421664718539
1772656088210424000,0.716424072265625,0.012671265524625778,-0.0013863397918641566,-0.0046490542151266705
1772656088220406000,0.726406005859375,0.006986205625534057,0.003323975057248026,-0.008077156367129646
1772656088230389000,0.736388916015625,0.0001052139401435852,0.010359627581387757,-0.004445403135498054
1772656088240371000,0.746370849609375,0.003845569512248039,0.002716181889828294,0.007274813308566808
1772656088250354200,0.756354248046875,0.011626140385866164,0.0051715574190020555,0.008172629797970876
1772656088260336000,0.766336181640625,0.0014513678520917891,-0.0028739297348074613,0.003928777116560377
1772656088270319000,0.776319091796875,0.00938157632946968,0.0018400201098062096,0.0017864906911272554
1772656088280301000,0.786301025390625,0.009081716600060463,0.0017373999855481088,-0.006146092406427488
1772656088290283300,0.796283203125,-0.003940846580266952,-0.0004417706844396889,-0.0026765896649565547
1772656088300266000,0.806265869140625,-0.00035129765570163723,-0.005865658896695822,0.0017180102984886616
1772656088310248200,0.816248291015625,-0.004539396995306015,-0.005235416435450315,-0.002489944519056007
1772656088320231200,0.826231201171875,0.005636544582247734,0.005430719811841845,-0.007453174683311954
1772656088330213000,0.836213134765625,0.004143675675988197,-0.0007990962221287191,0.0035609393180115146
1772656088340196000,0.846196044921875,0.008184475499391556,-0.009306520065572112,0.0072851429063361135
1772656088350178000,0.856177978515625,0.007434533914923667,-0.00639262364655733,-0.0029149512983625754
1772656088360160000,0.866159912109375,0.004145429241657257,0.0018974493854679165,-0.0013173159765312446
1772656088370143200,0.876143310546875,0.002051671832799911,-0.0020817747101187704,-0.0009873533698031677
1772656088380125000,0.886125,0.002497662034630775,-0.004727302516531199,-0.0006990242479834705
1772656088390108200,0.896108154296875,0.005337853896617889,-0.002298705396428704,0.001953759849700145
1772656088400090000,0.906090087890625,0.014167641562223434,-0.002543747932370752,-0.003962642853544094
1772656088410073000,0.916072998046875,0.0150666362285614,-0.003064648267626762,-0.006944088083435781
1772656088420055000,0.926054931640625,0.01057633907198906,-0.0012126637253910303,-0.00022439704013522713
1772656088430037000,0.936037109375,-0.00618482611477375,0.00468903459906578,-0.0050621148283127694
1772656088440020000,0.94602001953125,0.003542202651500702,0.001965107794199139,-0.002969266168330796
1772656088450002200,0.956002197265625,0.0051864627271890635,0.004298245183192193,0.0023210998913273215
1772656088459985000,0.96598486328125,0.013418284499645232,-0.0008634301626123487,-0.002812760432367213
1772656088469967000,0.975967041015625,0.016859364864230154,0.0015405439728870987,-0.005899478967906907
1772656088479950000,0.9859501953125,0.013117255726456641,0.001138685173727572,-0.003484261919185519
1772656088489932000,0.99593212890625,0.0011450783818960188,0.0008538403503596783,0.0018751827547326683
1772656088499914200,1.005914306640625,0.0012947159856557845,0.00220112677346915,-0.0060313982518855475
1772656088509897000,1.01589697265625,-0.0001999064862728119,-0.0008201938090845942,-0.0009989068102790042
1772656088519879200,1.025879150390625,0.013117255726456641,0.0001606887207366526,0.005994792568543925
1772656088529862100,1.035862060546875,0.007432780349254608,-0.0045580651631578805,-0.004724037413788028
1772656088539844000,1.045843994140625,0.008182137411832808,0.0029395788495428857,-0.013438560102693736
1772656088549827000,1.0558271484375,0.0008498948276042938,0.0031777349869720637,-0.008530822985339909
1772656088559809300,1.065809326171875,-0.007233458384871483,0.005078636704850942,0.0023949505788274108
1772656088569791000,1.075791015625,0.006084288349747657,-0.0036766061535105105,0.00857409587148577
1772656088579774200,1.085774169921875,0.01012450365126133,-0.0029474150961264966,-0.0036845017655985426
1772656088589756000,1.095755859375,0.017605799317359925,-0.0006202142575755714,-0.004096831726422533
1772656088599739100,1.1057392578125,0.007283142745494842,0.005560410606116056,-0.0032491197227500377
1772656088609721000,1.11572119140625,0.004736380872130394,-0.002382766950689256,-0.004809057949273846
1772656088619704000,1.1257041015625,0.0012935469418764113,0.0012681019733659922,0.00730641402322799
1772656088629686000,1.13568603515625,0.0033890579164028165,0.0007858714143745601,0.0010375263541936874
1772656088639668000,1.14566796875,0.005786766707897186,-0.0009985460506752133,-0.0035748856449732557
1772656088649651000,1.15565087890625,0.00428863710463047,0.0015130349114537238,0.002207515415060334
1772656088659633200,1.165633056640625,-0.00035071313381195067,0.0012480272997170685,0.006278925005858763
1772656088669616000,1.1756162109375,0.0048871875196695325,-0.0013089454404078423,0.0019045184470713138
1772656088679598000,1.18559814453125,0.008926818299293518,-0.0004321991384960711,-0.0014542447957675902
1772656088689581000,1.1955810546875,0.0027899229794740676,-0.0011082535028457642,0.0034333171832375228
1772656088699563000,1.20556298828125,0.007428688696026801,0.000825235310383141,-0.011826202135765924
1772656088709545200,1.215545166015625,0.0047369653940200806,0.0006749218531884253,0.0023229493551189077
1772656088719528200,1.225528076171875,0.00997545056939125,0.0034019173979759213,0.001371311186091043
1772656088729510100,1.23551025390625,0.007431611305475235,-0.0045291678622365,0.003016187749709934
1772656088739493000,1.2454931640625,0.002645546072721481,-0.0010756846738047897,0.002225923288008198
1772656088749475000,1.25547509765625,0.001600420933961868,0.0009118541479110718,-0.0007974157216958702
1772656088759458000,1.2654580078125,0.009233107769489287,0.00027271599415689703,-0.009412094765319488
1772656088769440300,1.275440185546875,0.002948328411579132,0.0008951587414368987,-0.00020878847904969006
1772656088779422000,1.285421875,0.00549509028494358,0.003292191679496318,0.0025908978426130488
1772656088789405200,1.2954052734375,0.015223872616887091,0.0005875358306802809,0.0054221940120914944
1772656088799387100,1.30538720703125,-0.0012315876215696334,0.0011415164516307412,-0.005508461223170161
1772656088809370000,1.3153701171875,0.004449965146183967,0.0009636574003845453,-0.0007076870450517162
1772656088819352000,1.32535205078125,-0.001835398733615875,0.0010788447452709077,-0.010099355510273016
1772656088829335300,1.335335205078125,0.001755319234728813,-0.0033633754858747125,0.0017003422110574318
1772656088839317000,1.34531689453125,0.013426467806100845,-0.008167323435191064,-0.005525681786029599
1772656088849299200,1.35529931640625,0.017615736189484595,0.006908866073004901,-0.0012478948689764364
1772656088859282000,1.365281982421875,0.014324293428659438,0.0019672997512854636,0.0032159344057785346
1772656088869264100,1.37526416015625,0.009082885643839836,-0.00633800738248974,0.00014355948942247778
1772656088879247000,1.3852470703125,0.010877952367067336,-0.002140281698014587,0.00454516914896667
1772656088889229300,1.395229248046875,0.003397241222858429,-0.004033767294418067,0.004105932914908044
1772656088899212000,1.4052119140625,0.01641863535940647,-0.0006623546325601637,0.005582490007183514
1772656088909194200,1.4151943359375,0.0014537059396505356,0.001843782969471067,-0.008723518846114166
1772656088919176400,1.425176513671875,0.001603343543410301,-0.0074393014215864235,-0.0029257421204354614
1772656088929159200,1.4351591796875,0.006842413240671158,0.0021603563716635107,0.0004637541873846203
1772656088939141400,1.445141357421875,-0.007673018845915794,-0.005656089532934129,-0.0037686637845588847
1772656088949124400,1.455124267578125,0.003250526228547096,0.0011037417245097457,0.00022138309914153067
1772656088959106300,1.465106201171875,-0.0037801030606031414,-0.0078080799350515005,-0.0064751051650848235
1772656088969089300,1.47508935546875,-0.0009334814578294754,-0.010196966099273412,-0.003489728112169541
1772656088979071200,1.4850712890625,-0.004673252508044242,-0.009715502725262195,-0.0054999080239562315
1772656088989053200,1.49505322265625,0.005652326673269271,0.005804101435188204,0.0030373721016338094
1772656088999036400,1.505036376953125,0.006400514692068099,-0.00006928411023691296,-0.007050662863603793
1772656089009018000,1.51501806640625,0.006551321339607239,0.0065959276663139456,-0.0052892746476922185
1772656089019001300,1.52500146484375,0.0008645078748464583,-0.0071514061246067285,-0.0010643184629967435
1772656089028983000,1.534983154296875,-0.006616203269362449,-0.008573328686505555,-0.0006314526042202487
1772656089038966300,1.54496630859375,0.004606032490730286,0.0014646474587731062,-0.00026723153486382217
1772656089048948200,1.5549482421875,0.00490472317636013,0.003126571055315435,-0.010865805271547287
1772656089058930200,1.56493017578125,0.009393266767263412,0.00048559155985713,-0.009075327958469279
1772656089068913200,1.5749130859375,0.01881985128223896,-0.0011562025641091167,0.007117558653932064
1772656089078895400,1.584895263671875,0.013432897546887397,0.005728277986310422,-0.0033569366119336336
1772656089088878000,1.594878173828125,0.00490472317636013,0.00027180267870426176,-0.00801164881628938
1772656089098860300,1.6048603515625,0.01388414844572544,-0.0008048318431712687,-0.005827865903265774
1772656089108843300,1.61484326171875,0.013137129470705985,-0.004119746811129152,0.0028761353916255754
1772656089118825200,1.6248251953125,0.0026619126856327053,0.003305105959996581,-0.003319317148439586
1772656089128807400,1.634807373046875,0.012239888370037078,0.0038383543201722203,-0.003479859738703817
1772656089138790100,1.6447900390625,0.004606032490730286,0.0013807137686759233,-0.0020621018952690063
1772656089148772400,1.6547724609375,0.009393266767263412,-0.003708426063880324,-0.006667906057136133
1772656089158755300,1.66475537109375,0.013881225836277006,0.001965217392053455,-0.0032426534493453798
1772656089168737300,1.6747373046875,-0.0015326163947582245,-0.00011540654059499501,-0.008026175098563544
1772656089178720300,1.68472021484375,-0.0013823942691087723,-0.002157671224232763,-0.00925067995879799
1772656089188702500,1.694702392578125,0.0092412910759449,0.0008782076066359877,-0.0018071544532431288
1772656089198684200,1.70468408203125,0.009688450321555138,0.0007945296448655426,-0.004402879168023355
1772656089208667400,1.71466748046875,0.004599018228054046,-0.0040589748009108,-0.0019760447467444464
1772656089218649000,1.724649169921875,0.00594692570567131,-0.0014295030801557004,0.0017858924695057794
1772656089228632300,1.73463232421875,0.0017588263660669326,-0.0032146877301856874,0.0020053484730422496
1772656089238614300,1.7446142578125,0.004752747485041618,-0.005258413718547672,-0.005280027328734286
1772656089248597200,1.75459716796875,0.006250292566418647,-0.0015944295845925808,0.003552431784570217
1772656089258579200,1.7645791015625,0.005650573107600212,-0.005886007564980537,0.012300094124674796
1772656089268561200,1.77456103515625,0.0037029461711645126,0.004110814586002379,-0.0000657678457442671
1772656089278544100,1.784544189453125,0.010133856001496314,0.00009087488753721118,-0.0014749222576152532
1772656089288526300,1.7945263671875,0.011328618744015693,0.0027444216036237776,0.000049337300751358265
1772656089298509000,1.804509033203125,-0.002435702714323997,-0.007043360906559973,0.0038220425061881538
1772656089308491300,1.8144912109375,0.013426467806100845,-0.0029651334159076213,-0.006390723950415849
1772656089318474200,1.82447412109375,0.0047463177442550655,-0.006034768385905772,0.006215445015323348
1772656089328456200,1.834456298828125,-0.00019347674548625944,0.0012099055127240716,0.002576198030402884
1772656089338438400,1.8444384765625,-0.0004909983873367309,0.004778667377587408,0.005083175882650539
1772656089348421400,1.85442138671875,0.00789104551076889,0.005822879200894385,-0.007780155315087176
1772656089358403300,1.8644033203125,0.00684533585011959,0.00341554406452924,-0.004405167023232207
1772656089368386300,1.87438623046875,0.008194412371516227,-0.0012141980953514575,0.00020145455596502868
1772656089378368300,1.8843681640625,0.006850012025237083,0.0019489786433055996,-0.004127231431263498
1772656089388351200,1.894351318359375,0.010142039307951926,-0.0015356120694428681,-0.0016761758841807022
1772656089398333200,1.904333251953125,0.0056552492827177045,-0.006609134207759052,-0.00390743293443229
1772656089408315100,1.914315185546875,0.0022129998743534085,-0.0030302528076805173,-0.0032567504733568057
1772656089418298400,1.92429833984375,0.006551905861496925,-0.0016553477252833544,-0.005576439292309806
1772656089428280000,1.934280029296875,0.0010147300004959105,-0.007193491700664162,0.005071864470769651
1772656089438263300,1.94426318359375,-0.0024257658421993253,-0.0010237352908588945,0.002060558392154053
1772656089448245200,1.954245361328125,0.0023626374781131744,-0.004110102199949324,0.0004363821232691407
1772656089458228200,1.964228271484375,0.0020639467924833295,0.0006971519513055682,0.00046334776200819756
1772656089468210200,1.974210205078125,0.0040092356413602825,-0.005402498364355415,-0.002562228870554827
1772656089478192400,1.9841923828125,0.0034101007044315336,-0.001954769063275307,-0.002961087428452447
1772656089488175000,1.994175048828125,0.008795885396003723,-0.005248531645350158,-0.0014992940804688258
1772656089498157300,2.0041572265625,0.0010158990442752838,0.0012909165933728218,-0.002420738040632568
1772656089508140300,2.014140380859375,-0.00018178630769252776,-0.0025002375842072067,0.0033985107313375916
1772656089518122200,2.024122314453125,0.017025369080901145,-0.004072236141283065,-0.002861271182633936
1772656089528105200,2.034105224609375,0.008496025666594504,-0.003781089441291988,0.002214461179077625
1772656089538087200,2.044087158203125,0.0029600188493728637,0.0008349529867991805,0.002501196565432474
1772656089548069000,2.054069091796875,0.0005658171892166138,-0.0072019672680646175,0.009151247305469587
1772656089558052400,2.06405224609375,0.0022118308305740355,-0.0032928492666222152,-0.007036725669796578
1772656089568034000,2.074033935546875,0.011787468427419661,-0.0029451866064220665,-0.008177342505706474
1772656089578017300,2.084017333984375,0.0053548050314188,0.0026475188340991736,-0.001943946275161579
1772656089587999200,2.093999267578125,0.005206336471438407,-0.0033443602581508455,-0.009722571786865591
1772656089597982200,2.103982177734375,0.01418050104379654,0.0016992233996279537,-0.003558596663875505
1772656089607964200,2.113964111328125,0.009542319849133491,-0.00012625672817230223,0.0021405374263413247
1772656089617946000,2.123946044921875,0.008047112855315208,0.004171878857165575,-0.005468439740035682
1772656089627929000,2.13392919921875,0.006550152295827865,0.005182772932760417,-0.0005014147500740364
1772656089637911300,2.143911376953125,0.012238719326257705,-0.0018412256862036882,0.0018750503239920362
1772656089647894300,2.153894287109375,0.012835516175627708,-0.0015000292994081974,-0.0023452022861223665
1772656089657876200,2.163876220703125,-0.003921557357907295,-0.00856397633627057,-0.006142662906902842
1772656089667859200,2.173859130859375,-0.00691547847688198,-0.001279536682832986,-0.0008189790995325893
1772656089677841200,2.183841064453125,0.00026771102547645565,-0.000010247399378567933,0.006915560675272717
1772656089687823400,2.1938232421875,0.008048866420984268,0.0021152933872304854,0.002201409901259467
1772656089697806000,2.20380615234375,0.008799392527341842,0.0006706292705610395,0.001912962048430927
1772656089707788300,2.213788330078125,0.003714636608958244,0.0029270846941508353,-0.0015817710324190555
1772656089717771300,2.223771240234375,0.0007236380994319916,-0.0009460304121486843,0.0015601026233052833
1772656089727753200,2.233753173828125,0.0013216039925813673,0.0015810951789841056,0.003196037828642875
1772656089737736200,2.243736083984375,0.013587795847654342,0.004909709878731519,-0.0048804929174017155
1772656089747718400,2.253718505859375,0.0038601825594902035,0.002272456710319966,-0.005625475198961794
1772656089757700000,2.2637001953125,-0.004969020584225654,-0.001576090210303664,0.0019094138178974388
1772656089767683300,2.273683349609375,0.006704466074705123,0.0008364873567596078,0.006258256677165627
1772656089777665000,2.2836650390625,0.0110451256275177,-0.00027392157055437566,-0.007949415501346811
1772656089787648300,2.293648193359375,0.015233809489011764,0.0030824031200259922,-0.0031758444239851085
1772656089797630200,2.303630126953125,-0.006312836408615112,-0.0029466661774553357,-0.000968516238592565
1772656089807613200,2.31361328125,-0.001973345899581909,-0.0007336845694109797,-0.0034848738405387847
1772656089817595100,2.32359521484375,0.009998246923089028,-0.008102642434835433,-0.002430980873433873
1772656089827577000,2.3335771484375,0.011345569878816604,-0.0008728738443925976,-0.003074923066468909
1772656089837560000,2.34356005859375,0.0005728314518928528,0.0006939188146032392,-0.008532877945108338
1772656089847542300,2.353542236328125,0.007756020954251289,0.00016823270637542008,0.0037673349105753003
1772656089857525200,2.363525146484375,0.007606383350491523,-0.000495966823399067,0.0015173274940811097
1772656089867507200,2.373507080078125,0.00027238720059394837,-0.006979374025948345,-0.001730239592399448
1772656089877490200,2.383490234375,0.0035649990051984785,-0.004478862447105348,-0.004593118210230023
1772656089887474700,2.393474609375,0.006709142249822616,0.0032168979535810646,-0.002999939867807552
1772656089897456600,2.40345654296875,-0.0039162966609001156,-0.0046377062706276775,-0.010612579429149628
1772656089907439600,2.413439697265625,0.00341243879199028,0.0005929974570870399,-0.009855806245096027
1772656089917421800,2.423421875,-0.003623451194167137,-0.0019656009845435618,0.008054373713163658
1772656089927404500,2.433404541015625,0.009543488892912864,-0.002542323160264641,-0.001603389209182933
1772656089937386800,2.44338671875,0.008049450942873954,-0.0074283416361548005,0.0012757190242409706
1772656089947369700,2.45336962890625,0.008199673068523407,-0.010428875159006566,0.004240477980813011
1772656089957351700,2.4633515625,0.013435820156335829,-0.004998685070127249,-0.0004658274134621024
1772656089967334000,2.473333984375,0.0020627777487039565,0.0021654709381982683,-0.004837868485227227
1772656089977316600,2.483316650390625,-0.004371639212965965,0.0001686162988655269,0.0022987693285103886
1772656089987298800,2.493298828125,0.00011573533415794372,-0.0064060493837110695,0.00800095389233902
1772656089997281800,2.50328173828125,0.006398176604509353,0.003077873075380921,0.006248000144632533
1772656090007263700,2.513263671875,0.0007125321835279464,-0.0029088183850981292,0.0066374652530997984
1772656090017246700,2.523246826171875,-0.009312018224596976,-0.0030818368644453583,0.005031281298631802
1772656090027229000,2.53322900390625,-0.0025754034459590913,-0.001597206063568592,0.0027503033551387487
1772656090037211600,2.543211669921875,0.009397942942380905,-0.00004506298443302512,-0.009906714448425918
1772656090047193900,2.55319384765625,0.0055073652446269985,0.0012495799359865487,-0.0018980156410485505
1772656090057175600,2.563175537109375,-0.0004769698619842529,0.0004190108633600175,0.0020246833611745384
1772656090067158800,2.57315869140625,0.004315525111556053,-0.0042254174089990555,-0.002388831365294754
1772656090077140700,2.583140625,0.0037181437402963634,0.0005160414970479905,-0.0009185030844062566
1772656090087123700,2.593123779296875,0.007460837399959563,-0.0010905717156827449,-0.0015336758406832814
1772656090097105700,2.603105712890625,0.008505962538719177,-0.0027480200665071603,-0.002455001069838181
1772656090107089000,2.6130888671875,0.004912906482815742,-0.00027118162419646974,-0.0005898830513935536
1772656090117070600,2.623070556640625,-0.0021200608938932415,-0.0013208002749830483,-0.0014385357699822634
1772656090127052800,2.633052734375,0.011199439406394958,-0.011711060456652194,0.0008416567222215235
1772656090137035800,2.643035888671875,0.008953121784329414,-0.005626899971067905,0.005064662978425622
1772656090147017700,2.653017822265625,0.006858779853582382,-0.0032227431724779305,-0.009132542604999617
1772656090157000700,2.663000732421875,0.004463409149646759,0.0012822400965727865,-0.0019488233796786515
1772656090166982700,2.672982666015625,0.006406944432854652,0.00011136968629434705,-0.0041979174807202065
1772656090176965600,2.682965576171875,0.00954933411180973,-0.00374424629593268,0.0014612590584438293
1772656090186947800,2.69294775390625,-0.000029810616374015806,0.0011683861922472715,0.005777706618607044
1772656090196929800,2.7029296875,0.0041594577670097345,-0.002939140458125621,0.000905625336524099
1772656090206912800,2.712912841796875,0.006704466074705123,0.00016408625422045589,-0.005553286745585501
1772656090216894700,2.722894775390625,0.010745265898108482,0.002385616494901478,-0.00872903070487082
1772656090226877700,2.732877685546875,0.009696049106121063,-0.0003270765298977494,0.011878909570537506
1772656090236860000,2.74285986328125,0.008497779232263565,-0.000509429093170911,-0.009458386159036308
1772656090246842600,2.752842529296875,0.015679799690842627,-0.00032053719125688075,-0.0030624563105404374
1772656090256824800,2.762824951171875,0.010891980892419814,-0.0008998714491724967,-0.004174171278951689
1772656090266806800,2.772806884765625,0.010592705684900283,0.0011970825637690721,-0.0004457984055858105
1772656090276789800,2.782789794921875,-0.00003214870393276214,-0.006344181394949555,-0.008908688987558706
1772656090286771700,2.792771728515625,0.00819733498096466,0.00012707871207967399,0.006319686274509876
1772656090296755000,2.8027548828125,0.0007148702710866927,0.006425320339761674,-0.004280079338839277
1772656090306736600,2.812736572265625,-0.000032733225822448726,-0.0021740743697620927,-0.006108628206560388
1772656090316719900,2.822719970703125,0.0023608839124441144,-0.004734134116116911,0.0011361370236147195
1772656090326701600,2.83270166015625,-0.000030979660153388974,0.003095025139581412,0.007204332755086943
1772656090336684800,2.842684814453125,-0.006166705936193466,-0.006909523660130798,0.000018522037379443643
1772656090346666800,2.852666748046875,0.0029611878931522367,-0.004920961925107986,0.005810476377047598
1772656090356648700,2.862648681640625,-0.0003337619990110397,0.003268226282019168,-0.0022845216074492782
1772656090366631700,2.872631591796875,-0.004072948527336121,-0.009525934969913214,-0.005674410640913992
1772656090376613600,2.882613525390625,0.004757423660159111,-0.0022708675414323805,-0.0027439832122065125
1772656090386596600,2.8925966796875,0.004009820163249969,0.004190419160854071,-0.0036109387724660336
1772656090396578800,2.902578857421875,-0.0034738135904073715,0.000004730974044650793,-0.009041576385917141
1772656090406561500,2.9125615234375,0.002063362270593643,0.001960504684317857,-0.006294643164798617
1772656090416543700,2.922543701171875,-0.000630114597082138,-0.000603482318483293,-0.006549933100119232
1772656090426526000,2.93252587890625,-0.0022767127603292464,-0.0015268807737156749,0.0020475345137994736
1772656090436508700,2.9425087890625,0.0083481416285038,-0.00006904664821922778,-0.001955956373363733
1772656090446491000,2.952490966796875,0.0029629414588212967,0.0010281922702677548,-0.0018400931750424206
1772656090456473900,2.962473876953125,0.007901566904783249,-0.0038528029706329106,0.005894291336135939
1772656090466455800,2.972455810546875,0.0017693477600812912,0.005279657435975968,0.006906975510017946
1772656090476438800,2.982438720703125,0.012694061878323554,0.0040759259357117114,0.004806075974320993
1772656090486420700,2.992420654296875,0.01464051977097988,-0.006505801697447896,0.0030443452651146797
1772656090496402700,3.002402587890625,0.00940378816127777,-0.011826521796174346,0.01105549175790511
1772656090506386000,3.012385986328125,0.005659925457835197,-0.002337904895655811,0.003969296356616542
1772656090516367600,3.02236767578125,0.009102174866199493,-0.0004986337045207619,-0.006621664895769208
1772656090526350800,3.032350830078125,0.00850362445116043,0.0059431811123155055,-0.0006403254638426006
1772656090536332800,3.042332763671875,0.001471241596341133,-0.0029813173657283185,0.003819576554466039
1772656090546315800,3.052315673828125,0.010748773029446601,-0.004207242431491613,-0.007217484497604891
1772656090556297700,3.062297607421875,0.0014706570744514465,-0.008494399965088814,-0.00917209829725325
1772656090566281000,3.072281005859375,0.001620294678211212,-0.0010110950049944222,-0.015452384143136441
1772656090576262700,3.0822626953125,0.007008417457342147,-0.005846095679700374,0.00642826121551916
1772656090586244900,3.092244873046875,0.009404957205057143,-0.0055705118750222025,-0.004832872649701312
1772656090596227600,3.1022275390625,0.012101941204071045,-0.00389161887736991,0.0007422880009748041
1772656090606209800,3.112209716796875,-0.0018126023799180982,0.0008364325578324496,0.002126974691869691
1772656090616192800,3.12219287109375,-0.006453121662139892,-0.003429207263700664,0.010291348118148743
1772656090626174700,3.1321748046875,0.0022235212683677672,0.000008950491435825825,0.003568067745119333
1772656090636157700,3.14215771484375,0.008356909456849098,-0.006496065754722804,-0.009201580120064317
1772656090646139600,3.1521396484375,0.005811316627264022,-0.01381144853569567,-0.005003753970889375
1772656090656121900,3.162121826171875,0.012096680507063865,-0.003042746963072568,0.006939790934231132
1772656090666104800,3.172104736328125,0.0038660277783870694,-0.0000082381053827703,-0.000861366069689393
1772656090676086800,3.182086669921875,0.0038689503878355023,0.002669767198525369,-0.0001397737968713045
1772656090686069800,3.19206982421875,0.0022258593559265137,-0.009698825585097074,0.01236466552717611
1772656090696051700,3.2020517578125,0.010007599273324012,-0.00019798852382227778,0.00018665427905507385
1772656090706034700,3.21203466796875,0.005671031373739242,-0.006806063285656273,-0.0023622264861594884
1772656090716017000,3.222016845703125,0.009862053322792053,0.0004512326325289905,-0.000014713511941954492
1772656090725998600,3.23199853515625,0.0019330138891935347,0.000486212614364922,-0.0035997597913257776
1772656090735981800,3.24198193359375,0.010164835661649703,-0.006084270083438605,-0.00678596121254377
1772656090745963800,3.2519638671875,0.007170914542675018,-0.005580174752511084,-0.00426960361059755
1772656090755946800,3.26194677734375,0.0022357962280511855,-0.011322280334774405,-0.0007422880009748041
1772656090765928700,3.2719287109375,0.003134206372499466,-0.0011549056561663746,0.0000850936007220298
1772656090775912000,3.281911865234375,-0.0013537526965141295,-0.0034773389880545435,0.0062213313334155826
1772656090785893600,3.2918935546875,0.006873977422714233,-0.004955284319818019,-0.008352452477440238
1772656090795876900,3.301876953125,0.010616671082377432,-0.000019307488668709993,-0.0046439487817464395
1772656090805858800,3.31185888671875,0.0025379940450191494,-0.005072115632519126,-0.0015106237586587667
1772656090815840800,3.3218408203125,0.005384031125903129,-0.007447356863878667,0.004246524129109457
1772656090825823700,3.33182373046875,0.011667641440033912,-0.0063334773378446695,0.007350581958517431
1772656090835805700,3.3418056640625,0.004782558101415634,-0.001890964845754206,-0.006492709320434368
1772656090845788700,3.35178857421875,0.008821019837260245,-0.001227569033578038,-0.0029535617091227323
1772656090855771000,3.36177099609375,0.0016384148567914962,-0.0013942856363020836,-0.006882594554009847
1772656090865753600,3.371753662109375,-0.0004559270739555359,-0.003943568260315805,0.004440197237418033
1772656090875735800,3.38173583984375,0.002235211706161499,0.0013072466736659407,0.013128338809474371
1772656090885714700,3.391714599609375,0.0007376666247844696,-0.00921705168383196,-0.0030749048001598566
1772656090895698000,3.401697998046875,0.012558452799916266,-0.0010841237085871397,-0.007736439470946788
1772656090905679600,3.4116796875,0.007320552146434784,-0.006894179960526526,-0.006857062820531427
1772656090915662800,3.421662841796875,0.0031318682849407193,-0.008361658697202802,-0.006898979433230124
1772656090925644500,3.43164453125,0.014354104045033454,-0.003706197574175894,-0.005403955102502368
1772656090935627800,3.441627685546875,-0.00031038112342357635,0.005837821041699499,-0.00019156334961298852
1772656090945609700,3.451609619140625,-0.008840309059619904,0.0006233560627326369,-0.0006653731401311233
1772656090955591700,3.461591796875,-0.004348258337378502,-0.0059647718896158036,-0.005960086581343785
1772656090965574700,3.47157470703125,-0.0006079027652740478,0.0028797566873952746,0.006354593191109597
1772656090975556900,3.481556884765625,0.0044815293282270425,-0.00996693846937269,0.003390697317640297
1772656090985539600,3.49153955078125,0.006128127491474151,-0.012365743239410221,0.0015585499870358034
1772656090995521800,3.501521728515625,-0.002402384966611862,-0.0080230926589109,0.00006266257320530712
1772656091005504800,3.5115048828125,0.0007382511466741561,-0.0009763890177942812,-0.0010816486237104981
1772656091015486700,3.52148681640625,0.004326631027460098,-0.003889262523502111,0.0037474976989440617
1772656091025469700,3.5314697265625,0.01689443617761135,-0.005445734717883169,-0.003710873749293387
1772656091035451600,3.54145166015625,0.009264671951532364,-0.000042469168547540904,-0.005720688334899023
1772656091045433900,3.551433837890625,0.0038800563037395476,0.0007907485188916325,-0.0012768332690931857
1772656091055416800,3.561416748046875,0.0046270752787590025,0.00975280252834782,0.00837758691869676
1772656091065398800,3.571398681640625,0.008520575585961341,-0.0061930459538474675,0.0011388861031271518
1772656091075381800,3.5813818359375,0.005077157133817673,0.004875990272220224,0.0002654734026174992
1772656091085363700,3.59136376953125,0.00043722237348556514,-0.001833225042838603,-0.0005370112198404967
1772656091095346700,3.6013466796875,0.005225041171908378,-0.005603281633462757,0.003662687226012349
1772656091105329000,3.611328857421875,0.007767711392045021,-0.006024959377944469,0.007486702493578195
1772656091115310600,3.621310546875,0.0043278000712394715,-0.00029266280364245175,0.008551664843969046
1772656091125293800,3.6312939453125,0.001188333001732826,0.002379113688878715,0.00299854249516502
1772656091135275800,3.64127587890625,0.0013385551273822783,0.0028855471073649824,0.009370506946183741
1772656091145258800,3.6512587890625,0.002835515686869621,-0.0016960085292346775,-0.0008599778302013874
1772656091155240700,3.66124072265625,0.005381108516454697,-0.0034560404716990887,0.002759600906446576
1772656091165224000,3.671223876953125,-0.003149403941631317,-0.004464085003081709,-0.0032018099823035297
1772656091175205600,3.68120556640625,0.007025368592143058,-0.0026100911668501792,-0.008479649920528754
1772656091185188900,3.69118896484375,0.002388356441259384,-0.005831190371513366,-0.001756433479581028
1772656091195170600,3.701170654296875,0.009421323817968367,0.004169495103834197,-0.0021945600353647024
1772656091205152800,3.71115283203125,0.0040343700826168056,-0.006381554263271391,-0.0032645730202086267
1772656091215135700,3.7211357421875,0.0010433715730905533,-0.010928522643679753,-0.0060195982162375
1772656091225117700,3.73111767578125,0.006730185037851333,-0.001972514782520011,0.005610031034657731
1772656091235100700,3.7411005859375,0.010620762735605239,-0.005119608036056161,0.0015840908536687492
1772656091245082600,3.75108251953125,0.001644260075688362,-0.0025285960290115325,0.006947252721479162
1772656091255065600,3.761065673828125,-0.004787234276533127,0.0001476831086911261,0.009317909109266474
1772656091265047800,3.7710478515625,-0.0029909985095262527,-0.004090758178662508,0.0038999117816798387
1772656091275030500,3.781030517578125,0.003144727766513824,0.0013203344841022043,-0.000984928517276421
1772656091285012700,3.7910126953125,0.0032931963264942166,-0.00880876314388588,0.004022341718105599
1772656091294995000,3.800994873046875,-0.0002986906856298446,-0.0056144149488303804,-0.003928936946764588
1772656091304977700,3.810977783203125,0.0053869537353515625,-0.010191714535420759,-0.0014127528747543692
1772656091314960000,3.8209599609375,0.016012392646074295,-0.006812346895970404,-0.0065881188191939145
1772656091324942800,3.83094287109375,0.0034422494083642956,-0.010020157360797748,-0.003179735147813335
1772656091334924800,3.8409248046875,0.011970423778891563,-0.010915800159424543,-0.0009535926640965044
1772656091344907800,3.85090771484375,0.006285363879799843,-0.007988222274929284,-0.0030783936651889235
1772656091354889700,3.8608896484375,0.014219079488515854,-0.004422520016832277,-0.006106235320074483
1772656091364871700,3.87087158203125,0.002994505640864372,-0.008364179447852074,0.008159541987534612
1772656091374855000,3.88085498046875,0.006883329772949218,-0.0030388288397807627,-0.003056081368681043
1772656091384836600,3.890836669921875,0.006433247917890549,-0.0054300896241795266,-0.0036440464576240625
1772656091394819800,3.90081982421875,0.002093172886967659,-0.002107073548156768,0.0017707359995692968
1772656091404801800,3.9108017578125,0.007926116824150085,-0.005120366087881848,0.0038405554104130714
1772656091414784800,3.92078466796875,0.0058294368058443066,-0.004493292831256985,0.005764025153126567
1772656091424766700,3.9307666015625,-0.0031499884635210035,-0.005757577146030962,-0.002281233671819791
1772656091434748700,3.940748779296875,0.0037333413094282147,-0.008053085938375443,-0.0014561444919090718
1772656091444731600,3.950731689453125,-0.0031517420291900635,0.0002387680587824434,-0.004783864142512902
1772656091454713900,3.9607138671875,0.01016542018353939,-0.003726053052116185,-0.004294518856145442
1772656091464696600,3.970696533203125,-0.0027028292179107666,-0.011194014312606304,0.010133545474242419
1772656091474678800,3.9806787109375,0.0010386953979730606,-0.0003213409088551998,-0.0010757303395774215
1772656091484659700,3.99065966796875,-0.007789923223853111,-0.007480966872535646,-0.0008017905027139932
1772656091494642700,4.000642578125,0.003880640825629234,-0.004879351273085922,-0.005419266836065799
1772656091504625000,4.010625,0.013158172258734703,-0.007283033147640526,0.004648748254450038
1772656091514606600,4.020606689453125,0.010017536145448685,-0.0002322743859142065,-0.007025852649332955
1772656091524589800,4.03058984375,0.01525485227704048,0.0009392810109537094,0.006840586609765887
1772656091534571500,4.040571533203125,0.00447860671877861,-0.002213840124569833,0.005649559327447787
1772656091544554800,4.0505546875,0.00672375529706478,-0.0010538564344868063,0.007855179612943903
1772656091554536700,4.06053662109375,-0.0006073182433843612,-0.005169438527151942,0.005178946141013875
1772656091564519700,4.070519775390625,-0.00030687399208545685,-0.0038527025059331204,0.012576618644269183
1772656091574501600,4.080501708984375,0.010766893208026885,0.0013317691935691982,-0.00865568234086968
1772656091584483600,4.090483642578125,0.002539163088798523,-0.0014515231157187372,-0.0014353208995889872
1772656091594466600,4.100466552734375,-0.0018003274202346802,-0.0035555461902637034,-0.002120243556983769
1772656091604448800,4.11044873046875,0.0038853170007467266,-0.009916285994369537,-0.0020960863632615654
1772656091614431700,4.120431640625,-0.0022504092752933503,0.000995276381354779,0.0016326335699763147
1772656091624413700,4.13041357421875,0.00298632233440876,-0.0018116159992292522,0.001134365191636607
1772656091634396700,4.140396728515625,0.008520575585961341,-0.003604874357860535,0.0020752536377869543
1772656091644378600,4.150378662109375,0.00253448691368103,0.0005683562061749399,0.0014119582903105764
1772656091654361600,4.160361572265625,0.0001426233410835266,-0.0042085393394343555,-0.003989973818464204
1772656091664343800,4.17034375,0.008821604359149932,-0.007180668751709163,-0.0013321436529047787
1772656091674325800,4.18032568359375,-0.0004559270739555359,-0.00477510544732213,-0.0032840357725042848
1772656091684308700,4.190308837890625,0.015703765088319777,-0.003109236328024417,-0.004562202482158318
1772656091694290700,4.200290771484375,0.009717676416039467,-0.0072616615660488605,-0.0007769574555568396
1772656091704273700,4.210273681640625,0.0059749827563762665,0.0010788264789618552,0.0009608078561723232
1772656091714256000,4.220255859375,0.005079495221376419,-0.00798272411590442,0.0036951281908899542
1772656091724238600,4.230238525390625,0.012110124510526656,0.003448752214387059,-0.0015153455995488912
1772656091734220800,4.240220703125,-0.001508066475391388,0.000814933112077415,-0.005684146583639085
1772656091744202500,4.250202392578125,0.006271919876337051,-0.0010145656037144363,0.00024411095418035983
1772656091754185700,4.260185791015625,0.013155834171175955,-0.0021169738876633346,-0.0034928379512857645
1772656091764167700,4.270167724609375,0.0017845453292131422,-0.005466211250331253,0.0011111669791396706
1772656091774151000,4.28015087890625,-0.0012064531803131103,-0.0009129501264542341,0.0016662983775604515
1772656091784132600,4.290132568359375,-0.0006096563309431075,-0.0011724778454750776,0.010183512962656094
1772656091794115800,4.30011572265625,0.005827683240175247,-0.0013247823303565382,0.0017882990557234733
1772656091804097500,4.31009765625,0.008372107025980948,-0.0015167338390368967,0.0059361120507121085
1772656091814080800,4.320080810546875,-0.0012046996146440505,-0.0002989464139565825,0.00006819726484827697
1772656091824062700,4.330062744140625,0.0034340661019086837,-0.004255648150481284,-0.00709488103124313
1772656091834044700,4.340044677734375,0.010617840126156807,-0.009428639474743976,-0.0013845131609588862
1772656091844027600,4.350027587890625,0.008523498195409774,-0.0009618947015609592,0.0030065979374572635
1772656091854009600,4.360009521484375,0.0017892215043306349,-0.009157065124902873,0.00012774543236009775
1772656091863992600,4.36999267578125,0.0044815293282270425,-0.007917020202241838,-0.0010168306260369716
1772656091873974800,4.379974853515625,-0.003149403941631317,-0.003200330411270261,0.010172151318425311
1772656091883957500,4.38995751953125,0.0031371289819478987,-0.004093050600448623,0.004522107933787629
1772656091893939200,4.399939208984375,-0.002848375168442726,-0.004872583605581894,0.011028941677697001
1772656091903922400,4.40992236328125,0.00717909784913063,-0.002763199369329959,-0.0016408351427409796
1772656091913904000,4.419904052734375,0.0086748893648386,-0.000814522120123729,0.004992611522367224
1772656091923886300,4.42988623046875,-0.000751110628247261,0.0018087299223989246,0.000800283532217145
1772656091933869000,4.439869140625,0.005234393522143364,-0.007875236020283774,-0.0024122305071912703
1772656091943851300,4.449851318359375,-0.002696399477124214,-0.005772318057436496,0.0027784974031616
1772656091953834200,4.459834228515625,-0.006135726276040077,-0.0025866006934084,0.007348874058621004
1772656091963816200,4.469816162109375,0.004641688326001167,-0.004258168901130557,0.00773358079358004
1772656091973799200,4.479799072265625,0.007932546564936638,-0.000635238296771422,0.004022131655551493
1772656091983781400,4.489781494140625,0.0050911856591701506,-0.003043413683352992,0.0023613953690975902
1772656091993764000,4.49976416015625,0.0055406829923391335,0.0008683711992111057,-0.0020993925652001053
1772656092003746300,4.509746337890625,0.0026946459114551543,0.001910555462213233,0.00011211860496550797
1772656092013728300,4.519728271484375,0.00015080664753913878,-0.0010649806166999041,0.005918749923957511
1772656092023711200,4.529711181640625,-0.007030044767260551,-0.012963964860886334,0.0029730609940364955
1772656092033693400,4.539693359375,0.0007534487158060073,-0.005393401742447167,-0.007817432285286486
1772656092043676200,4.54967626953125,0.0019499650239944457,0.003471986959502101,-0.0029125264458358287
1772656092053658400,4.559658447265625,0.000751110628247261,-0.007935332177067175,0.007913987994939089
1772656092063641300,4.569641357421875,-0.0026928923457860943,-0.009648584102047606,0.00888707081079483
1772656092073623300,4.579623291015625,0.006433832439780235,-0.006310279125347733,-0.003337126799765974
1772656092083605200,4.589605224609375,0.0040390462577342984,-0.0019628519050311297,-0.00342165414490737
1772656092093588200,4.599588134765625,0.015413257709145546,0.0005408836773596703,0.00016760251871310173
1772656092103570200,4.609570068359375,0.0032902737170457837,-0.0013078037960920481,0.010348466866556555
1772656092113553400,4.619553466796875,-0.010028057539463042,0.005767778879636898,0.0036058881380129602
1772656092123535000,4.62953515625,-0.007035889986157417,-0.003987836660305038,-0.007526577846240252
1772656092133518300,4.639518310546875,0.00912497121989727,-0.002289663573447615,-0.0005488569212611764
1772656092143500300,4.649500244140625,-0.0016495207726955413,0.00014751871190965175,-0.0016477215412538497
1772656092153483300,4.659483154296875,0.0029921675533056257,-0.005083915668167174,0.0009878419935703277
1772656092163465200,4.66946533203125,0.001793313157558441,-0.0073020301090553396,0.0050123026035260405
1772656092173447200,4.679447265625,0.007928454911708831,-0.006156321539497003,0.004232020679721608
1772656092183430100,4.68943017578125,-0.004940963533520699,-0.009384900797717272,0.0012178148245438932
1772656092193412400,4.699412353515625,0.010769815817475319,-0.002638184750173241,0.0032477680158801373
1772656092203395000,4.70939501953125,0.003734510353207588,-0.002215602823393419,0.0010758399374317378
1772656092213377300,4.719377197265625,0.01151391218304634,-0.0008870119675993919,-0.0027105193340219557
1772656092223360300,4.7293603515625,0.006274842485785484,0.0009706990625243633,-0.004550685574300587
1772656092233342200,4.73934228515625,-0.0006073182433843612,0.0004859203534200787,-0.0026548892898019404
1772656092243325200,4.7493251953125,0.003732756787538528,-0.0073079027274157845,-0.0030436876779887825
1772656092253307400,4.759307373046875,-0.006291793620586395,-0.010400242719566449,0.009574505085684358
1772656092263289000,4.7692890625,0.004630582410097122,-0.011810794504079966,-0.001817643881216645
1772656092273272300,4.779272216796875,0.004630582410097122,0.000709362978907302,-0.003090915220044553
1772656092283254300,4.789254150390625,0.0038823943912982936,-0.0036842871364671736,0.008555920893978327
1772656092293237200,4.7992373046875,-0.007642623707652092,-0.007582198757305741,0.0008783628702629357
1772656092303219200,4.80921923828125,0.011810264781117439,-0.0053504667830187825,0.004801591595448553
1772656092313202200,4.8192021484375,0.01749532468020916,-0.004583902857312932,-0.00350141398338601
1772656092323184000,4.82918408203125,0.006570610561966896,-0.004544347165059298,0.004052207133406773
1772656092333166000,4.839166015625,0.011658289089798927,-0.007678480472322553,-0.008521479768259451
1772656092343149300,4.8491494140625,0.008514145845174789,-0.006697433545719832,-0.0002614730809349567
1772656092353131300,4.85913134765625,-0.006000701719522476,-0.009048362319730222,-0.005547130999434739
1772656092363114200,4.8691142578125,0.013601239851117133,-0.004811729396972805,0.0011383563801646232
1772656092373096200,4.87909619140625,0.00941430955529213,-0.007134564587660134,0.005418198256986215
1772656092383079200,4.8890791015625,0.011510989573597908,-0.0011191402230411767,0.004987652219459415
1772656092393061000,4.89906103515625,0.0016337386816740035,-0.004072126543428749,-0.0015198573778849095
1772656092403044000,4.909044189453125,0.002977554506063461,-0.003311526567628607,0.00783299518059939
1772656092413026300,4.9190263671875,0.005966799449920654,0.000312079890165478,0.006252849849686026
1772656092423008300,4.92900830078125,0.010753449204564093,-0.0006186433549970388,-0.0010561945220455527
1772656092432991200,4.9389912109375,0.004617722928524017,-0.011074936243891715,-0.0005826313266996294
1772656092442973200,4.94897314453125,0.015091770669817924,-0.0034448797568678853,0.005777049031481146
1772656092452956200,4.9589560546875,0.0004249474138021469,-0.006503226147871464,0.00256709227534011
1772656092462938400,4.9689384765625,-0.00017535656690597534,0.003980539269838482,0.009705109195411205
1772656092472921000,4.978921142578125,0.009101590344309806,-0.0015239764305762945,0.005339908856386319
1772656092482903300,4.9889033203125,0.004015080860257148,0.0010279000093229114,-0.0015413750899489968
1772656092492886300,4.99888623046875,0.011496961048245428,-0.004743833526223898,0.0004176317570265382
1772656092502868200,5.0088681640625,0.007457330268621444,-0.008738291723560542,0.0050750656414311375
1772656092512850200,5.01885009765625,0.008055880683660506,-0.0007898534697480499,0.004292390831140801
1772656092522833400,5.02883349609375,0.010597966381907463,-0.000807352593820542,0.009617257382022217
1772656092532815000,5.038815185546875,0.00790624307990074,0.00019943156223744152,0.000356156493909657
1772656092542798300,5.04879833984375,-0.0028676643908023833,0.0019824425214901567,0.0016007588606793432
1772656092552780000,5.058780029296875,0.0052127662122249604,-0.007610237541701644,0.002350097656948492
1772656092562763300,5.06876318359375,-0.0007762450695037841,-0.0014666750190779566,0.0008171159360092133
1772656092572745200,5.0787451171875,0.009549918633699417,-0.00019632628969848154,0.0051586157390382135
1772656092582728200,5.088728271484375,0.000571077886223793,-0.00674319064989686,0.0014469839379191397
1772656092592710100,5.098710205078125,0.009249474382400513,-0.00047265901304781435,0.009899444457422942
1772656092602692000,5.108692138671875,0.003713467565178871,0.004329078712873161,0.0023299225185997785
1772656092612675000,5.118675048828125,0.012692892834544181,0.0006804382785223425,-0.004468916441826149
1772656092622657300,5.1286572265625,-0.006458382359147072,-0.011075064108055085,0.0006730860891286283
1772656092632640000,5.138639892578125,-0.002717442265152931,-0.007683467174693942,0.004385594673082232
1772656092642622200,5.148622314453125,0.010900748720765113,-0.003732720254920423,0.0031986773103009907
1772656092652605200,5.158605224609375,0.002523380997776985,-0.0049969863033853465,0.008142335124406963
1772656092662587100,5.168587158203125,0.00013034838140010832,-0.0026945180472917854,0.0037007450809236615
1772656092672569300,5.1785693359375,-0.002714519655704498,-0.001509052856080234,-0.00432785487016663
1772656092682552300,5.18855224609375,0.0014747487276792525,-0.005943674302659929,0.004934716455824673
1772656092692534300,5.1985341796875,0.009704232412576674,-0.0047216034281067545,-0.0019394710294436662
1772656092702517200,5.208517333984375,0.0019213234513998031,-0.006562646451219916,0.0034669271918945014
1772656092712499200,5.218499267578125,0.013743278670310973,-0.0059545427565462885,0.0014599895499646663
1772656092722482200,5.228482177734375,0.005810732105374336,-0.008158500807918608,0.003675838968530297
1772656092732464400,5.23846435546875,0.005362988337874412,-0.0056328913204371925,0.0041787469893693925
1772656092742447000,5.248447021484375,0.005362403815984726,-0.005117397812660783,-0.00023639343860559165
1772656092752429300,5.25842919921875,0.009700140759348868,-0.0003584397825412452,-0.004890895580407232
1772656092762411000,5.268410888671875,0.01778057136237621,-0.0033403416701592503,0.0015256295315455644
1772656092772394200,5.278394287109375,0.0023696517407894133,-0.009801792769227177,0.002419445699267089
1772656092782376200,5.288376220703125,0.00042377837002277374,-0.0021622743341140446,-0.0006902838191017508
1772656092792359200,5.298359130859375,0.010746434941887855,0.005731912981811911,0.007738658827496692
1772656092802341000,5.308341064453125,0.006110007312893867,-0.0057760443844832475,-0.003012698884680867
1772656092812324400,5.318324462890625,0.010900748720765113,-0.0010139628155156968,0.008840628720028325
1772656092822306000,5.32830615234375,0.004466331759095192,-0.003820928261335939,-0.007868166958680376
1772656092832289300,5.338289306640625,0.0035679216146469114,-0.0049781902713701125,0.006985283176926896
1772656092842271200,5.348271240234375,0.008506547060608863,0.0006674144001677631,-0.0025794494334142656
1772656092852253200,5.358253173828125,0.005811901149153709,-0.0022678353341296312,-0.00002386493277736008
1772656092862236200,5.368236083984375,0.01224631811082363,-0.005150569429900497,0.000620150325493887
1772656092872218000,5.378218017578125,0.007004910326004028,-0.0016389811123721301,-0.006438846541615203
1772656092882201000,5.388201171875,0.00101999069750309,-0.0001974588008597493,0.0049212815855164075
1772656092892182800,5.398182861328125,0.0029658640682697296,-0.00047240328472107645,0.003218852448649704
1772656092902166000,5.408166015625,0.003863689690828323,0.007030720620695501,0.004467601267574355
1772656092912148000,5.41814794921875,0.014187515306472777,-0.0019959047912620005,0.0006766114867758006
1772656092922130000,5.4281298828125,0.009696049106121063,0.004510645824857056,-0.004665982517041266
1772656092932113000,5.43811279296875,0.008346972584724426,-0.003505944028031081,-0.0039050811471417544
1772656092942094800,5.4480947265625,0.0010135609567165373,-0.0021230383022688326,0.002270748810423538
1772656092952077800,5.458077880859375,0.00879296278655529,-0.0000912950126454234,0.011430015025567264
1772656092962060000,5.46806005859375,0.015527823999524116,0.0022870149586349726,0.002828528823656961
1772656092972042800,5.478042724609375,0.0016121113717555999,-0.010159794160351156,-0.005570822402276098
1772656092982025000,5.48802490234375,0.0037082068681716916,-0.004556001070234924,0.0044536914732307194
1772656092992008000,5.498008056640625,0.007150456276535987,0.0021318243969231845,-0.0055218869603238995
1772656093001990000,5.507989990234375,0.011189502534270286,-0.0038098954106681048,-0.0033687640470452603
1772656093011971800,5.517971923828125,0.0025099369943141934,-0.003234652805980295,0.0010516827437095342
1772656093021955000,5.527955078125,0.014181670087575912,0.0014404263329692185,0.004734051917726174
1772656093031936800,5.537936767578125,0.013729250144958495,0.002986760725826025,-0.001963929617265239
1772656093041920000,5.547919921875,0.006097147831320762,-0.0005956826045177877,0.006056477894214913
1772656093051901700,5.557901611328125,0.01058627594411373,-0.0033229521439410744,0.0014728398983832448
1772656093061885000,5.567885009765625,0.00789279907643795,0.0006410561162047088,0.0011823690518271176
1772656093071867000,5.577866943359375,0.005201075774431229,0.0011899221706204116,-0.0010184563275426625
1772656093081849900,5.587849853515625,0.005949263793230056,0.00517279952801764,-0.0007972239254508167
1772656093091831800,5.597831787109375,0.006249708044528961,0.0006112637661397456,0.008360717982286587
1772656093101813800,5.607813720703125,0.017771219012141227,-0.0017525610220618544,0.007194642478134483
1772656093111796700,5.617796630859375,0.00639876112639904,-0.007169690699968486,0.002011312422947958
1772656093121779000,5.627779052734375,0.002206570133566856,-0.0067241936884820455,-0.0033784451908431944
1772656093131761700,5.63776171875,0.006695113724470138,0.006279683057684451,-0.009751870946586132
1772656093141743900,5.647743896484375,0.004597849184274673,-0.0028917211198247967,-0.003191626515006646
1772656093151726800,5.657726806640625,-0.0027361469656229016,-0.004131930439267307,0.0013012096585240213
1772656093161708800,5.667708740234375,0.002650222247838974,-0.0004049640716984868,-0.001181263940129429
1772656093171691800,5.67769189453125,0.003849661165475845,-0.006216298965271562,0.005973311389097943
1772656093181674000,5.687674072265625,-0.0004915829092264175,-0.0065449281314387915,0.001930977195734158
1772656093191656000,5.697656005859375,0.01462181507050991,0.004073094657808542,0.0009193068020045756
1772656093201639000,5.707638916015625,0.0010036240845918655,0.0032298670330084857,0.00028926527015864847
1772656093211620900,5.717620849609375,0.01506838979423046,-0.000603299655392766,0.001721234302036464
1772656093221603800,5.727603759765625,0.015367665001749992,-0.007598766299616545,-0.0010573361663613469
1772656093231586000,5.7375859375,0.004146013763546943,-0.007972038325108587,-0.0031510935752186923
1772656093241568800,5.74756884765625,0.001897358053922653,-0.0033932957001030443,0.004628052526293322
1772656093251551000,5.757551025390625,0.003841477859020233,-0.004324877461791038,0.0026606523103080686
1772656093261534000,5.767533935546875,-0.001547229442000389,0.0022766579614020882,0.005073302942607552
1772656093271516000,5.777515869140625,0.004586158746480941,-0.003524922723136842,0.00878833227721043
1772656093281497900,5.787497802734375,0.0021937106519937513,-0.0040978820391930635,0.004753295474313199
1772656093291480800,5.797480712890625,0.006384148079156876,0.004428812760300934,0.0005077759922016412
1772656093301462800,5.807462890625,0.005336100330948829,0.0026961072161793705,-0.006852715438976883
1772656093311446000,5.817446044921875,0.006382394513487815,-0.010405768278054893,-0.0030939656936563547
1772656093321427700,5.827427734375,-0.0003542202651500702,-0.0004960946875624358,0.004656968093523756
1772656093331411000,5.837410888671875,0.003236497703194618,-0.003745744133275002,0.0036402470653411
1772656093341393000,5.847392822265625,0.00488251134455204,-0.0014933072976768015,0.0019458368381485341
1772656093351376000,5.8573759765625,0.011613865426182746,-0.0005767404420301317,0.005209916668012738
1772656093361357800,5.86735791015625,0.00398059406876564,-0.0038831067773513494,0.0060616472596768285
1772656093371339800,5.87733984375,-0.003649754679203033,0.005879815286211669,-0.003580516234738752
1772656093381322800,5.88732275390625,0.006077858608961105,0.006847071149479598,-0.007312085712188854
1772656093391305000,5.897304931640625,0.011167290702462196,0.002954155364166945,-0.004571226038830354
1772656093401287700,5.90728759765625,0.0003945522755384445,-0.00898225654726848,-0.00041923919222317636
1772656093411270000,5.917269775390625,-0.0016986206114292144,-0.007248802084475755,0.00024964564582332966
1772656093421252900,5.9272529296875,0.00384030881524086,0.0013621186660602688,0.0009945639953017234
1772656093431234800,5.93723486328125,0.0023427637338638303,0.005771733535546809,0.00470448789652437
1772656093441217800,5.9472177734375,0.003091536274552345,-0.0011279628503136337,0.00047552682356908916
1772656093451200000,5.957199951171875,0.011175474008917809,-0.004001308063231408,0.004275558427348732
1772656093461182000,5.967181884765625,0.00893324804008007,-0.004284563717711716,-0.00501618419419974
1772656093471165000,5.9771650390625,-0.0009399111986160278,-0.006520725271943956,-0.0044548605170100924
1772656093481147000,5.98714697265625,0.011031681624054908,-0.005622351660113782,-0.0055834809544496235
1772656093491129900,5.9971298828125,0.01043430025279522,-0.0037050102640874684,-0.003186073557054624
1772656093501112000,6.007112060546875,0.001309329032897949,0.0018745617002248762,-0.0028439090558793393
1772656093511094800,6.0170947265625,0.004150689938664436,-0.0017882716562598942,0.006494549651071429
1772656093521077000,6.027076904296875,-0.00003974748849868774,-0.002094780322164297,0.006699013581452891
1772656093531060000,6.03706005859375,0.013130699729919433,0.0018398009140975773,0.0017206954459194092
1772656093541042000,6.0470419921875,0.008790624698996543,-0.005641677415091544,0.004783170022768899
1772656093551023900,6.05702392578125,-0.004527706557512283,-0.002795969127770513,0.0009069861765485256
1772656093561006800,6.0670068359375,0.002359130346775055,-0.002556607413943857,-0.004439745146268979
1772656093570988800,6.07698876953125,0.01103811136484146,-0.0037815095664002,-0.003996065632533282
1772656093580972000,6.086971923828125,0.014479191729426383,-0.0029823950779624283,-0.0010122457824647427
1772656093590953700,6.09695361328125,0.015226210704445837,-0.007337448482308537,0.0011205010630656034
1772656093600937000,6.10693701171875,0.005198737686872482,-0.006481416174862534,0.003691438396461308
1772656093610919000,6.1169189453125,0.0029530045866966244,-0.006886361980251968,-0.006479671742348
1772656093620902000,6.12690185546875,0.011031681624054908,-0.0021530863806605337,-0.002092917158640921
1772656093630883800,6.1368837890625,-0.002285480588674545,0.000955291430838406,0.01391790458485484
1772656093640865800,6.14686572265625,0.0004091653227806091,-0.009033804071415215,-0.002737863998673856
1772656093650848800,6.156848876953125,0.0004091653227806091,-0.0031365992589853704,-0.011066268880246206
1772656093660831000,6.1668310546875,0.009539397239685058,-0.006545110794529318,-0.010279995607072486
1772656093670813700,6.176813720703125,0.005651742151379585,0.002241330919694155,-0.004719100943766534
1772656093680796000,6.1867958984375,0.0016115268498659134,-0.004206785773765295,-0.00048739079129882153
1772656093690779000,6.19677880859375,0.013284428986907005,-0.001870415248069912,-0.00576569652040489
1772656093700760800,6.2067607421875,0.005203413861989975,-0.0017923633094877004,-0.005399712752224877
1772656093710743800,6.216743896484375,0.010590367597341537,-0.0029654256768524645,-0.0014324896216858177
1772656093720726000,6.22672607421875,0.011339724659919738,0.0019940416277386248,-0.0030942579546011984
1772656093730708000,6.2367080078125,0.004756839138269424,-0.007939506028685718,-0.0025555662343278527
1772656093740691000,6.24669091796875,0.011342647269368171,-0.008557637927029281,-0.0043866084532346574
1772656093750673000,6.2566728515625,0.007899813339114188,-0.004601155386213213,-0.0005667031052056699
1772656093760656000,6.26665576171875,0.0028127193331718443,0.002102543503511697,-0.0005985686813481151
1772656093770638000,6.27663818359375,-0.0013771335721015929,-0.002705295169632882,0.0009117719495203346
1772656093780620800,6.286620849609375,-0.002426350364089012,-0.006543813886586577,0.0026679223013110456
1772656093790603000,6.29660302734375,0.007304185533523559,-0.0028378355081193148,0.0061020432021468875
1772656093800584700,6.306584716796875,0.017480711632966994,-0.010848452277947217,0.006704155547451227
1772656093810568000,6.31656787109375,0.015533669218420981,-0.0036747429899871347,0.005297750215092673
1772656093820550000,6.3265498046875,0.011791560080647467,-0.0004058591208420694,-0.004810779548902065
1772656093830532900,6.336532958984375,0.00924655177295208,-0.005829674267861992,-0.00037563751251436765
1772656093840514800,6.346514892578125,0.010890811848640441,-0.0038562735693529245,-0.010373866169294341
1772656093850498000,6.356498046875,0.004456979408860206,-0.007120627393852919,0.0015664729985874145
1772656093860479700,6.366479736328125,0.006401099213957786,-0.009610781975463032,0.009242834579059854
1772656093870463000,6.376462890625,0.007450900527834892,-0.0028155688773840665,0.009776886656833812
1772656093880445000,6.38644482421875,0.010144377395510672,-0.0011740304817445576,0.0025340211228001863
1772656093890427600,6.396427734375,-0.006312251886725425,0.00043729543872177596,0.0059475102275609966
1772656093900410600,6.40641064453125,-0.0015238485664129256,-0.010714103574864567,0.002769135919772088
1772656093910392600,6.416392578125,0.010143792873620987,0.003270966228377074,0.005307157364254817
1772656093920375600,6.42637548828125,0.01104161849617958,-0.0034931028127670287,0.0024651845371350643
1772656093930357800,6.436357666015625,0.009696049106121063,-0.0014719722487032412,0.0015722908180207014
1772656093940340500,6.446340576171875,0.0023638065218925474,-0.002065535961370915,-0.004514554814994335
1772656093950322700,6.45632275390625,0.01673193909227848,-0.005658080560620874,-0.003999609296489507
1772656093960305700,6.4663056640625,0.01523614757657051,-0.003739971979614347,0.0017683157136198133
1772656093970287600,6.47628759765625,0.005211597168445587,-0.003660184741672128,-0.0033223584888968614
1772656093980269600,6.48626953125,0.008800561571121215,-0.01072796770343557,0.005619785243691876
1772656093990252500,6.49625244140625,0.006258475872874259,-0.010838058748096227,0.006223450225265696
1772656094000234500,6.506234375,0.00985036288499832,-0.003234506675507873,0.004988802996929735
1772656094010217700,6.5162177734375,0.0035667525708675384,0.0015823555543087423,-0.0007985938986297697
1772656094020199400,6.526199462890625,0.0031172552376985546,-0.0036410964487120505,-0.006717709148768335
1772656094030182700,6.5361826171875,0.005659925457835197,0.0007527180634438991,0.004671535474993288
1772656094040164600,6.54616455078125,0.007004910326004028,-0.009084949736762792,-0.000363170756585896
1772656094050147600,6.556147705078125,0.008799392527341842,0.0010298362380824983,-0.01073512809658423
1772656094060129500,6.566129638671875,0.0031108254969120022,-0.006135233085695654,-0.002364591973181814
1772656094070111500,6.576111572265625,-0.00033259295523166654,-0.0035834845099598166,0.01021064756475389
1772656094080094500,6.586094482421875,-0.00018237082958221434,-0.0016901085114106535,0.007882369013968854
1772656094090076700,6.59607666015625,0.0032610476225614546,-0.005124740868899971,0.0005633786369580775
1772656094100059400,6.606059326171875,0.009096329647302627,-0.0038517435247078535,-0.0005588851249311119
1772656094110041600,6.61604150390625,0.00041851767301559446,-0.0032890316080302,-0.003273194718081504
1772656094120024600,6.626024658203125,-0.004220248043537139,-0.01036234926143661,-0.005186298330407589
1772656094130006500,6.636006591796875,-0.0022767127603292464,0.0025914595316164192,-0.0034964364141691472
1772656094139989500,6.645989501953125,0.01044248355925083,-0.0013418795956298708,-0.0008131521469447762
1772656094149971700,6.6559716796875,0.0005658171892166138,-0.004293550741765648,0.0015526271363254635
1772656094159953700,6.66595361328125,0.004753332006931304,-0.002049041484296322,0.00407507655234076
1772656094169936600,6.6759365234375,0.0019096330136060713,-0.0001799414104782045,-0.0025636399429291483
1772656094179918600,6.685918701171875,-0.0036287118911743164,-0.013284794313088058,-0.0017453732294496148
1772656094189901600,6.695901611328125,0.0032546178817749022,-0.006518807309493422,0.00107315479000099
1772656094199883800,6.7058837890625,0.0019090484917163848,-0.0012759564862586557,0.0006136383863165974
1772656094209866500,6.715866455078125,0.005203413861989975,-0.005626918237376958,-0.0037045079405885186
1772656094219848700,6.7258486328125,0.0031108254969120022,-0.006364164737053215,0.0024322869145311414
1772656094229831700,6.735831787109375,0.01044248355925083,-0.006847874867077917,-0.001980716355284676
1772656094239813600,6.745813720703125,0.0016144494593143461,0.0016917342129163444,-0.006537301947409287
1772656094249796600,6.755796630859375,0.00041851767301559446,-0.001017433414235711,0.0021999851291533558
1772656094259778600,6.765778564453125,0.004160042288899422,-0.006398943789489567,0.0022126345481723545
1772656094269760500,6.775760498046875,0.012694646400213241,-0.0013930435272864997,-0.002118279928760603
1772656094279743700,6.78574365234375,0.005060790520906448,-0.005467435093037784,0.009715804119361564
1772656094289725400,6.795725341796875,0.005956862577795982,-0.003300192322861403,0.004905262032477185
1772656094299708700,6.805708740234375,0.00864917040169239,0.0007990962221287191,-0.005595838112523779
1772656094309690600,6.815690673828125,0.011494038438796997,-0.0025740334727801383,0.0031896628867834806
1772656094319673600,6.825673583984375,0.009552256721258163,-0.002127129955496639,-0.0029049185281153768
1772656094329655600,6.835655517578125,0.007457914790511131,-0.0018295535147190092,0.004310036085685715
1772656094339638800,6.845638671875,0.007758359041810035,-0.003940243792068213,0.007033287037117406
1772656094349620500,6.855620361328125,0.000879120922088623,0.0005081139189191162,-0.0017191976085770874
1772656094359602700,6.865602783203125,0.0011807342171669005,-0.0036308673156425354,0.010708696747384965
1772656094369585400,6.87558544921875,0.007017769807577133,-0.0016725545884110032,0.006677221874753013
1772656094379567600,6.885567626953125,0.007767126870155334,-0.0040751952833496035,0.00414447026043199
1772656094389550600,6.895550537109375,0.005223287606239318,0.002065207167807966,0.0027789814603514968
1772656094399532500,6.905532470703125,0.0010328501790761947,0.0009929017611779271,0.0014082502295728772
1772656094409515500,6.915515625,-0.000014028525352478027,-0.00681886796830222,0.007672973180143162
1772656094419497500,6.92549755859375,-0.0018108488142490385,0.0009092785983346402,-0.005281885925680399
1772656094429480400,6.93548046875,0.0038759646505117412,-0.0026854396916925908,-0.010080271783890203
1772656094439462700,6.945462646484375,0.008964812222123145,-0.003384436540212482,-0.0025824816407170144
1772656094449444600,6.955444580078125,0.00821603968143463,-0.005719711087364703,0.004598077513137832
1772656094459427600,6.965427490234375,-0.006599252134561538,-0.004931465052813291,-0.004642117584263906
1772656094469409800,6.975409912109375,-0.002260346147418022,-0.00459134637825191,-0.0024287706500384955
1772656094479392500,6.985392578125,-0.001810264292359352,0.0004737732579000294,-0.0032409820820670575
1772656094489374700,6.995374755859375,0.004625321713089943,0.008662011616956442,-0.008266911352146416
1772656094499357700,7.005357666015625,0.005073650002479553,-0.00047234848579391837,-0.004566887790430337
1772656094509339600,7.015339599609375,0.006570610561966896,-0.0036568785397335887,0.005027691968902946
1772656094519322600,7.025322509765625,0.008664952492713927,-0.0052103915920481084,0.005368815290462225
1772656094529304600,7.0353046875,0.0037245734810829162,-0.0036525676907971497,0.0038493049724493173
1772656094539286500,7.04528662109375,0.0028267478585243225,-0.003031001726351678,-0.0006920921836979687
1772656094549269800,7.055269775390625,0.004924596920609474,-0.006596859248075634,0.0007339037651196121
1772656094559251500,7.06525146484375,0.0032779987573623654,-0.000896693111397326,0.0007961462132167071
1772656094569234700,7.075234619140625,-0.004355857121944427,-0.0036495537498034535,0.006583424377767369
1772656094579216600,7.085216552734375,-0.0007633855879306793,-0.003418338809814304,0.004317762734415009
1772656094589199600,7.09519970703125,-0.006600421178340912,-0.008891619121748953,0.0002754194078966975
1772656094599181600,7.105181640625,0.011506897920370102,-0.006072305651009083,0.008582352243177592
1772656094609164800,7.115164794921875,0.006420388436317443,0.0012259067994542419,0.002318131616106257
1772656094619146500,7.125146484375,0.007168576455116271,-0.0044384208388626575,-0.0009999342901632188
1772656094629128700,7.135128662109375,0.0035766894429922103,-0.007071801549755037,-0.0031356494109146295
1772656094639111400,7.145111328125,-0.003454524368047714,-0.007500201295968145,0.005138120940281078
1772656094649093600,7.15509375,-0.0006108253747224808,0.0012727598821744323,-0.0076903901058249175
1772656094659076600,7.16507666015625,0.009115618869662284,-0.0017258556782267986,0.0032285244592931118
1772656094669058600,7.17505859375,0.013753800064325332,-0.00485881994171068,0.0012320260129868984
1772656094679041500,7.18504150390625,-0.0006073182433843612,-0.005549122027121484,0.002039113745326176
1772656094689023500,7.1950234375,-0.0006079027652740478,0.0037608686371706423,0.009093233507918193
1772656094699006500,7.20500634765625,0.01570142700076103,-0.0012799568079411984,0.013804708267655223
1772656094708988700,7.21498876953125,0.00866787510216236,-0.007222206338495016,-0.004640172222349793
1772656094718970600,7.224970703125,0.006871639335155486,-0.008929083321616052,-0.00036992015778087076
1772656094728953600,7.23495361328125,-0.0021066168904304503,0.0005568301651626825,-0.005297549285693094
1772656094738935800,7.244935791015625,0.0043278000712394715,-0.0021939481140114364,-0.003524484331719577
1772656094748918500,7.25491845703125,0.013009119176864623,-0.007533555576298386,-0.0013423179870471359
1772656094758900700,7.264900634765625,0.001488192731142044,-0.0010752462823875248,-0.00024024762981571257
1772656094768883700,7.2748837890625,-0.004347089293599129,-0.0042144393572583795,-0.001516012319829315
1772656094778865700,7.28486572265625,-0.005541852036118507,-0.002028784147556871,0.0002566781748086214
1772656094788848600,7.2948486328125,0.006879822641611099,0.0007323328625410795,0.0024784458775073286
1772656094798830600,7.30483056640625,0.009573884031176566,-0.0013215126610361038,-0.002339439265616238
1772656094808812500,7.3148125,0.012267945420742034,-0.004991314614424482,-0.0027526962416246532
1772656094818795800,7.324795654296875,-0.0047884033203125,-0.006931269701058044,0.000713609895762056
1772656094828777500,7.334777587890625,-0.0031400515913963317,-0.005107077348046004,0.003200987998396158
1772656094838760700,7.3447607421875,0.001499298647046089,-0.005688320435257628,0.004437964181136339
1772656094848742700,7.35474267578125,0.004642857369780541,-0.0015797434721142054,0.006523565683001652
1772656094858725600,7.3647255859375,0.003895253872871399,-0.00847006924143061,0.00003773819450289011
1772656094868707600,7.37470751953125,-0.013612345767021179,-0.00978851316254586,-0.004819291648920625
1772656094878690800,7.38469091796875,-0.009572714987397193,-0.00775579262538813,-0.0023632037336938083
1772656094888672500,7.394672607421875,0.004792494973540306,-0.008911474599689245,-0.002321994940470904
1772656094898656000,7.404656005859375,0.0035948096215724945,-0.003026005890825763,-0.000379683499969542
1772656094908637700,7.4146376953125,-0.0017915595918893813,-0.0036373335890471934,0.0004755724893417209
1772656094918620000,7.424619873046875,-0.0014922843843698502,-0.0007469367766287177,-0.0022873757182387635
1772656094928602600,7.4346025390625,-0.0032879356294870377,-0.010169612301466987,-0.0011083083017729223
1772656094938584800,7.444584716796875,0.010030980148911475,-0.011552965551801025,0.0012140199988381936
1772656094948567800,7.45456787109375,0.010479892960190772,-0.018164392181346193,0.00017817871165461837
1772656094958549800,7.4645498046875,-0.0029869068562984463,-0.006146658662008121,-0.005216095247049816
1772656094968532700,7.47453271484375,0.004642272847890853,0.000301649827696383,0.005259066739096306
1772656094978514700,7.4845146484375,0.008831541231274604,0.006004300182405859,-0.0029527945241425184
1772656094988497700,7.49449755859375,0.00374620079100132,0.0015265337138436735,0.0018581813875818624
1772656094998480000,7.50447998046875,0.004942717099189758,-0.008058081773901358,0.003876444141124375
1772656095008461800,7.5144619140625,0.0023994623571634292,-0.005822194214304909,-0.0006456866255495696
1772656095018444800,7.52444482421875,0.0010533084452152251,-0.004052481128042564,0.0010680676229298115
1772656095028427000,7.534427001953125,0.006141571494936942,-0.0010857950758654624,-0.008337181843072175
1772656095038409700,7.54440966796875,-0.001938274586200714,-0.003931265901168808,0.0016022658311761915
1772656095048392000,7.554391845703125,0.001502221256494522,-0.0033771848155185577,-0.003076868428383022
1772656095058375000,7.564375,-0.001188333001732826,-0.003210504745412618,-0.007676841071085073
1772656095068356900,7.57435693359375,0.006593406915664672,-0.000047145343665033575,0.005632430096133611
1772656095078339800,7.58433984375,0.00599661006629467,-0.004388608614075929,0.0003069927230942994
1772656095088321800,7.59432177734375,0.009288637349009513,-0.004779946019221097,0.004227627632394433
1772656095098303700,7.6043037109375,0.0033037177205085754,-0.0029320348639041184,-0.0011359817599877714
1772656095108287000,7.614286865234375,0.0003115501672029495,-0.009069925697566941,0.005094669957621954
1772656095118268700,7.6242685546875,0.0064484454870223995,-0.00976765303760767,0.002309368354338221
1772656095128252000,7.634251953125,0.0064496145308017725,-0.002614475081022829,0.004229787623439916
1772656095138233600,7.644233642578125,-0.0017798691540956495,-0.002971965015493333,0.002164950348390266
1772656095148216800,7.654216796875,0.0043570261657238,0.003781920558353886,0.0014371566636487841
1772656095158198800,7.66419873046875,-0.00940904885828495,-0.003306329802703112,-0.002279448140109889
1772656095168181800,7.674181640625,-0.0029758009403944015,-0.006487800249876454,0.001403665386000648
1772656095178163700,7.684163818359375,0.01513327172398567,-0.006013451603241265,0.00005795899862423539
1772656095188146000,7.69414599609375,0.0043622868627309795,-0.0010260459789540619,-0.0011235150040592998
1772656095198128600,7.704128662109375,0.0030149639070034023,-0.005751129138935357,0.0015097698087105527
1772656095208110800,7.71411083984375,0.009151859226822852,-0.007640623546810821,0.009199159834114835
1772656095218093800,7.72409375,0.01469020413160324,-0.00534714231477119,-0.011036997119989246
1772656095228075800,7.73407568359375,0.0058615855097770685,-0.0041975430213846265,-0.004311479124100879
1772656095238058800,7.744058837890625,0.00825403360426426,-0.00752312551382929,0.0052869228604016825
1772656095248040700,7.754040771484375,0.0024169980138540265,-0.011534927571611479,-0.0009670640670228749
1772656095258023700,7.764023681640625,0.008102057912945746,-0.001750917054247111,-0.007495945245958864
1772656095268006000,7.774005859375,0.0013683657437562943,0.0009356551486067473,-0.0022486191770061848
1772656095277988600,7.783988525390625,0.0019669161587953566,-0.006709416244458407,-0.00205569498736877
1772656095287970800,7.793970703125,0.004361702340841293,-0.007439767212467268,0.00038374318715650587
1772656095297952800,7.803952880859375,0.008398410511016845,-0.005601802062429487,0.0006184195927111431
1772656095307935700,7.813935791015625,0.004658054938912391,-0.0037118692631367594,-0.0005740689943311736
1772656095317917700,7.823917724609375,-0.0008738602250814438,-0.004827502354839816,-0.003271381786908023
1772656095327901000,7.83390087890625,0.00855506237745285,-0.006671888112509623,0.0004677773419534787
1772656095337883000,7.8438828125,0.0000263034850358963,-0.004355044271191582,0.005609113152627833
1772656095347865900,7.853865966796875,-0.004013911816477775,-0.0004826963498722762,-0.0000022193565499037504
1772656095357847800,7.863847900390625,0.008405424773693083,-0.007317593004368245,-0.0015242595583666114
1772656095367830800,7.873830810546875,0.013940262547135353,-0.006756040998315439,0.0011948677737964317
1772656095377812700,7.883812744140625,-0.00042377837002277374,-0.004075122218113392,-0.00011945252805016934
1772656095387794700,7.893794677734375,0.0030167174726724623,-0.00018468151767738164,-0.006105532067175954
1772656095397778000,7.90377783203125,0.006611527094244956,-0.004708734813379124,-0.0024476945462170987
1772656095407759600,7.913759521484375,0.005563479346036911,-0.003214468534477055,0.009259890745137818
1772656095417742800,7.923742919921875,0.006163783326745033,-0.008885883500706404,0.0064519800178240985
1772656095427724800,7.933724853515625,0.0024245967984199523,-0.006098335141409188,0.006201060296944342
1772656095437707800,7.943707763671875,-0.0029611878931522367,-0.0020485848265700043,0.0038094981184462083
1772656095447689700,7.953689697265625,-0.004007482075691223,-0.002406778013939038,-0.001792436374723911
1772656095457673000,7.9636728515625,0.00646890375316143,-0.004892037224723026,0.0014962481734342873
1772656095467654700,7.973654541015625,0.009911153161525726,-0.0029598270531278103,-0.0075718874258454884
1772656095477636900,7.983636962890625,0.004826981765031814,-0.0017949479922186582,-0.005835469254408963
1772656095487619800,7.993619873046875,0.003930325186252593,-0.00920192717993632,-0.0033002060225931925
1772656095497601800,8.003601806640624,0.009615385085344314,-0.010515137803507968,-0.0035109718295978382
1772656095507584800,8.013584716796874,0.012458499556779861,-0.0009334449252113699,-0.006975291505875066
1772656095517566700,8.023566650390626,0.0004892448216676712,-0.011896527425618841,0.0053029789460590105
1772656095527549700,8.0335498046875,0.01216273148059845,-0.00602473104908131,-0.0022282339761033653
1772656095537532000,8.043531982421875,0.005427870267629623,-0.006514432528475299,0.00016734679038636385
1772656095547514600,8.0535146484375,0.01710194144845009,-0.01070768296723254,-0.01288455664885696
1772656095557496800,8.063496826171875,0.009471008178591728,-0.009239053453085944,-0.011723225818481295
1772656095567479800,8.073479736328125,-0.00369651643037796,-0.00869764918591827,-0.0022091639494523406
1772656095577461800,8.083461669921874,0.0037841947138309477,-0.008346397195989265,0.004676376046892255
1772656095587443700,8.093443603515626,0.00827449187040329,-0.009280317045236006,-0.006470739517221227
1772656095597427000,8.103427001953126,0.013362170398235321,-0.005072627089172601,-0.006801967065851204
1772656095607408600,8.11340869140625,0.0021387655943632127,-0.017163307113712653,-0.004418684091931208
1772656095617391900,8.123391845703125,0.0037836101919412612,0.0014438238664530216,-0.00825038490903098
1772656095627373600,8.13337353515625,0.010813654959201812,-0.0028923330411780622,-0.003995476544066332
1772656095637356800,8.143356689453125,0.00961772317290306,-0.005624461418809369,0.0034057533228769895
1772656095647338800,8.1533388671875,0.00827098473906517,-0.009692103583365677,-0.013591942299809307
1772656095657321700,8.16332177734375,-0.005046177473664284,-0.004275257033249363,-0.02163864416317083
1772656095667303700,8.1733037109375,-0.005195230555534363,-0.005028824480064213,-0.011218632730632089
1772656095677285600,8.18328564453125,-0.0028027824610471724,-0.0017960896365344524,-0.007450626533199101
1772656095687268600,8.1932685546875,-0.0038502456873655317,-0.002674425107333809,-0.006754155001905746
1772656095697250800,8.203250732421875,-0.0008574936121702193,-0.002362089488841593,0.0014886037230957298
1772656095707233800,8.21323388671875,0.0004915829092264175,-0.00708984866309911,-0.002993473594402894
1772656095717215700,8.2232158203125,0.00019406126737594602,-0.007801111338147893,-0.002678927752515301
1772656095727198700,8.23319873046875,0.0028881226569414135,-0.010852315602311863,-0.0011283738422673195
1772656095737180700,8.2431806640625,0.009773790517449378,-0.01027032359642908,-0.005618154975608922
1772656095747163600,8.25316357421875,0.004987140762805938,-0.00648723399429582,-0.007419856935599819
1772656095757145900,8.263145751953125,0.0019967267751693726,-0.0066947757977526634,-0.0011493846642551943
1772656095767128800,8.27312890625,-0.002788753935694694,-0.007729416075116023,0.0014266033035935832
1772656095777110800,8.28311083984375,0.00020750527083873748,-0.007909320952976123,-0.005088619242748245
1772656095787092700,8.2930927734375,0.016216975307464597,-0.008127238019974902,-0.006688254725420847
1772656095797075700,8.30307568359375,0.006937105786800384,-0.006755803536297753,-0.00212855472760275
1772656095807058000,8.313057861328126,0.007833177843689918,-0.010730716782948001,-0.00616842296924442
1772656095817040600,8.32304052734375,-0.0051876317709684365,-0.00886084952414967,-0.015008110974356531
1772656095827022800,8.33302294921875,-0.011920154896378517,-0.004642555975681171,-0.01252845495387446
1772656095837005800,8.343005859375,0.004090484184026718,-0.0011038421892095357,-0.002803545079450123
1772656095846987800,8.35298779296875,-0.002641454419493675,-0.008856136816414072,0.005195801377692259
1772656095856970800,8.362970703125,0.0036409868508577347,0.00037553704781457777,-0.002059238651324995
1772656095866952700,8.37295263671875,0.010223287850618362,-0.0013179233313072472,-0.00683282799499575
1772656095876934700,8.3829345703125,0.007381926944851875,-0.006631008112849667,-0.003936343935085461
1772656095886918000,8.39291796875,0.015012860214710235,-0.012063581955060363,-0.002730283480416983
1772656095896899800,8.40289990234375,0.0033387890338897703,-0.00549276133053936,0.002877336401445791
1772656095906882800,8.4128828125,0.0019908815562725067,-0.010808229865413159,0.0025599410153459754
1772656095916864800,8.42286474609375,0.01097147586941719,-0.006566226647794246,-0.00500397773317527
1772656095926848000,8.432847900390625,0.0036404023289680477,-0.0029172300204169,-0.00273794163048733
1772656095936829700,8.44282958984375,0.0043885903477668756,-0.0050456568838562815,-0.0022476784620899704
1772656095946813000,8.45281298828125,-0.0032440964877605435,-0.008694680910697207,-0.0008707275530789047
1772656095956794600,8.462794677734376,-0.0005529577076435089,-0.008709796281438321,0.00929748737574555
1772656095966777900,8.47277783203125,0.003336450946331024,0.0010693462645635008,0.00231744662951678
1772656095976759800,8.482759765625,0.003932078751921654,-0.0049047962415963405,-0.0010689763718051836
1772656095986741800,8.49274169921875,0.004679682248830795,-0.007013650754885747,0.0029504929692018775
1772656095996724700,8.502724853515625,0.004231938481330871,-0.0038188459021039306,0.002693193739885464
1772656096006707000,8.51270703125,-0.00010638298392295837,-0.005401237989030778,0.0038651966613251713
1772656096016689700,8.522689697265625,-0.004744564178586006,-0.0012337704455014317,-0.005574165136832744
1772656096026671900,8.532671875,0.0006418050348758697,-0.004533688773727044,-0.001868291789642535
1772656096036654800,8.54265478515625,-0.0008539864808320999,-0.0032221769168972966,0.0024294921692460773
1772656096046636800,8.55263671875,0.0013905775755643844,-0.010677269562659785,0.005072111065941863
1772656096056619800,8.562619873046875,0.00857376707792282,-0.007212342531606555,-0.008614441581605932
1772656096066601700,8.572601806640625,0.000043839141726493834,-0.004874885160522535,-0.009919560230267233
1772656096076584000,8.582583984375,-0.003848492121696472,-0.0010597107865381985,0.0004464422929799184
1772656096086567000,8.59256689453125,0.004677928683161735,-0.006809305555513128,0.0032198981948429717
1772656096096548900,8.602548828125,0.008716390419006348,-0.0013095482286065816,0.0005024513631127775
1772656096106531800,8.61253173828125,0.012305939343571663,-0.006476173744164407,0.0019254242377821356
1772656096116514000,8.62251416015625,0.002876432219147682,-0.006667869524518028,0.0018393853555666282
1772656096126497800,8.632497802734376,-0.009844517666101456,-0.0018679401631932705,-0.004663292803033255
1772656096136479700,8.642479736328125,-0.005503858113288879,-0.009594470161478966,-0.01194031633499544
1772656096146462000,8.6524619140625,0.0013800561815500258,-0.007138199583161622,-0.002894547831150703
1772656096156444700,8.662444580078125,0.010656418570876122,-0.007698929605307057,-0.006241588670155033
1772656096166427000,8.672427001953125,0.00407470209300518,-0.0014664740896783769,-0.008087184570799582
1772656096176409900,8.682409912109375,0.0070686232119798655,-0.00353264023871161,-0.007240481780702248
1772656096186391800,8.692391845703124,0.006019990941882133,0.0014238587906584142,-0.0011551568179158493
1772656096196374800,8.702374755859376,0.008114332872629165,-0.0031690676233265547,-0.006108281146688386
1772656096206356700,8.712356689453125,0.0009317278921604156,-0.009166883266018703,-0.0014101407925598323
1772656096216339700,8.722339599609375,0.0016805004328489302,-0.0009887644421774893,0.006116432487103156
1772656096226322000,8.732322021484375,0.01814180589020252,-0.006656681410223245,0.0015372560372576116
1772656096236304000,8.742303955078125,0.017243980267643927,-0.004983871093485504,-0.0004679782713530585
1772656096246286800,8.752286865234375,0.0049719431936740876,0.0037245643479283897,-0.0035866171819623556
1772656096256268800,8.762268798828124,0.006315174496173858,-0.0008714216728229076,0.0008577356407651677
1772656096266251800,8.772251708984374,0.007362637722492218,-0.005969402398960664,0.00547763682664372
1772656096276234000,8.78223388671875,0.007660743886232376,-0.0022151644319761544,0.0009805720025673507
1772656096286217000,8.792217041015626,0.012449731728434561,-0.003995060985535383,0.00793528194471728
1772656096296199000,8.802198974609375,0.005266542226076126,-0.004450668399082497,0.001984442682331428
1772656096306182000,8.812181884765625,0.003918634748458862,-0.003614546368503943,0.0006448555084876716
1772656096316163800,8.822163818359375,0.00870879163444042,-0.007319364836346358,-0.001176628864207305
1772656096326146800,8.832146728515625,0.00556523291170597,-0.007062914990400895,0.0013361850737826897
1772656096336129000,8.84212890625,0.006312251886725425,-0.007088487823074683,-0.0026223661265335975
1772656096346110700,8.85211083984375,0.001972176855802536,0.006345368705037981,0.002562206037668511
1772656096356094000,8.862093994140626,0.0033183307677507397,0.0021491225915960966,-0.0037730568318860604
1772656096366075600,8.87207568359375,0.005563479346036911,-0.01110682921949774,-0.0065076648609712715
1772656096376059000,8.882058837890625,0.008707622590661048,-0.0018787903507705777,-0.002444205681188032
1772656096386040800,8.892040771484375,-0.004461071062088012,-0.009741650946671142,-0.00476724180127494
1772656096396023800,8.90202392578125,0.004367547559738159,-0.0005501355628948658,-0.0013278784697409718
1772656096406005800,8.912005859375,0.003771335232257843,-0.011557020672410726,-0.00455730254475493
1772656096415989000,8.921989013671874,-0.004309095370769501,-0.008264728528214619,0.010211615679133684
1772656096425970700,8.931970703125,0.0037730887979269025,-0.0027529885025694965,-0.0042721106615150346
1772656096435954000,8.941953857421876,-0.0022147534400224684,-0.0049028508796822275,0.0035871286386158314
1772656096445935900,8.951935791015625,0.004517769685387611,0.0030498982230667024,0.0019043312174035236
1772656096455917800,8.961917724609375,0.0007739069819450377,-0.004294966380717233,0.003512296137004159
1772656096465900800,8.97190087890625,0.002719195830821991,0.0007885839612688869,0.000665391406440176
1772656096475882800,8.9818828125,0.016185411125421524,0.002022007346898317,-0.0016774545258143915
1772656096485865700,8.99186572265625,0.005711947906017303,-0.006570884556602687,-0.0027246026583015916
1772656096495848000,9.001847900390626,0.010202245062589644,0.00045802769949659705,-0.0018264802082208916
1772656096505830700,9.01183056640625,0.006463058534264564,0.0039920196450781075,-0.003997828331356868
1772656096515812900,9.021812744140625,0.004667991811037064,0.0030656346483156085,-0.00048381972787901755
1772656096525795800,9.0317958984375,0.005865092641115188,-0.007240609644865617,-0.0037962002454558384
1772656096535777800,9.04177783203125,0.021575287470221517,-0.0058459130166098475,0.0011258348253089935
1772656096545760000,9.051760009765625,0.0027215339183807373,0.00007522066067904233,-0.00198243338833563
1772656096555742700,9.06174267578125,-0.0014700725525617598,-0.0018863708690274505,-0.0018421572679653763
1772656096565725000,9.071724853515626,-0.0020697920113801954,-0.006044878787966445,-0.0068340244382387024
1772656096575708000,9.0817080078125,0.004217325434088707,-0.003909428528696298,-0.0067496797561878335
1772656096585689900,9.09168994140625,0.014243044885993003,-0.003945805883174762,0.006605325682321563
1772656096595672800,9.1016728515625,-0.004611293187737464,-0.0007177106821443885,-0.003166903065703809
1772656096605655000,9.111655029296875,-0.0016197101563215255,-0.0037841855806764212,0.0006016237215371802
1772656096615637800,9.1216376953125,0.0058592474222183225,-0.00652041474469006,-0.00509519511400722
1772656096625620000,9.131619873046875,0.00017126491367816925,-0.00783359796879813,-0.006722156995022669
1772656096635603000,9.14160302734375,-0.0017746084570884704,-0.008421079000551253,0.0067897377719404175
1772656096645585000,9.1515849609375,0.009299743264913559,-0.002049315478932112,0.0005344950357684865
1772656096655566800,9.16156689453125,0.0057101943403482435,-0.005125736382743344,-0.007458563244482502
1772656096665549800,9.1715498046875,0.0022696984976530075,-0.007769044832605868,0.004267183324648067
1772656096675531800,9.18153173828125,0.008404840251803398,-0.0019410145325586198,0.006332965881191194
1772656096685515000,9.191514892578125,0.008854922106862067,-0.013372417797613887,-0.0099905613735551
1772656096695496700,9.20149658203125,0.007058686339855193,-0.00596167575023137,0.0003753817841876298
1772656096705480000,9.21147998046875,0.0019698387682437896,-0.003556002847990021,0.005330711769778281
1772656096715462000,9.2214619140625,-0.00012508768439292906,-0.007188578063528984,0.0010274159521330146
1772656096725444900,9.23144482421875,0.005111059403419494,-0.005731620720867067,-0.0036541203270666297
1772656096735426800,9.2414267578125,0.004661562070250511,-0.006103047849144786,-0.0025398069761926306
1772656096745410000,9.25141015625,0.00002104278802871704,-0.006937324982509017,0.0035744152875151485
1772656096755391700,9.261391845703125,0.003909866920113563,-0.0022319603031501173,0.0006774380372604354
1772656096765374000,9.2713740234375,0.012289572730660437,-0.004935364909796044,-0.008721970776421948
1772656096775356700,9.281356689453125,0.008397241467237472,-0.006957162194140255,-0.005788899299479089
1772656096785339000,9.2913388671875,0.0018090952485799788,-0.009074391810130327,0.00881587787126191
1772656096795321900,9.30132177734375,-0.009565116202831268,-0.005388433306384831,0.0014826671726536004
1772656096805303800,9.3113037109375,0.008842062625288962,-0.00361840969286859,-0.004660520890634507
1772656096815286800,9.321286865234375,0.0015104045629501341,-0.003957441522041335,-0.0013184210882289335
1772656096825268700,9.331268798828125,0.005398644173145294,-0.009831603385601193,0.0009715073466999456
1772656096835251700,9.341251708984375,0.003603577449917793,-0.011225560228340327,-0.008463799330848268
1772656096845234000,9.35123388671875,0.005398644173145294,-0.003361347925569862,0.01104489729865454
1772656096855215900,9.3612158203125,0.006593406915664672,-0.0001317092214245349,-0.00003987535266205668
1772656096865198800,9.37119873046875,0.006441431224346161,-0.008818371222447604,0.0024131712221074847
1772656096875181000,9.38118115234375,0.01362052907347679,-0.0007741901097353547,0.0067673113110009574
1772656096885163800,9.391163818359376,0.006886836904287338,-0.00466209179321304,0.016067136774305255
1772656096895145500,9.4011455078125,-0.0019429507613182068,-0.005144623746303841,0.014946580912312492
1772656096905128200,9.411128173828125,0.0050900166153907776,-0.0020210940314456818,0.014059030088596046
1772656096915110400,9.4211103515625,-0.006284779357910156,-0.008492418070556595,-0.0003268482010345906
1772656096925093400,9.43109326171875,0.00718260498046875,0.0016465342311654239,0.008085280308080837
1772656096935075300,9.441075439453124,0.012569558715820313,-0.0008970401712693274,-0.0038450306561309843
1772656096945058300,9.451058349609376,0.00464110380411148,0.0007447904853150248,0.0037351588071789592
1772656096955040500,9.46104052734375,-0.002093172886967659,0.0021333770331926644,-0.0007261405837722122
1772656096965022200,9.471022216796875,0.0029933365970849987,-0.0014151914270129054,-0.01058265008176677
1772656096975005400,9.48100537109375,0.006733692169189453,-0.010657578481500968,0.006986762747960165
1772656096984987100,9.490987060546875,0.012571896803379059,-0.009544785800855606,0.003577721489453688
1772656096994970400,9.500970458984375,-0.004335983377695083,-0.0017041553030721843,-0.002092524432996288
1772656097004952300,9.510952392578124,0.004193360036611557,-0.007155616508843377,0.006072396982554346
1772656097014935300,9.520935302734374,0.011079612419009208,-0.0054524658527690915,0.0006316215675789863
1772656097024917200,9.530917236328126,0.006293547186255455,-0.011269097975967451,0.00033437392036430534
1772656097034900500,9.540900390625,0.014822890600562095,-0.006179994676029309,-0.0014401523383334278
1772656097044882200,9.550882080078125,0.011979776129126547,-0.013709686927963047,0.002842959207808599
1772656097054864400,9.560864501953125,0.004199789777398109,-0.007637655271589755,-0.0066716232510283585
1772656097064847400,9.570847412109375,0.0015074819535017012,-0.001190917684463784,-0.004680577297974378
1772656097074829300,9.580829345703124,-0.003729834178090095,-0.009588204817473888,0.0034302301770076154
1772656097084812300,9.590812255859374,0.0007581248909235,-0.006511993976216763,0.003984055534331128
1772656097094794200,9.600794189453126,0.000011105915904045104,-0.013908040777966379,-0.0022920107941608874
1772656097104777200,9.610777099609376,0.011830138525366782,-0.009962673286208883,-0.010225077948905526
1772656097114759400,9.620759521484375,0.010181786796450614,-0.008206513801263644,0.0025645532583817836
1772656097124742100,9.6307421875,0.0009030863195657729,-0.006351898910524323,0.00335063473531045
1772656097134724400,9.640724365234375,-0.0008966565787792205,-0.006962742551555857,-0.0006151179573498666
1772656097144707300,9.650707275390625,0.0011976853519678114,-0.004102110689738765,-0.0019214969813358038
1772656097154689300,9.660689208984374,-0.007182020458579063,-0.004059723719581961,-0.004093534657638519
1772656097164672300,9.67067236328125,-0.003890577697753906,-0.008936700372491032,-0.00293508533751592
1772656097174654200,9.680654296875,0.00613689531981945,-0.009274334829021244,0.004754300121311098
1772656097184636400,9.690636474609375,0.004789572364091873,-0.00292374195959419,-0.0038528486364055423
1772656097194619400,9.700619384765625,0.006132219144701957,0.0006010346330702304,0.004416108542354778
1772656097204601300,9.710601318359375,0.005083002352714539,-0.00036949089951813217,0.004012971101561561
1772656097214584300,9.720584228515625,0.005531915163993835,0.0023043770853895694,0.00036505218641832467
1772656097224566500,9.73056640625,0.002389525485038757,-0.009929529068432748,0.0035923345366958527
1772656097234549200,9.74054931640625,0.0041834231644868845,-0.008055542756943031,0.002743919280124828
1772656097244531500,9.750531494140626,0.008672551277279854,-0.0033705724116414783,-0.005862855018256232
1772656097254514400,9.760514404296876,0.010765724164247512,-0.006020639395853504,-0.00425265247579664
1772656097264496400,9.770496337890625,0.013161679390072822,-0.007627773198392242,0.0086335435742978
1772656097274479400,9.780479248046875,0.011215806019306182,0.0002773647698108107,-0.00009108495009131729
1772656097284461300,9.79046142578125,0.0062754270076751705,-0.002297974744066596,-0.00001435731891542673
1772656097294443300,9.800443359375,0.0008873042285442352,-0.0044301462008617815,0.006339596551377326
1772656097304426500,9.810426513671874,0.0010386953979730606,-0.002817322443053126,0.004387740964395925
1772656097314408200,9.820408203125,0.006574117693305015,0.0010125015107914806,0.004035630457941443
1772656097324391400,9.830391357421876,-0.00015606734454631804,0.001236291196150705,-0.0008795593135058879
1772656097334373400,9.840373291015625,0.0017903905481100081,0.002682599280634895,-0.008095673837931826
1772656097344356400,9.8503564453125,0.01525660584270954,0.0014253931606188416,0.009218439923319966
1772656097354338300,9.86033837890625,0.010318564918637274,-0.004742052561091259,0.003871452872175723
1772656097364321500,9.870321533203125,0.008073416340351105,-0.0013017485146410762,0.001738541629863903
1772656097374303200,9.88030322265625,0.011518003836274146,-0.0020397804656066,0.002811267161602154
1772656097384285400,9.890285400390624,0.0034364041894674297,-0.007789329568808898,0.002487825627205893
1772656097394268200,9.90026806640625,-0.0019546411991119383,-0.007914152391720563,0.007721588961686938
1772656097404250400,9.91025048828125,0.002085574102401733,-0.005528809891454875,-0.008858018246246501
1772656097414233300,9.9202333984375,0.011062661284208297,-0.010494853067304938,0.005267044549575075
1772656097424215300,9.93021533203125,-0.006595745003223419,-0.007570508319512009,0.002107155746547505
1772656097434198300,9.9401982421875,0.0035790275305509567,0.00139729957729578,-0.003018133111624047
1772656097444180200,9.95018017578125,-0.0045019875943660735,-0.008298512066807597,-0.002262291509332135
1772656097454163200,9.9601630859375,0.006423895567655563,-0.003483439935278147,-0.005178653880069032
1772656097464145400,9.9701455078125,0.01405892049074173,-0.0018186576613690704,0.0006316124344244599
1772656097474128100,9.980128173828126,0.011668225961923599,-0.005417997327586636,0.0029352497342973946
1772656097484110300,9.9901103515625,0.0031400515913963317,-0.004374753618659451,-0.0032198479624930766
1772656097494092500,10.000092529296875,0.011669979527592658,-0.00587232609950006,-0.0008927658549509942
1772656097504075300,10.0100751953125,0.0014934534281492232,-0.01269642736534588,-0.0038745490115601566
1772656097514057500,10.020057373046875,0.00014554595053195953,-0.005000493434723466,0.008586425630096345
1772656097524040400,10.03004052734375,0.013613514810800552,-0.003492180364159867,0.0014769589510746299
1772656097534022400,10.0400224609375,0.013463292685151099,-0.0038928427200764417,-0.005001023157685995
1772656097544005400,10.05000537109375,0.0020896657556295395,0.0015512206305284052,0.0025015527584590015
1772656097553987300,10.0599873046875,0.007177344283461571,-0.006519720624946057,-0.013839478186937048
1772656097563970300,10.06997021484375,0.012262684723734854,-0.00502144489120692,-0.000044852921878919004
1772656097573952500,10.079952392578125,0.008520575585961341,-0.005702412892691791,-0.0009304401173721998
1772656097583935200,10.089935302734375,0.010168927314877509,0.00028307299138978124,-0.0051315816016402095
1772656097593917400,10.09991748046875,0.001191255611181259,-0.0020888346385676414,-0.005201989089883864
1772656097603899100,10.109899169921874,0.0016384148567914962,-0.004722124017914757,0.00037252310682088133
1772656097613882400,10.11988232421875,0.00537877042889595,-0.002858987894002348,0.0015582166268955915
1772656097623864300,10.1298642578125,0.0016384148567914962,-0.004737586448527872,0.006261973871057853
1772656097633847600,10.13984765625,0.00867138223350048,-0.0026933581366669385,0.011444198814546688
1772656097643829200,10.149829345703125,0.013609423157572745,-0.0017319018265232443,-0.0030269922715146095
1772656097653812500,10.1598125,0.01106558389365673,-0.0009940708049573004,-0.0030218959712889045
1772656097663794200,10.169794189453125,0.004635258585214614,-0.008655810205033048,-0.004489192044874653
1772656097673777400,10.17977734375,0.0040390462577342984,-0.006845281051192432,-0.011574501530174166
1772656097683759400,10.18975927734375,-0.0000023380875587463378,-0.006497179999575019,-0.002278667255397886
1772656097693742300,10.199742431640624,0.003740355572104454,-0.0034483960213605312,-0.0041261582856066525
1772656097703724300,10.209724365234376,-0.0014946224719285964,0.0033144126444589347,-0.0014515048494096845
1772656097713706200,10.219706298828125,0.010326748225092887,-0.001343925422243774,0.007553374521620571
1772656097723689200,10.229689208984375,0.0076315177917480465,-0.0053112124848645175,0.0077539294618647545
1772656097733671400,10.23967138671875,0.007329319974780082,-0.0034336003110278395,0.0033371815986931322
1772656097743654100,10.249654052734375,0.005233224478363991,-0.0074169617256149645,0.00041834414307959376
1772656097753636400,10.25963623046875,0.007326981887221336,-0.00952629116293974,-0.0031446273018140344
1772656097763619300,10.269619384765624,0.0067272624284029,-0.0019693273115903138,0.00835166702615097
1772656097773601300,10.279601318359376,0.010166589227318763,-0.0019861140496097505,0.00047932621585205197
1772656097783584300,10.289584228515626,0.008668459624052048,-0.005408544512651861,0.00468497947845608
1772656097793566500,10.29956640625,0.004779635491967201,-0.0045235692385118455,0.005561597916204482
1772656097803549200,10.309549072265625,0.009717676416039467,-0.0040787024146877226,-0.0034425051366910337
1772656097813531400,10.319531494140625,0.00792377873659134,-0.0022133469342254103,-0.005880116680311039
1772656097823513300,10.329513427734375,0.004932780227065086,-0.004244460036186501,-0.008480079178791494
1772656097833496300,10.339496337890624,0.0014952069938182829,-0.008237411263026297,0.008079234159784392
1772656097843478500,10.349478515625,-0.0019470424145460127,-0.0037167098350357262,0.009730252769822255
1772656097853461200,10.359461181640626,0.00478664975464344,0.0007240947571583091,0.00712380573162809
1772656097863443500,10.369443359375,0.008679565539956092,-0.0036009927671868352,-0.0033702162186149505
1772656097873426400,10.379426513671875,0.024391513934731483,-0.0032730029218364506,-0.005042624676553532
1772656097883408400,10.389408447265625,0.010026303973793983,-0.00040062582329846916,0.005682511748978868
1772656097893390600,10.399390625,0.001648351728916168,-0.003217838668497279,0.00032408085521310566
1772656097903372800,10.409372802734374,0.002547346395254135,0.001796235767006874,-0.01107089025643654
1772656097913355800,10.419355712890624,0.008531681501865387,-0.002340882304031402,0.005550930391717702
1772656097923337700,10.429337646484376,0.008381459376215934,-0.006965710826776921,0.005173995971260592
1772656097933319700,10.439319580078125,0.0006032265901565551,-0.00704414635784924,-0.0013069270132575184
1772656097943303000,10.449302978515625,0.0031482348978519436,-0.0021244356749113647,-0.0024928762616589664
1772656097953284900,10.459284912109375,0.004943301621079445,-0.006549805235955864,0.003300429784879088
1772656097963267800,10.469267822265625,0.01466974586546421,-0.008549810813600197,-0.0006585735065862536
1772656097973249800,10.479249755859374,0.0034457565397024155,-0.006874297083122655,0.007350088768173009
1772656097983232800,10.489232666015624,0.008382628419995307,-0.00680915029188618,-0.002485825466364622
1772656097993214700,10.499214599609376,0.006436170527338981,-0.004488452259358018,0.0001760415534954518
1772656098003197700,10.50919775390625,-0.0013444003462791442,-0.0021822759425267576,0.0006300689313095063
1772656098013180000,10.519179931640625,0.010329086312651633,-0.0031399967924691735,-0.0014295304796192794
1772656098023163000,10.529162841796875,0.004342997640371322,-0.01015452433018945,-0.00483748489273712
1772656098033144800,10.539144775390625,0.00135024556517601,-0.0069760221582371735,0.00020644582491368053
1772656098043126800,10.549126708984375,0.009580898293852806,-0.004313050026679411,0.0062856378744356334
1772656098053109800,10.55910986328125,0.006437924093008041,-0.005482532197469845,-0.01014866997813806
1772656098063091700,10.569091796875,0.002249240231513977,-0.008362298018019645,0.0042764078107196835
1772656098073075000,10.579074951171876,0.005839958199858665,-0.002582189379772171,-0.0006127616034820676
1772656098083056600,10.589056640625,0.016612112104892728,-0.00577656497429125,0.006157454050658271
1772656098093039900,10.599039794921875,0.008232990816235542,-0.007092488144757225,0.005312107534008101
1772656098103021800,10.609021728515625,-0.00029576807618141173,0.0011865794360637664,-0.0013113383268937469
1772656098113004800,10.6190048828125,0.0020978490620851514,-0.0016548819344025104,-0.0009403678563423455
1772656098122986800,10.62898681640625,0.014070026406645774,-0.004409085146524012,0.0029195681079756466
1772656098132970000,10.638969970703124,0.0019505495458841324,-0.009277595365187153,0.005772217592736706
1772656098142951700,10.64895166015625,0.003447510105371475,-0.004944772058958187,0.00512446687426418
1772656098152934000,10.658933837890626,0.009580898293852806,-0.009045942033780738,0.00036369134639389813
1772656098162916600,10.66891650390625,0.004044891476631164,-0.01339234634079039,0.0008686086612287908
1772656098172898800,10.67889892578125,0.0007557868033647537,-0.004070226847287267,-0.002815011754957959
1772656098182881800,10.6888818359375,0.00030628947019577024,-0.005443688891269266,0.0023558150116819885
1772656098192863700,10.69886376953125,0.007338087803125381,-0.012995118050975724,0.009807354860333725
1772656098202846700,10.7088466796875,0.002850713256001472,0.00011762589714489876,-0.010954104609508067
1772656098212829000,10.718828857421874,0.006293547186255455,-0.004686203321162611,0.0030261337549891323
1772656098222811600,10.728811767578126,0.0070423197269439694,-0.011228144911071285,0.005533549998654052
1772656098232793900,10.7387939453125,0.00165828860104084,-0.005759540774254128,0.0028047186898067593
1772656098242776800,10.74877685546875,0.0034580314993858333,-0.0055630774872377515,-0.0037119331952184436
1772656098252758800,10.7587587890625,0.009891863939166069,-0.0015075824182014912,0.003809858878049999
1772656098262740700,10.76874072265625,0.009592588731646538,0.002947917419625446,0.001997594424849376
1772656098272723700,10.7787236328125,0.003605331015586853,-0.00374725110377185,-0.004907819315744564
1772656098282705700,10.78870556640625,0.0027069208711385725,-0.0004876739190891385,0.0002904617134016007
1772656098292689000,10.79868896484375,0.0019581483304500578,-0.005957547564385458,0.006238483397616073
1772656098302670600,10.808670654296876,-0.0028290859460830685,-0.01167731345067732,-0.004631157798832282
1772656098312653800,10.81865380859375,0.009442951127886772,-0.007813559827767312,0.014190629712166263
1772656098322635800,10.8286357421875,0.006900280907750129,-0.006088060342567041,0.007755445565516128
1772656098332618800,10.83861865234375,0.006902618995308875,-0.004568915350735187,0.0019033585364464669
1772656098342600700,10.8486005859375,0.0013677812218666075,-0.013173936083447187,0.007828026744537055
1772656098352584000,10.858583984375,0.004509586378931999,-0.00864163554920815,0.0008671564896591007
1772656098362565600,10.868565673828124,0.013936755415797232,0.0004886237671598792,-0.004161156533751637
1772656098372547800,10.8785478515625,0.009745733466744422,-0.0021733071847818792,0.0003961597107350826
1772656098382530800,10.88853076171875,0.002410568273067474,-0.008448770725075156,0.0022099859333597122
1772656098392512800,10.8985126953125,0.0027110125243663785,-0.009535195988602935,0.00021158779091201723
1772656098402495700,10.908495849609375,-0.003872457519173622,-0.008967716565262527,0.0010788538784254342
1772656098412477700,10.918477783203125,0.006451952618360519,-0.005597208085702732,-0.003451656557526439
1772656098422460700,10.928460693359375,0.007500584888458252,0.003308594825025648,0.003549116449477151
1772656098432442600,10.938442626953124,0.008099135303497314,-0.003585795198054984,0.00909274031757377
1772656098442425600,10.948425537109374,-0.003723404437303543,-0.0012610146454535424,0.00016535576269961893
1772656098452407800,10.95840771484375,0.000016366612911224363,-0.0061722588941454885,-0.0036591344289015975
1772656098462390800,10.968390869140626,0.001662380254268646,-0.005331953878793865,-0.0041340493311174216
1772656098472372700,10.978372802734375,0.0006131634622812271,-0.012779621269926428,0.006770663178712129
1772656098482355700,10.988355712890625,-0.00267827929854393,-0.011702950215432792,0.001593918127939105
1772656098492337700,10.998337646484375,0.008994622838497161,-0.01259037317498587,-0.007418897954374551
1772656098502319900,11.00831982421875,0.007794599398970603,-0.008203828653832897,0.0024376298099290576
1772656098512302800,11.018302734375,0.0004617722928524017,-0.006345204308256506,0.00328358368135523
1772656098522284800,11.028284912109376,0.005848141506314277,0.006584383358992636,-0.0018631726565305142
1772656098532267800,11.038267822265626,-0.0016337386816740035,0.0021933270595036448,-0.0041288936653872945
1772656098542249700,11.048249755859375,0.0052484220474958414,-0.0052645603315439075,-0.0035946954571409147
1772656098552232700,11.058232666015625,0.012727964147925376,-0.0012437529833987354,-0.0007277982513187453
1772656098562215000,11.06821484375,0.010932897424697875,-0.004792065715277567,-0.003859287510346621
1772656098572197600,11.07819775390625,-0.0034305589705705642,-0.004245355085330083,-0.00027798582431860265
1772656098582179800,11.088179931640624,0.0037520460098981853,-0.006410634227283298,-0.0006888042480684817
1772656098592162800,11.098162841796874,0.0025561142235994336,-0.006121186294034123,0.0033820938860764727
1772656098602144800,11.108144775390626,0.004203881430625916,-0.0002127751010004431,0.006554102385160513
1772656098612126700,11.118126708984375,0.0039034371793270108,0.0025577216587960717,-0.0010721090438077225
1772656098622110000,11.12810986328125,0.004203881430625916,0.004268790759844705,-0.0016457990122260525
1772656098632091600,11.138091552734375,0.0065974985688924785,-0.005256240027770399,0.005828454991732724
1772656098642075000,11.148074951171875,0.005998363631963729,0.000756261727400124,0.007662470052437856
1772656098652056600,11.158056640625,0.0130319155305624,-0.0006443897176068276,-0.0018951295642182229
1772656098662039800,11.168039794921874,-0.0014829320341348648,-0.0007584262850228697,-0.004793499620538205
1772656098672021800,11.178021728515626,-0.0007306523621082306,-0.00891889985431917,-0.002651414124504663
1772656098682004700,11.188004638671876,0.010642390045523644,-0.011339560263138263,0.0030140825575916096
1772656098691986700,11.197986572265625,0.003911035963892936,-0.004881324034463614,-0.0017923496097559108
1772656098701970000,11.207969970703125,0.0019669161587953566,-0.004965038528852164,-0.009724234020989387
1772656098711951600,11.21795166015625,0.006303484058380127,-0.004426785199996084,-0.0008451775532914325
1772656098721933800,11.227933837890625,0.003160509857535362,-0.0003405570659786463,0.0016882042486919089
1772656098731916500,11.23791650390625,0.013484919995069502,-0.008670971241546794,0.00192422322796192
1772656098741898800,11.247898681640624,0.0030108722537755964,-0.0010691818677820266,0.0011994297844823449
1772656098751881700,11.2578818359375,-0.0008797054439783096,-0.0024538685586769134,-0.00519055438041687
1772656098761863700,11.26786376953125,0.002711597046256065,-0.004819885303964838,-0.0020899808494606984
1772656098771846700,11.2778466796875,0.001665302863717079,-0.0041136093312874435,0.0018881518341600893
1772656098781828900,11.287828857421875,0.003011456775665283,-0.003168218239955604,-0.003050117418775335
1772656098791811600,11.2978115234375,0.002713350611925125,-0.009760492644459008,-0.003190343306795694
1772656098801793800,11.307793701171875,-0.0014788403809070586,-0.0014665471549145876,-0.00666846317956224
1772656098811776800,11.31777685546875,0.0039051907449960707,-0.004611877709627152,-0.006133159859618172
1772656098821758700,11.3277587890625,0.0064472764432430265,-0.00023937084698118268,-0.0028305609505390747
1772656098831741000,11.337740966796876,0.01078676695227623,-0.0031583179004490373,-0.00010106748798862099
1772656098841723600,11.3477236328125,0.008840309059619904,0.0036038423113990575,-0.006128218823019415
1772656098851705900,11.357705810546875,0.004348258337378502,-0.005157556293113157,-0.007100456822081469
1772656098861688800,11.367688720703125,0.0012058686584234238,-0.006815780962072312,-0.004266658168262802
1772656098871670800,11.3776708984375,0.0025502690047025677,-0.00008380582593381405,-0.01322772123045288
1772656098881653800,11.38765380859375,-0.0040332010388374325,-0.001865154551062733,0.005241704612341709
1772656098891635700,11.3976357421875,0.001204115092754364,0.0015373291024938225,-0.011415516142756677
1772656098901619700,11.40761962890625,0.007638532054424285,-0.0012104991677682846,-0.0010029253982705994
1772656098911601700,11.4176015625,0.007639701098203658,-0.006549184181448071,0.0028046912903431803
1772656098921585000,11.4275849609375,0.002101356193423271,-0.008705010508466511,-0.001218613975564949
1772656098931566600,11.437566650390625,0.0022504092752933503,0.0028248390292283146,0.0003299854396143928
1772656098941549800,11.4475498046875,0.0013519991308450698,-0.007048438940476626,-0.0019578241034643724
1772656098951531800,11.45753173828125,0.007936053696274757,-0.004972418117709458,-0.008851259711897
1772656098961513700,11.467513671875,0.011978022563457489,0.004242788668908179,0.00036623492992948737
1772656098971496700,11.47749658203125,0.004794833061099052,-0.00021218144595623015,-0.0008368481163633987
1772656098981478700,11.487478759765626,0.0024000468790531158,-0.007921002257615327,-0.009308835320244542
1772656098991461600,11.497461669921876,0.005689736074209213,0.0019267120125703514,-0.0038679366076830772
1772656099001443800,11.50744384765625,0.00374620079100132,0.0020125453988090155,-0.002596112873847596
1772656099011426600,11.517426513671875,0.0024018004447221753,-0.001522953517269343,-0.005228552869823761
1772656099021408800,11.52740869140625,0.0019517185896635054,-0.0026109496833756564,0.0011564765587449074
1772656099031391700,11.537391845703125,0.003446341061592102,0.0008486892512068152,-0.010064882418513298
1772656099041373700,11.547373779296874,0.006889174991846084,-0.0018677848995663224,-0.00107887671131175
1772656099051356700,11.557356689453124,0.008238251513242721,-0.0047102783164940775,0.0050766456771641965
1772656099061338600,11.567338623046876,0.009137246179580689,-0.005129663639189675,-0.005453680562321097
1772656099071320800,11.57732080078125,0.005395137041807174,-0.00679632734293118,0.0005798137485282496
1772656099081303800,11.5873037109375,0.0038999300479888913,-0.007411408767662942,0.011125095528550446
1772656099091285800,11.59728564453125,0.008390227204561233,0.001399911659490317,0.0005182654201751574
1772656099101268700,11.607268798828125,0.0019558102428913113,-0.0028442287162877616,-0.005093738375860266
1772656099111251000,11.6172509765625,0.00539747512936592,-0.00028157515404745936,-0.0015376487629022448
1772656099121233700,11.627233642578124,0.013476736688613891,-0.0024651114718988536,-0.004033717062068172
1772656099131216000,11.6372158203125,0.015271803411841391,-0.006301493030693382,0.0016232081545051187
1772656099141198800,11.64719873046875,0.007642039185762405,0.0023044410174712536,0.00045074857533909375
1772656099151180800,11.657180908203125,0.002855389431118965,-0.0038926509238313882,-0.0033535208121407774
1772656099161163800,11.667163818359375,0.0012099603116512297,-0.0036854470470920205,0.010948779980419203
1772656099171145700,11.677145751953125,0.0064496145308017725,-0.006058359324047341,-0.001763781102397479
1772656099181127700,11.687127685546875,0.009292144480347634,-0.004051165953790768,-0.004699501194152981
1772656099191111000,11.69711083984375,0.009441197562217712,0.0038630503700114783,-0.002491720917611383
1772656099201092600,11.707092529296874,0.012733224844932556,0.0010236896250862629,-0.0008728647112380713
1772656099211075800,11.717075927734374,0.004953823015093803,-0.0058905741422437125,0.002462175162718631
1772656099221057800,11.727057861328126,-0.0038730420410633083,-0.006786025144625455,-0.003806908869137987
