time,seconds_elapsed,z,y,x
1772656087560319000,0.066319091796875,-0.9987335205078125,-0.01617431640625,-0.0085296630859375
1772656087570302000,0.076302001953125,-0.9924163818359375,-0.01495361328125,-0.01043701171875
1772656087580284200,0.0862841796875,-1.00140380859375,-0.016265869140625,-0.0060882568359375
1772656087590266000,0.09626611328125,-1.0042572021484375,-0.0168914794921875,-0.0058135986328125
1772656087600249000,0.1062490234375,-0.9966583251953125,-0.0155487060546875,-0.0097808837890625
1772656087610231000,0.11623095703125,-0.9968414306640625,-0.0152587890625,-0.0082550048828125
1772656087620214000,0.126214111328125,-1.0022430419921875,-0.015899658203125,-0.00665283203125
1772656087630196000,0.136196044921875,-1.001434326171875,-0.0155181884765625,-0.0074005126953125
1772656087640179000,0.146178955078125,-0.996551513671875,-0.0156402587890625,-0.008880615234375
1772656087650161200,0.1561611328125,-0.999359130859375,-0.0160064697265625,-0.0080718994140625
1772656087660143000,0.16614306640625,-1.0020904541015625,-0.01580810546875,-0.006683349609375
1772656087670126000,0.1761259765625,-0.9991912841796875,-0.0164031982421875,-0.0082244873046875
1772656087680108000,0.18610791015625,-0.9983673095703125,-0.016387939453125,-0.00909423828125
1772656087690091000,0.196091064453125,-1.0000152587890625,-0.016204833984375,-0.008148193359375
1772656087700073000,0.206072998046875,-1.0003814697265625,-0.016204833984375,-0.007080078125
1772656087710056200,0.21605615234375,-0.998046875,-0.0165863037109375,-0.009124755859375
1772656087720038000,0.226037841796875,-0.9987335205078125,-0.01605224609375,-0.00811767578125
1772656087730021000,0.236021240234375,-1.00042724609375,-0.0162811279296875,-0.0071258544921875
1772656087740003000,0.246003173828125,-0.9996795654296875,-0.0159149169921875,-0.007659912109375
1772656087749985000,0.255985107421875,-0.9989166259765625,-0.016448974609375,-0.0078125
1772656087759968000,0.265968017578125,-0.9995269775390625,-0.0159759521484375,-0.0074310302734375
1772656087769950000,0.275949951171875,-1.00042724609375,-0.015472412109375,-0.0072784423828125
1772656087779933000,0.285932861328125,-0.9988250732421875,-0.0159454345703125,-0.00750732421875
1772656087789915100,0.2959150390625,-0.9981689453125,-0.016571044921875,-0.00762939453125
1772656087799896800,0.305896728515625,-1.0001220703125,-0.0166015625,-0.00732421875
1772656087809880000,0.315880126953125,-1.0003814697265625,-0.0148468017578125,-0.0071868896484375
1772656087819862000,0.325862060546875,-0.99786376953125,-0.01483154296875,-0.0084686279296875
1772656087829845000,0.335844970703125,-0.99981689453125,-0.01629638671875,-0.00860595703125
1772656087839827000,0.345826904296875,-1.000762939453125,-0.0165863037109375,-0.0083465576171875
1772656087849810200,0.35581005859375,-0.999969482421875,-0.0162200927734375,-0.008392333984375
1772656087859792000,0.3657919921875,-0.99847412109375,-0.0167236328125,-0.007171630859375
1772656087869774000,0.375774169921875,-0.999053955078125,-0.0161590576171875,-0.0072021484375
1772656087879757000,0.385757080078125,-1,-0.015533447265625,-0.0071563720703125
1772656087889739000,0.395739013671875,-0.9991302490234375,-0.015625,-0.0076751708984375
1772656087899722000,0.405721923828125,-0.998931884765625,-0.0169219970703125,-0.0077667236328125
1772656087909704200,0.4157041015625,-0.999114990234375,-0.0160064697265625,-0.00738525390625
1772656087919687000,0.42568701171875,-0.99932861328125,-0.0158843994140625,-0.0073089599609375
1772656087929669000,0.435669189453125,-0.99896240234375,-0.01611328125,-0.00726318359375
1772656087939652000,0.445652099609375,-0.9987030029296875,-0.0152740478515625,-0.0075836181640625
1772656087949634000,0.455634033203125,-0.999969482421875,-0.0155487060546875,-0.007232666015625
1772656087959616300,0.4656162109375,-0.9988861083984375,-0.01593017578125,-0.0071563720703125
1772656087969599000,0.475598876953125,-0.9991302490234375,-0.016265869140625,-0.0073089599609375
1772656087979581200,0.485581298828125,-0.9982452392578125,-0.0157623291015625,-0.007965087890625
1772656087989564200,0.495564208984375,-0.9991607666015625,-0.0155029296875,-0.0080108642578125
1772656087999546000,0.505546142578125,-0.9996337890625,-0.0158538818359375,-0.007232666015625
1772656088009529000,0.515529052734375,-0.999847412109375,-0.016204833984375,-0.008636474609375
1772656088019511300,0.52551123046875,-1.0002593994140625,-0.016265869140625,-0.007293701171875
1772656088029493000,0.535492919921875,-0.998626708984375,-0.0166015625,-0.0074310302734375
1772656088039476200,0.545476318359375,-0.998565673828125,-0.0161285400390625,-0.0080413818359375
1772656088049458000,0.5554580078125,-0.9981231689453125,-0.01568603515625,-0.0081939697265625
1772656088059441200,0.565441162109375,-0.9996185302734375,-0.0157318115234375,-0.008270263671875
1772656088069423000,0.575423095703125,-0.9990692138671875,-0.01617431640625,-0.007232666015625
1772656088079405000,0.585405029296875,-0.99957275390625,-0.016021728515625,-0.0073699951171875
1772656088089388000,0.595387939453125,-0.9988555908203125,-0.0155792236328125,-0.006927490234375
1772656088099370000,0.605369873046875,-0.998626708984375,-0.0159454345703125,-0.006256103515625
1772656088109353000,0.61535302734375,-0.9991455078125,-0.016204833984375,-0.007720947265625
1772656088119335200,0.625335205078125,-0.99945068359375,-0.0155792236328125,-0.0086517333984375
1772656088129318000,0.63531787109375,-0.99957275390625,-0.0155181884765625,-0.0080718994140625
1772656088139300000,0.645300048828125,-0.9984130859375,-0.015533447265625,-0.0075531005859375
1772656088149282300,0.6552822265625,-0.9988861083984375,-0.0158538818359375,-0.0080413818359375
1772656088159265000,0.66526513671875,-0.99993896484375,-0.01617431640625,-0.0072479248046875
1772656088169247200,0.675247314453125,-1.0001068115234375,-0.0157012939453125,-0.0084991455078125
1772656088179230200,0.685230224609375,-0.9991455078125,-0.0153656005859375,-0.007171630859375
1772656088189212200,0.695212158203125,-0.99908447265625,-0.016082763671875,-0.007568359375
1772656088199195100,0.705195068359375,-0.9994659423828125,-0.016082763671875,-0.0080718994140625
1772656088209177000,0.715177001953125,-0.9985504150390625,-0.016143798828125,-0.008148193359375
1772656088219159000,0.725158935546875,-0.9991302490234375,-0.015655517578125,-0.0084991455078125
1772656088229142300,0.735142333984375,-0.9998321533203125,-0.014923095703125,-0.0081329345703125
1772656088239124000,0.7451240234375,-0.99945068359375,-0.0157012939453125,-0.0069427490234375
1772656088249107200,0.755107177734375,-0.9986572265625,-0.01544189453125,-0.0068817138671875
1772656088259089000,0.7650888671875,-0.99969482421875,-0.016265869140625,-0.007293701171875
1772656088269072100,0.775072021484375,-0.9988861083984375,-0.0157928466796875,-0.00750732421875
1772656088279054000,0.78505419921875,-0.9989166259765625,-0.01580810546875,-0.0083160400390625
1772656088289036000,0.7950361328125,-1.000244140625,-0.01605224609375,-0.007965087890625
1772656088299019000,0.80501904296875,-0.9998779296875,-0.0166168212890625,-0.0075225830078125
1772656088309001200,0.815001220703125,-1.00030517578125,-0.01654052734375,-0.0079498291015625
1772656088318984000,0.82498388671875,-0.999267578125,-0.0154571533203125,-0.0084381103515625
1772656088328966100,0.834966064453125,-0.999420166015625,-0.016082763671875,-0.007293701171875
1772656088338949000,0.84494921875,-0.9990081787109375,-0.016937255859375,-0.006927490234375
1772656088348931000,0.85493115234375,-0.99908447265625,-0.0166473388671875,-0.0079803466796875
1772656088358913300,0.864913330078125,-0.999420166015625,-0.015777587890625,-0.0078277587890625
1772656088368896000,0.87489599609375,-0.9996337890625,-0.01617431640625,-0.0077972412109375
1772656088378878200,0.884878173828125,-0.9995880126953125,-0.0164642333984375,-0.0077667236328125
1772656088388861200,0.894861083984375,-0.999298095703125,-0.0162353515625,-0.0074920654296875
1772656088398843100,0.904843017578125,-0.9983978271484375,-0.0162506103515625,-0.0081024169921875
1772656088408826000,0.914826171875,-0.9983062744140625,-0.01629638671875,-0.0084075927734375
1772656088418808300,0.924808349609375,-0.9987640380859375,-0.01611328125,-0.007720947265625
1772656088428790000,0.9347900390625,-1.0004730224609375,-0.0155181884765625,-0.0082244873046875
1772656088438773200,0.944773193359375,-0.999481201171875,-0.0157928466796875,-0.0080108642578125
1772656088448755000,0.9547548828125,-0.9993133544921875,-0.01556396484375,-0.007476806640625
1772656088458738200,0.96473828125,-0.99847412109375,-0.016082763671875,-0.00799560546875
1772656088468720000,0.97472021484375,-0.9981231689453125,-0.015838623046875,-0.0083160400390625
1772656088478703000,0.984703125,-0.998504638671875,-0.0158843994140625,-0.0080718994140625
1772656088488685000,0.99468505859375,-0.999725341796875,-0.0159149169921875,-0.007537841796875
1772656088498667000,1.0046669921875,-0.9997100830078125,-0.015777587890625,-0.0083465576171875
1772656088508650000,1.01464990234375,-0.9998626708984375,-0.0160675048828125,-0.007843017578125
1772656088518632200,1.024632080078125,-0.998504638671875,-0.0159759521484375,-0.0071258544921875
1772656088528615000,1.034614990234375,-0.99908447265625,-0.016448974609375,-0.008209228515625
1772656088538597000,1.04459716796875,-0.9990081787109375,-0.0156707763671875,-0.0091094970703125
1772656088548580000,1.054580078125,-0.999755859375,-0.0156402587890625,-0.0086212158203125
1772656088558562000,1.06456201171875,-1.000579833984375,-0.0154571533203125,-0.0075225830078125
1772656088568544300,1.074544189453125,-0.9992218017578125,-0.016357421875,-0.0068817138671875
1772656088578527200,1.08452734375,-0.998809814453125,-0.0162811279296875,-0.0081329345703125
1772656088588509200,1.09450927734375,-0.998046875,-0.01605224609375,-0.0081634521484375
1772656088598492200,1.1044921875,-0.9990997314453125,-0.015411376953125,-0.0080718994140625
1772656088608474000,1.11447412109375,-0.999359130859375,-0.0162353515625,-0.00823974609375
1772656088618457000,1.12445703125,-0.9997100830078125,-0.015869140625,-0.0070037841796875
1772656088628439300,1.134439208984375,-0.9994964599609375,-0.0159149169921875,-0.0076446533203125
1772656088638421000,1.1444208984375,-0.9992523193359375,-0.016082763671875,-0.0081024169921875
1772656088648404200,1.154404296875,-0.9994049072265625,-0.015838623046875,-0.00750732421875
1772656088658386000,1.164385986328125,-0.9998779296875,-0.015869140625,-0.0070953369140625
1772656088668369200,1.174369140625,-0.9993438720703125,-0.0161285400390625,-0.007537841796875
1772656088678351000,1.18435107421875,-0.998931884765625,-0.0160369873046875,-0.0078887939453125
1772656088688334000,1.194333984375,-0.9995574951171875,-0.01611328125,-0.0074005126953125
1772656088698316000,1.20431591796875,-0.99908447265625,-0.0159149169921875,-0.0089569091796875
1772656088708298200,1.21429833984375,-0.999359130859375,-0.0159149169921875,-0.0075225830078125
1772656088718281000,1.224281005859375,-0.9988250732421875,-0.015625,-0.00762939453125
1772656088728263200,1.23426318359375,-0.99908447265625,-0.0164337158203125,-0.0074615478515625
1772656088738246100,1.24424609375,-0.99957275390625,-0.0160675048828125,-0.007537841796875
1772656088748228000,1.25422802734375,-0.9996795654296875,-0.0158538818359375,-0.007843017578125
1772656088758211000,1.264211181640625,-0.9989013671875,-0.0159149169921875,-0.0087127685546875
1772656088768193000,1.274193115234375,-0.999542236328125,-0.0158538818359375,-0.0077667236328125
1772656088778175200,1.28417529296875,-0.9992828369140625,-0.015594482421875,-0.007476806640625
1772656088788158200,1.294158203125,-0.998291015625,-0.0158538818359375,-0.0071868896484375
1772656088798140200,1.30414013671875,-0.999969482421875,-0.015777587890625,-0.0082855224609375
1772656088808123100,1.314123046875,-0.9993896484375,-0.0158233642578125,-0.0077972412109375
1772656088818105300,1.324105224609375,-1.000030517578125,-0.0158233642578125,-0.0087432861328125
1772656088828088000,1.334088134765625,-0.999664306640625,-0.0162811279296875,-0.007537841796875
1772656088838070300,1.3440703125,-0.99847412109375,-0.0167694091796875,-0.0082855224609375
1772656088848052000,1.354052001953125,-0.998046875,-0.015228271484375,-0.0078582763671875
1772656088858035200,1.36403515625,-0.998382568359375,-0.0157318115234375,-0.0074005126953125
1772656088868017200,1.37401708984375,-0.9989166259765625,-0.0166015625,-0.007720947265625
1772656088878000000,1.384000244140625,-0.9987335205078125,-0.01617431640625,-0.0072784423828125
1772656088887982000,1.393982177734375,-0.9994964599609375,-0.016357421875,-0.00732421875
1772656088897965300,1.40396533203125,-0.9981689453125,-0.0159912109375,-0.0071868896484375
1772656088907947300,1.413947265625,-0.99969482421875,-0.0157470703125,-0.008636474609375
1772656088917929200,1.42392919921875,-0.9996795654296875,-0.016693115234375,-0.0080413818359375
1772656088927912200,1.433912109375,-0.9991455078125,-0.0157012939453125,-0.0077056884765625
1772656088937894400,1.443894287109375,-1.0006256103515625,-0.0164947509765625,-0.008148193359375
1772656088947877000,1.453877197265625,-0.99951171875,-0.01580810546875,-0.0077362060546875
1772656088957859300,1.463859375,-1.0002288818359375,-0.0167083740234375,-0.0084075927734375
1772656088967842300,1.47384228515625,-0.99993896484375,-0.016937255859375,-0.008087158203125
1772656088977824300,1.48382421875,-1.0003204345703125,-0.0168914794921875,-0.008270263671875
1772656088987806200,1.49380615234375,-0.999267578125,-0.0153045654296875,-0.0074005126953125
1772656088997789200,1.5037890625,-0.9991912841796875,-0.015899658203125,-0.0084381103515625
1772656089007771100,1.513771240234375,-0.999176025390625,-0.0152130126953125,-0.0082550048828125
1772656089017754400,1.52375439453125,-0.999755859375,-0.0166168212890625,-0.0078277587890625
1772656089027736000,1.533736083984375,-1.000518798828125,-0.016754150390625,-0.007781982421875
1772656089037719300,1.54371923828125,-0.9993743896484375,-0.0157318115234375,-0.00775146484375
1772656089047701200,1.553701171875,-0.9993438720703125,-0.01556396484375,-0.0088348388671875
1772656089057683200,1.56368310546875,-0.9988861083984375,-0.015838623046875,-0.0086517333984375
1772656089067666200,1.573666259765625,-0.9979248046875,-0.0160064697265625,-0.0070037841796875
1772656089077648100,1.583648193359375,-0.99847412109375,-0.0153045654296875,-0.0080718994140625
1772656089087631000,1.593631103515625,-0.9993438720703125,-0.0158538818359375,-0.008544921875
1772656089097613300,1.60361328125,-0.9984283447265625,-0.015960693359375,-0.0083160400390625
1772656089107596000,1.613595947265625,-0.998504638671875,-0.01629638671875,-0.007415771484375
1772656089117578200,1.623578125,-0.99957275390625,-0.0155487060546875,-0.0080413818359375
1772656089127560200,1.633560302734375,-0.99859619140625,-0.0154876708984375,-0.008056640625
1772656089137543200,1.643543212890625,-0.9993743896484375,-0.0157470703125,-0.0079193115234375
1772656089147525400,1.653525390625,-0.9988861083984375,-0.0162811279296875,-0.0083770751953125
1772656089157508000,1.663508056640625,-0.9984283447265625,-0.0157012939453125,-0.0080413818359375
1772656089167490300,1.673490234375,-1,-0.0159149169921875,-0.008544921875
1772656089177473300,1.683473388671875,-0.9999847412109375,-0.01611328125,-0.0086822509765625
1772656089187455200,1.693455322265625,-0.9989013671875,-0.01580810546875,-0.0079193115234375
1772656089197437200,1.703437255859375,-0.9988555908203125,-0.0158233642578125,-0.0081939697265625
1772656089207420400,1.71342041015625,-0.9993743896484375,-0.016326904296875,-0.0079498291015625
1772656089217402000,1.723402099609375,-0.999237060546875,-0.01605224609375,-0.007568359375
1772656089227385300,1.73338525390625,-0.999664306640625,-0.0162200927734375,-0.0075531005859375
1772656089237367000,1.743366943359375,-0.999359130859375,-0.01641845703125,-0.00830078125
1772656089247350300,1.753350341796875,-0.99920654296875,-0.0160369873046875,-0.0074005126953125
1772656089257332200,1.763332275390625,-0.999267578125,-0.0164794921875,-0.0065155029296875
1772656089267314200,1.773314208984375,-0.9994659423828125,-0.015472412109375,-0.007781982421875
1772656089277297200,1.783297119140625,-0.998809814453125,-0.015899658203125,-0.0079345703125
1772656089287279000,1.793279052734375,-0.998687744140625,-0.0156402587890625,-0.007781982421875
1772656089297262000,1.803261962890625,-1.000091552734375,-0.016632080078125,-0.00738525390625
1772656089307244300,1.813244384765625,-0.99847412109375,-0.0162200927734375,-0.0084075927734375
1772656089317227000,1.82322705078125,-0.999359130859375,-0.01654052734375,-0.0071258544921875
1772656089327209200,1.833209228515625,-0.9998626708984375,-0.01580810546875,-0.00750732421875
1772656089337191400,1.84319140625,-0.9998931884765625,-0.01544189453125,-0.007232666015625
1772656089347174100,1.853174072265625,-0.9990386962890625,-0.01531982421875,-0.008544921875
1772656089357156400,1.86315625,-0.9991455078125,-0.0155487060546875,-0.008209228515625
1772656089367139300,1.873139404296875,-0.9990081787109375,-0.0160064697265625,-0.0077362060546875
1772656089377121300,1.883121337890625,-0.9991455078125,-0.0156707763671875,-0.0081787109375
1772656089387104300,1.893104248046875,-0.998809814453125,-0.016021728515625,-0.0079345703125
1772656089397086200,1.903086181640625,-0.999267578125,-0.0165252685546875,-0.0081634521484375
1772656089407068200,1.913068115234375,-0.9996185302734375,-0.0161590576171875,-0.0081024169921875
1772656089417051400,1.923051513671875,-0.999176025390625,-0.016021728515625,-0.0083465576171875
1772656089427033000,1.933033203125,-0.9997406005859375,-0.0165863037109375,-0.00726318359375
1772656089437016300,1.943016357421875,-1.000091552734375,-0.0159454345703125,-0.0075836181640625
1772656089446998000,1.952998046875,-0.999603271484375,-0.0162506103515625,-0.0077667236328125
1772656089456981200,1.962981201171875,-0.9996337890625,-0.0157623291015625,-0.00775146484375
1772656089466963200,1.972963134765625,-0.9994354248046875,-0.016387939453125,-0.008056640625
1772656089476945200,1.982945068359375,-0.9994964599609375,-0.0160369873046875,-0.0081024169921875
1772656089486928100,1.99292822265625,-0.9989471435546875,-0.0163726806640625,-0.007965087890625
1772656089496910300,2.002910400390625,-0.9997406005859375,-0.0157012939453125,-0.008056640625
1772656089506893000,2.01289306640625,-0.9998626708984375,-0.016082763671875,-0.007476806640625
1772656089516875300,2.022875244140625,-0.99810791015625,-0.0162506103515625,-0.00811767578125
1772656089526858200,2.032858154296875,-0.9989776611328125,-0.0162200927734375,-0.007598876953125
1772656089536840200,2.042840087890625,-0.999542236328125,-0.0157470703125,-0.007568359375
1772656089546822400,2.052822509765625,-0.999786376953125,-0.016571044921875,-0.0068817138671875
1772656089556805000,2.06280517578125,-0.9996185302734375,-0.01617431640625,-0.0085296630859375
1772656089566787300,2.072787353515625,-0.9986419677734375,-0.016143798828125,-0.0086517333984375
1772656089576770300,2.082770263671875,-0.999298095703125,-0.01556396484375,-0.0080108642578125
1772656089586752300,2.092752197265625,-0.9993133544921875,-0.01617431640625,-0.0087890625
1772656089596735200,2.1027353515625,-0.9983978271484375,-0.01568603515625,-0.0081634521484375
1772656089606717400,2.112717529296875,-0.998870849609375,-0.015869140625,-0.0075836181640625
1772656089616699100,2.12269921875,-0.9990234375,-0.0154266357421875,-0.0083465576171875
1772656089626682400,2.132682373046875,-0.999176025390625,-0.0153350830078125,-0.0078277587890625
1772656089636664000,2.1426640625,-0.99859619140625,-0.0160369873046875,-0.0075836181640625
1772656089646647300,2.152647216796875,-0.99853515625,-0.0160064697265625,-0.008026123046875
1772656089656629200,2.162629150390625,-1.000244140625,-0.0167083740234375,-0.0084228515625
1772656089666612200,2.1726123046875,-1.00054931640625,-0.015960693359375,-0.007904052734375
1772656089676594200,2.18259423828125,-0.99981689453125,-0.0158233642578125,-0.0071258544921875
1772656089686576000,2.192576171875,-0.9990234375,-0.0156097412109375,-0.007598876953125
1772656089696559000,2.20255908203125,-0.9989471435546875,-0.0157470703125,-0.0076141357421875
1772656089706541300,2.212541259765625,-0.9994659423828125,-0.0155029296875,-0.007965087890625
1772656089716524000,2.22252392578125,-0.9997711181640625,-0.0158843994140625,-0.0076446533203125
1772656089726506200,2.23250634765625,-0.9997100830078125,-0.015625,-0.0074920654296875
1772656089736489200,2.2424892578125,-0.9984588623046875,-0.0153045654296875,-0.008331298828125
1772656089746471200,2.25247119140625,-0.99945068359375,-0.0155792236328125,-0.0084075927734375
1772656089756453400,2.262453369140625,-1.0003509521484375,-0.0159759521484375,-0.0076446533203125
1772656089766436400,2.272436279296875,-0.9991607666015625,-0.015716552734375,-0.0072021484375
1772656089776418300,2.282418212890625,-0.99871826171875,-0.0158233642578125,-0.0086517333984375
1772656089786401300,2.2924013671875,-0.998291015625,-0.0154876708984375,-0.0081634521484375
1772656089796383200,2.30238330078125,-1.00048828125,-0.0160980224609375,-0.0079345703125
1772656089806366200,2.3123662109375,-1.0000457763671875,-0.015869140625,-0.0081939697265625
1772656089816348400,2.322348388671875,-0.9988250732421875,-0.0166168212890625,-0.008087158203125
1772656089826330000,2.332330078125,-0.998687744140625,-0.015869140625,-0.0081634521484375
1772656089836313300,2.342313232421875,-0.999786376953125,-0.0157012939453125,-0.00872802734375
1772656089846295000,2.352294921875,-0.999053955078125,-0.0157470703125,-0.007476806640625
1772656089856278300,2.3622783203125,-0.9990692138671875,-0.01580810546875,-0.007720947265625
1772656089866260200,2.37226025390625,-0.99981689453125,-0.0164794921875,-0.008056640625
1772656089876243200,2.3822431640625,-0.999481201171875,-0.0162200927734375,-0.0083465576171875
1772656089886228000,2.39222802734375,-0.9991607666015625,-0.0154266357421875,-0.0081787109375
1772656089896209700,2.402209716796875,-1.000244140625,-0.0162353515625,-0.0089569091796875
1772656089906193000,2.41219287109375,-0.9994964599609375,-0.015716552734375,-0.0088958740234375
1772656089916174600,2.422174560546875,-1.000213623046875,-0.0159912109375,-0.007080078125
1772656089926157800,2.43215771484375,-0.998870849609375,-0.01605224609375,-0.0080718994140625
1772656089936139800,2.442139892578125,-0.9990234375,-0.01654052734375,-0.0077667236328125
1772656089946122800,2.452122802734375,-0.9990081787109375,-0.016845703125,-0.0074615478515625
1772656089956104700,2.462104736328125,-0.99847412109375,-0.01629638671875,-0.0079498291015625
1772656089966086700,2.472086669921875,-0.9996337890625,-0.01556396484375,-0.0084075927734375
1772656089976069600,2.482069580078125,-1.0002899169921875,-0.0157623291015625,-0.0076904296875
1772656089986051800,2.4920517578125,-0.9998321533203125,-0.0164337158203125,-0.0071258544921875
1772656089996034600,2.50203466796875,-0.9991912841796875,-0.015472412109375,-0.00732421875
1772656090006016800,2.512016845703125,-0.9997711181640625,-0.016082763671875,-0.0072784423828125
1772656090015999700,2.521999755859375,-1.00079345703125,-0.0160980224609375,-0.0074310302734375
1772656090025981700,2.531981689453125,-1.0001068115234375,-0.01593017578125,-0.007659912109375
1772656090035964700,2.541964599609375,-0.9988861083984375,-0.0157623291015625,-0.008941650390625
1772656090045947000,2.55194677734375,-0.9992828369140625,-0.015625,-0.0081329345703125
1772656090055928800,2.5619287109375,-0.9998931884765625,-0.0157012939453125,-0.0077362060546875
1772656090065911800,2.571911865234375,-0.9994049072265625,-0.0161590576171875,-0.0081634521484375
1772656090075893800,2.581893798828125,-0.9994659423828125,-0.0156707763671875,-0.0080108642578125
1772656090085876700,2.591876708984375,-0.99908447265625,-0.0158233642578125,-0.0080718994140625
1772656090095858700,2.601858642578125,-0.9989776611328125,-0.0160064697265625,-0.0081634521484375
1772656090105841700,2.611841552734375,-0.9993438720703125,-0.0157623291015625,-0.0079803466796875
1772656090115823900,2.621823974609375,-1.00006103515625,-0.015869140625,-0.0080718994140625
1772656090125805600,2.6318056640625,-0.9987030029296875,-0.0169219970703125,-0.0078277587890625
1772656090135788800,2.641788818359375,-0.998931884765625,-0.0163116455078125,-0.0074005126953125
1772656090145770800,2.651770751953125,-0.9991455078125,-0.01605224609375,-0.0088653564453125
1772656090155753700,2.661753662109375,-0.9993896484375,-0.015594482421875,-0.008148193359375
1772656090165735700,2.671735595703125,-0.9991912841796875,-0.015716552734375,-0.008392333984375
1772656090175719000,2.681718994140625,-0.998870849609375,-0.01611328125,-0.0078125
1772656090185700600,2.69170068359375,-0.999847412109375,-0.015625,-0.0073699951171875
1772656090195682800,2.701682861328125,-0.999420166015625,-0.01605224609375,-0.0078582763671875
1772656090205665800,2.711665771484375,-0.9991607666015625,-0.0157318115234375,-0.008514404296875
1772656090215647700,2.721647705078125,-0.998748779296875,-0.0155029296875,-0.0088348388671875
1772656090225630700,2.731630615234375,-0.9988555908203125,-0.0157928466796875,-0.0067291259765625
1772656090235612700,2.74161279296875,-0.9989776611328125,-0.0158233642578125,-0.0088958740234375
1772656090245595600,2.751595703125,-0.9982452392578125,-0.01580810546875,-0.00823974609375
1772656090255577900,2.761577880859375,-0.9987335205078125,-0.015869140625,-0.0083465576171875
1772656090265559600,2.7715595703125,-0.9987640380859375,-0.015655517578125,-0.007965087890625
1772656090275542800,2.781542724609375,-0.999847412109375,-0.0164337158203125,-0.008819580078125
1772656090285524700,2.791524658203125,-0.9990081787109375,-0.015777587890625,-0.00726318359375
1772656090295507700,2.8015078125,-0.9997711181640625,-0.01513671875,-0.0083465576171875
1772656090305489700,2.81148974609375,-0.999847412109375,-0.0160064697265625,-0.008544921875
1772656090315473000,2.821472900390625,-0.999603271484375,-0.016265869140625,-0.0078125
1772656090325454600,2.83145458984375,-0.999847412109375,-0.0154571533203125,-0.0071868896484375
1772656090335437800,2.841437744140625,-1.0004730224609375,-0.0164794921875,-0.0079193115234375
1772656090345419500,2.85141943359375,-0.999542236328125,-0.0162811279296875,-0.00732421875
1772656090355401700,2.861401611328125,-0.9998779296875,-0.0154571533203125,-0.0081634521484375
1772656090365384700,2.871384765625,-1.0002593994140625,-0.016754150390625,-0.0084991455078125
1772656090375366700,2.88136669921875,-0.999359130859375,-0.0160064697265625,-0.0081939697265625
1772656090385349600,2.891349609375,-0.9994354248046875,-0.015350341796875,-0.008270263671875
1772656090395331600,2.90133154296875,-1.0001983642578125,-0.0157928466796875,-0.008819580078125
1772656090405314600,2.911314453125,-0.9996337890625,-0.015594482421875,-0.0085296630859375
1772656090415296800,2.921296875,-0.999908447265625,-0.0158538818359375,-0.0085601806640625
1772656090425278700,2.93127880859375,-1.0000762939453125,-0.0159454345703125,-0.0076904296875
1772656090435261700,2.94126171875,-0.998992919921875,-0.0157928466796875,-0.0081024169921875
1772656090445244000,2.951243896484375,-0.999542236328125,-0.0156707763671875,-0.008087158203125
1772656090455226600,2.9612265625,-0.9990386962890625,-0.0161590576171875,-0.0073089599609375
1772656090465208800,2.971208740234375,-0.999664306640625,-0.0152130126953125,-0.0072021484375
1772656090475191800,2.98119189453125,-0.9985504150390625,-0.01531982421875,-0.0074310302734375
1772656090485173800,2.991173828125,-0.99835205078125,-0.016387939453125,-0.0076141357421875
1772656090495155700,3.00115576171875,-0.9988861083984375,-0.0169219970703125,-0.006805419921875
1772656090505138700,3.011138671875,-0.999267578125,-0.0159759521484375,-0.0075225830078125
1772656090515120600,3.02112060546875,-0.9989166259765625,-0.0157928466796875,-0.0085906982421875
1772656090525103900,3.031103759765625,-0.9989776611328125,-0.01513671875,-0.0079803466796875
1772656090535085600,3.04108544921875,-0.99969482421875,-0.0160369873046875,-0.007537841796875
1772656090545068800,3.05106884765625,-0.998748779296875,-0.0161590576171875,-0.0086669921875
1772656090555050800,3.06105078125,-0.99969482421875,-0.0166015625,-0.0088653564453125
1772656090565033700,3.07103369140625,-0.9996795654296875,-0.015838623046875,-0.0095062255859375
1772656090575015700,3.081015625,-0.9991302490234375,-0.016326904296875,-0.00726318359375
1772656090584997600,3.09099755859375,-0.9988861083984375,-0.01629638671875,-0.008392333984375
1772656090594980600,3.100980712890625,-0.9986114501953125,-0.0160980224609375,-0.0078277587890625
1772656090604962800,3.110962890625,-1.000030517578125,-0.0156097412109375,-0.0076751708984375
1772656090614945500,3.120945556640625,-1.0005035400390625,-0.01605224609375,-0.0068511962890625
1772656090624927700,3.130927734375,-0.9996185302734375,-0.015716552734375,-0.007537841796875
1772656090634910700,3.14091064453125,-0.998992919921875,-0.016387939453125,-0.00885009765625
1772656090644892700,3.150892578125,-0.9992523193359375,-0.0171356201171875,-0.0084381103515625
1772656090654875000,3.160875,-0.9986114501953125,-0.0160369873046875,-0.0072174072265625
1772656090664857600,3.170857666015625,-0.99945068359375,-0.0157318115234375,-0.0080108642578125
1772656090674839800,3.18083984375,-0.99945068359375,-0.01544189453125,-0.0079345703125
1772656090684822800,3.19082275390625,-0.9996185302734375,-0.016693115234375,-0.0066375732421875
1772656090694804700,3.2008046875,-0.9988250732421875,-0.0157318115234375,-0.0078582763671875
1772656090704787700,3.21078759765625,-0.999267578125,-0.016387939453125,-0.00811767578125
1772656090714770000,3.22077001953125,-0.99884033203125,-0.0156402587890625,-0.00787353515625
1772656090724751600,3.230751708984375,-0.9996490478515625,-0.015625,-0.00823974609375
1772656090734734800,3.24073486328125,-0.998809814453125,-0.01629638671875,-0.008544921875
1772656090744716500,3.250716552734375,-0.999114990234375,-0.0162506103515625,-0.0082855224609375
1772656090754699800,3.26069970703125,-0.9996185302734375,-0.0168304443359375,-0.007904052734375
1772656090764681700,3.270681640625,-0.9995269775390625,-0.0157928466796875,-0.0078125
1772656090774664700,3.280664794921875,-0.9999847412109375,-0.016021728515625,-0.0071868896484375
1772656090784646700,3.290646728515625,-0.9991455078125,-0.0161895751953125,-0.0086669921875
1772656090794630000,3.3006298828125,-0.9987640380859375,-0.01568603515625,-0.008270263671875
1772656090804611600,3.310611572265625,-0.9995880126953125,-0.0161895751953125,-0.0079498291015625
1772656090814593800,3.32059375,-0.999298095703125,-0.01641845703125,-0.007354736328125
1772656090824576500,3.330576416015625,-0.9986572265625,-0.0163116455078125,-0.0070343017578125
1772656090834558700,3.340558837890625,-0.999359130859375,-0.015869140625,-0.008453369140625
1772656090844541700,3.350541748046875,-0.9989471435546875,-0.01580810546875,-0.0081024169921875
1772656090854523600,3.360523681640625,-0.9996795654296875,-0.0158233642578125,-0.0084991455078125
1772656090864506600,3.370506591796875,-0.9998931884765625,-0.016082763671875,-0.0073394775390625
1772656090874488800,3.38048876953125,-0.9996185302734375,-0.01556396484375,-0.0064544677734375
1772656090884468000,3.390468017578125,-0.9997711181640625,-0.0166473388671875,-0.0081024169921875
1772656090894450700,3.40045068359375,-0.998565673828125,-0.0158233642578125,-0.008575439453125
1772656090904433000,3.410432861328125,-0.9990997314453125,-0.01641845703125,-0.00848388671875
1772656090914415900,3.420415771484375,-0.9995269775390625,-0.0165557861328125,-0.0084991455078125
1772656090924397800,3.430397705078125,-0.998382568359375,-0.016082763671875,-0.0083465576171875
1772656090934380800,3.440380859375,-0.9998779296875,-0.015106201171875,-0.0078277587890625
1772656090944362800,3.45036279296875,-1.0007476806640625,-0.0156402587890625,-0.00787353515625
1772656090954344700,3.4603447265625,-1.0002899169921875,-0.01629638671875,-0.0084075927734375
1772656090964328000,3.470327880859375,-0.999908447265625,-0.0153961181640625,-0.0071563720703125
1772656090974309600,3.4803095703125,-0.9993896484375,-0.016693115234375,-0.0074615478515625
1772656090984292900,3.49029296875,-0.9992218017578125,-0.016937255859375,-0.0076446533203125
1772656090994274600,3.500274658203125,-1.000091552734375,-0.0164947509765625,-0.0078125
1772656091004257800,3.5102578125,-0.9997711181640625,-0.015777587890625,-0.0079498291015625
1772656091014239700,3.52023974609375,-0.9994049072265625,-0.016082763671875,-0.007476806640625
1772656091024223000,3.530222900390625,-0.9981231689453125,-0.0162506103515625,-0.00823974609375
1772656091034204700,3.54020458984375,-0.9989013671875,-0.01568603515625,-0.008453369140625
1772656091044187000,3.550186767578125,-0.99945068359375,-0.0155792236328125,-0.0080108642578125
1772656091054169600,3.560169677734375,-0.9993743896484375,-0.014678955078125,-0.00701904296875
1772656091064151800,3.57015185546875,-0.9989776611328125,-0.01629638671875,-0.0077362060546875
1772656091074134800,3.580134765625,-0.99932861328125,-0.0151824951171875,-0.0078125
1772656091084116700,3.59011669921875,-0.9998016357421875,-0.015869140625,-0.007904052734375
1772656091094099700,3.600099609375,-0.9993133544921875,-0.0162506103515625,-0.0074920654296875
1772656091104081700,3.61008154296875,-0.999053955078125,-0.01629638671875,-0.007110595703125
1772656091114063600,3.620063720703125,-0.9994049072265625,-0.0157012939453125,-0.0070037841796875
1772656091124046800,3.630046875,-0.999725341796875,-0.015411376953125,-0.007568359375
1772656091134028800,3.64002880859375,-0.9997100830078125,-0.015350341796875,-0.006927490234375
1772656091144011800,3.65001171875,-0.9995574951171875,-0.01580810546875,-0.0079803466796875
1772656091153993700,3.65999365234375,-0.999298095703125,-0.0159759521484375,-0.0076141357421875
1772656091163976700,3.669976806640625,-1.0001678466796875,-0.016082763671875,-0.0082244873046875
1772656091173958700,3.679958740234375,-0.9991302490234375,-0.015899658203125,-0.008758544921875
1772656091183942000,3.68994189453125,-0.999603271484375,-0.0162200927734375,-0.0080718994140625
1772656091193923600,3.699923583984375,-0.9988861083984375,-0.01519775390625,-0.00811767578125
1772656091203905800,3.70990576171875,-0.9994354248046875,-0.016265869140625,-0.00823974609375
1772656091213888800,3.719888671875,-0.9997406005859375,-0.0167236328125,-0.008514404296875
1772656091223870700,3.72987060546875,-0.9991607666015625,-0.01580810546875,-0.00732421875
1772656091233853700,3.739853759765625,-0.9987640380859375,-0.0161285400390625,-0.0077362060546875
1772656091243835600,3.749835693359375,-0.9996795654296875,-0.0158538818359375,-0.0071868896484375
1772656091253818600,3.759818603515625,-1.000335693359375,-0.01556396484375,-0.0069427490234375
1772656091263800600,3.769800537109375,-1.000152587890625,-0.0159912109375,-0.0074920654296875
1772656091273783800,3.77978369140625,-0.9995269775390625,-0.01544189453125,-0.0079803466796875
1772656091283765800,3.789765869140625,-0.99951171875,-0.0164794921875,-0.007476806640625
1772656091293747700,3.799747802734375,-0.9998779296875,-0.0161590576171875,-0.0082855224609375
1772656091303730700,3.809730712890625,-0.999298095703125,-0.016632080078125,-0.008026123046875
1772656091313713000,3.819712890625,-0.9982147216796875,-0.0162811279296875,-0.008544921875
1772656091323695600,3.829695556640625,-0.9994964599609375,-0.0166168212890625,-0.0081939697265625
1772656091333677800,3.839677734375,-0.998626708984375,-0.0167083740234375,-0.0079803466796875
1772656091343660800,3.849660888671875,-0.99920654296875,-0.0164031982421875,-0.0081939697265625
1772656091353642800,3.859642822265625,-0.9983978271484375,-0.016021728515625,-0.0084991455078125
1772656091363624700,3.869624755859375,-0.999542236328125,-0.0164337158203125,-0.007049560546875
1772656091373607700,3.879607666015625,-0.9991455078125,-0.015899658203125,-0.0081939697265625
1772656091383589600,3.889589599609375,-0.9991912841796875,-0.016143798828125,-0.008270263671875
1772656091393572900,3.89957275390625,-0.9996337890625,-0.01580810546875,-0.007720947265625
1772656091403554600,3.909554443359375,-0.9990386962890625,-0.0161285400390625,-0.0075225830078125
1772656091413537800,3.919537841796875,-0.9992523193359375,-0.0160675048828125,-0.0073394775390625
1772656091423519700,3.929519775390625,-1.0001678466796875,-0.016204833984375,-0.0081634521484375
1772656091433501700,3.939501708984375,-0.9994659423828125,-0.0164337158203125,-0.008087158203125
1772656091443484700,3.949484619140625,-1.0001678466796875,-0.015594482421875,-0.0084381103515625
1772656091453466600,3.959466552734375,-0.998809814453125,-0.0160064697265625,-0.0083770751953125
1772656091463449600,3.96944970703125,-1.0001220703125,-0.0167694091796875,-0.00689697265625
1772656091473431800,3.979431884765625,-0.9997406005859375,-0.015655517578125,-0.0080413818359375
1772656091483411700,3.98941162109375,-1.000640869140625,-0.016387939453125,-0.0080108642578125
1772656091493394700,3.999394775390625,-0.99945068359375,-0.0161285400390625,-0.00848388671875
1772656091503376600,4.009376708984375,-0.998504638671875,-0.0163726806640625,-0.0074615478515625
1772656091513360000,4.01935986328125,-0.9988250732421875,-0.0156402587890625,-0.0086517333984375
1772656091523341600,4.029341552734375,-0.998291015625,-0.0155181884765625,-0.0072479248046875
1772656091533323800,4.03932373046875,-0.9993896484375,-0.0158538818359375,-0.0073699951171875
1772656091543306800,4.049306640625,-0.9991607666015625,-0.0157318115234375,-0.00714111328125
1772656091553288700,4.059288818359375,-0.999908447265625,-0.016143798828125,-0.007415771484375
1772656091563271700,4.069271728515625,-0.9998779296875,-0.0160064697265625,-0.00665283203125
1772656091573253600,4.079253662109375,-0.998748779296875,-0.015472412109375,-0.008819580078125
1772656091583236600,4.089236572265625,-0.9995880126953125,-0.0157470703125,-0.0080718994140625
1772656091593218800,4.09921875,-1.000030517578125,-0.015960693359375,-0.008148193359375
1772656091603201500,4.109201416015625,-0.99945068359375,-0.0166168212890625,-0.0081329345703125
1772656091613183700,4.119183837890625,-1.0000762939453125,-0.0155181884765625,-0.0077362060546875
1772656091623166000,4.129166015625,-0.999542236328125,-0.01580810546875,-0.007781982421875
1772656091633148700,4.139148681640625,-0.9989776611328125,-0.0160064697265625,-0.0076904296875
1772656091643131000,4.149130859375,-0.9995880126953125,-0.0155792236328125,-0.0077667236328125
1772656091653113900,4.15911376953125,-0.9998321533203125,-0.01605224609375,-0.0083160400390625
1772656091663095800,4.169095703125,-0.9989471435546875,-0.016357421875,-0.0080413818359375
1772656091673078800,4.179078857421875,-0.9998931884765625,-0.01611328125,-0.00823974609375
1772656091683060700,4.189060791015625,-0.9982452392578125,-0.0159454345703125,-0.0083770751953125
1772656091693042700,4.199042724609375,-0.9988555908203125,-0.0163726806640625,-0.00799560546875
1772656091703026000,4.20902587890625,-0.999237060546875,-0.015533447265625,-0.0078125
1772656091713007600,4.219007568359375,-0.99932861328125,-0.016448974609375,-0.0075225830078125
1772656091722990800,4.228990966796875,-0.9986114501953125,-0.015289306640625,-0.0080718994140625
1772656091732972500,4.23897265625,-1,-0.01556396484375,-0.0084991455078125
1772656091742955800,4.248955810546875,-0.99920654296875,-0.0157623291015625,-0.0078887939453125
1772656091752937700,4.258937744140625,-0.998504638671875,-0.015869140625,-0.008270263671875
1772656091762920700,4.268920654296875,-0.999664306640625,-0.016204833984375,-0.0077972412109375
1772656091772902700,4.278902587890625,-0.999969482421875,-0.0157318115234375,-0.0077362060546875
1772656091782884900,4.288884765625,-0.999908447265625,-0.0157623291015625,-0.0068817138671875
1772656091792867600,4.29886767578125,-0.9992523193359375,-0.0157623291015625,-0.0077362060546875
1772656091802849800,4.308849853515625,-0.998992919921875,-0.015777587890625,-0.0073089599609375
1772656091812832800,4.318832763671875,-0.999969482421875,-0.015655517578125,-0.007904052734375
1772656091822814700,4.328814697265625,-0.9994964599609375,-0.0160675048828125,-0.0086212158203125
1772656091832797700,4.338797607421875,-0.9987640380859375,-0.0165863037109375,-0.0080413818359375
1772656091842779600,4.348779541015625,-0.9989776611328125,-0.015716552734375,-0.007598876953125
1772656091852762600,4.3587626953125,-0.999664306640625,-0.0165557861328125,-0.0078887939453125
1772656091862744800,4.368744873046875,-0.9993896484375,-0.0164337158203125,-0.0080108642578125
1772656091872726800,4.378726806640625,-1.0001678466796875,-0.0159454345703125,-0.0068817138671875
1772656091882709800,4.388709716796875,-0.9995269775390625,-0.016021728515625,-0.0074615478515625
1772656091892691200,4.398691162109375,-1.0001373291015625,-0.0160980224609375,-0.006805419921875
1772656091902675200,4.40867529296875,-0.999114990234375,-0.015869140625,-0.0081024169921875
1772656091912657200,4.4186572265625,-0.99896240234375,-0.0156707763671875,-0.0074310302734375
1772656091922639000,4.42863916015625,-0.9999237060546875,-0.0153961181640625,-0.0078582763671875
1772656091932622000,4.4386220703125,-0.9993133544921875,-0.016387939453125,-0.0081787109375
1772656091942604300,4.448604248046875,-1.0001220703125,-0.01617431640625,-0.0076446533203125
1772656091952587000,4.4585869140625,-1.0004730224609375,-0.015838623046875,-0.007171630859375
1772656091962569200,4.4685693359375,-0.9993743896484375,-0.0159912109375,-0.0071258544921875
1772656091972552200,4.47855224609375,-0.9990386962890625,-0.015625,-0.00750732421875
1772656091982534100,4.4885341796875,-0.99932861328125,-0.015869140625,-0.007659912109375
1772656091992517000,4.49851708984375,-0.9992828369140625,-0.015472412109375,-0.0081024169921875
1772656092002499300,4.508499267578125,-0.99957275390625,-0.015380859375,-0.0078887939453125
1772656092012481300,4.518481201171875,-0.9998321533203125,-0.01568603515625,-0.007293701171875
1772656092022464300,4.52846435546875,-1.0005645751953125,-0.0168914794921875,-0.0075836181640625
1772656092032446200,4.5384462890625,-0.9997711181640625,-0.01611328125,-0.0086669921875
1772656092042429200,4.54842919921875,-0.9996490478515625,-0.0152130126953125,-0.0081634521484375
1772656092052411400,4.558411376953125,-0.9997711181640625,-0.016387939453125,-0.0070648193359375
1772656092062394000,4.56839404296875,-1.0001220703125,-0.016571044921875,-0.0069732666015625
1772656092072376300,4.578376220703125,-0.9991912841796875,-0.0162353515625,-0.0082244873046875
1772656092082358000,4.58835791015625,-0.9994354248046875,-0.0157928466796875,-0.00823974609375
1772656092092341200,4.59834130859375,-0.9982757568359375,-0.0155181884765625,-0.0078887939453125
1772656092102323200,4.6083232421875,-0.99951171875,-0.015716552734375,-0.006866455078125
1772656092112306200,4.61830615234375,-1.0008697509765625,-0.0149993896484375,-0.0075531005859375
1772656092122288000,4.6282880859375,-1.0005645751953125,-0.0159912109375,-0.008697509765625
1772656092132271400,4.638271240234375,-0.9989166259765625,-0.0158233642578125,-0.0079803466796875
1772656092142253000,4.648253173828125,-1.0000152587890625,-0.0155792236328125,-0.008087158203125
1772656092152236300,4.658236328125,-0.999542236328125,-0.0160980224609375,-0.0078125
1772656092162218200,4.66821826171875,-0.999664306640625,-0.016326904296875,-0.007415771484375
1772656092172200200,4.6782001953125,-0.9990386962890625,-0.016204833984375,-0.00750732421875
1772656092182183200,4.68818310546875,-1.0003509521484375,-0.01654052734375,-0.0078125
1772656092192165000,4.6981650390625,-0.998748779296875,-0.0158538818359375,-0.0076141357421875
1772656092202148000,4.708148193359375,-0.9994659423828125,-0.0158233642578125,-0.007843017578125
1772656092212130300,4.71813037109375,-0.9986724853515625,-0.0157012939453125,-0.0082244873046875
1772656092222113000,4.728113037109375,-0.99920654296875,-0.0155181884765625,-0.0084228515625
1772656092232095200,4.73809521484375,-0.999908447265625,-0.01556396484375,-0.0082244873046875
1772656092242078200,4.748078125,-0.9994659423828125,-0.016357421875,-0.0082550048828125
1772656092252060200,4.75806005859375,-1.00048828125,-0.01666259765625,-0.0069732666015625
1772656092262042400,4.76804248046875,-0.9993743896484375,-0.016815185546875,-0.0081329345703125
1772656092272025300,4.778025390625,-0.9993743896484375,-0.015533447265625,-0.008270263671875
1772656092282007300,4.78800732421875,-0.99945068359375,-0.0159759521484375,-0.0070953369140625
1772656092291990300,4.797990234375,-1.0006256103515625,-0.016387939453125,-0.0078887939453125
1772656092301972200,4.80797216796875,-0.9986419677734375,-0.0161590576171875,-0.0074920654296875
1772656092311955200,4.817955078125,-0.9980621337890625,-0.016082763671875,-0.0083465576171875
1772656092321937400,4.8279375,-0.999176025390625,-0.016082763671875,-0.0075836181640625
1772656092331919000,4.837919189453125,-0.9986572265625,-0.0164031982421875,-0.0088653564453125
1772656092341902300,4.84790234375,-0.9989776611328125,-0.0163116455078125,-0.008026123046875
1772656092351884000,4.857884033203125,-1.000457763671875,-0.0165557861328125,-0.0085601806640625
1772656092361867300,4.8678671875,-0.9984588623046875,-0.0161285400390625,-0.00787353515625
1772656092371849200,4.87784912109375,-0.9988861083984375,-0.0163421630859375,-0.0074462890625
1772656092381832200,4.887832275390625,-0.9986724853515625,-0.015716552734375,-0.0074920654296875
1772656092391814100,4.897814208984375,-0.9996795654296875,-0.016021728515625,-0.0081634521484375
1772656092401797400,4.90779736328125,-0.999542236328125,-0.015960693359375,-0.0072174072265625
1772656092411779000,4.917779052734375,-0.999237060546875,-0.0156097412109375,-0.00738525390625
1772656092421761300,4.92776123046875,-0.998748779296875,-0.015716552734375,-0.0081329345703125
1772656092431744300,4.937744140625,-0.9993743896484375,-0.01678466796875,-0.008087158203125
1772656092441726200,4.947726318359375,-0.9983062744140625,-0.0160064697265625,-0.0074462890625
1772656092451709200,4.957709228515625,-0.9998016357421875,-0.016326904296875,-0.007781982421875
1772656092461691100,4.967691162109375,-0.9998626708984375,-0.0152740478515625,-0.007049560546875
1772656092471674000,4.977674072265625,-0.9989166259765625,-0.015838623046875,-0.0074920654296875
1772656092481656300,4.98765625,-0.9994354248046875,-0.0155792236328125,-0.0081787109375
1772656092491639000,4.99763916015625,-0.9986724853515625,-0.01617431640625,-0.007965087890625
1772656092501621200,5.007621337890625,-0.99908447265625,-0.0165863037109375,-0.007476806640625
1772656092511603200,5.017603271484375,-0.9990234375,-0.015777587890625,-0.0075531005859375
1772656092521586200,5.027586181640625,-0.9987640380859375,-0.0157928466796875,-0.0070037841796875
1772656092531568400,5.037568359375,-0.9990386962890625,-0.01568603515625,-0.0079345703125
1772656092541551000,5.047551025390625,-1.0001373291015625,-0.0155029296875,-0.0078125
1772656092551533300,5.057533203125,-0.9993133544921875,-0.0164794921875,-0.0077362060546875
1772656092561516300,5.067516357421875,-0.9999237060546875,-0.015869140625,-0.007904052734375
1772656092571498200,5.077498291015625,-0.998870849609375,-0.0157318115234375,-0.0074615478515625
1772656092581481200,5.087481201171875,-0.999786376953125,-0.0164031982421875,-0.007843017578125
1772656092591463400,5.09746337890625,-0.9989013671875,-0.0157623291015625,-0.006988525390625
1772656092601445000,5.107445068359375,-0.9994659423828125,-0.0152740478515625,-0.00775146484375
1772656092611428400,5.117428466796875,-0.9985504150390625,-0.0156402587890625,-0.0084381103515625
1772656092621410000,5.12741015625,-1.0005035400390625,-0.0168304443359375,-0.007904052734375
1772656092631393300,5.137393310546875,-1.0001220703125,-0.0164794921875,-0.007537841796875
1772656092641375200,5.147375244140625,-0.9987335205078125,-0.0160675048828125,-0.007659912109375
1772656092651358200,5.157358154296875,-0.9995880126953125,-0.0161895751953125,-0.00714111328125
1772656092661340200,5.167340087890625,-0.9998321533203125,-0.0159454345703125,-0.007598876953125
1772656092671322400,5.177322265625,-1.0001220703125,-0.015838623046875,-0.0084075927734375
1772656092681305000,5.18730517578125,-0.99969482421875,-0.01629638671875,-0.0074615478515625
1772656092691287300,5.197287353515625,-0.9988555908203125,-0.01617431640625,-0.0081634521484375
1772656092701270300,5.207270263671875,-0.9996490478515625,-0.0163726806640625,-0.0076141357421875
1772656092711252200,5.217252197265625,-0.998443603515625,-0.0163116455078125,-0.0078125
1772656092721235200,5.227235107421875,-0.9992523193359375,-0.01654052734375,-0.007598876953125
1772656092731217200,5.237217041015625,-0.999298095703125,-0.0162811279296875,-0.007537841796875
1772656092741200100,5.2472001953125,-0.999298095703125,-0.0162353515625,-0.0079803466796875
1772656092751182300,5.257182373046875,-0.9988555908203125,-0.0157623291015625,-0.008453369140625
1772656092761164300,5.267164306640625,-0.9980316162109375,-0.0160675048828125,-0.0077972412109375
1772656092771147300,5.277147216796875,-0.999603271484375,-0.0167236328125,-0.0076904296875
1772656092781129200,5.287129150390625,-0.9998016357421875,-0.0159454345703125,-0.0080108642578125
1772656092791112200,5.2971123046875,-0.998748779296875,-0.0151519775390625,-0.0071563720703125
1772656092801094400,5.307094482421875,-0.9992218017578125,-0.0163116455078125,-0.0082550048828125
1772656092811077000,5.3170771484375,-0.9987335205078125,-0.01580810546875,-0.007049560546875
1772656092821059300,5.327059326171875,-0.9993896484375,-0.0160980224609375,-0.0087432861328125
1772656092831042300,5.337042236328125,-0.999481201171875,-0.0162200927734375,-0.007232666015625
1772656092841024300,5.347024169921875,-0.9989776611328125,-0.0156402587890625,-0.008209228515625
1772656092851006200,5.357006103515625,-0.9992523193359375,-0.0159454345703125,-0.0079498291015625
1772656092860989400,5.366989501953125,-0.99859619140625,-0.0162353515625,-0.0078887939453125
1772656092870971100,5.37697119140625,-0.9991302490234375,-0.015899658203125,-0.0086212158203125
1772656092880954400,5.386954345703125,-0.9997406005859375,-0.0157470703125,-0.0074615478515625
1772656092890935800,5.396935791015625,-0.999542236328125,-0.015777587890625,-0.00762939453125
1772656092900919000,5.4069189453125,-0.99945068359375,-0.0150146484375,-0.0074920654296875
1772656092910900700,5.416900634765625,-0.9983978271484375,-0.0159454345703125,-0.00787353515625
1772656092920883000,5.426883056640625,-0.9988555908203125,-0.015289306640625,-0.0084381103515625
1772656092930866000,5.436865966796875,-0.998992919921875,-0.01611328125,-0.0083770751953125
1772656092940847900,5.446847900390625,-0.9997406005859375,-0.0159759521484375,-0.00775146484375
1772656092950830800,5.456830810546875,-0.9989471435546875,-0.015777587890625,-0.0068206787109375
1772656092960812800,5.466812744140625,-0.998260498046875,-0.015533447265625,-0.0076904296875
1772656092970795800,5.476795654296875,-0.9996795654296875,-0.0167999267578125,-0.008544921875
1772656092980778000,5.486778076171875,-0.9994659423828125,-0.0162200927734375,-0.0075225830078125
1772656092990760700,5.4967607421875,-0.999114990234375,-0.015533447265625,-0.008544921875
1772656093000743000,5.506742919921875,-0.9987030029296875,-0.016143798828125,-0.008331298828125
1772656093010724900,5.516724853515625,-0.9995880126953125,-0.016082763671875,-0.0078887939453125
1772656093020707800,5.526707763671875,-0.9983978271484375,-0.0156097412109375,-0.00750732421875
1772656093030690000,5.53668994140625,-0.998443603515625,-0.015472412109375,-0.0081939697265625
1772656093040673000,5.546673095703125,-0.9992218017578125,-0.0158538818359375,-0.007354736328125
1772656093050655000,5.556655029296875,-0.9987640380859375,-0.016143798828125,-0.0077972412109375
1772656093060638000,5.566637939453125,-0.9990386962890625,-0.0157470703125,-0.0078125
1772656093070620000,5.576619873046875,-0.9993133544921875,-0.01568603515625,-0.008026123046875
1772656093080603000,5.586602783203125,-0.999237060546875,-0.0152740478515625,-0.0080108642578125
1772656093090585000,5.596585205078125,-0.99920654296875,-0.0157318115234375,-0.007080078125
1772656093100566800,5.60656689453125,-0.9980316162109375,-0.0159759521484375,-0.0072021484375
1772656093110550000,5.616550048828125,-0.9991912841796875,-0.0165252685546875,-0.0077362060546875
1772656093120531700,5.62653173828125,-0.9996185302734375,-0.0164947509765625,-0.0082855224609375
1772656093130515000,5.636514892578125,-0.9991607666015625,-0.015167236328125,-0.008941650390625
1772656093140497000,5.646496826171875,-0.9993743896484375,-0.01611328125,-0.0082855224609375
1772656093150480000,5.65647998046875,-1.0001220703125,-0.0162506103515625,-0.0078277587890625
1772656093160461800,5.6664619140625,-0.99957275390625,-0.015869140625,-0.008087158203125
1772656093170445000,5.676445068359375,-0.99945068359375,-0.016448974609375,-0.007354736328125
1772656093180426800,5.6864267578125,-0.9998931884765625,-0.0164947509765625,-0.0077667236328125
1772656093190409000,5.696408935546875,-0.99835205078125,-0.015411376953125,-0.00787353515625
1772656093200392000,5.706391845703125,-0.9997406005859375,-0.0155029296875,-0.0079345703125
1772656093210374000,5.716373779296875,-0.9983062744140625,-0.015899658203125,-0.0077972412109375
1772656093220356900,5.72635693359375,-0.9982757568359375,-0.0166168212890625,-0.0080718994140625
1772656093230338800,5.7363388671875,-0.999420166015625,-0.0166473388671875,-0.0082855224609375
1772656093240321800,5.74632177734375,-0.9996490478515625,-0.0161895751953125,-0.0075225830078125
1772656093250304000,5.756303955078125,-0.99945068359375,-0.01629638671875,-0.007720947265625
1772656093260286700,5.76628662109375,-1,-0.015625,-0.0074920654296875
1772656093270269000,5.77626904296875,-0.9993743896484375,-0.0162200927734375,-0.0071258544921875
1772656093280251000,5.7862509765625,-0.9996185302734375,-0.016265869140625,-0.007537841796875
1772656093290233900,5.79623388671875,-0.9991912841796875,-0.0153961181640625,-0.007965087890625
1772656093300216000,5.806216064453125,-0.999298095703125,-0.0155792236328125,-0.0087127685546875
1772656093310198800,5.81619873046875,-0.9991912841796875,-0.0169219970703125,-0.008331298828125
1772656093320181000,5.826180908203125,-0.9998779296875,-0.01593017578125,-0.007537841796875
1772656093330164000,5.8361640625,-0.99951171875,-0.016265869140625,-0.0076446533203125
1772656093340146000,5.84614599609375,-0.9993438720703125,-0.0160369873046875,-0.0078125
1772656093350129000,5.85612890625,-0.9986572265625,-0.015960693359375,-0.007476806640625
1772656093360111000,5.866111083984375,-0.9994354248046875,-0.0163116455078125,-0.00738525390625
1772656093370092800,5.8760927734375,-1.000213623046875,-0.0153045654296875,-0.0083770751953125
1772656093380076000,5.886075927734375,-0.9992218017578125,-0.01519775390625,-0.008758544921875
1772656093390057700,5.8960576171875,-0.9987030029296875,-0.0155792236328125,-0.00848388671875
1772656093400041000,5.906041015625,-0.9998016357421875,-0.01678466796875,-0.0080718994140625
1772656093410023000,5.91602294921875,-1.0000152587890625,-0.0166015625,-0.00799560546875
1772656093420006000,5.926005859375,-0.99945068359375,-0.015716552734375,-0.007904052734375
1772656093429987800,5.93598779296875,-0.999603271484375,-0.0152740478515625,-0.0075225830078125
1772656093439971000,5.94597119140625,-0.9995269775390625,-0.0159759521484375,-0.0079498291015625
1772656093449952800,5.955952880859375,-0.9987030029296875,-0.0162506103515625,-0.0075531005859375
1772656093459935000,5.96593505859375,-0.998931884765625,-0.016265869140625,-0.0084991455078125
1772656093469918000,5.97591796875,-0.99993896484375,-0.0164794921875,-0.0084381103515625
1772656093479900000,5.98589990234375,-0.99871826171875,-0.016387939453125,-0.008544921875
1772656093489883000,5.9958828125,-0.998779296875,-0.0161895751953125,-0.0082855224609375
1772656093499864800,6.00586474609375,-0.9997100830078125,-0.0156097412109375,-0.00823974609375
1772656093509847800,6.015847900390625,-0.999420166015625,-0.0159912109375,-0.007293701171875
1772656093519830000,6.025830078125,-0.999847412109375,-0.016021728515625,-0.0072784423828125
1772656093529812700,6.035812744140625,-0.998504638671875,-0.0156097412109375,-0.007781982421875
1772656093539795000,6.045794921875,-0.9989471435546875,-0.0163726806640625,-0.007476806640625
1772656093549777000,6.05577685546875,-1.00030517578125,-0.016082763671875,-0.00787353515625
1772656093559760000,6.065759765625,-0.999603271484375,-0.0160369873046875,-0.0084228515625
1772656093569742000,6.0757421875,-0.99871826171875,-0.0161590576171875,-0.0083770751953125
1772656093579724800,6.085724853515625,-0.9983673095703125,-0.016082763671875,-0.0080718994140625
1772656093589707000,6.09570703125,-0.998291015625,-0.01654052734375,-0.007843017578125
1772656093599690000,6.10568994140625,-0.9993133544921875,-0.0164642333984375,-0.0075836181640625
1772656093609672000,6.115671875,-0.999542236328125,-0.016510009765625,-0.0086212158203125
1772656093619655000,6.125655029296875,-0.99871826171875,-0.0160369873046875,-0.0081787109375
1772656093629637000,6.13563720703125,-1.0000762939453125,-0.015716552734375,-0.0065460205078125
1772656093639618800,6.145618896484375,-0.9998016357421875,-0.0167388916015625,-0.0082244873046875
1772656093649602000,6.15560205078125,-0.9998016357421875,-0.016143798828125,-0.009063720703125
1772656093659583700,6.165583740234375,-0.998870849609375,-0.0164794921875,-0.00897216796875
1772656093669567000,6.17556689453125,-0.999267578125,-0.01556396484375,-0.0084075927734375
1772656093679549000,6.185548828125,-0.9996795654296875,-0.0162200927734375,-0.0079803466796875
1772656093689532000,6.195531982421875,-0.9984893798828125,-0.0159759521484375,-0.008514404296875
1772656093699513900,6.205513916015625,-0.9993133544921875,-0.0159759521484375,-0.0084686279296875
1772656093709497000,6.2154970703125,-0.9987640380859375,-0.0160980224609375,-0.008056640625
1772656093719478800,6.225478759765625,-0.998687744140625,-0.015594482421875,-0.008209228515625
1772656093729461000,6.2354609375,-0.999359130859375,-0.0166015625,-0.008148193359375
1772656093739444000,6.24544384765625,-0.998687744140625,-0.0166473388671875,-0.0083465576171875
1772656093749426000,6.255426025390625,-0.9990386962890625,-0.0162506103515625,-0.007965087890625
1772656093759409000,6.265408935546875,-0.9995574951171875,-0.01556396484375,-0.007965087890625
1772656093769390800,6.275390869140625,-0.9999847412109375,-0.01605224609375,-0.0078125
1772656093779373800,6.285373779296875,-1.000091552734375,-0.016448974609375,-0.0076446533203125
1772656093789356000,6.29535595703125,-0.9990997314453125,-0.01605224609375,-0.0072784423828125
1772656093799338000,6.305337890625,-0.9980621337890625,-0.0168609619140625,-0.0072174072265625
1772656093809321000,6.315321044921875,-0.998260498046875,-0.016143798828125,-0.007354736328125
1772656093819303000,6.325302978515625,-0.9986419677734375,-0.0158233642578125,-0.0083770751953125
1772656093829286000,6.335285888671875,-0.9989013671875,-0.016387939453125,-0.0079193115234375
1772656093839268000,6.34526806640625,-0.9987335205078125,-0.0161895751953125,-0.0089569091796875
1772656093849250800,6.355250732421875,-0.9993896484375,-0.016510009765625,-0.00775146484375
1772656093859233000,6.36523291015625,-0.9991912841796875,-0.0167694091796875,-0.0069732666015625
1772656093869216000,6.375216064453125,-0.99908447265625,-0.0160675048828125,-0.0069122314453125
1772656093879198000,6.385197998046875,-0.998809814453125,-0.015899658203125,-0.0076446533203125
1772656093889180700,6.3951806640625,-1.00048828125,-0.015716552734375,-0.007293701171875
1772656093899163600,6.40516357421875,-1,-0.016845703125,-0.00762939453125
1772656093909145600,6.4151455078125,-0.998809814453125,-0.01544189453125,-0.00738525390625
1772656093919128600,6.425128662109375,-0.99871826171875,-0.0161285400390625,-0.0076751708984375
1772656093929110500,6.435110595703125,-0.9988555908203125,-0.0159149169921875,-0.0077667236328125
1772656093939093500,6.445093505859375,-0.999603271484375,-0.0159759521484375,-0.008392333984375
1772656093949075700,6.45507568359375,-0.998138427734375,-0.016326904296875,-0.008331298828125
1772656093959058400,6.465058349609375,-0.998291015625,-0.0161285400390625,-0.0077362060546875
1772656093969040600,6.47504052734375,-0.9993133544921875,-0.01611328125,-0.0082550048828125
1772656093979022600,6.485022705078125,-0.9989471435546875,-0.016845703125,-0.007354736328125
1772656093989005600,6.495005615234375,-0.99920654296875,-0.016845703125,-0.007293701171875
1772656093998987800,6.50498779296875,-0.99884033203125,-0.0160675048828125,-0.007415771484375
1772656094008970500,6.514970458984375,-0.999481201171875,-0.0155792236328125,-0.0079803466796875
1772656094018952700,6.52495263671875,-0.9995269775390625,-0.01611328125,-0.0085906982421875
1772656094028935700,6.534935791015625,-0.999267578125,-0.0156707763671875,-0.0074310302734375
1772656094038917600,6.544917724609375,-0.9991302490234375,-0.016693115234375,-0.0079345703125
1772656094048900600,6.554900634765625,-0.9989471435546875,-0.0156707763671875,-0.0089874267578125
1772656094058882800,6.5648828125,-0.9995269775390625,-0.01641845703125,-0.0081329345703125
1772656094068864500,6.574864501953125,-0.9998779296875,-0.0161590576171875,-0.006866455078125
1772656094078847700,6.58484765625,-0.9998626708984375,-0.015960693359375,-0.007110595703125
1772656094088829400,6.594829345703125,-0.99951171875,-0.01629638671875,-0.0078582763671875
1772656094098812700,6.604812744140625,-0.9989166259765625,-0.01617431640625,-0.007965087890625
1772656094108794600,6.614794677734375,-0.9998016357421875,-0.01611328125,-0.00823974609375
1772656094118777600,6.624777587890625,-1.000274658203125,-0.0168304443359375,-0.0084381103515625
1772656094128759600,6.634759521484375,-1.0000762939453125,-0.0155181884765625,-0.008270263671875
1772656094138742800,6.64474267578125,-0.998779296875,-0.0159149169921875,-0.0080108642578125
1772656094148724500,6.654724365234375,-0.999786376953125,-0.0162200927734375,-0.0077667236328125
1772656094158706700,6.664706787109375,-0.999359130859375,-0.0160064697265625,-0.00750732421875
1772656094168689400,6.674689453125,-0.9996490478515625,-0.0158233642578125,-0.0081787109375
1772656094178671600,6.684671630859375,-1.000213623046875,-0.0171661376953125,-0.0081024169921875
1772656094188654600,6.694654541015625,-0.99951171875,-0.0164794921875,-0.0078125
1772656094198636500,6.704636474609375,-0.9996490478515625,-0.01593017578125,-0.00787353515625
1772656094208619500,6.71461962890625,-0.9993133544921875,-0.016357421875,-0.0083160400390625
1772656094218601700,6.724601806640625,-0.9995269775390625,-0.01641845703125,-0.0076904296875
1772656094228584400,6.73458447265625,-0.998779296875,-0.0164642333984375,-0.008148193359375
1772656094238566700,6.744566650390625,-0.9996795654296875,-0.015594482421875,-0.00860595703125
1772656094248549600,6.754549560546875,-0.9998016357421875,-0.015869140625,-0.0077056884765625
1772656094258531600,6.764531494140625,-0.999420166015625,-0.0164031982421875,-0.007720947265625
1772656094268513800,6.774513671875,-0.9985504150390625,-0.015869140625,-0.008148193359375
1772656094278496500,6.78449658203125,-0.99932861328125,-0.01629638671875,-0.0069427490234375
1772656094288478700,6.794478759765625,-0.999237060546875,-0.016082763671875,-0.0074462890625
1772656094298461700,6.804461669921875,-0.99896240234375,-0.0156707763671875,-0.008514404296875
1772656094308443600,6.814443603515625,-0.9986724853515625,-0.0160064697265625,-0.0076141357421875
1772656094318426600,6.824426513671875,-0.998870849609375,-0.0159454345703125,-0.0082244873046875
1772656094328408800,6.834408935546875,-0.99908447265625,-0.0159149169921875,-0.007476806640625
1772656094338391600,6.8443916015625,-0.999053955078125,-0.0161285400390625,-0.0071868896484375
1772656094348373800,6.854373779296875,-0.999755859375,-0.015655517578125,-0.0080718994140625
1772656094358355500,6.86435546875,-0.999725341796875,-0.0160675048828125,-0.0067901611328125
1772656094368338700,6.874338623046875,-0.9991302490234375,-0.015869140625,-0.0071868896484375
1772656094378320600,6.884320556640625,-0.999053955078125,-0.01611328125,-0.0074310302734375
1772656094388303600,6.8943037109375,-0.9993133544921875,-0.0154876708984375,-0.007568359375
1772656094398285600,6.90428564453125,-0.9997406005859375,-0.015594482421875,-0.007720947265625
1772656094408268800,6.914268798828125,-0.999847412109375,-0.016387939453125,-0.007080078125
1772656094418250500,6.92425048828125,-1.000030517578125,-0.0156097412109375,-0.008392333984375
1772656094428233700,6.934233642578125,-0.99945068359375,-0.0159759521484375,-0.008880615234375
1772656094438215400,6.94421533203125,-0.998931884765625,-0.0160369873046875,-0.00811767578125
1772656094448197600,6.95419775390625,-0.9990081787109375,-0.0162811279296875,-0.00738525390625
1772656094458180600,6.9641806640625,-1.000518798828125,-0.016204833984375,-0.008331298828125
1772656094468162600,6.97416259765625,-1.0000762939453125,-0.01617431640625,-0.0081024169921875
1772656094478145500,6.9841455078125,-1.000030517578125,-0.015655517578125,-0.0081787109375
1772656094488127700,6.994127685546875,-0.9993743896484375,-0.0148162841796875,-0.0086822509765625
1772656094498110500,7.0041103515625,-0.99932861328125,-0.0157470703125,-0.0083160400390625
1772656094508092700,7.0140927734375,-0.999176025390625,-0.0160675048828125,-0.0073394775390625
1772656094518075600,7.02407568359375,-0.99896240234375,-0.0162353515625,-0.007293701171875
1772656094528057600,7.0340576171875,-0.9994659423828125,-0.016082763671875,-0.0074615478515625
1772656094538039800,7.044039794921875,-0.9995574951171875,-0.016021728515625,-0.0079193115234375
1772656094548022500,7.0540224609375,-0.9993438720703125,-0.0163726806640625,-0.0077667236328125
1772656094558004700,7.064004638671875,-0.99951171875,-0.0157928466796875,-0.0077667236328125
1772656094567987700,7.07398779296875,-1.0002899169921875,-0.016082763671875,-0.0071868896484375
1772656094577969700,7.0839697265625,-0.9999237060546875,-0.01605224609375,-0.007415771484375
1772656094587952600,7.09395263671875,-1.000518798828125,-0.0166168212890625,-0.0078277587890625
1772656094597934800,7.103934814453125,-0.9986724853515625,-0.016326904296875,-0.0069732666015625
1772656094607917600,7.11391748046875,-0.9991912841796875,-0.0155792236328125,-0.007598876953125
1772656094617899800,7.123899658203125,-0.999114990234375,-0.0161590576171875,-0.0079345703125
1772656094627881500,7.133881591796875,-0.999481201171875,-0.0164337158203125,-0.008148193359375
1772656094637864700,7.14386474609375,-1.0001983642578125,-0.0164642333984375,-0.0073089599609375
1772656094647846700,7.1538466796875,-0.999908447265625,-0.01556396484375,-0.0086212158203125
1772656094657829600,7.16382958984375,-0.9989166259765625,-0.015869140625,-0.00750732421875
1772656094667811600,7.1738115234375,-0.998443603515625,-0.0161895751953125,-0.007720947265625
1772656094677794800,7.183794921875,-0.999908447265625,-0.0162353515625,-0.00762939453125
1772656094687776500,7.193776611328125,-0.999908447265625,-0.015289306640625,-0.0069122314453125
1772656094697759700,7.203759765625,-0.9982452392578125,-0.01580810546875,-0.006439208984375
1772656094707741400,7.213741455078125,-0.99896240234375,-0.01641845703125,-0.0083160400390625
1772656094717723600,7.2237236328125,-0.9991455078125,-0.0166015625,-0.00787353515625
1772656094727706600,7.23370654296875,-1.00006103515625,-0.015625,-0.008392333984375
1772656094737688600,7.2436884765625,-0.9994049072265625,-0.015899658203125,-0.0082244873046875
1772656094747671600,7.253671630859375,-0.9985198974609375,-0.0164337158203125,-0.00799560546875
1772656094757653800,7.26365380859375,-0.99969482421875,-0.0157623291015625,-0.0078887939453125
1772656094767636500,7.273636474609375,-1.0002899169921875,-0.016082763671875,-0.0080108642578125
1772656094777618700,7.28361865234375,-1.0004119873046875,-0.0158538818359375,-0.0078125
1772656094787601700,7.2936015625,-0.9991455078125,-0.01556396484375,-0.0075836181640625
1772656094797583600,7.30358349609375,-0.998870849609375,-0.0157623291015625,-0.008087158203125
1772656094807565600,7.313565673828125,-0.99859619140625,-0.0161285400390625,-0.0081329345703125
1772656094817548500,7.323548583984375,-1.000335693359375,-0.0163116455078125,-0.007781982421875
1772656094827530500,7.333530517578125,-1.0001678466796875,-0.01611328125,-0.0075225830078125
1772656094837513700,7.343513671875,-0.99969482421875,-0.01617431640625,-0.00738525390625
1772656094847495700,7.35349560546875,-0.9993743896484375,-0.0157470703125,-0.007171630859375
1772656094857478700,7.363478759765625,-0.99945068359375,-0.016448974609375,-0.0078277587890625
1772656094867460600,7.373460693359375,-1.0012359619140625,-0.0165863037109375,-0.0083160400390625
1772656094877443600,7.383443603515625,-1.000823974609375,-0.016387939453125,-0.008056640625
1772656094887425500,7.393425537109375,-0.999359130859375,-0.016510009765625,-0.0080413818359375
1772656094897408800,7.40340869140625,-0.999481201171875,-0.0159149169921875,-0.007843017578125
1772656094907390700,7.413390625,-1.000030517578125,-0.0159759521484375,-0.00775146484375
1772656094917372700,7.42337255859375,-1,-0.01568603515625,-0.008026123046875
1772656094927355600,7.433355712890625,-1.00018310546875,-0.0166473388671875,-0.007904052734375
1772656094937337900,7.443337890625,-0.9988250732421875,-0.01678466796875,-0.007659912109375
1772656094947320600,7.453320556640625,-0.998779296875,-0.0174560546875,-0.0077667236328125
1772656094957302800,7.463302734375,-1.000152587890625,-0.0162353515625,-0.00830078125
1772656094967285800,7.47328564453125,-0.9993743896484375,-0.015594482421875,-0.007232666015625
1772656094977267700,7.483267822265625,-0.9989471435546875,-0.0150146484375,-0.0080718994140625
1772656094987250700,7.493250732421875,-0.9994659423828125,-0.0154571533203125,-0.0075836181640625
1772656094997232600,7.503232666015625,-0.9993438720703125,-0.0164337158203125,-0.00738525390625
1772656095007214800,7.51321484375,-0.999603271484375,-0.016204833984375,-0.007843017578125
1772656095017197800,7.52319775390625,-0.9997406005859375,-0.016021728515625,-0.007659912109375
1772656095027179800,7.5331796875,-0.9992218017578125,-0.015716552734375,-0.0086212158203125
1772656095037162800,7.543162841796875,-1.0000457763671875,-0.0160064697265625,-0.007598876953125
1772656095047145000,7.55314501953125,-0.99969482421875,-0.015960693359375,-0.0080718994140625
1772656095057127700,7.563127685546875,-0.999969482421875,-0.01593017578125,-0.0085296630859375
1772656095067110000,7.57310986328125,-0.999176025390625,-0.015594482421875,-0.0071868896484375
1772656095077092900,7.5830927734375,-0.999237060546875,-0.016021728515625,-0.0077362060546875
1772656095087074800,7.59307470703125,-0.9989013671875,-0.01605224609375,-0.007354736328125
1772656095097056800,7.603056884765625,-0.99951171875,-0.015869140625,-0.0078887939453125
1772656095107039700,7.613039794921875,-0.99981689453125,-0.0164947509765625,-0.0072479248046875
1772656095117021700,7.623021728515625,-0.9991912841796875,-0.0165557861328125,-0.0075225830078125
1772656095127005000,7.6330048828125,-0.9991912841796875,-0.0158233642578125,-0.00732421875
1772656095136986600,7.642986572265625,-1.000030517578125,-0.0158538818359375,-0.007537841796875
1772656095146969900,7.652969970703125,-0.9994049072265625,-0.0151519775390625,-0.0076141357421875
1772656095156951600,7.66295166015625,-1.0008087158203125,-0.015869140625,-0.00799560546875
1772656095166934800,7.672934814453125,-1.000152587890625,-0.016204833984375,-0.0076141357421875
1772656095176916700,7.682916748046875,-0.9983062744140625,-0.016143798828125,-0.0077362060546875
1772656095186898700,7.692898681640625,-0.9994049072265625,-0.015625,-0.007843017578125
1772656095196881700,7.702881591796875,-0.999542236328125,-0.01611328125,-0.007568359375
1772656095206864000,7.71286376953125,-0.9989166259765625,-0.01629638671875,-0.00677490234375
1772656095216846600,7.7228466796875,-0.99835205078125,-0.01605224609375,-0.0088348388671875
1772656095226828800,7.732828857421875,-0.9992523193359375,-0.01593017578125,-0.0081634521484375
1772656095236811800,7.742811767578125,-0.9990081787109375,-0.0162811279296875,-0.0071868896484375
1772656095246793700,7.752793701171875,-0.999603271484375,-0.016693115234375,-0.0078277587890625
1772656095256776700,7.762776611328125,-0.9990234375,-0.0157012939453125,-0.0084991455078125
1772656095266758700,7.772758544921875,-0.9997100830078125,-0.0154266357421875,-0.007965087890625
1772656095276741600,7.78274169921875,-0.9996490478515625,-0.016204833984375,-0.0079498291015625
1772656095286723800,7.792723876953125,-0.9994049072265625,-0.0162811279296875,-0.0076904296875
1772656095296705800,7.802705810546875,-0.998992919921875,-0.01611328125,-0.0076751708984375
1772656095306688800,7.812688720703125,-0.9993743896484375,-0.0159149169921875,-0.0077972412109375
1772656095316670700,7.822670654296875,-0.99993896484375,-0.0160064697265625,-0.008056640625
1772656095326653700,7.83265380859375,-0.9989776611328125,-0.0161895751953125,-0.007659912109375
1772656095336636000,7.842635986328125,-0.999847412109375,-0.0159454345703125,-0.00714111328125
1772656095346619000,7.852618896484375,-1.0002593994140625,-0.0155487060546875,-0.007720947265625
1772656095356600800,7.862600830078125,-0.998992919921875,-0.0162506103515625,-0.00787353515625
1772656095366583800,7.872583740234375,-0.9984283447265625,-0.016204833984375,-0.007598876953125
1772656095376565800,7.882565673828125,-0.9998931884765625,-0.01593017578125,-0.007720947265625
1772656095386547700,7.892547607421875,-0.999542236328125,-0.0155487060546875,-0.0083160400390625
1772656095396531000,7.902531005859375,-0.999176025390625,-0.0159912109375,-0.0079345703125
1772656095406512600,7.9125126953125,-0.9992828369140625,-0.015838623046875,-0.006744384765625
1772656095416495900,7.922495849609375,-0.9992218017578125,-0.0164031982421875,-0.0070343017578125
1772656095426477600,7.9324775390625,-0.999603271484375,-0.01611328125,-0.007049560546875
1772656095436460800,7.942460693359375,-1.000152587890625,-0.0157012939453125,-0.0072784423828125
1772656095446442800,7.95244287109375,-1.0002593994140625,-0.0157318115234375,-0.007843017578125
1772656095456425700,7.96242578125,-0.9991912841796875,-0.0159912109375,-0.007476806640625
1772656095466407700,7.97240771484375,-0.99884033203125,-0.0157928466796875,-0.008392333984375
1772656095476390000,7.982389892578125,-0.999359130859375,-0.015655517578125,-0.008209228515625
1772656095486371800,7.992371826171875,-0.99945068359375,-0.0164031982421875,-0.0079498291015625
1772656095496354800,8.002354736328124,-0.998870849609375,-0.01654052734375,-0.0079803466796875
1772656095506336800,8.012336669921876,-0.9985809326171875,-0.01556396484375,-0.008331298828125
1772656095516318700,8.022318603515625,-0.9998016357421875,-0.0166778564453125,-0.0070648193359375
1772656095526302000,8.032302001953125,-0.9986114501953125,-0.0160675048828125,-0.0078277587890625
1772656095536283600,8.04228369140625,-0.999298095703125,-0.0161285400390625,-0.0075836181640625
1772656095546267000,8.052266845703125,-0.99810791015625,-0.01654052734375,-0.0089111328125
1772656095556248600,8.06224853515625,-0.9988861083984375,-0.016387939453125,-0.0087890625
1772656095566231800,8.072231689453124,-1.0002288818359375,-0.016326904296875,-0.0078277587890625
1772656095576213800,8.0822138671875,-0.9994659423828125,-0.01629638671875,-0.0071258544921875
1772656095586196700,8.09219677734375,-0.9990081787109375,-0.016387939453125,-0.0082550048828125
1772656095596178700,8.1021787109375,-0.9984893798828125,-0.015960693359375,-0.0082855224609375
1772656095606161000,8.112160888671875,-0.9996337890625,-0.0171966552734375,-0.0080413818359375
1772656095616143600,8.1221435546875,-0.9994659423828125,-0.0153045654296875,-0.0084381103515625
1772656095626125800,8.132125732421875,-0.998748779296875,-0.0157623291015625,-0.0080108642578125
1772656095636108800,8.14210888671875,-0.998870849609375,-0.0160369873046875,-0.0072479248046875
1772656095646090800,8.1520908203125,-0.9990081787109375,-0.016448974609375,-0.0089874267578125
1772656095656073700,8.16207373046875,-1.0003662109375,-0.015899658203125,-0.009796142578125
1772656095666055700,8.1720556640625,-1.0003814697265625,-0.0159759521484375,-0.00872802734375
1772656095676038700,8.18203857421875,-1.0001373291015625,-0.015655517578125,-0.0083465576171875
1772656095686020900,8.192020751953125,-1.000244140625,-0.0157470703125,-0.008270263671875
1772656095696003600,8.202003662109375,-0.99993896484375,-0.015716552734375,-0.0074310302734375
1772656095705985800,8.21198583984375,-0.9998016357421875,-0.0161895751953125,-0.00787353515625
1772656095715967700,8.2219677734375,-0.9998321533203125,-0.0162506103515625,-0.007843017578125
1772656095725950700,8.23195068359375,-0.9995574951171875,-0.0165557861328125,-0.0076904296875
1772656095735933000,8.241932861328126,-0.9988555908203125,-0.0164794921875,-0.008148193359375
1772656095745916000,8.251916015625,-0.9993438720703125,-0.016082763671875,-0.008331298828125
1772656095755897900,8.26189794921875,-0.9996490478515625,-0.0160980224609375,-0.0076751708984375
1772656095765880800,8.271880859375,-1.0001373291015625,-0.0161895751953125,-0.0074005126953125
1772656095775862800,8.28186279296875,-0.9998321533203125,-0.0161895751953125,-0.008056640625
1772656095785845800,8.291845703125,-0.998199462890625,-0.0162200927734375,-0.0082244873046875
1772656095795828000,8.301827880859374,-0.9991455078125,-0.016082763671875,-0.007781982421875
1772656095805810700,8.311810791015626,-0.999053955078125,-0.0164947509765625,-0.008209228515625
1772656095815793000,8.32179296875,-1.0003814697265625,-0.0163116455078125,-0.009124755859375
1772656095825774600,8.331774658203125,-1.001068115234375,-0.015869140625,-0.008880615234375
1772656095835757800,8.3417578125,-0.9994354248046875,-0.0155029296875,-0.007904052734375
1772656095845739800,8.35173974609375,-1.0001220703125,-0.0162811279296875,-0.0070953369140625
1772656095855722800,8.36172265625,-0.999481201171875,-0.015350341796875,-0.007843017578125
1772656095865704700,8.37170458984375,-0.998809814453125,-0.015533447265625,-0.008331298828125
1772656095875688000,8.38168798828125,-0.9990997314453125,-0.0160675048828125,-0.008026123046875
1772656095885669600,8.391669677734376,-0.998321533203125,-0.016632080078125,-0.0078887939453125
1772656095895652900,8.40165283203125,-0.99951171875,-0.0159759521484375,-0.00732421875
1772656095905634800,8.411634765625,-0.9996490478515625,-0.0165252685546875,-0.007354736328125
1772656095915616800,8.42161669921875,-0.9987335205078125,-0.016082763671875,-0.00811767578125
1772656095925599700,8.431599853515625,-0.999481201171875,-0.0157012939453125,-0.0078887939453125
1772656095935582000,8.44158203125,-0.9994049072265625,-0.0159149169921875,-0.007843017578125
1772656095945564700,8.451564697265624,-1.00018310546875,-0.01629638671875,-0.0077056884765625
1772656095955547000,8.461546875,-0.999908447265625,-0.0163116455078125,-0.0066680908203125
1772656095965529900,8.47152978515625,-0.99951171875,-0.01531982421875,-0.00738525390625
1772656095975511800,8.48151171875,-0.99945068359375,-0.0159454345703125,-0.0077362060546875
1772656095985494800,8.491494873046875,-0.9993743896484375,-0.0161590576171875,-0.0073394775390625
1772656095995477000,8.50147705078125,-0.999420166015625,-0.0158233642578125,-0.0073699951171875
1772656096005459700,8.511459716796875,-0.9998626708984375,-0.0159759521484375,-0.0072479248046875
1772656096015442000,8.52144189453125,-1.000335693359375,-0.0155487060546875,-0.008209228515625
1772656096025424000,8.531423828125,-0.999786376953125,-0.0158843994140625,-0.007843017578125
1772656096035406800,8.54140673828125,-0.99993896484375,-0.0157470703125,-0.0074005126953125
1772656096045389000,8.55138916015625,-0.9997100830078125,-0.016510009765625,-0.0071258544921875
1772656096055371800,8.561371826171875,-0.9989776611328125,-0.0161590576171875,-0.008514404296875
1772656096065354000,8.57135400390625,-0.999847412109375,-0.01593017578125,-0.008636474609375
1772656096075337000,8.5813369140625,-1.000244140625,-0.0155487060546875,-0.0075836181640625
1772656096085319000,8.59131884765625,-0.9993743896484375,-0.0161590576171875,-0.007293701171875
1772656096095302000,8.601302001953124,-0.99896240234375,-0.0156097412109375,-0.007568359375
1772656096105284000,8.6112841796875,-0.99859619140625,-0.016143798828125,-0.0074310302734375
1772656096115265800,8.621265869140625,-0.9995574951171875,-0.01617431640625,-0.0074462890625
1772656096125250800,8.631250732421876,-1.0008544921875,-0.0157012939453125,-0.0081024169921875
1772656096135233000,8.64123291015625,-1.0004119873046875,-0.0164794921875,-0.00885009765625
1772656096145214700,8.651214599609375,-0.9997100830078125,-0.0162200927734375,-0.0079345703125
1772656096155198000,8.661197998046875,-0.9987640380859375,-0.0162811279296875,-0.0082855224609375
1772656096165180000,8.671179931640625,-0.9994354248046875,-0.015625,-0.00848388671875
1772656096175163000,8.681162841796874,-0.9991302490234375,-0.0158233642578125,-0.0084075927734375
1772656096185144800,8.691144775390624,-0.999237060546875,-0.01531982421875,-0.0077972412109375
1772656096195128000,8.701128173828126,-0.9990234375,-0.0157928466796875,-0.00830078125
1772656096205109800,8.71110986328125,-0.999755859375,-0.0164031982421875,-0.0078277587890625
1772656096215093000,8.721093017578125,-0.9996795654296875,-0.01556396484375,-0.0070648193359375
1772656096225074700,8.73107470703125,-0.9980010986328125,-0.0161285400390625,-0.007537841796875
1772656096235057000,8.741056884765625,-0.9980926513671875,-0.015960693359375,-0.0077362060546875
1772656096245039900,8.751039794921875,-0.9993438720703125,-0.0150909423828125,-0.0080413818359375
1772656096255021800,8.761021728515624,-0.99920654296875,-0.0155792236328125,-0.007598876953125
1772656096265004800,8.7710048828125,-0.9990997314453125,-0.0160980224609375,-0.0071258544921875
1772656096274986800,8.78098681640625,-0.9990692138671875,-0.015716552734375,-0.007598876953125
1772656096284969700,8.7909697265625,-0.9985809326171875,-0.015899658203125,-0.0068817138671875
1772656096294952000,8.800951904296875,-0.9993133544921875,-0.0159454345703125,-0.0074920654296875
1772656096304934700,8.8109345703125,-0.99945068359375,-0.015869140625,-0.00762939453125
1772656096314916900,8.820916748046875,-0.99896240234375,-0.0162353515625,-0.0078125
1772656096324899800,8.83089990234375,-0.9992828369140625,-0.0162200927734375,-0.0075531005859375
1772656096334881800,8.8408818359375,-0.99920654296875,-0.0162353515625,-0.0079498291015625
1772656096344864000,8.850864013671876,-0.9996490478515625,-0.014862060546875,-0.0074310302734375
1772656096354847000,8.860846923828126,-0.99951171875,-0.015289306640625,-0.008087158203125
1772656096364829000,8.870828857421875,-0.9992828369140625,-0.0166473388671875,-0.0083465576171875
1772656096374812000,8.88081201171875,-0.99896240234375,-0.0157012939453125,-0.0079193115234375
1772656096384793900,8.8907939453125,-1.00030517578125,-0.016510009765625,-0.008148193359375
1772656096394776800,8.90077685546875,-0.9994049072265625,-0.0155792236328125,-0.007781982421875
1772656096404759000,8.910759033203124,-0.9994659423828125,-0.016693115234375,-0.0081024169921875
1772656096414741800,8.92074169921875,-1.0002899169921875,-0.016357421875,-0.006591796875
1772656096424724000,8.930723876953126,-0.9994659423828125,-0.0157928466796875,-0.008056640625
1772656096434707000,8.94070703125,-1.0000762939453125,-0.016021728515625,-0.00726318359375
1772656096444689000,8.95068896484375,-0.9993896484375,-0.0152130126953125,-0.0074462890625
1772656096454670800,8.9606708984375,-0.9997711181640625,-0.0159759521484375,-0.007293701171875
1772656096464654000,8.970654052734375,-0.99957275390625,-0.0154571533203125,-0.0075836181640625
1772656096474635800,8.9806357421875,-0.998199462890625,-0.0153350830078125,-0.0078277587890625
1772656096484619000,8.990618896484374,-0.999267578125,-0.016204833984375,-0.0079345703125
1772656096494600700,9.0006005859375,-0.998809814453125,-0.0154876708984375,-0.0078277587890625
1772656096504584000,9.010583984375,-0.9991912841796875,-0.0151214599609375,-0.0080413818359375
1772656096514566000,9.02056591796875,-0.9993743896484375,-0.0152130126953125,-0.0076751708984375
1772656096524548900,9.030548828125,-0.9992523193359375,-0.016265869140625,-0.0080108642578125
1772656096534530800,9.04053076171875,-0.997650146484375,-0.0161285400390625,-0.0075225830078125
1772656096544512800,9.0505126953125,-0.99957275390625,-0.0155181884765625,-0.007843017578125
1772656096554495700,9.060495849609374,-1,-0.0157318115234375,-0.0078277587890625
1772656096564478000,9.07047802734375,-1.00006103515625,-0.0161590576171875,-0.0083465576171875
1772656096574460700,9.080460693359376,-0.999420166015625,-0.01593017578125,-0.008331298828125
1772656096584443000,9.09044287109375,-0.9983978271484375,-0.01593017578125,-0.0069732666015625
1772656096594425900,9.10042578125,-1.0003204345703125,-0.015594482421875,-0.0079803466796875
1772656096604407800,9.11040771484375,-1.0000152587890625,-0.0159149169921875,-0.007598876953125
1772656096614390800,9.120390869140625,-0.9992523193359375,-0.016204833984375,-0.0081939697265625
1772656096624373000,9.130373046875,-0.9998321533203125,-0.0163421630859375,-0.0083770751953125
1772656096634355700,9.140355712890624,-1.000030517578125,-0.0164031982421875,-0.0070037841796875
1772656096644338000,9.150337890625,-0.9989013671875,-0.0157470703125,-0.0076446533203125
1772656096654319900,9.16031982421875,-0.999267578125,-0.01605224609375,-0.008453369140625
1772656096664302800,9.170302734375,-0.9996185302734375,-0.0163116455078125,-0.00726318359375
1772656096674285000,9.18028515625,-0.998992919921875,-0.015716552734375,-0.007049560546875
1772656096684267800,9.190267822265625,-0.9989471435546875,-0.016876220703125,-0.0087127685546875
1772656096694250000,9.20025,-0.9991302490234375,-0.01611328125,-0.0076751708984375
1772656096704233000,9.21023291015625,-0.9996490478515625,-0.015869140625,-0.0071868896484375
1772656096714215000,9.22021484375,-0.9998626708984375,-0.0162353515625,-0.00762939453125
1772656096724198000,9.230197998046876,-0.99932861328125,-0.0160980224609375,-0.0081024169921875
1772656096734180000,9.24018017578125,-0.9993743896484375,-0.0161285400390625,-0.0080108642578125
1772656096744162800,9.250162841796875,-0.999847412109375,-0.0162200927734375,-0.0074005126953125
1772656096754145000,9.26014501953125,-0.99945068359375,-0.0157470703125,-0.0077056884765625
1772656096764126700,9.270126708984375,-0.99859619140625,-0.016021728515625,-0.0086669921875
1772656096774110000,9.28010986328125,-0.998992919921875,-0.0162353515625,-0.0083770751953125
1772656096784092000,9.290091796875,-0.999664306640625,-0.0164642333984375,-0.0069122314453125
1772656096794075000,9.300074951171876,-1.000823974609375,-0.0160980224609375,-0.007659912109375
1772656096804056800,9.310056884765626,-0.9989471435546875,-0.0159149169921875,-0.008270263671875
1772656096814040000,9.3200400390625,-0.99969482421875,-0.0159454345703125,-0.0079345703125
1772656096824021800,9.330021728515625,-0.999298095703125,-0.0165557861328125,-0.0077056884765625
1772656096834005000,9.3400048828125,-0.999481201171875,-0.016693115234375,-0.0086669921875
1772656096843986700,9.349986572265625,-0.999298095703125,-0.0158843994140625,-0.0066986083984375
1772656096853969000,9.359968994140624,-0.999176025390625,-0.01556396484375,-0.007843017578125
1772656096863952000,9.369951904296874,-0.9991912841796875,-0.0164642333984375,-0.007598876953125
1772656096873933800,9.379933837890626,-0.9984588623046875,-0.015655517578125,-0.007171630859375
1772656096883916800,9.389916748046875,-0.9991455078125,-0.01605224609375,-0.0062255859375
1772656096893898200,9.399898193359375,-1.0000457763671875,-0.01611328125,-0.0063323974609375
1772656096903881200,9.409881103515625,-0.99932861328125,-0.0157928466796875,-0.0064239501953125
1772656096913863400,9.419863525390625,-1.00048828125,-0.0164642333984375,-0.007904052734375
1772656096923846100,9.42984619140625,-0.999114990234375,-0.0154266357421875,-0.007049560546875
1772656096933828400,9.439828369140624,-0.998565673828125,-0.01568603515625,-0.008270263671875
1772656096943811300,9.449811279296876,-0.9993743896484375,-0.0155029296875,-0.0074920654296875
1772656096953793300,9.459793212890625,-1.00006103515625,-0.0153656005859375,-0.0079498291015625
1772656096963775500,9.469775390625,-0.999542236328125,-0.0157318115234375,-0.0089569091796875
1772656096973758500,9.479758544921875,-0.9991607666015625,-0.0166778564453125,-0.007171630859375
1772656096983740400,9.489740478515625,-0.998565673828125,-0.0165557861328125,-0.00750732421875
1772656096993723400,9.499723388671875,-1.0002899169921875,-0.0157470703125,-0.008087158203125
1772656097003705300,9.509705322265624,-0.999420166015625,-0.01629638671875,-0.00726318359375
1772656097013688300,9.519688232421874,-0.99871826171875,-0.0160980224609375,-0.0078277587890625
1772656097023670500,9.52967041015625,-0.99920654296875,-0.0166778564453125,-0.0078582763671875
1772656097033653200,9.5396533203125,-0.9983367919921875,-0.0161590576171875,-0.0080413818359375
1772656097043635500,9.549635498046875,-0.998626708984375,-0.0169219970703125,-0.0076141357421875
1772656097053617200,9.5596171875,-0.999420166015625,-0.01629638671875,-0.008575439453125
1772656097063600400,9.569600341796875,-0.99969482421875,-0.0156402587890625,-0.00836181640625
1772656097073582300,9.579582275390624,-1.0002288818359375,-0.0164947509765625,-0.007537841796875
1772656097083565600,9.589565673828124,-0.9997711181640625,-0.0161895751953125,-0.007476806640625
1772656097093547300,9.59954736328125,-0.999847412109375,-0.016937255859375,-0.00811767578125
1772656097103530500,9.609530517578126,-0.9986419677734375,-0.01654052734375,-0.008941650390625
1772656097113512200,9.61951220703125,-0.998809814453125,-0.0163726806640625,-0.0076446533203125
1772656097123495400,9.629495361328125,-0.999755859375,-0.0161895751953125,-0.007568359375
1772656097133477400,9.639477294921875,-0.99993896484375,-0.016265869140625,-0.00799560546875
1772656097143460400,9.64946044921875,-0.999725341796875,-0.0159759521484375,-0.0081329345703125
1772656097153442300,9.6594423828125,-1.000579833984375,-0.0159759521484375,-0.0083465576171875
1772656097163425500,9.669425537109374,-1.000244140625,-0.0164794921875,-0.0082244873046875
1772656097173407200,9.6794072265625,-0.9992218017578125,-0.016510009765625,-0.0074310302734375
1772656097183389400,9.689389404296875,-0.999359130859375,-0.015869140625,-0.00830078125
1772656097193372200,9.6993720703125,-0.9992218017578125,-0.015533447265625,-0.0074615478515625
1772656097203354400,9.709354248046875,-0.99932861328125,-0.0156402587890625,-0.00750732421875
1772656097213337300,9.71933740234375,-0.9992828369140625,-0.0153656005859375,-0.0078887939453125
1772656097223319300,9.7293193359375,-0.999603271484375,-0.0166168212890625,-0.0075531005859375
1772656097233302300,9.73930224609375,-0.999420166015625,-0.0164337158203125,-0.0076446533203125
1772656097243284500,9.749284423828126,-0.99896240234375,-0.015960693359375,-0.008514404296875
1772656097253267200,9.75926708984375,-0.998748779296875,-0.0162353515625,-0.00836181640625
1772656097263249400,9.76924951171875,-0.998504638671875,-0.016387939453125,-0.007049560546875
1772656097273232400,9.779232421875,-0.9987030029296875,-0.0155792236328125,-0.0079498291015625
1772656097283214300,9.78921435546875,-0.99920654296875,-0.0158538818359375,-0.0079498291015625
1772656097293196500,9.799196533203125,-0.999755859375,-0.016082763671875,-0.007293701171875
1772656097303179300,9.80917919921875,-0.9997406005859375,-0.0159149169921875,-0.007476806640625
1772656097313161500,9.819161376953126,-0.999176025390625,-0.015533447265625,-0.00750732421875
1772656097323144400,9.82914453125,-0.9998626708984375,-0.0154876708984375,-0.0080108642578125
1772656097333126400,9.83912646484375,-0.999664306640625,-0.0153350830078125,-0.0087432861328125
1772656097343109400,9.849109375,-0.998291015625,-0.015472412109375,-0.0069732666015625
1772656097353091300,9.85909130859375,-0.9987945556640625,-0.0160980224609375,-0.0075225830078125
1772656097363074300,9.86907421875,-0.9990234375,-0.0157470703125,-0.00775146484375
1772656097373056500,9.879056396484375,-0.9986724853515625,-0.01580810546875,-0.00762939453125
1772656097383038200,9.8890380859375,-0.9994964599609375,-0.0164031982421875,-0.007659912109375
1772656097393021400,9.899021484375,-1.0000457763671875,-0.0164337158203125,-0.00714111328125
1772656097403003400,9.90900341796875,-0.9996337890625,-0.0161895751953125,-0.0088348388671875
1772656097412986400,9.918986328125,-0.99871826171875,-0.016693115234375,-0.007415771484375
1772656097422968300,9.92896826171875,-1.000518798828125,-0.0164031982421875,-0.0077362060546875
1772656097432951600,9.93895166015625,-0.999481201171875,-0.0154876708984375,-0.008270263671875
1772656097442933200,9.948933349609375,-1.00030517578125,-0.0164794921875,-0.0081939697265625
1772656097452916500,9.95891650390625,-0.9991912841796875,-0.0159759521484375,-0.00848388671875
1772656097462898200,9.968898193359376,-0.9984130859375,-0.0157928466796875,-0.00787353515625
1772656097472881400,9.97888134765625,-0.9986572265625,-0.016143798828125,-0.00762939453125
1772656097482863400,9.98886328125,-0.9995269775390625,-0.0160369873046875,-0.00823974609375
1772656097492845300,9.99884521484375,-0.9986572265625,-0.0161895751953125,-0.00799560546875
1772656097502828300,10.008828369140625,-0.99969482421875,-0.0168914794921875,-0.00830078125
1772656097512810500,10.018810546875,-0.9998321533203125,-0.01611328125,-0.0070343017578125
1772656097522793200,10.028793212890625,-0.9984588623046875,-0.015960693359375,-0.00775146484375
1772656097532775400,10.038775390625,-0.99847412109375,-0.0160064697265625,-0.0084075927734375
1772656097542758400,10.04875830078125,-0.9996337890625,-0.0154571533203125,-0.0076446533203125
1772656097552740400,10.058740234375,-0.999114990234375,-0.0162811279296875,-0.009307861328125
1772656097562723300,10.068723388671875,-0.99859619140625,-0.016143798828125,-0.007904052734375
1772656097572705300,10.078705322265625,-0.9989776611328125,-0.0162200927734375,-0.00799560546875
1772656097582688300,10.088688232421875,-0.998809814453125,-0.015594482421875,-0.0084228515625
1772656097592670500,10.09867041015625,-0.999725341796875,-0.0158233642578125,-0.008453369140625
1772656097602652400,10.10865234375,-0.9996795654296875,-0.0160980224609375,-0.0078887939453125
1772656097612635400,10.118635498046874,-0.999298095703125,-0.0159149169921875,-0.0077667236328125
1772656097622617300,10.128617431640626,-0.9996795654296875,-0.0160980224609375,-0.007293701171875
1772656097632600300,10.138600341796876,-0.99896240234375,-0.0158843994140625,-0.00677490234375
1772656097642582500,10.14858251953125,-0.9984588623046875,-0.0157928466796875,-0.00823974609375
1772656097652565200,10.158565185546875,-0.99871826171875,-0.015716552734375,-0.00823974609375
1772656097662547500,10.16854736328125,-0.9993743896484375,-0.0164794921875,-0.0083770751953125
1772656097672530400,10.178530517578125,-0.9994354248046875,-0.0162811279296875,-0.00909423828125
1772656097682512400,10.188512451171874,-0.999847412109375,-0.0162506103515625,-0.008148193359375
1772656097692495400,10.198495361328124,-0.9994659423828125,-0.01593017578125,-0.008331298828125
1772656097702477600,10.2084775390625,-1,-0.015228271484375,-0.008056640625
1772656097712459300,10.218459228515625,-0.9987945556640625,-0.0157012939453125,-0.00714111328125
1772656097722442500,10.2284423828125,-0.9990692138671875,-0.01611328125,-0.0071258544921875
1772656097732424200,10.238424072265625,-0.9990997314453125,-0.01593017578125,-0.007598876953125
1772656097742407400,10.248407470703125,-0.9993133544921875,-0.0163421630859375,-0.007904052734375
1772656097752389400,10.258389404296874,-0.9990997314453125,-0.0165557861328125,-0.0082855224609375
1772656097762372400,10.268372314453124,-0.9991607666015625,-0.0157928466796875,-0.007110595703125
1772656097772354300,10.278354248046876,-0.998809814453125,-0.01580810546875,-0.0079193115234375
1772656097782337500,10.288337646484376,-0.99896240234375,-0.0161590576171875,-0.00750732421875
1772656097792319200,10.2983193359375,-0.999359130859375,-0.01605224609375,-0.0074310302734375
1772656097802302500,10.308302490234375,-0.9988555908203125,-0.0160064697265625,-0.0083465576171875
1772656097812284400,10.318284423828125,-0.9990386962890625,-0.01580810546875,-0.0085906982421875
1772656097822266400,10.328266357421874,-0.9993438720703125,-0.0160064697265625,-0.00885009765625
1772656097832249300,10.338249267578124,-0.99969482421875,-0.016387939453125,-0.0071563720703125
1772656097842231300,10.348231201171876,-1.0000457763671875,-0.01593017578125,-0.006988525390625
1772656097852214300,10.35821435546875,-0.999359130859375,-0.015472412109375,-0.00726318359375
1772656097862196500,10.368196533203125,-0.99896240234375,-0.015899658203125,-0.008331298828125
1772656097872179200,10.37817919921875,-0.9973602294921875,-0.015869140625,-0.0084991455078125
1772656097882161400,10.388161376953125,-0.9988250732421875,-0.0155792236328125,-0.0074005126953125
1772656097892143600,10.3981435546875,-0.9996795654296875,-0.0158538818359375,-0.0079498291015625
1772656097902125800,10.408125732421874,-0.9995880126953125,-0.0153350830078125,-0.0091094970703125
1772656097912108500,10.418108642578124,-0.9989776611328125,-0.0157623291015625,-0.007415771484375
1772656097922090800,10.4280908203125,-0.998992919921875,-0.0162353515625,-0.0074615478515625
1772656097932073000,10.438072998046875,-0.999786376953125,-0.0162200927734375,-0.0081329345703125
1772656097942055700,10.4480556640625,-0.9995269775390625,-0.015716552734375,-0.00823974609375
1772656097952038000,10.458037841796875,-0.9993438720703125,-0.01617431640625,-0.0076446533203125
1772656097962020900,10.468020751953125,-0.99835205078125,-0.0163726806640625,-0.008056640625
1772656097972002800,10.4780029296875,-0.9994964599609375,-0.016204833984375,-0.0072479248046875
1772656097981985800,10.48798583984375,-0.998992919921875,-0.016204833984375,-0.0082550048828125
1772656097991967700,10.4979677734375,-0.9991912841796875,-0.0159759521484375,-0.0079803466796875
1772656098001950700,10.50795068359375,-0.9999847412109375,-0.0157470703125,-0.0079193115234375
1772656098011933000,10.517932861328125,-0.9987945556640625,-0.015838623046875,-0.00811767578125
1772656098021915600,10.52791552734375,-0.9994049072265625,-0.0165557861328125,-0.0084686279296875
1772656098031897900,10.53789794921875,-0.9997100830078125,-0.0162353515625,-0.0079498291015625
1772656098041879800,10.5478798828125,-0.998870849609375,-0.015960693359375,-0.00732421875
1772656098051862800,10.55786279296875,-0.9991912841796875,-0.016082763671875,-0.009002685546875
1772656098061844700,10.5678447265625,-0.9996185302734375,-0.0163726806640625,-0.0075225830078125
1772656098071828000,10.577827880859376,-0.9992523193359375,-0.0157928466796875,-0.0080108642578125
1772656098081809700,10.5878095703125,-0.9981536865234375,-0.0161285400390625,-0.00732421875
1772656098091793000,10.59779296875,-0.9990081787109375,-0.016265869140625,-0.0074005126953125
1772656098101774600,10.607774658203125,-0.9998779296875,-0.0154266357421875,-0.008056640625
1772656098111757800,10.6177578125,-0.9996337890625,-0.015716552734375,-0.008026123046875
1772656098121739800,10.62773974609375,-0.9984130859375,-0.0159912109375,-0.00762939453125
1772656098131722800,10.63772265625,-0.9996490478515625,-0.0164794921875,-0.0073394775390625
1772656098141704700,10.64770458984375,-0.9994964599609375,-0.0160369873046875,-0.0074005126953125
1772656098151686700,10.657686767578125,-0.998870849609375,-0.0164642333984375,-0.0078887939453125
1772656098161669600,10.667669677734375,-0.9994354248046875,-0.01690673828125,-0.0078277587890625
1772656098171651800,10.67765185546875,-0.9997711181640625,-0.0159454345703125,-0.0081939697265625
1772656098181634600,10.687634521484375,-0.99981689453125,-0.016082763671875,-0.0076751708984375
1772656098191616800,10.69761669921875,-0.9990997314453125,-0.0168609619140625,-0.0069122314453125
1772656098201599700,10.707599853515624,-0.9995574951171875,-0.0155181884765625,-0.0090179443359375
1772656098211581700,10.717581787109374,-0.99920654296875,-0.0160064697265625,-0.0075836181640625
1772656098221564700,10.727564697265626,-0.9991302490234375,-0.0166778564453125,-0.0073089599609375
1772656098231547000,10.737546875,-0.9996795654296875,-0.01611328125,-0.007568359375
1772656098241529600,10.747529541015625,-0.9994964599609375,-0.0160675048828125,-0.0082244873046875
1772656098251511800,10.75751171875,-0.99884033203125,-0.015655517578125,-0.0074615478515625
1772656098261493800,10.76749365234375,-0.998870849609375,-0.01519775390625,-0.007659912109375
1772656098271476700,10.777476806640625,-0.999481201171875,-0.0158843994140625,-0.0083770751953125
1772656098281459000,10.787458984375,-0.99957275390625,-0.0155487060546875,-0.0078582763671875
1772656098291441700,10.797441650390626,-0.9996490478515625,-0.01611328125,-0.0072479248046875
1772656098301423900,10.807423828125,-1.0001373291015625,-0.016693115234375,-0.0083465576171875
1772656098311406800,10.81740673828125,-0.9988861083984375,-0.0162811279296875,-0.006439208984375
1772656098321388800,10.827388916015625,-0.9991455078125,-0.0160980224609375,-0.0070953369140625
1772656098331371800,10.837371826171875,-0.9991455078125,-0.01593017578125,-0.0076904296875
1772656098341353700,10.847353759765625,-0.9997100830078125,-0.0167999267578125,-0.007080078125
1772656098351336700,10.857336669921875,-0.9993896484375,-0.0163421630859375,-0.007781982421875
1772656098361319000,10.86731884765625,-0.9984283447265625,-0.015411376953125,-0.00830078125
1772656098371300600,10.877300537109376,-0.9988555908203125,-0.01568603515625,-0.007843017578125
1772656098381283800,10.887283935546876,-0.999603271484375,-0.0163421630859375,-0.007659912109375
1772656098391265800,10.897265869140625,-0.99957275390625,-0.016448974609375,-0.0078582763671875
1772656098401248800,10.907248779296875,-1.000244140625,-0.016387939453125,-0.0077667236328125
1772656098411230700,10.917230712890625,-0.9991912841796875,-0.01605224609375,-0.0082244873046875
1772656098421214000,10.9272138671875,-0.99908447265625,-0.01513671875,-0.00750732421875
1772656098431195600,10.937195556640624,-0.9990234375,-0.015838623046875,-0.0069427490234375
1772656098441179000,10.947178955078124,-1.0002288818359375,-0.0156097412109375,-0.0078582763671875
1772656098451160600,10.95716064453125,-0.999847412109375,-0.01611328125,-0.0082550048828125
1772656098461143800,10.967143798828126,-0.9996795654296875,-0.0160369873046875,-0.0082855224609375
1772656098471125800,10.977125732421875,-0.999786376953125,-0.016815185546875,-0.0071563720703125
1772656098481108700,10.987108642578125,-1.0001220703125,-0.0167083740234375,-0.0076751708984375
1772656098491090700,10.997090576171875,-0.998931884765625,-0.0167999267578125,-0.008575439453125
1772656098501073000,11.007072998046874,-0.999053955078125,-0.0163726806640625,-0.007568359375
1772656098511055600,11.0170556640625,-0.9998016357421875,-0.0161895751953125,-0.007476806640625
1772656098521037800,11.027037841796876,-0.9992523193359375,-0.0148773193359375,-0.00799560546875
1772656098531020800,11.037020751953126,-1.0000152587890625,-0.0153350830078125,-0.008209228515625
1772656098541002800,11.047002685546875,-0.9993133544921875,-0.0160980224609375,-0.0081634521484375
1772656098550985700,11.05698583984375,-0.9985504150390625,-0.0157012939453125,-0.00787353515625
1772656098560967700,11.0669677734375,-0.9987335205078125,-0.0160675048828125,-0.0081787109375
1772656098570950700,11.07695068359375,-1.0001983642578125,-0.0160064697265625,-0.0077972412109375
1772656098580932900,11.086932861328124,-0.9994659423828125,-0.0162353515625,-0.0078277587890625
1772656098590915600,11.09691552734375,-0.9995880126953125,-0.016204833984375,-0.0074005126953125
1772656098600897800,11.106897705078126,-0.999420166015625,-0.015594482421875,-0.0070648193359375
1772656098610879700,11.116879638671875,-0.99945068359375,-0.01531982421875,-0.007843017578125
1772656098620862700,11.12686279296875,-0.999420166015625,-0.01513671875,-0.007904052734375
1772656098630845000,11.136844970703125,-0.999176025390625,-0.01611328125,-0.00714111328125
1772656098640827600,11.14682763671875,-0.999237060546875,-0.0155029296875,-0.0069580078125
1772656098650809900,11.156809814453124,-0.9985198974609375,-0.0156402587890625,-0.0079345703125
1772656098660792800,11.166792724609374,-1,-0.015655517578125,-0.0082244873046875
1772656098670774800,11.17677490234375,-0.9999237060546875,-0.0164642333984375,-0.00799560546875
1772656098680757800,11.1867578125,-0.9987640380859375,-0.0167083740234375,-0.007415771484375
1772656098690740000,11.196739990234375,-0.99945068359375,-0.0160369873046875,-0.007904052734375
1772656098700722700,11.20672265625,-0.9996490478515625,-0.0160369873046875,-0.0087127685546875
1772656098710705000,11.216704833984375,-0.99920654296875,-0.0159912109375,-0.0078277587890625
1772656098720686600,11.2266865234375,-0.9995269775390625,-0.0155792236328125,-0.007568359375
1772656098730669800,11.236669921875,-0.99847412109375,-0.0164337158203125,-0.007537841796875
1772656098740651800,11.24665185546875,-0.999542236328125,-0.015655517578125,-0.0076141357421875
1772656098750634800,11.256634765625,-0.99993896484375,-0.0157928466796875,-0.008270263671875
1772656098760616700,11.26661669921875,-0.99957275390625,-0.0160369873046875,-0.0079498291015625
1772656098770600000,11.276599853515625,-0.9996795654296875,-0.015960693359375,-0.007537841796875
1772656098780581600,11.28658154296875,-0.999542236328125,-0.015869140625,-0.0080413818359375
1772656098790564900,11.29656494140625,-0.99957275390625,-0.01654052734375,-0.0080413818359375
1772656098800546800,11.306546875,-1,-0.0157012939453125,-0.0084075927734375
1772656098810529800,11.31652978515625,-0.99945068359375,-0.0160369873046875,-0.00836181640625
1772656098820511700,11.32651171875,-0.9991912841796875,-0.0156097412109375,-0.0080108642578125
1772656098830493700,11.33649365234375,-0.998748779296875,-0.0159149169921875,-0.007720947265625
1772656098840476700,11.3464765625,-0.9989471435546875,-0.015228271484375,-0.0083465576171875
1772656098850459000,11.356458984375,-0.9994049072265625,-0.016143798828125,-0.0084381103515625
1772656098860441600,11.366441650390625,-0.999725341796875,-0.0163116455078125,-0.008148193359375
1772656098870423800,11.376423828125,-0.9995880126953125,-0.0156402587890625,-0.009063720703125
1772656098880406800,11.38640673828125,-1.0002593994140625,-0.0158233642578125,-0.007171630859375
1772656098890388700,11.396388671875,-0.999725341796875,-0.015472412109375,-0.008880615234375
1772656098900372700,11.406372802734374,-0.9990692138671875,-0.0157470703125,-0.0078277587890625
1772656098910355000,11.41635498046875,-0.9990692138671875,-0.0162811279296875,-0.0074462890625
1772656098920337700,11.426337646484376,-0.9996337890625,-0.016510009765625,-0.0078582763671875
1772656098930320000,11.43631982421875,-0.9996185302734375,-0.0153350830078125,-0.0077056884765625
1772656098940302800,11.446302734375,-0.9997100830078125,-0.0163421630859375,-0.0079498291015625
1772656098950284800,11.456284912109375,-0.9990386962890625,-0.0161285400390625,-0.0086517333984375
1772656098960266800,11.466266845703124,-0.998626708984375,-0.0151824951171875,-0.0077056884765625
1772656098970250000,11.47625,-0.999359130859375,-0.0156402587890625,-0.0078277587890625
1772656098980231700,11.486231689453126,-0.999603271484375,-0.0164337158203125,-0.0086822509765625
1772656098990215000,11.49621484375,-0.999267578125,-0.01544189453125,-0.0081329345703125
1772656099000196600,11.506196533203125,-0.9994659423828125,-0.0154266357421875,-0.00799560546875
1772656099010179800,11.516179931640625,-0.999603271484375,-0.015777587890625,-0.0082550048828125
1772656099020161800,11.526161865234375,-0.9996490478515625,-0.015899658203125,-0.007598876953125
1772656099030144800,11.536144775390625,-0.9994964599609375,-0.01556396484375,-0.00872802734375
1772656099040126700,11.546126708984374,-0.9991455078125,-0.015838623046875,-0.0077972412109375
1772656099050110000,11.55610986328125,-0.9990081787109375,-0.01611328125,-0.007171630859375
1772656099060091600,11.566091552734376,-0.9989166259765625,-0.016143798828125,-0.0082550048828125
1772656099070073900,11.576073974609375,-0.999298095703125,-0.016326904296875,-0.00762939453125
1772656099080056600,11.586056640625,-0.99945068359375,-0.016387939453125,-0.0065460205078125
1772656099090038800,11.596038818359375,-0.998992919921875,-0.0154876708984375,-0.0076141357421875
1772656099100021800,11.606021728515625,-0.9996490478515625,-0.0159149169921875,-0.0081939697265625
1772656099110003700,11.616003662109375,-0.999298095703125,-0.015655517578125,-0.0078277587890625
1772656099119986700,11.625986572265624,-0.99847412109375,-0.0158843994140625,-0.008087158203125
1772656099129969000,11.635968994140624,-0.998291015625,-0.0162811279296875,-0.00750732421875
1772656099139951600,11.64595166015625,-0.9990692138671875,-0.0153961181640625,-0.0076141357421875
1772656099149933800,11.655933837890625,-0.9995574951171875,-0.016021728515625,-0.00799560546875
1772656099159916800,11.665916748046875,-0.999725341796875,-0.0159912109375,-0.0065460205078125
1772656099169898800,11.675898681640625,-0.9991912841796875,-0.0162200927734375,-0.007843017578125
1772656099179881000,11.685880859375,-0.9989013671875,-0.016021728515625,-0.0081329345703125
1772656099189863700,11.69586376953125,-0.9988861083984375,-0.0152130126953125,-0.0079193115234375
1772656099199846000,11.705845947265624,-0.9985504150390625,-0.0155029296875,-0.00775146484375
1772656099209828900,11.715828857421876,-0.9993438720703125,-0.016204833984375,-0.0074005126953125
1772656099219810800,11.725810791015626,-1.000244140625,-0.0162811279296875,-0.0080413818359375
1772656099229793800,11.735793701171875,-0.999114990234375,-0.0162353515625,-0.008087158203125
1772656099239775700,11.745775634765625,-0.999603271484375,-0.0151214599609375,-0.0081024169921875
1772656099249758700,11.7557587890625,-0.998992919921875,-0.0152587890625,-0.0075225830078125
1772656099259741000,11.765740966796875,-1.00030517578125,-0.0154266357421875,-0.0081634521484375
1772656099269724000,11.775723876953125,-0.9996337890625,-0.01605224609375,-0.0076751708984375
1772656099279705900,11.785705810546874,-0.9985198974609375,-0.01544189453125,-0.0072021484375
1772656099289688800,11.795688720703126,-1.0002288818359375,-0.0162353515625,-0.007904052734375
1772656099299670800,11.8056708984375,-0.9993743896484375,-0.016571044921875,-0.008331298828125
1772656099309652700,11.81565283203125,-0.99945068359375,-0.015960693359375,-0.0078125
1772656099319636000,11.825635986328125,-1.000091552734375,-0.0156707763671875,-0.0074615478515625
1772656099329617700,11.83561767578125,-0.9997100830078125,-0.01593017578125,-0.007049560546875
1772656099339601000,11.845600830078125,-1.0002593994140625,-0.016326904296875,-0.0076904296875
1772656099349582600,11.85558251953125,-0.9998779296875,-0.0156097412109375,-0.0094451904296875
1772656099359565800,11.86556591796875,-0.9999237060546875,-0.0162200927734375,-0.0081939697265625
1772656099369547800,11.8755478515625,-0.9991607666015625,-0.0160064697265625,-0.0089111328125
1772656099379530800,11.88553076171875,-0.998870849609375,-0.016357421875,-0.008636474609375
1772656099389512700,11.8955126953125,-0.9985504150390625,-0.01654052734375,-0.007415771484375
1772656099399496000,11.905495849609375,-1.0005645751953125,-0.015960693359375,-0.0072784423828125
1772656099409477600,11.9154775390625,-0.9995880126953125,-0.015289306640625,-0.0081329345703125
1772656099419459800,11.9254599609375,-0.9996185302734375,-0.0158538818359375,-0.00848388671875
1772656099429442800,11.93544287109375,-0.9987945556640625,-0.01629638671875,-0.00732421875
1772656099439424800,11.9454248046875,-0.998748779296875,-0.01629638671875,-0.0073394775390625
1772656099449407700,11.95540771484375,-0.9992828369140625,-0.01611328125,-0.007354736328125
1772656099459389700,11.9653896484375,-0.9987945556640625,-0.016021728515625,-0.007415771484375
1772656099469372700,11.97537255859375,-0.9984588623046875,-0.0155487060546875,-0.0076904296875
1772656099479353600,11.985353515625,-0.9987030029296875,-0.0160675048828125,-0.0085906982421875
1772656099489335800,11.995335693359374,-0.99945068359375,-0.0162811279296875,-0.00762939453125
1772656099499318800,12.00531884765625,-0.998809814453125,-0.0166473388671875,-0.0078582763671875
1772656099509300700,12.01530078125,-0.999664306640625,-0.0161590576171875,-0.0072784423828125
1772656099519283000,12.025282958984375,-0.9995574951171875,-0.016265869140625,-0.007476806640625
1772656099529266000,12.035265869140625,-0.9986419677734375,-0.01593017578125,-0.0077056884765625
1772656099539247900,12.045247802734375,-0.9993133544921875,-0.0153045654296875,-0.0079498291015625
1772656099549230800,12.05523095703125,-0.9994964599609375,-0.0152130126953125,-0.00823974609375
1772656099559212800,12.065212890625,-0.9988555908203125,-0.01568603515625,-0.008026123046875
1772656099569195800,12.07519580078125,-0.99859619140625,-0.0165557861328125,-0.0079193115234375
1772656099579178000,12.085177978515626,-0.999237060546875,-0.0166015625,-0.0078125
1772656099589160700,12.09516064453125,-0.99981689453125,-0.01568603515625,-0.0080718994140625
1772656099599143000,12.105142822265625,-1.0002899169921875,-0.0158843994140625,-0.00714111328125
1772656099609126000,12.1151259765625,-0.9986724853515625,-0.0165557861328125,-0.0077972412109375
1772656099619107800,12.12510791015625,-0.99957275390625,-0.01605224609375,-0.008209228515625
1772656099629090800,12.1350908203125,-0.9984130859375,-0.0152740478515625,-0.0077667236328125
1772656099639072800,12.14507275390625,-0.9984588623046875,-0.0155487060546875,-0.0076751708984375
1772656099649054700,12.1550546875,-0.998565673828125,-0.0165863037109375,-0.007843017578125
1772656099659038000,12.165037841796876,-0.99884033203125,-0.0165557861328125,-0.00787353515625
1772656099669019600,12.17501953125,-0.999481201171875,-0.0153961181640625,-0.008209228515625
1772656099679003000,12.1850029296875,-1.0004730224609375,-0.0156097412109375,-0.008636474609375
1772656099688984800,12.19498486328125,-0.9991455078125,-0.0154571533203125,-0.008087158203125
1772656099698967800,12.2049677734375,-0.999298095703125,-0.01544189453125,-0.007598876953125
1772656099708949800,12.21494970703125,-0.9990692138671875,-0.0167236328125,-0.0077056884765625
1772656099718933000,12.22493310546875,-0.9996490478515625,-0.01593017578125,-0.0071258544921875
1772656099728914700,12.234914794921876,-0.9992218017578125,-0.0164642333984375,-0.008209228515625
1772656099738898000,12.24489794921875,-0.998992919921875,-0.0156707763671875,-0.0087432861328125
1772656099748879600,12.254879638671875,-0.999786376953125,-0.0160675048828125,-0.008453369140625
1772656099758861800,12.26486181640625,-0.9998016357421875,-0.0162506103515625,-0.008148193359375
1772656099768844800,12.2748447265625,-0.999908447265625,-0.016571044921875,-0.00762939453125
1772656099778826800,12.28482666015625,-0.999603271484375,-0.0157318115234375,-0.0076751708984375
1772656099788809700,12.294809814453124,-1.0001678466796875,-0.01568603515625,-0.00701904296875
1772656099798792000,12.3047919921875,-0.9989013671875,-0.01641845703125,-0.00811767578125
1772656099808774700,12.314774658203126,-0.9996337890625,-0.0157012939453125,-0.0084228515625
1772656099818756900,12.3247568359375,-1.0003204345703125,-0.0159454345703125,-0.0081329345703125
1772656099828739800,12.33473974609375,-1.000030517578125,-0.0162200927734375,-0.007843017578125
1772656099838721800,12.3447216796875,-0.9996490478515625,-0.016143798828125,-0.0085296630859375
1772656099848704800,12.354704833984375,-1.0002288818359375,-0.015869140625,-0.0086517333984375
1772656099858686700,12.364686767578124,-0.999481201171875,-0.0163421630859375,-0.0085906982421875
1772656099868668700,12.374668701171874,-0.9992218017578125,-0.016510009765625,-0.0077667236328125
1772656099878652000,12.38465185546875,-0.99945068359375,-0.016265869140625,-0.0083770751953125
1772656099888633900,12.3946337890625,-1.000274658203125,-0.0149993896484375,-0.0080413818359375
1772656099898616800,12.404616943359375,-0.998626708984375,-0.01641845703125,-0.0079498291015625
1772656099908598800,12.414598876953125,-0.999481201171875,-0.0160369873046875,-0.00848388671875
1772656099918581800,12.424581787109375,-0.999481201171875,-0.01678466796875,-0.00860595703125
1772656099928563700,12.434563720703125,-0.999298095703125,-0.0164947509765625,-0.00750732421875
1772656099938546700,12.444546630859374,-0.9994049072265625,-0.0155792236328125,-0.0078887939453125
1772656099948528600,12.454528564453126,-0.99932861328125,-0.0155487060546875,-0.0085296630859375
1772656099958511900,12.464511962890626,-0.998870849609375,-0.0155029296875,-0.00830078125
1772656099968493800,12.474493896484375,-1.0002288818359375,-0.0156707763671875,-0.0074615478515625
1772656099978476800,12.484476806640625,-0.99957275390625,-0.015533447265625,-0.0083770751953125
1772656099988458800,12.494458740234375,-0.9986572265625,-0.0151824951171875,-0.0079803466796875
1772656099998440700,12.504440673828125,-0.9999237060546875,-0.0162811279296875,-0.007659912109375
1772656100008423700,12.514423583984374,-0.9997711181640625,-0.016357421875,-0.0081634521484375
1772656100018405600,12.524405517578124,-0.999969482421875,-0.0159912109375,-0.008514404296875
1772656100028388900,12.534388916015626,-0.999267578125,-0.01629638671875,-0.0069732666015625
1772656100038370800,12.544370849609376,-0.999786376953125,-0.016265869140625,-0.0075531005859375
1772656100048353800,12.554353759765625,-0.99822998046875,-0.016021728515625,-0.0074920654296875
1772656100058335700,12.564335693359375,-1.000274658203125,-0.016326904296875,-0.0074920654296875
1772656100068318700,12.574318603515625,-0.9998016357421875,-0.0163421630859375,-0.0081634521484375
1772656100078300700,12.58430078125,-0.9999542236328125,-0.0161285400390625,-0.007476806640625
1772656100088284000,12.594283935546875,-0.9984588623046875,-0.0162811279296875,-0.0076446533203125
1772656100098265900,12.604265869140624,-0.99932861328125,-0.0152587890625,-0.0080108642578125
1772656100108248800,12.614248779296876,-0.9999542236328125,-0.015106201171875,-0.008026123046875
1772656100118232800,12.62423291015625,-0.9993438720703125,-0.0156402587890625,-0.0081024169921875
1772656100128214800,12.63421484375,-0.9990997314453125,-0.0159759521484375,-0.0076446533203125
1772656100138196700,12.64419677734375,-0.9988555908203125,-0.01641845703125,-0.0087890625
1772656100148179700,12.6541796875,-0.9998016357421875,-0.015869140625,-0.0078887939453125
1772656100158162000,12.664161865234375,-0.9996795654296875,-0.0154876708984375,-0.0068359375
1772656100168144600,12.67414453125,-0.999359130859375,-0.0150299072265625,-0.008026123046875
1772656100178126800,12.684126953125,-0.9990997314453125,-0.015594482421875,-0.0066986083984375
1772656100188109800,12.69410986328125,-0.9990234375,-0.015899658203125,-0.0077056884765625
1772656100198091800,12.704091796875,-0.9991607666015625,-0.0161590576171875,-0.008575439453125
1772656100208074800,12.71407470703125,-0.9994659423828125,-0.016448974609375,-0.007476806640625
1772656100218056700,12.724056640625,-0.9990997314453125,-0.01611328125,-0.008087158203125
1772656100228039700,12.734039794921875,-0.998992919921875,-0.0149993896484375,-0.0074920654296875
1772656100238022000,12.74402197265625,-1.000030517578125,-0.0160064697265625,-0.007537841796875
1772656100248004600,12.754004638671875,-0.9994964599609375,-0.015655517578125,-0.0080718994140625
1772656100257986800,12.76398681640625,-0.9993133544921875,-0.0160369873046875,-0.0075531005859375
1772656100267968800,12.77396875,-0.9996185302734375,-0.0160675048828125,-0.0090789794921875
