time,seconds_elapsed,z,y,x
1772656087565310000,0.07131005859375,-0.005915147252380848,0.013667608611285686,0.001344630029052496
1772656087575293200,0.081293212890625,0.000015712650565546937,0.003363838652148843,-0.0008327704854309559
1772656087585275000,0.09127490234375,-0.004448011517524719,-0.015308116562664509,-0.010027866810560226
1772656087595258000,0.101258056640625,-0.0028565065003931522,-0.0007182545377872884,-0.006036853417754173
1772656087605240000,0.111239990234375,-0.0004495415778364986,0.008658203296363354,-0.001261805766262114
1772656087615223000,0.12122314453125,-0.004418184049427509,-0.0016919062472879887,-0.005909554194658995
1772656087625205000,0.131205078125,0.0006042712484486401,-0.00695058424025774,-0.009387909434735775
1772656087635187000,0.14118701171875,-0.004772384651005268,0.0017576862592250109,-0.0027771443128585815
1772656087645170000,0.151169921875,-0.004303135443478823,0.002983539365231991,-0.005147091578692198
1772656087655152000,0.161152099609375,-0.0027830032631754875,-0.0054512242786586285,-0.007107177749276161
1772656087665134800,0.171134765625,-0.0037207023706287146,-0.005501291714608669,-0.006012352649122477
1772656087675117000,0.181116943359375,-0.005578523501753807,0.003582217963412404,-0.0030208237003535032
1772656087685100000,0.19110009765625,-0.0035428032279014587,-0.00253532943315804,-0.004458131734281778
1772656087695082000,0.20108203125,-0.002376604825258255,-0.005244829226285219,-0.005827262531965971
1772656087705064000,0.21106396484375,-0.004778243601322174,-0.0008964200387708843,-0.002775280037894845
1772656087715047200,0.221047119140625,-0.002549444092437625,0.0006703176186420023,-0.0037670412566512823
1772656087725028900,0.23102880859375,-0.003254649229347706,-0.0037345506716519594,-0.005914880894124508
1772656087735012000,0.24101220703125,-0.0029345371294766665,-0.0018109495285898447,-0.006338856182992458
1772656087744994000,0.250994140625,-0.002685797866433859,-0.0036767602432519197,-0.002832005498930812
1772656087754977000,0.26097705078125,-0.0027632960118353367,-0.0008215851848945022,-0.0028876655269414186
1772656087764959000,0.270958984375,-0.0024687503464519978,-0.002316950121894479,-0.004197407979518175
1772656087774941000,0.28094091796875,-0.004008590243756771,-0.004480502102524042,-0.00541260838508606
1772656087784924000,0.290923828125,-0.004834169987589121,-0.0014807175612077117,-0.0028991170693188906
1772656087794906000,0.300906005859375,-0.004627508576959372,-0.0023361248895525932,-0.006845921743661165
1772656087804889000,0.31088916015625,-0.004582767374813557,-0.0032567796297371387,-0.005694104824215174
1772656087814871000,0.32087109375,-0.004523645620793104,-0.001955559244379401,-0.00603365758433938
1772656087824854000,0.33085400390625,-0.0020266654901206493,-0.0022655511274933815,-0.0057710702531039715
1772656087834836000,0.3408359375,-0.00033422670094296336,0.000040746363083599135,-0.003805124433711171
1772656087844818200,0.350818115234375,-0.0017915084026753902,-0.001404284848831594,-0.005269863177090883
1772656087854801000,0.36080078125,-0.0023957795929163694,-0.0035430695861577988,-0.003918841481208801
1772656087864783000,0.370783203125,-0.0054277884773910046,-0.0013965616235509515,-0.0027419906109571457
1772656087874766000,0.38076611328125,-0.003686347510665655,0.0002633866388350725,-0.006055495701730251
1772656087884748300,0.390748291015625,-0.0007819040911272168,-0.0006972155533730984,-0.004988100845366716
1772656087894731000,0.40073095703125,-0.0019110844004899263,-0.000847950461320579,-0.0032562471460551023
1772656087904713200,0.410713134765625,-0.00242214510217309,-0.0013036173768341541,-0.004831773228943348
1772656087914695000,0.42069482421875,-0.0030631679110229015,-0.0005760417552664876,-0.007478955201804638
1772656087924678100,0.43067822265625,-0.0038890140131115913,-0.0014117417158558965,-0.004180097486823797
1772656087934660000,0.44066015625,-0.0028815402183681726,-0.002177134156227112,-0.005290635861456394
1772656087944643000,0.45064306640625,-0.0030711572617292404,-0.002040780382230878,-0.006404103245586157
1772656087954625000,0.460625,-0.003632285399362445,-0.0022540995851159096,-0.004730306565761566
1772656087964608300,0.470608154296875,-0.002356364857405424,-0.0026354643050581217,-0.001514806062914431
1772656087974590000,0.48058984375,-0.0025454494170844555,-0.002552906284108758,-0.004013916477560997
1772656087984572200,0.490572265625,-0.005210208240896463,0.0014804512029513717,-0.0037984666414558887
1772656087994555000,0.500554931640625,-0.002612294629216194,-0.002579271560534835,-0.0059993029572069645
1772656088004537000,0.510537109375,-0.0025619608350098133,-0.0026136261876672506,-0.005649629980325699
1772656088014520000,0.52052001953125,-0.003215766977518797,-0.005411010701209307,-0.003400324145331979
1772656088024502000,0.530501953125,-0.003406449221074581,-0.0005427522119134665,-0.005976932588964701
1772656088034485000,0.540485107421875,-0.004070907831192017,-0.0015483618481084704,-0.004513791762292385
1772656088044467200,0.55046728515625,-0.004298874642699957,-0.002895122393965721,-0.0057479003444314
1772656088054449200,0.56044921875,-0.0028003137558698654,-0.0015092133544385433,-0.005835252348333597
1772656088064432000,0.57043212890625,-0.0011179950088262558,-0.0017904432024806738,-0.00256409146822989
1772656088074414000,0.5804140625,-0.0017033577896654606,-0.003569967346265912,-0.004063983913511038
1772656088084397000,0.59039697265625,-0.0023579627741128206,-0.0007323693134821951,-0.004061853047460318
1772656088094379300,0.600379150390625,-0.004999019671231508,-0.002575543010607362,-0.00401657959446311
1772656088104362000,0.610362060546875,-0.0019619506783783436,-0.002017610939219594,-0.005918608978390694
1772656088114344200,0.62034423828125,-0.003599794814363122,-0.0016753945965319872,-0.0008503473363816738
1772656088124326000,0.630325927734375,-0.0006026733317412436,-0.0009286442655138671,-0.006956709548830986
1772656088134309000,0.64030908203125,-0.0030983216129243374,-0.001151018193922937,-0.006780407857149839
1772656088144291000,0.650291015625,-0.0032892702147364616,-0.003970507066696882,-0.00896872766315937
1772656088154274300,0.6602744140625,-0.0025454494170844555,-0.003433080855756998,-0.005314604379236698
1772656088164256000,0.670256103515625,-0.0019595539197325706,-0.0010548781137913465,-0.004264520015567541
1772656088174239200,0.6802392578125,-0.0007057376787997782,-0.0010207896120846272,-0.0030533140525221825
1772656088184221000,0.690220947265625,-0.0037742317654192448,-0.001335841603577137,-0.0037001960445195436
1772656088194203100,0.700203125,-0.0013132047606632113,-0.0013598100049421191,-0.004656536970287561
1772656088204186000,0.71018603515625,-0.002965962514281273,-0.003948935307562351,-0.003026682650670409
1772656088214168000,0.72016796875,-0.003471430391073227,-0.0009105347562581301,-0.005893575493246317
1772656088224151000,0.730151123046875,-0.002189384773373604,-0.0016706009628251195,-0.004733502399176359
1772656088234133000,0.740133056640625,-0.004163319710642099,-0.0032839439809322357,-0.003947603516280651
1772656088244116000,0.750115966796875,-0.004588626325130463,-0.0014136058744043112,-0.0044011399149894714
1772656088254098200,0.76009814453125,-0.0027899276465177536,0.0010109359864145517,-0.004709800239652395
1772656088264080100,0.770080078125,-0.003397128311917186,-0.0022125542163848877,-0.004765460267663002
1772656088274063000,0.78006298828125,-0.004637628793716431,-0.0008969526388682425,-0.002784334821626544
1772656088284045300,0.79004541015625,-0.0036424053832888603,-0.002578738844022155,-0.0026072347536683083
1772656088294028000,0.800028076171875,-0.0024983114562928677,-0.003427488263696432,-0.0025984463281929493
1772656088304010200,0.81001025390625,-0.003934021573513746,-0.002439721953123808,-0.004168379586189985
1772656088313993200,0.8199931640625,-0.003099120454862714,-0.00025992453447543085,-0.0029052423778921366
1772656088323975200,0.82997509765625,-0.001654622028581798,-0.0020501012913882732,-0.007751662749797106
1772656088333957000,0.83995703125,-0.0024322650860995054,-0.00440992834046483,-0.005122590344399214
1772656088343940000,0.849940185546875,-0.004451473709195852,-0.0038418760523200035,-0.0029321403708308935
1772656088353922000,0.859922119140625,-0.0005102616851218045,-0.0009153284481726587,-0.005163602996617556
1772656088363905300,0.8699052734375,-0.002338521648198366,0.00022317290131468326,-0.005619802512228489
1772656088373887000,0.879886962890625,-0.00293373828753829,-0.0037209687288850546,-0.00276063266210258
1772656088383870200,0.8898701171875,-0.0046599991619586945,-0.00010040117194876075,-0.002148105762898922
1772656088393852000,0.899851806640625,-0.0026929883752018213,-0.0036722328513860703,-0.0033904702868312597
1772656088403834000,0.909834228515625,-0.006328469607979059,-0.003946005832403898,-0.001900964416563511
1772656088413817000,0.919817138671875,-0.004098604898899794,-0.0046666571870446205,-0.005897836294025183
1772656088423799000,0.929799072265625,-0.005458947736769915,-0.0037561224307864904,-0.003625893732532859
1772656088433782000,0.939781982421875,-0.0016405072528868914,0.00018855179951060563,-0.004555337131023407
1772656088443764200,0.94976416015625,-0.0006532734259963036,-0.001841575838625431,-0.0029885992407798767
1772656088453747000,0.959746826171875,-0.005351089406758547,-0.0025656893849372864,-0.005331914871931076
1772656088463729200,0.969729248046875,-0.00364746549166739,-0.0008562062866985798,-0.0028061727061867714
1772656088473711000,0.979711181640625,-0.003644536016508937,-0.0003281014505773783,-0.0021350563038140535
1772656088483694000,0.989694091796875,-0.004091148264706135,-0.0007984156836755574,-0.003912982530891895
1772656088493676300,0.99967626953125,-0.004585430957376957,-0.002302569104358554,-0.0028365328907966614
1772656088503659000,1.009658935546875,-0.001184307737275958,-0.0029433255549520254,-0.006171609275043011
1772656088513641200,1.01964111328125,-0.002734267385676503,-0.0022948458790779114,-0.00407623453065753
1772656088523624200,1.029624267578125,-0.0016793893883004785,-0.0001174454009742476,-0.004513259045779705
1772656088533606100,1.039606201171875,-0.0030980552546679974,-0.0015989618841558695,-0.00498064374551177
1772656088543588000,1.049588134765625,-0.002472745021805167,-0.003578489413484931,-0.005053347907960415
1772656088553571300,1.0595712890625,-0.0035920715890824795,-0.0036165728233754635,-0.0018807243322953582
1772656088563553000,1.069552978515625,-0.0036274916492402554,0.0012277172645553946,-0.004065048880875111
1772656088573536300,1.079536376953125,-0.0019475696608424187,-0.0026871294248849154,-0.0030075078830122948
1772656088583518000,1.08951806640625,-0.004610997159034014,0.00020746025256812572,-0.003991013392806053
1772656088593500200,1.099500244140625,-0.003540406236425042,-0.0014152037911117077,-0.007895473390817642
1772656088603483100,1.109483154296875,-0.0028503811918199062,0.0005544701125472784,-0.005768406670540571
1772656088613465000,1.119465087890625,-0.0029316076543182135,0.0008684568456374109,-0.005982791539281607
1772656088623448000,1.129447998046875,-0.0034325483720749617,-0.0009859022684395313,-0.002901247702538967
1772656088633430000,1.139429931640625,-0.005285575985908508,-0.0014450311427935958,-0.006272276863455772
1772656088643413000,1.1494130859375,-0.0016056197928264737,0.0012831110507249832,-0.006913033314049244
1772656088653395200,1.159395263671875,-0.0015939018921926618,-0.001585646066814661,-0.0037409423384815454
1772656088663377200,1.169377197265625,-0.004201935604214668,-0.003421629313379526,-0.003626692807301879
1772656088673360100,1.179360107421875,-0.0017827199772000313,-0.0025987126864492893,-0.004488491453230381
1772656088683342300,1.18934228515625,-0.0014732606941834092,-0.0019467707024887204,-0.004511927254498005
1772656088693325000,1.199324951171875,-0.0028613002505153418,-0.003285009181126952,-0.007962851785123348
1772656088703307300,1.209307373046875,-0.001660480978898704,-0.0018399780383333564,-0.0027390611357986927
1772656088713290200,1.219290283203125,-0.0016855146968737245,-0.0022237394005060196,-0.004095409065485001
1772656088723272200,1.229272216796875,0.0005632585380226374,-0.0018162758788093925,-0.004001133143901825
1772656088733254100,1.239254150390625,-0.004444282967597246,-0.004609665367752314,-0.004976915195584297
1772656088743237000,1.249237060546875,-0.0016684704460203648,-0.0014000238152220845,-0.004729507956653833
1772656088753219000,1.259218994140625,-0.002415487077087164,-0.0009813748765736818,-0.003933755215257406
1772656088763202300,1.269202392578125,-0.0009560748003423214,-0.0025209481827914715,-0.003355582943186164
1772656088773184000,1.27918408203125,-0.0031878037843853235,-0.003375822911038995,-0.006658168975263834
1772656088783167200,1.289167236328125,-0.0006205165409483016,-0.000547279603779316,-0.008041947148740292
1772656088793149000,1.29914892578125,-0.003477822057902813,-0.000708134553860873,-0.006023005116730928
1772656088803131100,1.309131103515625,-0.0009744506096467376,-0.0038978024385869503,-0.00507065886631608
1772656088813114000,1.319114013671875,-0.0030298782512545586,-0.0009299758239649236,-0.005553755909204483
1772656088823096000,1.329095947265625,-0.0034943337086588144,-0.0016871124971657991,-0.007744472473859787
1772656088833079000,1.3390791015625,-0.003111903788521886,-0.0015137407463043928,-0.002204564632847905
1772656088843061200,1.349061279296875,-0.0032674323301762342,-0.001972603378817439,-0.004019509069621563
1772656088853044000,1.3590439453125,-0.004099670331925154,-0.0009219863568432629,-0.004287156742066145
1772656088863026200,1.369026123046875,-0.0031614385079592466,-0.0007472829893231392,-0.0025214808993041515
1772656088873008000,1.379008056640625,-0.002171541564166546,-0.0018879148410633206,-0.003910852130502462
1772656088882991400,1.388991455078125,-0.00216568261384964,-0.0007470166892744601,-0.004326837603002787
1772656088892973300,1.398973388671875,-0.0007001450285315514,-0.0013084110105410218,-0.004748149774968624
1772656088902956300,1.408956298828125,-0.002942793071269989,-0.0012181298807263374,-0.0021518340799957514
1772656088912938200,1.418938232421875,-0.0041547976434230804,-0.0023094932548701763,-0.004938299767673016
1772656088922921200,1.428921142578125,-0.004341751337051392,-0.0023299995809793472,-0.005839779507368803
1772656088932903200,1.438903076171875,-0.0038605183362960815,-0.00299259414896369,-0.004264520015567541
1772656088942885000,1.448885009765625,-0.005614209920167923,-0.0005560680292546749,-0.005378786474466324
1772656088952868000,1.4588681640625,-0.004220045171678066,0.00025220136740244925,-0.006368683185428381
1772656088962850300,1.468850341796875,-0.002767557045444846,-0.0012098740553483367,-0.005823534447699785
1772656088972833300,1.478833251953125,-0.00407623453065753,0.0008410262526012957,-0.003085005795583129
1772656088982815200,1.488815185546875,-0.003358246060088277,-0.0035742283798754215,-0.004391818773001432
1772656088992798200,1.498798095703125,-0.003421362955123186,-0.00043223105603829026,-0.0016618125373497605
1772656089002780200,1.5087802734375,-0.001796834752894938,-0.0009158611064776778,-0.004661597311496735
1772656089012762400,1.518762451171875,-0.002802178030833602,-0.0004617921367753297,-0.006176669616252184
1772656089022745000,1.5287451171875,-0.0020748688839375973,-0.0029787456151098013,-0.004555337131023407
1772656089032727300,1.538727294921875,-0.0035446672700345516,-0.0012415656819939613,-0.006917560938745737
1772656089042710300,1.548710205078125,-0.0041468082927167416,-0.0034581145737320185,-0.003953995183110237
1772656089052692200,1.558692138671875,-0.0034903388004750013,-0.0017001620726659894,-0.0032567796297371387
1772656089062675200,1.56867529296875,-0.0036581179592758417,0.00031878036679700017,-0.002153431996703148
1772656089072657400,1.578657470703125,-0.0031459920573979616,-0.0030956584960222244,-0.005780390929430723
1772656089082639000,1.58863916015625,-0.003944141324609518,-0.003171292133629322,-0.007364705670624971
1772656089092622300,1.598622314453125,-0.0022477079182863235,-0.003894340479746461,-0.005615274887531996
1772656089102604000,1.60860400390625,-0.003230947069823742,-0.0025100293569266796,-0.006717024836689234
1772656089112587300,1.618587158203125,-0.0029968551825731993,-0.0011717908782884479,-0.004520982038229704
1772656089122569200,1.6285693359375,-0.0024381240364164114,-0.00016964336100500077,-0.005824599415063858
1772656089132552200,1.63855224609375,-0.002360359765589237,-0.0018873822409659624,-0.003662112867459655
1772656089142534100,1.6485341796875,-0.0044176517985761166,-0.0008266451768577099,-0.004040015395730734
1772656089152516000,1.65851611328125,-0.0026045716367661953,0.00016245282313320786,-0.004596349783241749
1772656089162499000,1.6684990234375,-0.0033545177429914474,-0.0009137305896729231,-0.003964648116379976
1772656089172481300,1.678481201171875,-0.0015571502735838294,-0.001788312685675919,-0.0046384274028241634
1772656089182464000,1.688464111328125,-0.0022596921771764755,-0.002397643867880106,-0.004232828039675951
1772656089192446200,1.6984462890625,-0.002834402257576585,-0.0025270734913647175,-0.0044107274152338505
1772656089202429200,1.70842919921875,-0.005428853910416365,-0.002397377509623766,-0.0038754320703446865
1772656089212411100,1.7184111328125,-0.00392896169796586,-0.0006876281695440412,-0.004888232331722975
1772656089222393300,1.728393310546875,-0.00430020596832037,-0.000639691308606416,-0.006975351367145777
1772656089232376300,1.738376220703125,-0.004210191313177347,-0.0005960154230706394,-0.0049223206005990505
1772656089242358300,1.748358154296875,-0.0036940707359462976,-0.0007123955874703825,-0.005072522908449173
1772656089252341200,1.75834130859375,-0.005594236310571432,-0.0019867182709276676,-0.004561462439596653
1772656089262323200,1.7683232421875,-0.002043443499132991,0.0003115898580290377,-0.0033968619536608458
1772656089272306200,1.77830615234375,-0.005736448802053928,0.00004713794987765141,-0.005048554390668869
1772656089282288400,1.788288330078125,-0.0018066884949803352,-0.003459446132183075,-0.005897836294025183
1772656089292270000,1.79827001953125,-0.004049869254231453,-0.0004814995336346328,-0.0028756812680512667
1772656089302253300,1.80825341796875,-0.0036495958920568228,-0.0015094797126948833,-0.004823517519980669
1772656089312235000,1.818235107421875,-0.002017610939219594,-0.0011281149927526712,-0.005793440621346235
1772656089322218200,1.82821826171875,-0.0025031049735844135,-0.002159290947020054,-0.0037417414132505655
1772656089332200200,1.8382001953125,-0.0028210864402353764,0.0009536779834888875,-0.005225388333201408
1772656089342183200,1.84818310546875,-0.0010689928894862533,-0.0015552861150354147,-0.006906642112880945
1772656089352165000,1.8581650390625,-0.002031192881986499,-0.0011800467036664486,-0.0076177059672772884
1772656089362147300,1.868147216796875,-0.0024623586796224117,-0.0017723336350172758,-0.005278385244309902
1772656089372130000,1.878130126953125,-0.0046751792542636395,-0.004036020487546921,-0.003879426745697856
1772656089382112300,1.8881123046875,-0.003540406236425042,-0.0013829795643687248,-0.004780906718224287
1772656089392095200,1.89809521484375,-0.002124669961631298,-0.0007928230334073305,-0.003293797606602311
1772656089402077200,1.9080771484375,-0.0028008464723825455,-0.0026881948579102755,-0.005513009615242481
1772656089412060200,1.91806005859375,-0.002829608740285039,-0.0022237394005060196,-0.004751878324896097
1772656089422042000,1.9280419921875,-0.0028573055751621723,0.000014913702216290403,-0.005657619331032038
1772656089432024300,1.9380244140625,-0.0024229439441114664,-0.0019805929623544216,-0.005730057135224342
1772656089442007300,1.94800732421875,-0.0019592875614762306,-0.004739627707749605,-0.005285043269395828
1772656089451989200,1.9579892578125,-0.002295911079272628,-0.001103880233131349,-0.0032477248460054398
1772656089461972200,1.96797216796875,-0.0031553131993860006,-0.0006167881074361503,-0.006500776391476393
1772656089471954400,1.977954345703125,-0.002886333968490362,-0.0031443943735212088,-0.005732720717787743
1772656089481937200,1.987937255859375,-0.0026463831309229136,-0.0019891150295734406,-0.005882923025637865
1772656089491919400,1.99791943359375,-0.002846919232979417,-0.0011837751371785998,-0.005404619034379721
1772656089501901000,2.007901123046875,-0.0024916534312069416,-0.0018394453218206763,-0.00430286955088377
1772656089511884300,2.01788427734375,-0.004481567535549402,-0.002508964156731963,-0.004174771253019571
1772656089521866200,2.0278662109375,-0.0034996599424630404,0.0013214604696258903,-0.005862416233867407
1772656089531849200,2.03784912109375,-0.0031912659760564566,-0.0009353021741844714,-0.005258411634713411
1772656089541831200,2.0478310546875,-0.0008170577930286527,-0.0007022755453363061,-0.005616073962301016
1772656089551814400,2.057814453125,-0.003222425002604723,-0.00009960222087102011,-0.0057188719511032104
1772656089561796000,2.067796142578125,-0.0018330537714064121,-0.0036099147982895374,-0.005316468421369791
1772656089571778300,2.0777783203125,-0.004250138532370329,-0.00424188282340765,-0.005132177844643593
1772656089581761000,2.087760986328125,-0.0016170714516192675,-0.0011321097845211625,-0.0030836742371320724
1772656089591743200,2.0977431640625,-0.0036818201187998056,0.00021837920940015465,-0.0027414578944444656
1772656089601726200,2.107726318359375,-0.0008343683439306915,-0.0027148264925926924,-0.004289287142455578
1772656089611708200,2.117708251953125,-0.0005608617211692035,-0.0011861718958243728,-0.004741225857287645
1772656089621691100,2.127691162109375,-0.0034474621061235666,-0.001999501371756196,-0.004673847462981939
1772656089631673300,2.13767333984375,-0.004311125259846449,-0.0002596582053229213,-0.007835818454623222
1772656089641655300,2.1476552734375,-0.0019078885670751333,-0.001017593895085156,-0.0020218719728291035
1772656089651638300,2.15763818359375,-0.0016295883106067777,-0.0014948323369026184,-0.007171360310167074
1772656089661620200,2.1676201171875,-0.001627191435545683,-0.0032945964485406876,-0.0065042381174862385
1772656089671603200,2.177603271484375,-0.0031989889685064554,-0.0018636800814419985,-0.004891428165137768
1772656089681585400,2.18758544921875,-0.0020775320008397102,-0.0016263924771919847,-0.0036855486687272787
1772656089691568000,2.197568115234375,-0.002921754028648138,-0.0014199974248185754,-0.0016951019642874599
1772656089701550300,2.20755029296875,-0.00301762786693871,-0.0016863135388121009,-0.0044232443906366825
1772656089711532000,2.217531982421875,-0.0025473134592175484,-0.004730572924017906,-0.005562278442084789
1772656089721515300,2.227515380859375,-0.005308745428919792,-0.0016620787791907787,-0.00507039250805974
1772656089731497200,2.237497314453125,-0.0023699470330029726,-0.004051733296364546,-0.00484189298003912
1772656089741480400,2.24748046875,-0.0031044469214975834,-0.0008884305134415627,-0.0067686899565160275
1772656089751462100,2.257462158203125,-0.0022799321450293064,-0.0025238776579499245,-0.0032200280111283064
1772656089761445400,2.2674453125,-0.002270344877615571,-0.0005781722720712423,-0.005913282744586468
1772656089771427000,2.277427001953125,-0.0022972426377236843,-0.0011195929255336523,-0.005420864559710026
1772656089781410300,2.287410400390625,-0.0034732946660369635,-0.0011595403775572777,-0.004225105047225952
1772656089791392300,2.297392333984375,-0.0033446638844907284,-0.001187503570690751,-0.0041521345265209675
1772656089801374200,2.307374267578125,-0.0023185480386018753,-0.002198705682530999,-0.0054488275200128555
1772656089811357200,2.317357177734375,-0.0024229439441114664,-0.0011323761427775025,-0.006844324059784412
1772656089821339100,2.327339111328125,-0.0017984326696023345,-0.002517219865694642,-0.006933273747563362
1772656089831322000,2.337322021484375,-0.004352936986833811,-0.0016519587952643633,-0.006666691042482853
1772656089841304300,2.34730419921875,-0.004131894558668137,-0.0035361452028155327,-0.004049869254231453
1772656089851287000,2.357287109375,-0.002552906284108758,-0.0022658174857497215,-0.004845887888222933
1772656089861269200,2.367269287109375,-0.0018066884949803352,-0.00216594897210598,-0.000943025341257453
1772656089871251500,2.37725146484375,-0.0030810111202299595,-0.0013070794520899653,-0.0054520233534276485
1772656089881234200,2.387234130859375,-0.002225070958957076,0.00002210423735959921,-0.006010488141328096
1772656089891218700,2.39721875,-0.0028154938481748104,-0.0012594088912010193,-0.0031414648983627558
1772656089901201700,2.40720166015625,-0.0031140341889113188,-0.0034855452831834555,-0.0033872744534164667
1772656089911184000,2.417183837890625,-0.003133208956569433,-0.0016359798610210419,-0.003147589974105358
1772656089921166600,2.42716650390625,-0.003579022129997611,-0.0013187973527237773,-0.0036735644098371267
1772656089931148800,2.437148681640625,-0.0032977922819554806,0.001449292292818427,-0.006028331350535154
1772656089941130800,2.447130859375,-0.003569700988009572,0.0008306399104185402,-0.004799282643944025
1772656089951113700,2.45711376953125,-0.0038810246624052525,-0.00025779398856684566,-0.006595584563910961
1772656089961096000,2.467095947265625,-0.0020543625578284264,-0.0030008498579263687,-0.005065864883363247
1772656089971078700,2.47707861328125,-0.0011478224769234657,-0.0030184267088770866,-0.005035238806158304
1772656089981060900,2.487060791015625,-0.0021084246691316366,-0.003655987558886409,-0.002801911672577262
1772656089991043800,2.4970439453125,-0.003343332326039672,-0.0048437574878335,-0.00364746549166739
1772656090001025800,2.50702587890625,-0.0026168220210820436,-0.0013851100811734796,-0.005549495108425617
1772656090011007700,2.5170078125,-0.0021787320729345083,-0.004430701024830341,-0.005359345115721226
1772656090020991000,2.526990966796875,-0.004794755019247532,-0.0006900250446051359,-0.0048826392740011215
1772656090030972700,2.53697265625,-0.0025888588279485703,-0.0036517265252768993,-0.0057071540504693985
1772656090040956000,2.546955810546875,-0.0012322446564212441,-0.0019086875254288316,-0.003540938952937722
1772656090050937600,2.5569375,-0.0015286544803529978,-0.0033068470656871796,-0.00811864621937275
1772656090060920800,2.5669208984375,-0.00378967821598053,0.0014330470003187656,-0.0051630702801048756
1772656090070902800,2.57690283203125,-0.0006719155353493989,-0.0020865867845714092,-0.005504487548023462
1772656090080884700,2.586884765625,-0.004518851637840271,-0.0025417208671569824,-0.0065319351851940155
1772656090090867700,2.59686767578125,-0.003990747034549713,-0.0024674187880009413,-0.003582217963412404
1772656090100849700,2.606849609375,-0.0011076086666435003,-0.002516420790925622,-0.002808836055919528
1772656090110832600,2.61683251953125,-0.0007779093575663865,0.000046339002437889576,-0.003922570031136274
1772656090120814800,2.62681494140625,-0.001612011343240738,-0.00033422670094296336,-0.0060323262587189674
1772656090130797600,2.636797607421875,-0.0039047268219292164,-0.0006918892613612115,-0.003686081152409315
1772656090140779800,2.64677978515625,-0.0015297196805477142,-0.002594451420009136,-0.005392901133745909
1772656090150762800,2.6567626953125,-0.001136104459874332,-0.001415736391209066,-0.005255748517811298
1772656090160744700,2.66674462890625,-0.002049302449449897,-0.003936684690415859,-0.002915895078331232
1772656090170726700,2.6767265625,-0.0021904499735683203,-0.0009978864109143615,-0.005131911486387253
1772656090180710000,2.6867099609375,-0.002429868094623089,0.0013603427214547992,-0.004467719234526157
1772656090190691600,2.696691650390625,-0.004900216590613127,-0.00010093380114994943,-0.006386260036379099
1772656090200674800,2.7066748046875,-0.004448544234037399,-0.0011552792275324464,-0.006779342889785767
1772656090210656800,2.71665673828125,-0.0011470235185697675,-0.001207477180287242,-0.005916744936257601
1772656090220639700,2.7266396484375,-0.002885801251977682,-0.0025457157753407955,-0.003841609926894307
1772656090230621700,2.73662158203125,-0.004854143597185612,-0.0022530341520905495,-0.004656004719436169
1772656090240603600,2.746603759765625,-0.004278901033103466,-0.000041811628761934116,-0.005568403284996748
1772656090250586600,2.756586669921875,-0.0034991272259503603,-0.00024980452144518495,-0.006521814968436956
1772656090260568600,2.766568603515625,-0.002787797013297677,-0.0016889767721295357,-0.005257612559944391
1772656090270551800,2.7765517578125,-0.0012876383261755109,-0.0007334345718845725,-0.0038978024385869503
1772656090280533800,2.78653369140625,-0.003020557342097163,-0.00017017599020618945,-0.003973170183598995
1772656090290516700,2.796516845703125,-0.0013132047606632113,-0.0025182850658893585,-0.005606220569461584
1772656090300498700,2.806498779296875,-0.004041613079607487,-0.0022564963437616825,-0.00765765318647027
1772656090310481000,2.81648095703125,-0.0030309436842799187,-0.0007725830073468387,-0.004314321093261242
1772656090320463600,2.826463623046875,-0.0025662221014499664,-0.0015169365797191858,-0.006238454952836037
1772656090330445800,2.83644580078125,-0.0013108078856021166,-0.002508165081962943,-0.003442934714257717
1772656090340428800,2.8464287109375,-0.002401372417807579,-0.0022799321450293064,-0.004671717062592506
1772656090350410800,2.85641064453125,-0.0009970874525606632,-0.0007994809420779347,-0.0057257963344454765
1772656090360393700,2.866393798828125,-0.0025457157753407955,-0.0008647284121252596,-0.0029577065724879503
1772656090370375700,2.876375732421875,-0.003236273303627968,-0.0016586167039349675,-0.0038980687968432903
1772656090380357600,2.886357666015625,-0.002100701443850994,-0.0014056164072826505,-0.004732437431812286
1772656090390340900,2.8963408203125,-0.004449343308806419,-0.001847967505455017,-0.0012215919559821486
1772656090400322600,2.906322509765625,-0.00478516798466444,-0.0016223976854234934,-0.0020240023732185364
1772656090410305800,2.916305908203125,-0.0021497036796063185,-0.0006649913266301155,-0.00296303303912282
1772656090420287700,2.926287841796875,-0.0031518512405455112,-0.0019118833588436246,-0.004340952727943659
1772656090430270700,2.936270751953125,-0.004007791168987751,-0.0017981663113459945,-0.006433397997170687
1772656090440252700,2.946252685546875,-0.0027539748698472977,-0.0022186795249581337,-0.006259227637201548
1772656090450236000,2.95623583984375,-0.00315957423299551,-0.004329234827309847,-0.004847485572099686
1772656090460217600,2.966217529296875,-0.002814961364492774,-0.0014405038673430681,-0.006083991378545761
1772656090470199800,2.97619970703125,-0.004745486658066511,-0.0015568839153274894,-0.006402505561709404
1772656090480182500,2.9861826171875,-0.0021608888637274504,-0.0013723268639296293,-0.005256281234323978
1772656090490164700,2.996164794921875,-0.002329200739040971,-0.00061279337387532,-0.0057383133098483086
1772656090500147700,3.006147705078125,-0.00413482403382659,-0.002019208623096347,-0.0020303940400481224
1772656090510129700,3.016129638671875,-0.0008415589109063148,-0.0020415792241692543,-0.00589543953537941
1772656090520112600,3.026112548828125,-0.004156661685556173,-0.0003020024741999805,-0.004051999654620886
1772656090530094600,3.036094482421875,-0.004256263840943575,-0.001392300589941442,-0.004954012110829353
1772656090540076800,3.046076904296875,-0.0018101505702361465,-0.0023299995809793472,-0.004062385763972998
1772656090550059800,3.056059814453125,-0.001812014845199883,-0.0009286442655138671,-0.0028818065766245127
1772656090560041700,3.066041748046875,-0.0013411679537966847,0.000371777277905494,-0.0046213832683861256
1772656090570024700,3.076024658203125,-0.0037023264449089766,-0.0007182545377872884,-0.004450940992683172
1772656090580007000,3.0860068359375,-0.003427221905440092,0.00015579492901451886,-0.00740145705640316
1772656090589989600,3.09598974609375,-0.005120992194861174,-0.0010346380295231938,-0.008356200531125069
1772656090599971800,3.105971923828125,-0.0022450448013842106,0.0005938849062658846,-0.006882140878587961
1772656090609953500,3.11595361328125,-0.0027286747936159372,-0.0012322446564212441,-0.005617672111839056
1772656090619936800,3.125936767578125,-0.0009691243176348507,-0.0011837751371785998,-0.0038754320703446865
1772656090629918700,3.135918701171875,-0.001199221471324563,-0.0006487460341304541,-0.004519917070865631
1772656090639901700,3.145901611328125,-0.002424009144306183,-0.001663144095800817,-0.005328186322003603
1772656090649883600,3.155883544921875,-0.0036815537605434656,0.0001525991247035563,-0.0057412427850067616
1772656090659867000,3.165866943359375,-0.0034269557800143957,-0.0025563682429492474,-0.005300223361700773
1772656090669848600,3.1758486328125,-0.0027230822015553713,-0.00024101608141791075,-0.008499745279550552
1772656090679831800,3.185831787109375,-0.004863997455686331,0.0001246359315700829,-0.004274906124919653
1772656090689813500,3.1958134765625,-0.004027232062071562,0.00015686018741689622,-0.004602208733558655
1772656090699795700,3.205795654296875,-0.0026375947054475546,-0.005288771353662014,-0.008710134774446487
1772656090709778700,3.21577880859375,-0.0029233519453555346,-0.001725728390738368,-0.0032088428270071745
1772656090719760600,3.2257607421875,-0.002691656816750765,-0.0018940401496365666,-0.005554554983973503
1772656090729743600,3.23574365234375,-0.0012863067677244544,-0.0016021577175706625,-0.0041220407001674175
1772656090739725800,3.245725830078125,-0.0029356025625020266,-0.0011124024167656898,-0.004566255956888199
1772656090749708500,3.25570849609375,-0.0015970977256074548,-0.0005613943794742227,-0.0075876121409237385
1772656090759690800,3.265690673828125,-0.0041425470262765884,-0.00219524372369051,-0.005706089083105326
1772656090769672700,3.275672607421875,-0.003753991797566414,-0.004890629090368748,-0.0065287393517792225
1772656090779655700,3.28565576171875,-0.00392869533970952,-0.0003616572648752481,-0.003433080855756998
1772656090789638000,3.295637939453125,-0.003054911969229579,0.00020666129421442747,-0.003634948516264558
1772656090799620600,3.30562060546875,-0.003942809998989105,-0.0033814155030995607,-0.00523737259209156
1772656090809602800,3.315602783203125,-0.002264752285555005,-0.0009422263829037547,-0.006906908005475998
1772656090819585800,3.325585693359375,-0.004259992390871048,0.0014564828015863895,-0.007691741921007633
1772656090829567700,3.335567626953125,-0.004150536376982927,-0.001668736687861383,-0.005178783088922501
1772656090839549700,3.3455498046875,-0.003070358419790864,-0.000833036785479635,-0.003638677066192031
1772656090849533000,3.355532958984375,-0.004291417542845011,-0.0016881778137758374,-0.0031555795576423407
1772656090859514600,3.3655146484375,-0.0036661075428128242,-0.00004793690095539205,-0.005771602503955364
1772656090869497900,3.375497802734375,-0.000988032785244286,0.00009374327055411413,-0.003916711080819368
1772656090879479600,3.3854794921875,-0.0024791366886347532,-0.0024016385432332754,-0.002968625631183386
1772656090889460000,3.3954599609375,-0.0019438412273302674,-0.002609365154057741,-0.0027228158432990313
1772656090899441700,3.405441650390625,-0.003451456781476736,0.00002450108149787411,-0.006156429648399353
1772656090909423900,3.415423828125,-0.001231711939908564,-0.0020682108588516712,-0.005250421818345785
1772656090919406600,3.425406494140625,-0.0033518546260893345,-0.0010908307740464807,-0.003579022129997611
1772656090929388800,3.435388916015625,-0.003733751829713583,-0.002794188680127263,-0.004910869058221579
1772656090939371800,3.445371826171875,-0.0028445222415030003,0.0008098672842606902,-0.0065588331781327724
1772656090949353700,3.455353759765625,-0.004274639766663313,-0.002424808219075203,-0.00794207863509655
1772656090959336700,3.465336669921875,-0.002822684356942773,0.0001179780374513939,-0.0036509274505078793
1772656090969318700,3.475318603515625,-0.005604089703410864,-0.0016160061350092292,-0.004633900243788958
1772656090979301600,3.485301513671875,-0.00227806787006557,-0.0016596820205450058,-0.0049007488414645195
1772656090989283800,3.495283935546875,-0.0036171053070575,-0.0021752698812633753,-0.004354001954197884
1772656090999265800,3.505265869140625,-0.0033401367254555225,-0.0023073628544807434,-0.004195011220872402
1772656091009248800,3.515248779296875,-0.0033334787003695965,-0.0029609024059027433,-0.001925199176184833
1772656091019230700,3.525230712890625,-0.003691940102726221,-0.001871136948466301,-0.0032112395856529474
1772656091029213700,3.535213623046875,-0.0021046961192041636,-0.003852795111015439,-0.005343632772564888
1772656091039195600,3.545195556640625,-0.004788097459822893,-0.005789445713162422,-0.005702893249690533
1772656091049179000,3.555178955078125,-0.004708468914031982,-0.0011560781858861446,-0.0070741549134254456
1772656091059160800,3.565160888671875,-0.004421912599354982,-0.0010247844038531184,-0.004129763692617416
1772656091069143800,3.575143798828125,-0.003194994293153286,0.0002745719102676958,-0.00515774404630065
1772656091079125800,3.585125732421875,-0.004159857518970966,-0.0032232238445430994,-0.006925816647708416
1772656091089107700,3.595107666015625,-0.003085272153839469,-0.0032059133518487215,-0.004791026934981346
1772656091099090700,3.605090576171875,-0.002965163439512253,-0.00304692261852324,-0.003981692250818014
1772656091109072600,3.61507275390625,-0.0017595505341887474,-0.002898584585636854,-0.004856273997575045
1772656091119056000,3.625055908203125,-0.000059388490626588464,-0.0015510249650105834,-0.0057068876922130585
1772656091129037600,3.63503759765625,-0.0023726101499050856,-0.0016282566357403994,-0.00443895673379302
1772656091139020800,3.645020751953125,-0.00024181502521969378,-0.0016793893883004785,-0.007195594720542431
1772656091149002800,3.655002685546875,-0.004686098080128431,-0.00003728425508597866,-0.007000918034464121
1772656091158984700,3.664984619140625,-0.003591272747144103,-0.0015843145083636045,-0.0028666264843195677
1772656091168967700,3.6749677734375,-0.003495398908853531,-0.0006945523782633245,-0.0060355220921337605
1772656091178950000,3.684949951171875,-0.0024985778145492077,-0.003293264890089631,-0.003477822057902813
1772656091188932600,3.6949326171875,-0.0035049861762672663,-0.0036706349346786737,-0.0033427998423576355
1772656091198914800,3.704914794921875,-0.00173717993311584,-0.002545981900766492,-0.00618306128308177
1772656091208897800,3.714897705078125,-0.004453337751328945,-0.0010817759903147817,-0.00609437795355916
1772656091218879700,3.724879638671875,-0.002383262850344181,0.0014618091518059373,-0.005299424286931753
1772656091228862700,3.73486279296875,-0.0033249566331505775,-0.00009560748003423214,-0.004800347611308098
1772656091238844700,3.7448447265625,-0.003609115956351161,-0.0034903388004750013,-0.006777478381991386
1772656091248826600,3.75482666015625,-0.002918291836977005,-0.001537709147669375,-0.003974767867475748
1772656091258809900,3.764809814453125,-0.002017078222706914,-0.0023971113841980696,-0.0033446638844907284
1772656091268791600,3.77479150390625,-0.004576109815388918,0.00015952334797475487,-0.006419016979634762
1772656091278774800,3.78477490234375,-0.0035388083197176456,-0.0012245214311406016,-0.00672288378700614
1772656091288756700,3.7947568359375,-0.00421285443007946,-0.0010942928493022919,-0.004565190523862839
1772656091298739700,3.80473974609375,-0.002326537622138858,0.0012301141396164894,-0.006031793542206287
1772656091308721700,3.8147216796875,-0.0006942860782146454,-0.0008309062686748803,-0.006611830089241266
1772656091318703600,3.82470361328125,-0.004541488364338875,-0.0011891013709828258,-0.0035577169619500637
1772656091328686600,3.8346865234375,-0.00401631323620677,-0.00247567449696362,-0.0057191383093595505
1772656091338668800,3.844668701171875,-0.0023073628544807434,-0.003641606541350484,-0.0033041839487850666
1772656091348651500,3.854651611328125,-0.001213602488860488,-0.0007073355955071747,-0.007796670310199261
1772656091358633700,3.8646337890625,-0.002344380598515272,-0.002975017298012972,-0.004160390235483646
1772656091368616700,3.87461669921875,-0.0023427826818078756,-0.002668221015483141,-0.004090082831680775
1772656091378598700,3.8845986328125,-0.0037651772145181894,-0.0026791400741785765,-0.0028037759475409985
1772656091388580900,3.894580810546875,-0.0035417377948760986,-0.0017576862592250109,-0.003479952458292246
1772656091398563600,3.9045634765625,-0.0002998719282913953,-0.004031759686768055,-0.004766792058944702
1772656091408545800,3.9145458984375,-0.0029198897536844015,-0.0026959178503602743,-0.007004113402217627
1772656091418528800,3.92452880859375,-0.0020969731267541647,-0.003771835006773472,-0.005717274267226458
1772656091428510700,3.9345107421875,-0.004316984210163355,-0.0023102923296391964,-0.002103364560753107
1772656091438493700,3.94449365234375,-0.003165965899825096,-0.0017323862994089723,-0.0033933997619897127
1772656091448476000,3.954475830078125,-0.0030623688362538815,0.0003225088003091514,-0.0036695697344839573
1772656091458458600,3.964458740234375,-0.0027414578944444656,-0.000773381965700537,-0.00558145297691226
1772656091468440800,3.97444091796875,-0.0026040389202535152,-0.0019433086272329092,-0.006956176832318306
1772656091478420700,3.984420654296875,-0.0043308325111866,-0.0013113404856994748,-0.006570551078766584
1772656091488403700,3.99440380859375,-0.004083424806594849,0.00041518680518493056,-0.005307147279381752
1772656091498385700,4.0043857421875,-0.003364371368661523,-0.0023156185634434223,-0.0054578823037445545
1772656091508368000,4.014367919921875,-0.0037920749746263027,-0.0014767227694392204,-0.005776662845164537
1772656091518350800,4.024350830078125,-0.0020666129421442747,-0.0017781927017495036,-0.005285309627652168
1772656091528332800,4.034332763671875,-0.0022306637838482857,-0.00009560748003423214,-0.0051809134893119335
1772656091538315800,4.044315673828125,-0.0027017768006771803,-0.000570981705095619,-0.0036884781438857317
1772656091548297700,4.054297607421875,-0.0033712955191731453,-0.00005832322858623229,-0.004893824923783541
1772656091558280700,4.06428076171875,-0.0029441246297210455,-0.0011768508702516556,-0.0065324679017066956
1772656091568263000,4.074262939453125,-0.0006034722900949419,-0.000964064325671643,-0.0059841228649020195
1772656091578244600,4.08424462890625,-0.0024825986474752426,-0.0009930927772074938,-0.004289553500711918
1772656091588227800,4.094227783203125,-0.002739860210567713,-0.0026077672373503447,-0.004570250865072012
1772656091598209500,4.10420947265625,-0.00373082235455513,0.0027236149180680513,-0.002796585438773036
1772656091608192800,4.11419287109375,-0.003931624814867973,-0.00045593318645842373,-0.0035483958199620247
1772656091618174700,4.1241748046875,-0.0043657198548316956,-0.0010615360224619508,-0.0016684704460203648
1772656091628157700,4.13415771484375,-0.0065167550928890705,-0.0027244137600064278,-0.003369963960722089
1772656091638139600,4.1441396484375,-0.005293565336614847,-0.003311374457553029,-0.004140949342399836
1772656091648123000,4.154122802734375,-0.005936718545854092,-0.002237854292616248,-0.0035902075469493866
1772656091658104600,4.1641044921875,-0.005253884010016918,-0.000711064029019326,-0.005513275973498821
1772656091668086800,4.174086669921875,-0.0031398669816553593,-0.0017979000695049763,-0.003668770659714937
1772656091678069800,4.18406982421875,-0.002141714096069336,-0.0022570290602743626,-0.005530053749680519
1772656091688051700,4.1940517578125,-0.004244279582053423,-0.003581685246899724,-0.005538842175155878
1772656091698034700,4.20403466796875,-0.0019148128340020776,-0.0032410670537501574,-0.00520754512399435
1772656091708016600,4.2140166015625,-0.004933505784720182,-0.0002798982313834131,-0.006442452780902386
1772656091717999600,4.22399951171875,-0.004606469534337521,-0.002781671704724431,-0.00390312890522182
1772656091727981800,4.23398193359375,-0.0031939290929585695,-0.0025600967928767204,-0.004169711377471685
1772656091737963800,4.2439638671875,-0.0016500946367159486,-0.0006242449744604528,-0.005613410845398903
1772656091747946800,4.25394677734375,-0.004107926040887833,-0.002030926523730159,-0.004835235420614481
1772656091757929000,4.263928955078125,-0.004854942671954632,-0.00008362325752386823,-0.0031193606555461884
1772656091767911700,4.27391162109375,-0.0035025894176214933,-0.00020932445477228612,-0.005008340813219547
1772656091777894000,4.283893798828125,-0.002654106356203556,-0.0017273263074457645,-0.004284759983420372
1772656091787876900,4.293876953125,-0.0038924762047827244,-0.0017262609908357263,-0.004437359049916267
1772656091797858800,4.30385888671875,-0.0022716764360666275,-0.0022479742765426636,-0.004281297791749239
1772656091807841800,4.313841796875,-0.004723382648080587,-0.001871136948466301,-0.005538576282560825
1772656091817823700,4.32382373046875,-0.004559864290058613,0.00016431703988928348,-0.004715659189969301
1772656091827805700,4.3338056640625,-0.0031971249263733625,-0.002231728984043002,-0.004554538056254387
1772656091837789000,4.343788818359375,-0.00256355875171721,-0.001725728390738368,-0.00567093538120389
1772656091847770600,4.3537705078125,-0.002098038326948881,-0.00044341632747091353,-0.004220843780785799
1772656091857753900,4.36375390625,-0.0031489215325564146,-0.0003664509567897767,-0.0046852994710206985
1772656091867735600,4.373735595703125,-0.0009052084642462432,-0.003231213428080082,-0.005053082015365362
1772656091877718800,4.38371875,-0.0019433086272329092,-0.0014927018200978637,-0.007023554760962725
1772656091887700700,4.39370068359375,-0.0009504822082817554,-0.001312405802309513,-0.005231513641774654
1772656091897683200,4.40368310546875,-0.003141997382044792,-0.002624278888106346,-0.006056561134755611
1772656091907666200,4.413666259765625,-0.00455693481490016,-0.0008910936885513365,-0.003871171036735177
1772656091917648400,4.4236484375,-0.0028964539524167776,-0.0020873856265097857,-0.004180363845080137
1772656091927631000,4.433631103515625,-0.0005853627808392048,-0.0031414648983627558,-0.0057103498838841915
1772656091937613300,4.44361328125,-0.0024716798216104507,-0.0021350563038140535,-0.004710066597908735
1772656091947596300,4.45359619140625,-0.0033505228348076344,-0.0022277343086898327,-0.0062246061861515045
1772656091957578200,4.463578125,-0.0044352286495268345,-0.0011848403373733163,-0.008534632623195648
1772656091967560200,4.473560302734375,-0.002683667466044426,-0.0007227819296531379,-0.004128965083509684
1772656091977543200,4.483543212890625,-0.0036932716611772776,-0.002484462922438979,-0.007108243182301521
1772656091987525000,4.493525146484375,-0.0017931063193827868,0.0004924184759147465,-0.005387574899941683
1772656091997508400,4.50350830078125,-0.0028597023338079453,-0.005067196674644947,-0.00577852688729763
1772656092007490000,4.513489990234375,-0.0028037759475409985,-0.0015608787070959806,-0.0050099384970963
1772656092017473300,4.523473388671875,-0.002847185591235757,-0.002650644164532423,-0.006086121778935194
1772656092027455200,4.533455322265625,-0.002921221312135458,-0.0023872575256973505,-0.004180630203336477
1772656092037437200,4.543437255859375,-0.004316717851907015,-0.0012546151410788298,-0.003201385959982872
1772656092047420200,4.553420166015625,-0.002838397165760398,-0.0031182952225208282,-0.0031827439088374376
1772656092057402000,4.563402099609375,-0.006256564520299435,-0.0016684704460203648,-0.003712712787091732
1772656092067385000,4.573385009765625,-0.00162399560213089,-0.002590723102912307,-0.005239769350737333
1772656092077367300,4.5833671875,-0.001674861996434629,-0.004352404270321131,-0.005405151750892401
1772656092087350000,4.59335009765625,-0.0005568669876083732,-0.001958488719537854,-0.0046208505518734455
1772656092097332200,4.603332275390625,-0.0006759102689102292,-0.0013539510546252131,-0.004708202555775642
1772656092107315200,4.613315185546875,-0.0037199032958596945,-0.003044259501621127,-0.005269064102321863
1772656092117297200,4.623297119140625,-0.004236290231347084,-0.0001781654718797654,-0.004070109222084284
1772656092127279400,4.633279296875,-0.003829625668004155,-0.0014921691035851836,-0.0036458675749599934
1772656092137262300,4.643262451171875,-0.003719637170433998,-0.0008663262706249952,-0.003597131697461009
1772656092147244300,4.653244384765625,-0.004227235447615385,0.0002593918761704117,-0.00758015550673008
1772656092157227300,4.663227294921875,-0.003780623432248831,-0.0014900385867804289,-0.004070109222084284
1772656092167209200,4.673209228515625,-0.003379285102710128,-0.0006588660762645304,-0.0019265307346358895
1772656092177192200,4.683192138671875,-0.0022572954185307026,-0.0002681803307496011,-0.004537493921816349
1772656092187174400,4.69317431640625,-0.00407516909763217,-0.00166580721270293,-0.006873885169625282
1772656092197157000,4.7031572265625,-0.00449994346126914,0.0006748450105078518,-0.0043779704719781876
1772656092207139300,4.713139404296875,-0.0011739213950932026,-0.0005400890368036926,-0.005585980135947466
1772656092217121000,4.72312109375,-0.001600293442606926,-0.002752909669652581,-0.0028445222415030003
1772656092227104300,4.733104248046875,-0.002531334524974227,-0.003010703483596444,-0.004023503512144089
1772656092237086200,4.743086181640625,-0.0020301276817917824,-0.00009880327706923708,-0.004820588044822216
1772656092247069200,4.753069091796875,-0.0020389161072671413,-0.0015624766238033772,-0.005196892656385899
1772656092257051100,4.763051025390625,-0.003209375310689211,-0.0009121326729655266,-0.0029888655990362167
1772656092267034400,4.773034423828125,-0.004551874939352274,0.00041864890954457223,-0.004198473412543535
1772656092277016000,4.78301611328125,-0.0026756778825074434,-0.00216488353908062,-0.0076158419251441956
1772656092286999300,4.792999267578125,-0.002692722249776125,-0.0034533210564404726,-0.004023237619549036
1772656092296981200,4.802981201171875,-0.00421418622136116,-0.004172108136117458,-0.005480785388499498
1772656092306963200,4.812963134765625,-0.00213532242923975,-0.0030770162120461464,-0.003094060579314828
1772656092316946200,4.8229462890625,-0.002632800955325365,-0.0030421288684010506,-0.003891144646331668
1772656092326928100,4.83292822265625,-0.0034416031558066607,-0.001579787116497755,-0.005218463949859142
1772656092336911000,4.8429111328125,-0.0010274475207552314,-0.0033340114168822765,-0.005562544334679842
1772656092346893300,4.852893310546875,-0.003260508179664612,-0.0003028014034498483,-0.005538043566048145
1772656092356876000,4.8628759765625,-0.0027137610595673323,-0.001927595934830606,-0.0059873186983168125
1772656092366858200,4.872858154296875,-0.005319397896528244,-0.0025366609916090965,-0.006040848325937986
1772656092376840200,4.882840087890625,-0.0038402783684432507,-0.0006476807757280767,-0.007536745630204678
1772656092386823200,4.8928232421875,-0.0017339842161163688,-0.0017603494925424457,-0.00475320965051651
1772656092396805400,4.902805419921875,-0.0006719155353493989,0.0001954760227818042,-0.005525260232388973
1772656092406788400,4.912788330078125,-0.0041425470262765884,-0.002073803450912237,-0.004459729418158531
1772656092416770300,4.922770263671875,-0.002513491315767169,-0.0021515677217394114,-0.00484349112957716
1772656092426753300,4.932753173828125,-0.004223507363349199,-0.0004900216590613127,-0.006440056022256613
1772656092436735200,4.9427353515625,-0.003591539105400443,0.0003944141499232501,-0.002835201332345605
1772656092446718200,4.95271826171875,-0.004063983913511038,0.0015014902455732226,-0.004515123087912798
1772656092456700400,4.962700439453125,-0.003824033075943589,-0.002415753435343504,-0.0028628981672227383
1772656092466682000,4.97268212890625,-0.0020248014479875565,-0.002403502818197012,-0.005458681378513575
1772656092476665300,4.982665283203125,-0.0023299995809793472,-0.002037318190559745,-0.006959372665733099
1772656092486647000,4.99264697265625,-0.0026754115242511034,-0.00013981595111545175,-0.004418450407683849
1772656092496630300,5.00263037109375,-0.0027952538803219795,-0.0005643238546326756,-0.007458448875695467
1772656092506612200,5.0126123046875,-0.004564924165606499,-0.0010002832859754562,-0.0029619678389281034
1772656092516595200,5.02259521484375,-0.004533232655376196,-0.0022053637076169252,-0.004508199170231819
1772656092526577200,5.0325771484375,-0.0049494849517941475,0.0009382316493429244,-0.004024568945169449
1772656092536560400,5.042560302734375,-0.002537992550060153,-0.0023305322974920273,-0.003507649526000023
1772656092546542000,5.0525419921875,-0.0022631543688476086,-0.0016951019642874599,-0.003822967642918229
1772656092556524300,5.062524169921875,-0.004555869847536087,-0.0019206717843189836,-0.0011012171162292361
1772656092566507300,5.07250732421875,-0.002939330879598856,-0.0010657970560714602,-0.004350007511675358
1772656092576489200,5.0824892578125,-0.0009142631897702813,-0.0026607641484588385,-0.005811283830553293
1772656092586472200,5.09247216796875,-0.003698598127812147,-0.0015283881220966578,-0.0019656792283058167
1772656092596454100,5.1024541015625,-0.003276220755651593,-0.0005613943794742227,-0.0038890140131115913
1772656092606437000,5.11243701171875,-0.001984587637707591,-0.0015536881983280182,-0.005390504375100136
1772656092616419300,5.12241943359375,-0.002814162289723754,0.00020879182557109743,-0.004027232062071562
1772656092626402000,5.132402099609375,-0.0031880701426416636,-0.003233876544982195,-0.00675217853859067
1772656092636384300,5.14238427734375,-0.0027276095934212208,-0.002666090615093708,-0.00506799528375268
1772656092646366200,5.1523662109375,-0.0012042814632877707,-0.001651159836910665,-0.005817675497382879
1772656092656349200,5.16234912109375,-0.002266616327688098,-0.0027254789602011442,-0.0029822078067809343
1772656092666331400,5.172331298828125,-0.0005158542771823704,-0.0033164345659315586,-0.0035744947381317616
1772656092676314000,5.182314208984375,-0.0017275925492867827,-0.003582484321668744,-0.002757703186944127
1772656092686296300,5.19229638671875,-0.002959837205708027,-0.001253017340786755,-0.005142031237483025
1772656092696279300,5.202279296875,-0.0027835359796881676,-0.0037768951151520014,-0.004614725708961487
1772656092706261200,5.21226123046875,-0.003228283952921629,0.00008708536915946752,-0.003838147735223174
1772656092716243200,5.2222431640625,-0.0027803401462733746,-0.0016263924771919847,-0.004907673224806786
1772656092726226400,5.232226318359375,-0.00358781055547297,-0.00041998049709945917,-0.006130064371973276
1772656092736208100,5.2422080078125,-0.0030091057997196913,-0.002491120947524905,-0.005200887098908424
1772656092746191400,5.25219140625,-0.0035153725184500217,-0.0014713965356349945,-0.003763579297810793
1772656092756173000,5.262173095703125,-0.0020844561513513327,-0.0006716492353007197,-0.005218197591602802
1772656092766156300,5.27215625,-0.0023281353060156107,-0.0001656486128922552,-0.005118329077959061
1772656092776138200,5.28213818359375,-0.004001399502158165,-0.0036373452749103308,-0.0038040592335164547
1772656092786121200,5.292121337890625,-0.0035289546940475702,-0.002813895931467414,-0.0017385114915668964
1772656092796103200,5.302103271484375,-0.0014181332662701607,-0.0006916229031048715,-0.005203550215810537
1772656092806085400,5.31208544921875,-0.0033534523099660873,-0.001076982356607914,-0.004262122791260481
1772656092816068000,5.322068115234375,-0.0020865867845714092,0.00045673211570829153,-0.0035095135681331158
1772656092826050300,5.33205029296875,-0.004375840071588755,0.00006684534309897572,-0.005883721634745598
1772656092836033300,5.342033203125,-0.0028005801141262054,-0.0006679208017885685,-0.005089833401143551
1772656092846015200,5.35201513671875,-0.003632019041106105,-0.0018748653819784522,-0.0019017633749172091
1772656092855998200,5.361998291015625,-0.0046482812613248825,0.0006048039067536592,-0.006685599684715271
1772656092865980200,5.371980224609375,-0.002064748667180538,-0.0033723609521985054,-0.001841575838625431
1772656092875963100,5.381963134765625,-0.003564374754205346,0.00001704423084447626,-0.00643819198012352
1772656092885945300,5.3919453125,-0.005140433553606272,0.0003510046226438135,-0.0034466630313545465
1772656092895927000,5.401927001953125,-0.0037015276029706,-0.0006210491410456598,-0.005047223065048456
1772656092905910000,5.411909912109375,-0.003135872073471546,-0.0012237224727869034,-0.001975799212232232
1772656092915892000,5.42189208984375,-0.002834135899320245,-0.003687146585434675,-0.005316468421369791
1772656092925875000,5.431875,-0.00446825148537755,-0.0025683525018393993,-0.003840810852125287
1772656092935857000,5.44185693359375,-0.0020999026019126177,-0.0026258768048137426,-0.005401156842708588
1772656092945839900,5.45183984375,-0.0021433120127767324,-0.000815193576272577,-0.004059189930558205
1772656092955822000,5.461822021484375,-0.002674612682312727,-0.0020967067684978247,-0.006443784572184086
1772656092965803800,5.4718037109375,-0.0020695424173027277,-0.00061279337387532,-0.006488259416073561
1772656092975787000,5.481787109375,-0.00336090917699039,-0.003486344125121832,-0.005733785685151815
1772656092985768700,5.491768798828125,-0.003288205014541745,-0.0013749900972470641,-0.003875964554026723
1772656092995752000,5.501751953125,-0.00355878216214478,-0.0034943337086588144,-0.004603540059179068
1772656093005734000,5.51173388671875,-0.0016407734947279096,-0.0016104135429486632,-0.0019036275334656239
1772656093015716900,5.521716796875,-0.002401372417807579,-0.0031073763966560364,-0.005745769944041967
1772656093025698800,5.53169873046875,-0.004060255363583565,-0.0023331954143941402,-0.00341603672131896
1772656093035682000,5.54168212890625,0.000021305288100847974,-0.000592020689509809,-0.004267715383321047
1772656093045663700,5.551663818359375,-0.002341451123356819,0.000046871635277057067,-0.004845088813453913
1772656093055646000,5.56164599609375,-0.004028830211609602,-0.002430667169392109,-0.003228283952921629
1772656093065629000,5.57162890625,-0.0030453247018158436,-0.00012490226072259247,-0.004210724029690027
1772656093075611000,5.58161083984375,-0.002368615474551916,-0.004053330980241299,-0.005765477195382118
1772656093085593900,5.59159375,-0.0030887341126799583,-0.0008295746520161629,-0.00387383415363729
1772656093095575800,5.601575927734375,-0.0033246902748942375,-0.0020189424976706505,-0.005060538649559021
1772656093105558800,5.611558837890625,-0.0012325108982622623,-0.0016255935188382864,-0.004202201962471008
1772656093115541000,5.621541015625,-0.001208009896799922,-0.0006767092272639275,-0.005818740464746952
1772656093125523700,5.631523681640625,-0.0035089810844510794,-0.002490055514499545,-0.0038714371621608734
1772656093135506000,5.641505859375,-0.003066896228119731,-0.004432565066963434,-0.003385144053027034
1772656093145488000,5.65148779296875,-0.0041007352992892265,0.0008436894277110696,-0.004110589157789946
1772656093155470800,5.661470947265625,-0.0012684636749327183,-0.0025827335193753242,-0.006791859865188599
1772656093165453000,5.671453125,-0.0036693033762276173,-0.0026351979468017817,-0.005009139887988567
1772656093175435800,5.681435791015625,-0.002668221015483141,-0.0008111988427117467,-0.0018666095566004515
1772656093185418000,5.69141796875,-0.003344131400808692,-0.0006282397080212831,-0.0029313412960618734
1772656093195401000,5.70140087890625,-0.004704474005848169,-0.0036418726667761803,-0.005886118393391371
1772656093205383000,5.7113828125,-0.003608050523325801,-0.00015952334797475487,-0.007114368490874767
1772656093215366000,5.721365966796875,-0.004006193019449711,0.0010080065112560987,-0.0054637412540614605
1772656093225348000,5.73134814453125,-0.0035055188927799463,-0.0009315737406723201,-0.0024804682470858097
1772656093235329800,5.741329833984375,-0.0026138925459235907,-0.006726878695189953,-0.004576376173645258
1772656093245313000,5.75131298828125,-0.00455746753141284,-0.002373941708356142,-0.003716441337019205
1772656093255294700,5.761294677734375,-0.004274373408406973,-0.0019121496006846428,-0.003343598684296012
1772656093265278000,5.77127783203125,-0.002621083054691553,-0.00430127140134573,-0.003870904678478837
1772656093275260000,5.781260009765625,-0.004551075864583254,-0.0024642229545861483,-0.006658168975263834
1772656093285243000,5.791242919921875,-0.003034672001376748,-0.0034226945135742426,-0.0040735709480941296
1772656093295224800,5.801224853515625,-0.001088966615498066,-0.0012578109744936228,-0.004539357963949442
1772656093305208000,5.8112080078125,-0.003852795111015439,-0.00250603468157351,-0.006970557849854231
1772656093315189800,5.821189697265625,-0.006688262801617384,-0.002889529801905155,-0.003683684393763542
1772656093325172000,5.831171875,-0.0018812569323927164,-0.002424009144306183,-0.00455800024792552
1772656093335155000,5.841155029296875,-0.0032208270858973265,-0.002377137541770935,-0.005486910697072744
1772656093345137000,5.851136962890625,-0.002715625334531069,-0.00048070057528093457,-0.0036634444259107113
1772656093355119900,5.861119873046875,-0.004108725115656853,-0.0016410398529842496,-0.0034844798501580954
1772656093365101800,5.871101806640625,-0.002412024885416031,-0.0009803095599636436,-0.004795554094016552
1772656093375084800,5.881084716796875,-0.003973436541855335,0.00009827064059209079,-0.004288222175091505
1772656093385067000,5.89106689453125,-0.004571049474179745,-0.000979244359768927,-0.006393184419721365
1772656093395049700,5.9010498046875,-0.003931891173124313,-0.0017651431262493134,-0.006246710661798716
1772656093405032000,5.911031982421875,-0.0016263924771919847,-0.0013765880139544606,-0.0011488876771181822
1772656093415014000,5.921013916015625,-0.0014117417158558965,-0.0015185344964265823,-0.0038661109283566475
1772656093424996900,5.930996826171875,-0.00296303303912282,-0.0012367720482870936,-0.007092530373483896
1772656093434979000,5.94097900390625,-0.00119602563790977,-0.002065015025436878,-0.005061604082584381
1772656093444961800,5.9509619140625,-0.00250496924854815,-0.0010458233300596476,-0.00629012007266283
1772656093454944000,5.960944091796875,-0.0018048242200165987,-0.0001584580895723775,-0.003525226376950741
1772656093464927000,5.970927001953125,-0.0005675196298398077,-0.0007600661483593285,-0.00520647969096899
1772656093474909000,5.980908935546875,-0.001710548298433423,-0.0018192053539678454,-0.007709318771958351
1772656093484892000,5.990891845703125,-0.0007877630414441228,-0.0014711301773786545,-0.005790511146187782
1772656093494874000,6.0008740234375,-0.0025691515766084194,-0.0006468818173743784,-0.005887183826416731
1772656093504855800,6.010855712890625,-0.003213636577129364,-0.001484179636463523,-0.0036661075428128242
1772656093514839000,6.020839111328125,-0.0028304075822234154,0.00046578687033616006,-0.006046174559742212
1772656093524820700,6.03082080078125,-0.004337490536272526,-0.0027712853625416756,-0.0041550640016794205
1772656093534804000,6.040803955078125,-0.0016365124611184,-0.0017385114915668964,-0.004503671545535326
1772656093544786000,6.050785888671875,-0.0015307849971577525,-0.0021941782906651497,-0.006098106037825346
1772656093554769000,6.060768798828125,-0.003471696749329567,-0.0016937704058364034,-0.007860319688916206
1772656093564750800,6.070750732421875,-0.002487392397597432,-0.000987766426987946,-0.003139334265142679
1772656093574734000,6.080734130859375,-0.004760666750371456,-0.001933721243403852,-0.007683752104640007
1772656093584715800,6.0907158203125,-0.0022477079182863235,-0.0006735134520567954,-0.0038874163292348385
1772656093594698000,6.100697998046875,-0.003501790575683117,-0.0028937908355146646,-0.004991562571376562
1772656093604681000,6.110680908203125,-0.004512193612754345,-0.0008442220860160887,-0.00507065886631608
1772656093614663000,6.120662841796875,-0.002130795270204544,-0.003522563260048628,-0.003366768127307296
1772656093624646000,6.13064599609375,0.00025779398856684566,-0.002540655666962266,-0.006893059704452753
1772656093634627800,6.1406279296875,-0.0021457087714225054,0.0024493092205375433,-0.005335643421858549
1772656093644610800,6.15061083984375,-0.0032676986884325743,-0.0020596887916326523,-0.003897003596648574
1772656093654593000,6.160593017578125,-0.003439472522586584,-0.001386707997880876,-0.0041247038170695305
1772656093664575000,6.170574951171875,-0.0035180358681827784,-0.002674346324056387,-0.00680144689977169
1772656093674558000,6.180557861328125,-0.0041734399273991585,-0.0008226504432968795,-0.00538464542478323
1772656093684540000,6.190539794921875,-0.002781405346468091,-0.0032061797101050615,-0.004810467828065157
1772656093694523000,6.20052294921875,-0.0035084483679383993,-0.0008551410282962024,-0.005376123357564211
1772656093704505000,6.210505126953125,-0.002083124592900276,-0.0011259844759479165,-0.003748665563762188
1772656093714487800,6.22048779296875,-0.003156378399580717,-0.0021872541401535273,-0.005662412848323584
1772656093724470000,6.230469970703125,-0.002338788006454706,-0.0023393207229673862,-0.005424859002232552
1772656093734453000,6.240452880859375,-0.003459978848695755,-0.004741758108139038,-0.0051992894150316715
1772656093744435000,6.25043505859375,-0.002817358123138547,0.00021358551748562604,-0.004052532371133566
1772656093754417000,6.2604169921875,-0.0025627599097788334,-0.0016357135027647018,-0.004343882203102112
1772656093764400000,6.270400146484375,-0.0036554548423737288,0.00035952674807049334,-0.0057191383093595505
1772656093774381800,6.2803818359375,-0.0018162758788093925,-0.0008066715090535581,-0.0027561055030673742
1772656093784365000,6.290364990234375,-0.0059753344394266605,-0.0011478224769234657,-0.004037884995341301
1772656093794346800,6.3003466796875,-0.003168096300214529,-0.0008551410282962024,-0.0062395199202001095
1772656093804330000,6.310330078125,-0.0019912454299628735,-0.0014927018200978637,-0.002523345174267888
1772656093814312000,6.32031201171875,-0.00475347600877285,-0.0018013621447607875,-0.0057444386184215546
1772656093824295000,6.330294921875,-0.007101851515471935,-0.0032977922819554806,-0.0032983249984681606
1772656093834276900,6.34027685546875,-0.0016295883106067777,-0.0014346449170261621,-0.004858937580138445
1772656093844260000,6.350260009765625,-0.0025425199419260025,-0.0035092474427074194,-0.005285309627652168
1772656093854241800,6.36024169921875,-0.002147306688129902,-0.002382996492087841,-0.0033217607997357845
1772656093864224000,6.37022412109375,-0.004091148264706135,-0.0033662356436252594,-0.0057194046676158905
1772656093874206700,6.380206787109375,-0.00307675008662045,-0.0015654060989618301,-0.004436293616890907
1772656093884189000,6.39018896484375,-0.005091963801532984,-0.000222373942960985,-0.0044352286495268345
1772656093894172700,6.400172607421875,-0.002624278888106346,-0.002228799508884549,-0.005916744936257601
1772656093904154600,6.410154541015625,-0.004086886998265982,-0.001264202524907887,-0.0027771443128585815
1772656093914137600,6.4201376953125,-0.0020604876335710287,-0.0017379788914695382,-0.004020574036985636
1772656093924119800,6.430119873046875,-0.002585396869108081,-0.0007038734620437026,-0.005381449591368437
1772656093934101500,6.4401015625,-0.0035028557758778334,-0.003689543344080448,-0.005857622716575861
1772656093944084700,6.450084716796875,-0.004328702110797167,-0.002383795566856861,-0.004448011517524719
1772656093954066400,6.46006640625,-0.00452710734680295,-0.00063356600003317,-0.003620034782215953
1772656093964049700,6.470049560546875,-0.001817341079004109,-0.002793655963614583,-0.005770004820078611
1772656093974031600,6.480031494140625,-0.0018634138396009803,-0.0027174896094948053,-0.0028535770252346992
1772656093984014600,6.4900146484375,-0.002901514060795307,-0.004058391321450472,-0.009104815311729908
1772656093993996500,6.49999658203125,-0.0018239989876747131,-0.00009693906031316146,-0.003945206757634878
1772656094003979800,6.509979736328125,-0.0028730181511491537,-0.0006886934279464185,-0.0057348511181771755
1772656094013961500,6.51996142578125,-0.001981125446036458,-0.003451190423220396,-0.002430933527648449
1772656094023943700,6.529943603515625,-0.00395745737478137,-0.0015102786710485816,-0.003840544493868947
1772656094033926700,6.5399267578125,-0.002644785214215517,-0.0014559502014890313,-0.0017728663515299559
1772656094043908600,6.54990869140625,0.00010759170982055366,-0.0024977787397801876,-0.00478543434292078
1772656094053891600,6.5598916015625,-0.004428037907928228,-0.0024807346053421497,-0.005667206831276417
1772656094063873500,6.56987353515625,-0.003308711340650916,-0.0009859022684395313,-0.0037643781397491693
1772656094073856500,6.5798564453125,-0.0020485036075115204,-0.002501773415133357,-0.004560663364827633
1772656094083838700,6.589838623046875,-0.002380866091698408,-0.001973402453586459,-0.007422762457281351
1772656094093821400,6.599821533203125,-0.0018530274974182248,-0.0015001586871221662,-0.0033779535442590714
1772656094103803600,6.6098037109375,-0.002838130807504058,-0.000675377668812871,-0.005077849142253399
1772656094113785600,6.61978564453125,-0.002916161436587572,-0.003528155852109194,-0.007212905213236809
1772656094123768600,6.6297685546875,-0.005278917960822582,0.00005619269722956233,-0.0036394759081304073
1772656094133750800,6.639750732421875,-0.0019973707385361195,-0.0017337178578600287,-0.003050118451938033
1772656094143733500,6.6497333984375,-0.003014165675267577,-0.0014375743921846151,-0.005823268089443445
1772656094153715700,6.6597158203125,-0.002728142309933901,-0.0014173343079164624,-0.002906307578086853
1772656094163698700,6.66969873046875,-0.003079146845266223,-0.00264771468937397,-0.0032839439809322357
1772656094173680600,6.6796806640625,-0.004519117996096611,-0.0013467605458572507,-0.005804625805467367
1772656094183663600,6.68966357421875,-0.0029976540245115757,-0.0014322480419650674,-0.003979295492172241
1772656094193645800,6.699645751953125,-0.002239984693005681,-0.002350239548832178,-0.007119428366422653
1772656094203627500,6.70962744140625,-0.00484162662178278,0.000036751622246811166,-0.003200853243470192
1772656094213610800,6.71961083984375,-0.0010309095960110426,0.0008050735923461616,-0.004286091309040785
1772656094223592400,6.729592529296875,-0.002269545802846551,-0.0007046724203974009,-0.003802194958552718
1772656094233575700,6.73957568359375,-0.0027204190846532583,-0.000003994741746282671,-0.004337756894528866
1772656094243557600,6.7495576171875,-0.0023182816803455353,-0.00022849922243040055,-0.004038151353597641
1772656094253540600,6.75954052734375,-0.0017915084026753902,-0.0035361452028155327,-0.0032682311721146107
1772656094263522600,6.7695224609375,-0.003951332066208124,-0.000716922979336232,-0.006415821146219969
1772656094273505800,6.779505859375,-0.0028541097417473793,-0.000791491474956274,-0.000669252360239625
1772656094283487500,6.789487548828125,-0.0020506340079009533,-0.002182993106544018,-0.0029979203827679157
1772656094293469700,6.7994697265625,-0.004552141297608614,-0.003282346064224839,-0.004088218789547682
1772656094303452400,6.809452392578125,-0.0019747340120375156,-0.0009526127250865102,-0.004976116586476564
1772656094313434600,6.8194345703125,-0.0023696806747466326,-0.0015217302134260535,-0.005697300657629967
1772656094323417600,6.82941748046875,-0.0022498385515064,-0.002281796419993043,-0.004369981121271849
1772656094333399600,6.839399658203125,-0.005623264703899622,-0.0010285128373652697,-0.001002680161036551
1772656094343382500,6.849382568359375,-0.004006193019449711,-0.0016109461430460215,-0.00515854312106967
1772656094353364700,6.85936474609375,-0.002406965009868145,-0.002222674200311303,-0.007770837750285864
1772656094363347500,6.869347412109375,-0.004747084807604551,-0.0005909554311074317,-0.001958222361281514
1772656094373329700,6.87932958984375,-0.004225904121994972,-0.001487109111621976,-0.0033478597179055214
1772656094383312600,6.889312744140625,-0.0007608651067130268,-0.0028581044171005487,-0.003315103007480502
1772656094393294600,6.899294677734375,-0.003209375310689211,-0.0025742114521563053,-0.004200870171189308
1772656094403276800,6.90927685546875,-0.0020096213556826115,-0.0021049624774605036,-0.005855225957930088
1772656094413259500,6.919259521484375,-0.0030895331874489784,0.00021172130072955042,-0.0031198931392282248
1772656094423241700,6.92924169921875,-0.0011470235185697675,-0.0022386531345546246,-0.003998203668743372
1772656094433224700,6.939224609375,-0.0049191247671842575,0.00027563716867007315,-0.0049705239944159985
1772656094443206700,6.94920654296875,-0.004471713677048683,-0.0022477079182863235,-0.00484349112957716
1772656094453189600,6.959189697265625,-0.004350806120783091,-0.0005560680292546749,-0.005246161017566919
1772656094463171800,6.969171875,-0.0014333132421597838,-0.0025451830588281155,-0.0019497001776471734
1772656094473154600,6.979154541015625,-0.0032431974541395903,-0.00012596751912496984,-0.003602990647777915
1772656094483136800,6.98913671875,-0.003608050523325801,0.0014064153656363487,-0.005350024439394474
1772656094493118500,6.999118408203125,-0.005022988189011812,-0.0016450346447527409,-0.00544456671923399
1772656094503101700,7.009101806640625,-0.00276063266210258,-0.0019113506423309445,-0.005672266706824303
1772656094513083600,7.019083740234375,-0.004600078333169222,0.00042344260145910084,-0.003582750679925084
1772656094523066600,7.029066650390625,-0.004815794061869383,-0.0027113643009215593,-0.003674629610031843
1772656094533048600,7.039048583984375,-0.004325239919126034,-0.0006095975404605269,-0.0026644926983863115
1772656094543031800,7.04903173828125,-0.004637895151972771,-0.0013462279457598925,-0.00395585922524333
1772656094553013500,7.059013427734375,-0.002305764937773347,-0.0027196200098842382,-0.0041406829841434956
1772656094562996700,7.068996826171875,-0.0016935041639953852,-0.002630137838423252,-0.0031816784758120775
1772656094572978400,7.078978515625,-0.0004990763845853508,-0.0019832560792565346,-0.0034256239887326956
1772656094582960600,7.088960693359375,-0.004494616761803627,-0.002641855739057064,-0.006619020365178585
1772656094592943600,7.098943603515625,-0.0018706043483689427,-0.00012729909212794155,-0.0032956618815660477
1772656094602925600,7.108925537109375,-0.0031222901307046413,-0.002246110001578927,-0.004893558565527201
1772656094612908500,7.118908447265625,-0.0028423918411135674,-0.0024474449455738068,-0.003911118488758802
1772656094622890800,7.128890869140625,-0.004286890383809805,-0.0023489079903811216,-0.003751328680664301
1772656094632873500,7.13887353515625,-0.0029047098942101,-0.0031614385079592466,-0.0062584285624325275
1772656094642855700,7.148855712890625,-0.002974750939756632,-0.002755306428298354,-0.003710582386702299
1772656094652838700,7.158838623046875,-0.002469815546646714,-0.0013938985066488385,-0.007449926808476448
1772656094662820600,7.168820556640625,-0.00253532943315804,-0.004279699642211199,-0.003978230059146881
1772656094672802600,7.178802490234375,-0.003311374457553029,-0.0021758025977760553,-0.009123191237449646
1772656094682785500,7.18878564453125,-0.0029909962322562933,-0.003008306724950671,-0.003409911412745714
1772656094692767700,7.198767822265625,-0.0022280006669461727,-0.002013349672779441,-0.0046996804885566235
1772656094702750700,7.208750732421875,-0.0007853662245906889,-0.002541188383474946,-0.004023237619549036
1772656094712732700,7.218732666015625,-0.0014703312190249562,-0.0006434197421185672,-0.003064499469473958
1772656094722715600,7.228715576171875,-0.003049053018912673,-0.002828543307259679,-0.006652576383203268
1772656094732697600,7.238697509765625,-0.0031760858837515116,-0.0030740867368876934,-0.006451507564634085
1772656094742680600,7.2486806640625,-0.0034586472902446985,-0.002418949268758297,-0.003629089565947652
1772656094752662800,7.258662841796875,-0.004323908127844334,-0.002700445242226124,-0.004917527083307505
1772656094762644500,7.26864453125,-0.0025630262680351734,-0.002049835165962577,-0.0036993969697505236
1772656094772627700,7.278627685546875,-0.0022338596172630787,-0.0019153454340994358,-0.002915362361818552
1772656094782609700,7.288609619140625,-0.00040719733806326985,-0.0025893915444612503,-0.003997670952230692
1772656094792592600,7.298592529296875,-0.0018247979460284114,-0.0008815063047222793,-0.004815527703613043
1772656094802574600,7.30857470703125,-0.0025710156187415123,-0.0012756541837006807,-0.00535455159842968
1772656094812557800,7.318557861328125,-0.0016349145444110036,0.00042264367220923305,-0.00754899624735117
1772656094822539500,7.32853955078125,-0.0036402747500687838,-0.0018034926615655422,-0.007646468002349138
1772656094832522800,7.338522705078125,-0.0020956413354724646,-0.0012636699248105288,-0.0030988543294370174
1772656094842504400,7.34850439453125,-0.002882871776819229,-0.0012370382901281118,-0.006347111891955137
1772656094852486700,7.358486572265625,-0.005193696822971106,0.000636495475191623,-0.006397179327905178
1772656094862469600,7.3684697265625,-0.0018247979460284114,-0.0009060074225999415,-0.0044014062732458115
1772656094872451600,7.37845166015625,-0.002270078519359231,0.001404018490575254,-0.006316751707345247
1772656094882434600,7.3884345703125,-0.0023515713401138783,-0.0014183996245265007,-0.0038072550669312477
1772656094892416800,7.398416748046875,-0.0033539850264787674,-0.0023499734234064817,-0.002326537622138858
1772656094902399700,7.408399658203125,-0.0023907197173684835,-0.001279116258956492,-0.0037382792215794325
1772656094912382000,7.4183818359375,-0.001041562296450138,0.00047617321251891553,-0.004030960611999035
1772656094922364700,7.42836474609375,-0.0016980315558612347,-0.0014868428697809577,-0.004803809802979231
1772656094932347000,7.438346923828125,-0.003567037871107459,0.00011930961773032323,-0.004089816473424435
1772656094942329900,7.448329833984375,-0.004285026341676712,0.001008272753097117,-0.004891161806881428
1772656094952311800,7.458311767578125,-0.0038037928752601147,-0.0024381240364164114,-0.0038360171020030975
1772656094962293800,7.468293701171875,-0.004764395300298929,-0.0016413062112405896,-0.004731638357043266
1772656094972276700,7.47827685546875,-0.004584631882607937,-0.0013728595804423094,-0.0011329087428748608
1772656094982258700,7.4882587890625,-0.0038213697262108326,-0.002382730133831501,-0.003832288784906268
1772656094992242000,7.498241943359375,-0.003207511268556118,-0.001785116852261126,-0.004474110435694456
1772656095002223600,7.5082236328125,-0.0017694041598588228,-0.00267780851572752,-0.004702343605458736
1772656095012206800,7.518206787109375,-0.002703374717384577,-0.004525776021182537,-0.00800093449652195
1772656095022188500,7.5281884765625,-0.0030770162120461464,-0.00313560594804585,-0.0057255299761891365
1772656095032171800,7.538171875,-0.003097256412729621,-0.002118278294801712,-0.005845105741173029
1772656095042153700,7.54815380859375,-0.003593669505789876,-0.0024381240364164114,-0.0018727348651736975
1772656095052135700,7.5581357421875,-0.003029079409316182,-0.001671932521276176,-0.005003014579415321
1772656095062118700,7.56811865234375,-0.002040514023974538,-0.001570998691022396,-0.00443895673379302
1772656095072100900,7.578100830078125,-0.0031792817171663046,-0.0020591560751199722,-0.004474110435694456
1772656095082083600,7.58808349609375,-0.003419232554733753,-0.0035233621019870043,-0.005557750817388296
1772656095092065800,7.598065673828125,-0.0024647556710988283,-0.0013688647886738181,-0.0046666571870446205
1772656095102048800,7.608048828125,-0.0041044638492167,-0.0008237157016992569,-0.004883171990513802
1772656095112030700,7.61803076171875,-0.001996305538341403,-0.001406947965733707,-0.005673065781593323
1772656095122013700,7.628013671875,-0.0031992553267627954,-0.0006641923682764173,-0.002636263146996498
1772656095131995600,7.63799560546875,-0.0046996804885566235,-0.002757703186944127,-0.005106078926473856
1772656095141977900,7.647977783203125,-0.003439472522586584,-0.0012191950809210539,-0.0049007488414645195
1772656095151960800,7.6579609375,-0.004218979738652706,-0.0022562299855053425,-0.0041031320579349995
1772656095161942800,7.66794287109375,-0.0021552962716668844,-0.00040000680019147694,-0.0031353395897895098
1772656095171925800,7.67792578125,-0.003460511565208435,-0.0022213426418602467,-0.007634483743458986
1772656095181908000,7.687907958984375,-0.00313001312315464,0.0013459615875035524,-0.0032810145057737827
1772656095191890700,7.697890625,-0.0016447682864964008,-0.00018881811411119998,-0.006542854011058807
1772656095201873000,7.707872802734375,-0.0035928706638514996,0.0002657834847923368,-0.00669438811019063
1772656095211856000,7.71785595703125,-0.003816842334344983,-0.0013249226612970233,-0.004022971261292696
1772656095221837800,7.727837890625,-0.0016261261189356446,-0.0032959282398223877,-0.006424343679100275
1772656095231820800,7.73782080078125,-0.005318332463502884,-0.002335326047614217,-0.0033212280832231045
1772656095241802800,7.747802734375,-0.0046328348107635975,-0.0006245112745091319,-0.004273840691894293
1772656095251784700,7.75778466796875,-0.0028706213925033808,-0.004630704410374165,-0.004840561654418707
1772656095261768000,7.767767822265625,-0.0033659692853689194,-0.0026293389964848757,-0.0035960664972662926
1772656095271749600,7.77774951171875,-0.00205249828286469,-0.001930791768245399,-0.005269064102321863
1772656095281732900,7.78773291015625,-0.004437092691659927,-0.0007147924043238163,-0.006037918850779533
1772656095291714600,7.797714599609375,-0.004325239919126034,-0.0036916739773005247,-0.004051999654620886
1772656095301697800,7.80769775390625,-0.002653307281434536,-0.0021699436474591494,-0.004881840664893389
1772656095311679700,7.8176796875,-0.003102582646533847,-0.0017350494163110852,-0.006491721607744694
1772656095321662700,7.827662841796875,-0.0016311861108988523,-0.0008777778712101281,-0.005726595409214497
1772656095331644700,7.837644775390625,-0.004769987892359495,-0.0019688750617206097,-0.005431783385574818
1772656095341627000,7.847626953125,-0.003859453136101365,-0.0044141896069049835,-0.005607551895081997
1772656095351609600,7.857609619140625,-0.0033606430515646935,-0.0022128205746412277,-0.007267233915627003
1772656095361591800,7.867591796875,-0.0032501218374818563,-0.003479952458292246,-0.004445614758878946
1772656095371574800,7.87757470703125,-0.004311657976359129,-0.0014117417158558965,-0.006043511442840099
1772656095381556700,7.887556640625,-0.004956941585987806,-0.002222407842054963,-0.0027979169972240925
1772656095391539700,7.897539794921875,-0.0023044333793222904,-0.0010245180455967784,-0.008685899898409843
1772656095401521700,7.907521728515625,-0.0032661007717251778,0.001990712946280837,-0.0030045784078538418
1772656095411504600,7.917504638671875,-0.002686064224690199,0.0011859056539833546,-0.005029912106692791
1772656095421486800,7.92748681640625,-0.0036250948905944824,0.00006631271389778703,-0.0038456046022474766
1772656095431468800,7.93746875,-0.002555835759267211,0.0002519350382499397,-0.003832288784906268
1772656095441451800,7.94745166015625,-0.0006439523422159255,-0.0018367822049185634,-0.0046818372793495655
1772656095451433700,7.957433837890625,-0.0007632619817741215,0.0007664577569812536,-0.0018945727497339249
1772656095461416700,7.967416748046875,-0.004655738361179829,-0.0012120045721530914,-0.005806223955005407
1772656095471399000,7.97739892578125,-0.0006130596739239991,-0.00070520507870242,-0.007780957501381636
1772656095481380600,7.987380615234375,-0.003995806910097599,-0.0013811152894049883,-0.005357747431844473
1772656095491362800,7.99736279296875,-0.004308994393795729,-0.00034354778472334146,-0.004706870764493942
1772656095501345800,8.007345703125,-0.0024229439441114664,-0.001264735241420567,-0.00392896169796586
1772656095511327700,8.01732763671875,-0.003163569141179323,0.0005928196478635073,-0.004193946253508329
1772656095521310700,8.027310791015625,-0.0020548950415104628,0.0000351537273672875,-0.007166566327214241
1772656095531292700,8.037292724609374,-0.003561977995559573,-0.0012980246683582664,-0.0037649108562618494
1772656095541275600,8.047275634765626,-0.003611779073253274,-0.00022903185163158923,-0.007159109693020582
1772656095551257900,8.0572578125,-0.003863980295136571,-0.000477504770969972,-0.0034061830956488848
1772656095561239800,8.06723974609375,-0.004530569538474083,-0.003469033632427454,-0.007660316303372383
1772656095571222800,8.077222900390625,-0.004762797150760889,0.00027750138542614877,-0.0024612934794276953
1772656095581205000,8.087205078125,-0.00347489258274436,-0.002016811864450574,-0.0031997880432754755
1772656095591187700,8.097187744140625,-0.0010311759542673826,-0.00287461606785655,-0.0054815844632685184
1772656095601170000,8.107169921875,-0.0035774242132902145,-0.002039981307461858,-0.005350823048502207
1772656095611153000,8.11715283203125,-0.003057841444388032,-0.0025126924738287926,-0.003766242414712906
1772656095621134800,8.127134765625,-0.004698348697274923,-0.000571248063351959,-0.00395612558349967
1772656095631117800,8.137117919921875,-0.003344131400808692,0.0013158678775653243,-0.004258926957845688
1772656095641099800,8.147099853515625,-0.0043651871383190155,-0.002785400254651904,-0.0040855552069842815
1772656095651082800,8.157082763671875,-0.003917243797332048,-0.002174737397581339,-0.005937251262366772
1772656095661065000,8.16706494140625,-0.003497795667499304,-0.001421861699782312,-0.006184392608702183
1772656095671046700,8.177046630859374,-0.0036751623265445232,-0.004500475712120533,-0.005322593729943037
1772656095681030000,8.18702978515625,-0.0044293696992099285,-0.0024194817524403334,-0.004093012306839228
1772656095691011600,8.197011474609376,-0.0017797905020415783,-0.002663427498191595,-0.005724464543163776
1772656095700994800,8.206994873046876,-0.0021734058391302824,-0.0026671558152884245,-0.005608617328107357
1772656095710976800,8.216976806640625,-0.004041613079607487,-0.002353968098759651,-0.004320180043578148
1772656095720959700,8.226959716796875,-0.0033159018494188786,-0.0009302421822212636,-0.005679191090166569
1772656095730941700,8.236941650390625,-0.0002324939559912309,-0.0020607539918273687,-0.003570766421034932
1772656095740925000,8.246925048828125,-0.003001648932695389,-0.0012532835826277733,-0.0057377805933356285
1772656095750906600,8.25690673828125,-0.002715891692787409,0.0006862966110929847,-0.0033281524665653706
1772656095760888800,8.266888916015626,-0.0017121462151408195,-0.0007123955874703825,-0.004078364931046963
1772656095770871800,8.276871826171876,-0.0035140409599989653,-0.0010655306978151202,-0.006660033017396927
1772656095780853800,8.286853759765625,-0.004563326481729746,-0.0009291769238188863,-0.004303135443478823
1772656095790836700,8.296836669921875,-0.002916161436587572,-0.002746518002822995,-0.0046730488538742065
1772656095800818700,8.306818603515625,-0.0022564963437616825,-0.0021544971968978643,-0.006819822825491428
1772656095810801700,8.3168017578125,-0.0031459920573979616,-0.0028724854346364737,-0.005900233518332243
1772656095820783900,8.326783935546874,-0.0020570256747305393,-0.000553404854144901,-0.005513275973498821
1772656095830766600,8.3367666015625,-0.0027174896094948053,-0.001056476030498743,-0.005917544011026621
1772656095840748800,8.346748779296876,-0.003334810258820653,-0.0014516890514642,-0.0035441347863525152
1772656095850730800,8.356730712890625,-0.0038903458043932915,-0.0007238471880555153,-0.0031406658235937357
1772656095860713700,8.366713623046875,-0.0041646515019237995,-0.00046631949953734875,-0.002487925114110112
1772656095870696000,8.376696044921875,-0.004290618933737278,0.00033582461765035987,-0.003923369105905294
1772656095880679000,8.386678955078125,-0.004186755511909723,0.0004394215648062527,-0.002132392954081297
1772656095890660900,8.396660888671875,-0.0018253305461257696,-0.0021672805305570364,-0.005311941262334585
1772656095900643800,8.406643798828124,-0.006560430862009525,-0.0024703482631593943,-0.004757204558700323
1772656095910626000,8.4166259765625,-0.004456267226487398,0.0008234494016505778,-0.005881857592612505
1772656095920608800,8.42660888671875,-0.002507632365450263,-0.002162753138691187,-0.005846970248967409
1772656095930591000,8.436591064453125,-0.004299407359212637,-0.0014767227694392204,-0.00635004136711359
1772656095940574000,8.446573974609375,-0.0029558425303548574,-0.0025129588320851326,-0.0033931334037333727
1772656095950556000,8.456555908203125,-0.00355904852040112,-0.0024564997293055058,-0.00484162662178278
1772656095960537900,8.466537841796875,-0.001535312389023602,-0.0026993800420314074,-0.0016479641199111938
1772656095970521000,8.47652099609375,-0.0015571502735838294,-0.001734250457957387,-0.0018362496048212051
1772656095980502800,8.486502685546874,-0.0035417377948760986,0.00029880666988901794,-0.0034413367975503206
1772656095990486000,8.496486083984376,-0.004321245010942221,-0.0010037453612312675,-0.004209658596664667
1772656096000467700,8.5064677734375,-0.0027803401462733746,-0.0022032330743968487,-0.005032841581851244
1772656096010451000,8.516450927734375,-0.00358781055547297,-0.0017720673931762576,-0.004947886802256107
1772656096020433000,8.526432861328125,-0.003493002150207758,-0.0036005936563014984,-0.005286907311528921
1772656096030416000,8.536415771484375,-0.00350365461781621,-0.0014170679496601224,-0.005329251755028963
1772656096040397800,8.546397705078125,-0.0024652881547808647,-0.002286856295540929,-0.003485811408609152
1772656096050381000,8.556381103515625,-0.000050866376113845035,-0.0023278691805899143,-0.006835535634309053
1772656096060362800,8.56636279296875,-0.0030181603506207466,-0.0026130937039852142,-0.004914597608149052
1772656096070345000,8.576344970703126,-0.002926813904196024,-0.0028154938481748104,-0.0018956380663439631
1772656096080327700,8.58632763671875,-0.004576376173645258,-0.0023723437916487455,-0.0003454120014794171
1772656096090310000,8.596309814453125,-0.001961684552952647,-0.002514823107048869,-0.0038192393258213997
1772656096100292900,8.60629296875,-0.0016072177095338702,-0.0023302659392356873,-0.0038165762089192867
1772656096110274800,8.61627490234375,-0.0019150790758430958,-0.00005379585491027683,-0.003073021536692977
1772656096120258800,8.6262587890625,-0.003831756068393588,-0.00008602010348113254,-0.0033625070936977863
1772656096130241800,8.63624169921875,-0.003394465195015073,-0.0016349145444110036,-0.005289570428431034
1772656096140223700,8.6462236328125,-0.002094309777021408,-0.001333178486675024,-0.007546865846961737
1772656096150206700,8.656206787109374,-0.0031007183715701103,0.0001901497016660869,-0.0032589102629572153
1772656096160189000,8.66618896484375,-0.002356098499149084,-0.0025619608350098133,-0.004954811185598373
1772656096170172000,8.676171875,-0.005600095260888338,-0.0017928400775417686,-0.004230164922773838
1772656096180153900,8.68615380859375,-0.0029822078067809343,-0.003142263740301132,-0.0043958136811852455
1772656096190136000,8.696135986328125,-0.004777444526553154,0.0008274441352114081,-0.004640025552362204
1772656096200118800,8.706118896484375,-0.0031121699139475822,-0.001874332781881094,-0.004830441437661648
1772656096210101000,8.71610107421875,-0.003418167121708393,-0.0010793792316690087,-0.005155347287654877
1772656096220084000,8.726083984375,-0.0018615495646372437,-0.0021105550695210695,-0.006247243378311396
1772656096230066000,8.73606591796875,-0.00327275856398046,-0.0009840379934757948,-0.005259476602077484
1772656096240049000,8.746048828125,-0.0022503710351884365,-0.002225337317213416,-0.0013073458103463054
1772656096250030800,8.75603076171875,-0.0032898029312491417,-0.0003307645965833217,-0.002686863299459219
1772656096260013800,8.766013916015625,-0.005136172287166119,0.000006391586794052273,-0.005907690152525902
1772656096269996000,8.77599609375,-0.0034879420418292284,-0.0016298545524477959,-0.00444055488333106
1772656096279977700,8.785977783203125,-0.0020719394087791443,-0.0015006912872195244,-0.0038274950347840786
1772656096289961000,8.7959609375,-0.003462641965597868,-0.001793905277736485,-0.005799832288175821
1772656096299943000,8.80594287109375,-0.0027023095171898603,-0.0007265103631652892,-0.005301021970808506
1772656096309926000,8.81592578125,-0.002913231961429119,-0.000690291344653815,-0.003923102747648954
1772656096319907800,8.825907958984375,-0.003236273303627968,-0.0014021543320268393,-0.0039036613889038563
1772656096329891000,8.83589111328125,-0.0032924660481512547,-0.0018634138396009803,-0.002123870886862278
1772656096339872800,8.845872802734375,-0.0021947110071778297,-0.002590723102912307,-0.0035654399544000626
1772656096349856000,8.85585595703125,-0.0027270768769085407,-0.0035297537688165903,-0.0029233519453555346
1772656096359837700,8.865837646484374,-0.005349491722881794,-0.00152306177187711,-0.0038429414853453636
1772656096369821000,8.875821044921874,-0.004867726005613804,-0.004059989005327225,-0.005440039094537497
1772656096379803000,8.885802978515626,-0.004436826333403587,-0.0002585929469205439,-0.005592105444520712
1772656096389784800,8.895784912109375,-0.0023995081428438425,-0.000517718493938446,-0.004993693437427282
1772656096399767800,8.905767822265625,-0.0015725966077297926,-0.0005374259199015796,-0.00612260727211833
1772656096409749800,8.915749755859375,-0.0029497172217816114,-0.0008588694618083537,-0.0038983351550996304
1772656096419732700,8.925732666015625,-0.0022650184109807014,-0.002832538215443492,-0.0062608253210783005
1772656096429715000,8.93571484375,-0.0027688886038959026,-0.0032285500783473253,-0.0033939324785023928
1772656096439697700,8.94569775390625,-0.0032812808640301228,-0.0015808524331077933,-0.004998220596462488
1772656096449680000,8.955679931640624,-0.0016476977616548538,-0.0029609024059027433,-0.004098338540643454
1772656096459662800,8.965662841796876,-0.0034293525386601686,0.0014913701452314854,-0.0035723643377423286
1772656096469644800,8.975644775390625,-0.00390286254696548,-0.001184041379019618,-0.00433163158595562
1772656096479627800,8.985627685546875,-0.0013044163351878524,-0.0010743191232904792,-0.005586512852460146
1772656096489610000,8.99560986328125,-0.004023237619549036,-0.0013073458103463054,-0.003817375050857663
1772656096499592000,9.005592041015625,-0.004258926957845688,-0.0015960324089974165,-0.004388889297842979
1772656096509575000,9.015574951171875,-0.0032178976107388735,0.0002170476218452677,-0.00649651512503624
1772656096519556900,9.025556884765624,-0.003215500619262457,0.0002764361270237714,-0.002570483135059476
1772656096529539800,9.035539794921876,-0.0028328043408691883,-0.0018410432385280728,-0.002847185591235757
1772656096539522000,9.04552197265625,-0.0036434705834835768,-0.0001968075957847759,-0.0064373929053545
1772656096549504800,9.0555048828125,-0.0007693872321397066,-0.0021813951898366213,-0.004192880820482969
1772656096559487000,9.065487060546875,-0.00421205535531044,-0.0016157397767528892,-0.0017603494925424457
1772656096569470000,9.075469970703125,-0.0032061797101050615,-0.0007949535502120852,-0.006118346471339464
1772656096579452000,9.085451904296875,-0.004396612755954266,-0.0023222763556987047,-0.004554005339741707
1772656096589435000,9.095434814453125,-0.0028216191567480564,-0.0039036613889038563,-0.006423544604331255
1772656096599417000,9.1054169921875,-0.003555852686986327,-0.0018895127577707171,-0.005985986907035112
1772656096609398800,9.115398681640626,-0.0038344194181263447,-0.00455693481490016,-0.003591539105400443
1772656096619382000,9.125382080078126,-0.0020714066922664642,-0.0018362496048212051,-0.004210990387946367
1772656096629363700,9.13536376953125,-0.0026636936236172915,-0.0016106797847896814,-0.00520727876573801
1772656096639347000,9.145346923828125,-0.002097239252179861,-0.003628556849434972,-0.0033952640369534492
1772656096649329000,9.155328857421875,-0.004571848548948765,-0.00210735946893692,-0.00475374236702919
1772656096659311900,9.165311767578125,-0.003713245503604412,-0.0008407599525526166,-0.003087935270741582
1772656096669293800,9.1752939453125,-0.003212571144104004,-0.0010450243717059493,-0.00436172541230917
1772656096679277000,9.185277099609374,-0.002718821167945862,-0.00205276464112103,-0.004736165516078472
1772656096689258800,9.1952587890625,-0.004007258452475071,-0.0030213561840355396,-0.0054570832289755344
1772656096699241000,9.205240966796875,-0.0036549223586916924,-0.0027017768006771803,-0.004514590837061405
1772656096709223700,9.2152236328125,-0.003448527306318283,-0.002636795863509178,-0.004995557479560375
1772656096719206000,9.225205810546875,-0.003606186481192708,-0.002501773415133357,-0.004052798729389906
1772656096729188900,9.23518896484375,-0.0054272557608783245,-0.0014599448768422008,-0.004314321093261242
1772656096739170800,9.2451708984375,-0.002282062778249383,-0.004327103961259127,-0.004472512751817703
1772656096749153800,9.25515380859375,-0.002680205274373293,-0.002263420494273305,-0.0034229608718305826
1772656096759136000,9.265135986328126,-0.0007297061383724213,-0.0020511667244136333,-0.007111705373972654
1772656096769118700,9.27511865234375,-0.004002997186034918,-0.0018873822409659624,-0.005485845264047384
1772656096779101000,9.285100830078125,-0.0040946099907159805,-0.002549710450693965,-0.005251220893114805
1772656096789084000,9.295083984375,-0.0030423952266573906,-0.001169394003227353,-0.0038922098465263844
1772656096799065900,9.30506591796875,-0.003103115363046527,-0.0011861718958243728,-0.0030895331874489784
1772656096809048000,9.315048095703125,-0.0031973912846297026,-0.002186188939958811,-0.00649784691631794
1772656096819030800,9.32503076171875,-0.0029521139804273844,-0.0015065502375364304,-0.0006197175825946033
1772656096829013000,9.335012939453126,-0.00216594897210598,-0.0012266519479453564,-0.0046357642859220505
1772656096838996000,9.344995849609376,-0.004238420631736517,-0.004199272487312555,-0.0056863813661038876
1772656096848978000,9.35497802734375,-0.0008364989189431071,-0.002800047630444169,-0.00350445369258523
1772656096858961000,9.3649609375,-0.0017718010349199176,0.0004546015989035368,-0.0027150926180183887
1772656096868942800,9.37494287109375,-0.0035510589368641376,-0.0011108045000582933,-0.0016399745363742113
1772656096878925800,9.38492578125,-0.0030919299460947514,0.0003784351865760982,-0.004294081125408411
1772656096888908000,9.394907958984374,-0.003227218519896269,-0.0015755260828882456,-0.002829608740285039
1772656096898890200,9.40489013671875,-0.001972603378817439,-0.0032796829473227262,-0.006481335032731295
1772656096908872400,9.41487255859375,-0.003019491909071803,-0.003352919826284051,-0.004714061506092548
1772656096918854400,9.4248544921875,-0.0032346753869205713,-0.0016823188634589314,-0.005264536943286657
1772656096928837400,9.43483740234375,-0.0041763694025576115,-0.0018200043123215437,-0.004530569538474083
1772656096938819300,9.4448193359375,-0.0033870083279907703,0.0003177151083946228,-0.006360427476465702
1772656096948802600,9.454802490234375,-0.002101234160363674,-0.00202240445651114,-0.006600112188607454
1772656096958784300,9.4647841796875,-0.0035744947381317616,-0.000699079770129174,-0.004703674931079149
1772656096968767500,9.474767578125,-0.003507383167743683,-0.0018109495285898447,-0.002971821464598179
1772656096978749200,9.484749267578126,-0.0037502634804695845,-0.0005715143634006381,-0.004619785584509373
1772656096988732400,9.494732421875,-0.005417136009782553,-0.0009211873984895647,-0.00583738274872303
1772656096998714400,9.50471435546875,-0.0013126720441505313,-0.0014362427173182368,-0.005970807280391455
1772656097008696300,9.5146962890625,-0.0051841093227267265,-0.004626443609595299,-0.006841660942882299
1772656097018679300,9.52467919921875,-0.0033422671258449554,0.0014210627414286137,-0.0031907332595437765
1772656097028661200,9.5346611328125,-0.003489539958536625,-0.0014263890916481614,-0.004973985720425844
1772656097038644200,9.544644287109374,-0.0007017429452389479,-0.0024644893128424883,-0.004267183132469654
1772656097048626400,9.55462646484375,-0.003371029393747449,-0.002814961364492774,-0.005360410548746586
1772656097058609200,9.564609130859376,-0.004907673224806786,0.0014482269762083888,-0.005705822724848986
1772656097068591400,9.57459130859375,-0.0032746228389441967,-0.004228300880640745,-0.004549744538962841
1772656097078574300,9.58457421875,-0.004176635295152664,-0.0011081412667408586,-0.004959871061146259
1772656097088556300,9.594556396484375,-0.0017534252256155014,-0.0005723133217543364,-0.004338821861892939
1772656097098539300,9.604539306640625,-0.004888232331722975,-0.002519350266084075,-0.003936418332159519
1772656097108521500,9.614521484375,-0.003355849301442504,-0.0020423782989382744,-0.004424842074513435
1772656097118503400,9.62450341796875,-0.003224555402994156,-0.0006290386663749814,-0.005903162993490696
1772656097128486400,9.634486328125,-0.001662877737544477,-0.0017544905422255397,-0.0024058998096734285
1772656097138468400,9.64446826171875,-0.003938282374292612,-0.0014290522085502744,-0.004107926040887833
1772656097148451300,9.654451416015625,-0.0026381274219602346,-0.001722532557323575,-0.0038927425630390644
1772656097158433500,9.66443359375,-0.0008186557097360492,-0.00020639497961383313,-0.0027691549621522427
1772656097168416300,9.674416259765625,-0.004332962911576033,-0.001543568097986281,-0.0062701464630663395
1772656097178398500,9.6843984375,-0.0018881811993196607,-0.0013145363191142678,-0.003269562730565667
1772656097188381400,9.69438134765625,-0.004011253360658884,-0.001219461439177394,-0.004348409362137318
1772656097198363400,9.70436328125,-0.0011864382540807128,0.00010679275874281302,-0.004096474498510361
1772656097208346400,9.714346435546876,-0.0031318773981183767,-0.002117745578289032,-0.008065382950007915
1772656097218328600,9.72432861328125,-0.0046908920630812645,-0.002704173792153597,-0.006054962985217571
1772656097228310300,9.734310302734375,-0.003064233111217618,-0.001294029993005097,-0.001802693703211844
1772656097238293500,9.74429345703125,-0.0035241609439253807,0.00005379585491027683,-0.003629622282460332
1772656097248275200,9.754275146484375,-0.0024232103023678064,-0.00347489258274436,-0.004246943164616823
1772656097258258400,9.764258544921875,-0.004581968765705824,-0.00034727618913166225,-0.003822701284661889
1772656097268240400,9.774240478515624,-0.004081560764461756,-0.0054735951125621796,-0.00558278476819396
1772656097278223400,9.784223388671874,-0.0021614215802401304,-0.002537193475291133,-0.0037702370900660753
1772656097288205300,9.794205322265626,-0.0030565098859369755,-0.0054453653283417225,-0.0038165762089192867
1772656097298188500,9.8041884765625,-0.0030397321097552776,-0.001671932521276176,-0.0038725025951862335
1772656097308170200,9.814170166015625,-0.0011076086666435003,-0.002880208659917116,-0.001169394003227353
1772656097318153500,9.824153564453125,-0.0026668894570320845,-0.0048887645825743675,-0.006184126250445843
1772656097328135200,9.83413525390625,-0.004093012306839228,-0.003716441337019205,-0.005979329347610474
1772656097338117400,9.844117431640624,-0.0028929917607456446,0.0010631339391693473,-0.004519917070865631
1772656097348100400,9.854100341796874,-0.0052107409574091434,-0.0015092133544385433,-0.007370031904429197
1772656097358082300,9.864082275390626,-0.0035601137205958366,-0.003973436541855335,-0.004477572627365589
1772656097368065300,9.874065185546876,-0.006364156026393175,-0.0019374496769160032,-0.007821970619261265
1772656097378047500,9.884047607421875,-0.00185089698061347,-0.0011321097845211625,-0.002359027974307537
1772656097388030200,9.8940302734375,-0.004133225884288549,-0.00216514989733696,-0.004770520608872175
1772656097398012400,9.904012451171875,-0.002314020646736026,-0.004030960611999035,-0.003481017891317606
1772656097407995400,9.913995361328125,-0.00061279337387532,-0.000993891735561192,-0.0033606430515646935
1772656097417977300,9.923977294921874,-0.004325506277382374,-0.0010287790792062879,-0.005681321490556002
1772656097427960300,9.933960205078124,-0.0033393376506865025,-0.002121474128216505,-0.007075486239045858
1772656097437942300,9.9439423828125,-0.00404587434604764,0.00037816885742358863,-0.004186222795397043
1772656097447924500,9.953924560546875,-0.0029830066487193108,-0.0007512777228839695,-0.007616107817739248
1772656097457907500,9.963907470703125,-0.0030535804107785225,-0.00002956108801299706,-0.0033342777751386166
1772656097467889400,9.973889404296875,-0.003549461020156741,-0.0014290522085502744,-0.00905874278396368
1772656097477872400,9.983872314453125,-0.004683434963226318,0.00022264027211349458,-0.0048797097988426685
1772656097487854300,9.993854248046874,-0.00276116537861526,-0.0009920274605974555,-0.006884537637233734
1772656097497837300,10.00383740234375,-0.0033302828669548035,-0.0014839133946225047,-0.00202293717302382
1772656097507819500,10.013819580078126,-0.0015931029338389635,-0.0024533038958907127,-0.0034445326309651136
1772656097517802200,10.02380224609375,-0.0030602384358644485,-0.0005451490869745612,-0.004348143003880978
1772656097527784400,10.033784423828125,-0.004504204262048006,0.000019707391402334906,-0.004293282050639391
1772656097537767400,10.043767333984375,-0.003322559641674161,-0.0023193468805402517,-0.0041276332922279835
1772656097547749400,10.053749267578125,-0.0035001926589757204,0.0009781790431588888,-0.003949468024075031
1772656097557731300,10.0637314453125,-0.003126284806057811,-0.0022093583829700947,-0.0017121462151408195
1772656097567714600,10.073714599609374,-0.004817924462258816,-0.00015899071877356619,-0.0031670311000198126
1772656097577696300,10.0836962890625,-0.003970507066696882,-0.0011369034182280302,-0.004143878817558289
1772656097587679500,10.093679443359376,-0.003203516360372305,-0.004998486954718828,-0.0062765381298959255
1772656097597661200,10.1036611328125,-0.002031991956755519,-0.004010987002402544,-0.004236822947859764
1772656097607644400,10.11364453125,-0.002808836055919528,-0.00026844663079828024,-0.0026735474821180105
1772656097617626400,10.12362646484375,-0.0046842340379953384,-0.0025798040442168713,-0.003566771512851119
1772656097627609300,10.133609375,-0.004204598721116781,-0.0030370689928531647,-0.006589459255337715
1772656097637591300,10.14359130859375,-0.004005394410341978,-0.00018242653459310532,-0.005135373678058386
1772656097647573500,10.153573486328124,-0.004777444526553154,-0.0020602215081453323,-0.003863980295136571
1772656097657556200,10.16355615234375,-0.0021174794528633356,-0.0019236012594774365,-0.008020375855267048
1772656097667538400,10.173538330078125,-0.003404052462428808,-0.001910019083879888,-0.003456783015280962
1772656097677521400,10.183521484375,-0.0029174929950386286,-0.0023877902422100306,-0.005092762876302004
1772656097687503400,10.19350341796875,-0.0023963123094290495,-0.004603007808327675,-0.005410744342952967
1772656097697486300,10.203486328125,-0.0043715788051486015,-0.0023616913240402937,-0.005254683084785938
1772656097707468300,10.21346826171875,-0.00253453035838902,-0.0016042882343754172,-0.005542304366827011
1772656097717451300,10.223451171875,-0.005081577692180872,-0.002251702593639493,-0.004851746838539839
1772656097727433500,10.23343359375,-0.00421205535531044,-0.0007366303470917046,-0.004893558565527201
1772656097737416200,10.243416259765626,-0.001064731739461422,-0.00021252025908324867,-0.001853293739259243
1772656097747398400,10.2533984375,-0.0024551681708544493,-0.0019353191601112485,-0.004126301966607571
1772656097757380400,10.26338037109375,-0.004307396709918976,-0.0013584784464910626,-0.005056011490523815
1772656097767363300,10.27336328125,-0.0036908749025315046,-0.0018242653459310532,-0.0025249430909752846
1772656097777345500,10.283345458984375,-0.001734250457957387,-0.0018823222490027547,-0.0031638352666050196
1772656097787328300,10.293328369140625,-0.004283428192138672,-0.002773415995761752,-0.006160424090921879
1772656097797310500,10.303310546875,-0.004933505784720182,-0.0043992758728563786,-0.0030123014003038406
1772656097807293400,10.31329345703125,-0.0035960664972662926,0.0014937670202925801,-0.004756671842187643
1772656097817275400,10.323275390625,-0.0035262915771454573,-0.0016993631143122911,-0.00506959343329072
1772656097827258400,10.33325830078125,-0.004319913685321808,-0.002545981900766492,-0.007121292874217033
1772656097837240600,10.343240478515625,-0.004348143003880978,-0.0017478326335549355,-0.004505802411586046
1772656097847223300,10.353223388671875,-0.0035633095540106297,-0.002966228872537613,-0.004462126176804304
1772656097857205500,10.36320556640625,-0.005109807010740042,-0.0015960324089974165,-0.0057710702531039715
1772656097867187200,10.373187255859374,-0.0033598439767956734,-0.003311374457553029,-0.003132676472887397
1772656097877170400,10.38317041015625,-0.0031499869655817747,-0.0016370450612157583,-0.005322593729943037
1772656097887152400,10.39315234375,-0.003418966196477413,-0.0030221552588045597,-0.006069344002753496
1772656097897134800,10.403134765625,-0.0034969968255609274,-0.00216488353908062,-0.0031473238486796618
1772656097907116800,10.41311669921875,-0.004825647920370102,-0.0026293389964848757,-0.004962800536304712
1772656097917099800,10.423099853515625,-0.003304982790723443,-0.00373082235455513,-0.004012584686279297
1772656097927081700,10.433081787109375,-0.0035635759122669697,-0.004752943757921457,-0.005881857592612505
1772656097937065000,10.44306494140625,-0.005812881514430046,-0.0011201255256310105,-0.0033510555513203144
1772656097947046700,10.453046630859374,-0.002034921431913972,0.0006420881254598498,-0.005536179058253765
1772656097957030000,10.46302978515625,-0.0013883059145882726,-0.00250496924854815,-0.003746002446860075
1772656097967011600,10.473011474609375,-0.0007041397620923817,-0.004625111818313599,-0.0028703550342470407
1772656097976994800,10.482994873046875,-0.0034120420459657907,-0.001862348522990942,-0.003694869577884674
1772656097986976800,10.492976806640625,-0.005419000051915646,-0.0013901700731366873,-0.0034261567052453756
1772656097996958700,10.502958740234375,-0.00307621737010777,-0.001374723738990724,-0.004565989598631859
1772656098006941700,10.512941650390625,-0.002835201332345605,-0.002466619713231921,-0.004938033409416676
1772656098016923600,10.522923583984374,-0.0024623586796224117,-0.00293347192928195,-0.004042944870889187
1772656098026906600,10.53290673828125,-0.00407570181414485,-0.002987001556903124,-0.00407410366460681
1772656098036888800,10.542888916015626,-0.0015784555580466986,-0.0014751249691471457,-0.005401689559221268
1772656098046871600,10.55287158203125,-0.0015957661671563983,-0.003817108692601323,-0.002101234160363674
1772656098056853800,10.562853759765625,-0.0007595335482619703,-0.0005648564547300339,-0.0068094367161393166
1772656098066836700,10.572836669921875,-0.0030450583435595036,0.001178182428702712,-0.0035808864049613476
1772656098076818700,10.582818603515625,-0.0024322650860995054,-0.002260491019114852,-0.0044051348231732845
1772656098086801000,10.59280078125,-0.004542021080851555,0.000368847802747041,-0.005579588934779167
1772656098096784000,10.602783935546874,-0.00446905056014657,0.00046845004544593394,-0.005604089703410864
1772656098106765800,10.612765869140626,-0.0029465213883668184,-0.0003938815207220614,-0.002983539365231991
1772656098116748800,10.622748779296876,-0.002951048780232668,-0.002007490722462535,-0.005861617624759674
1772656098126730800,10.632730712890625,-0.004031759686768055,-0.002237055217847228,-0.0062243398278951645
1772656098136713700,10.642713623046875,-0.0016460998449474573,-0.0014586133183911443,-0.005675728898495436
1772656098146696000,10.652696044921875,-0.0034935346338897943,-0.0008740494376979768,-0.0027593011036515236
1772656098156678700,10.6626787109375,-0.0024383901618421078,0.0013105415273457766,-0.006481068674474955
1772656098166660900,10.672660888671874,-0.0033308155834674835,-0.00026604978484101593,-0.0037111148703843355
1772656098176643800,10.682643798828124,-0.0018032263033092022,-0.0011435613268986344,-0.004306064918637276
1772656098186625800,10.692625732421876,-0.0018903117161244154,-0.001976331928744912,-0.004553738981485367
1772656098196608800,10.70260888671875,-0.0008700547041371465,-0.003457582090049982,-0.005289037711918354
1772656098206591000,10.712591064453125,-0.0036706349346786737,-0.0006000102148391306,-0.003834685543552041
1772656098216572700,10.72257275390625,-0.0033489251509308815,0.00044821001938544214,-0.0036096484400331974
1772656098226556000,10.732555908203125,-0.0017587515758350492,0.00048123320448212326,-0.007154049351811409
1772656098236537600,10.74253759765625,-0.003117230022326112,0.0024519723374396563,-0.006726612336933613
1772656098246520800,10.752520751953124,-0.0046240463852882385,-0.0032085764687508345,-0.004119910299777985
1772656098256502800,10.762502685546876,-0.0031348068732768297,-0.00344533147290349,-0.007556986063718796
1772656098266485800,10.77248583984375,-0.00256382510997355,-0.0034791536163538694,-0.0038248319178819656
1772656098276467700,10.7824677734375,-0.0021734058391302824,-0.00484162662178278,-0.0032474587205797434
1772656098286451000,10.792450927734375,-0.002484196564182639,-0.0018911106744781137,-0.004845355171710253
1772656098296432600,10.8024326171875,-0.0025659557431936264,-0.001386707997880876,-0.007712514605373144
1772656098306415900,10.812415771484375,-0.0003462109307292849,-0.0028482507914304733,-0.006454703398048878
1772656098316397600,10.8223974609375,-0.0021877868566662073,-0.002775280037894845,-0.004604871850460768
1772656098326379800,10.8323798828125,-0.0028807413764297962,-0.002662894781678915,-0.005851763766258955
1772656098336362800,10.84236279296875,-0.0024322650860995054,-0.0022530341520905495,-0.0049428269267082214
1772656098346344700,10.8523447265625,-0.0035204326268285513,-0.0006223807577043772,-0.005811816547065973
1772656098356327700,10.86232763671875,-0.002302302746102214,-0.002912699244916439,-0.004196343012154102
1772656098366310000,10.872309814453125,-0.0027539748698472977,-0.0016905746888369322,-0.00552233075723052
1772656098376292600,10.882292724609375,-0.00310577847994864,-0.0029411951545625925,-0.003343865042552352
1772656098386274800,10.89227490234375,-0.003739078063517809,0.0004338289436418563,-0.004609665367752314
1772656098396257800,10.9022578125,-0.0009914948605000973,-0.0036511938087642193,-0.00484162662178278
1772656098406239700,10.91223974609375,-0.002936135046184063,-0.0009158611064776778,-0.004612594842910767
1772656098416222700,10.92222265625,-0.0018216022290289402,-0.002778475871309638,-0.006250172853469849
1772656098426204700,10.93220458984375,-0.0016215987270697951,-0.0013800500892102718,-0.006006493698805571
1772656098436187000,10.942186767578125,-0.003519633784890175,-0.0013046825770288706,-0.005744704511016607
1772656098446169900,10.952169921875,-0.002915362361818552,-0.0025925873778760433,-0.006761766038835049
1772656098456151800,10.96215185546875,-0.003949201665818691,-0.0014559502014890313,-0.00452950457111001
1772656098466134800,10.972134765625,-0.0031617048662155867,-0.0002798982313834131,-0.006816094275563955
1772656098476116700,10.98211669921875,-0.001597630325704813,-0.0006418218254111707,-0.004312456585466862
1772656098486099700,10.992099609375,-0.003612311789765954,-0.00008894957863958552,-0.00637827068567276
1772656098496082000,11.00208203125,-0.0034013893455266953,-0.0011664645280689,-0.0043710460886359215
1772656098506065000,11.01206494140625,-0.0028722193092107773,-0.006854976527392864,-0.0029145635198801756
1772656098516046800,11.022046875,-0.0008412926108576357,-0.00010998855577781796,-0.004266650415956974
1772656098526029800,11.03202978515625,-0.005615274887531996,-0.00019867181254085153,-0.0017409083666279912
1772656098536011800,11.04201171875,-0.006364422384649515,-0.0008173241512849927,-0.004057059530168772
1772656098545993700,11.05199365234375,-0.0041547976434230804,0.0013193299528211355,-0.0031904669012874365
1772656098555977000,11.06197705078125,-0.004789162427186966,-0.0001323590986430645,-0.004540689755231142
1772656098565958700,11.071958740234376,-0.0033718282356858253,-0.00035686357296071947,-0.004850415047258139
1772656098575942000,11.08194189453125,-0.001859419047832489,-0.0006892260862514377,-0.0026136261876672506
1772656098585923600,11.091923583984375,-0.003799265483394265,-0.0013965616235509515,-0.006995591334998608
1772656098595906800,11.10190673828125,-0.00672181835398078,-0.00039840888348408043,-0.0065377941355109215
1772656098605888800,11.111888671875,0.0004966795677319169,-0.000594950164668262,-0.0038511971943080425
1772656098615871700,11.121871826171875,-0.004008057527244091,-0.0034352114889770746,-0.005687713157385588
1772656098625853700,11.131853759765624,-0.0032317459117621183,-0.0018002968281507492,-0.004778776317834854
1772656098635837000,11.1418369140625,-0.00015925703337416053,-0.004116714466363192,-0.004068777430802584
1772656098645818600,11.151818603515625,-0.0031015174463391304,-0.0028426581993699074,-0.007497331127524376
1772656098655800800,11.16180078125,-0.0027856663800776005,-0.0035808864049613476,-0.004905276466161013
1772656098665783800,11.17178369140625,-0.0017923073610290885,-0.0019086875254288316,-0.00683154072612524
1772656098675765800,11.181765869140625,-0.0025720810517668724,-0.0014207963831722736,-0.0036858150269836187
1772656098685748700,11.191748779296875,-0.003418966196477413,-0.002335592173039913,-0.006512760184705257
1772656098695730700,11.201730712890624,-0.001927595934830606,-0.0003134540456812829,-0.002796319080516696
1772656098705713700,11.211713623046874,-0.0037374801468104124,-0.002532133599743247,-0.003992078360170126
1772656098715695900,11.22169580078125,-0.0030043120495975018,-0.0005371595616452396,-0.004483431577682495
1772656098725678600,11.2316787109375,-0.00421418622136116,-0.003175020683556795,-0.003769171889871359
1772656098735660800,11.241660888671875,-0.002561161993071437,0.00033156355493701994,-0.005042961798608303
1772656098745643800,11.251643798828125,-0.0018998990999534726,-0.0013265205780044198,-0.0027885958552360535
1772656098755625700,11.261625732421875,-0.0021020330023020506,0.000054861116950633004,-0.004151335451751947
1772656098765608700,11.271608642578125,-0.004282895475625992,-0.0004223773430567235,-0.002633600030094385
1772656098775590700,11.281590576171874,-0.004245611373335123,-0.00028762139845639467,-0.004613926634192467
1772656098785572900,11.29157275390625,-0.0027020431589335203,-0.0014034858904778957,-0.005270928610116243
1772656098795555800,11.301555908203126,-0.00166633992921561,-0.0008407599525526166,-0.005750829819589853
1772656098805537800,11.311537841796875,-0.002371278591454029,-0.003317766124382615,-0.004024302586913109
1772656098815520800,11.321520751953125,-0.0036634444259107113,-0.0012926984345540404,-0.004274373408406973
1772656098825503000,11.3315029296875,-0.0034226945135742426,0.0013960290234535933,-0.004493019077926874
1772656098835485700,11.341485595703125,-0.003355849301442504,0.0007038734620437026,-0.003817375050857663
1772656098845468000,11.351468017578124,-0.004549211822450161,-0.0007872303831391037,-0.0024466461036354303
1772656098855451000,11.361450927734374,-0.00166607357095927,-0.0027169568929821253,-0.005088767968118191
1772656098865432800,11.371432861328126,-0.002373675350099802,-0.002590723102912307,-0.0030341395176947117
1772656098875415800,11.381415771484376,-0.00469488650560379,0.0005254416610114276,-0.0032378712203353643
1772656098885397800,11.391397705078125,-0.0026762105990201235,-0.004372377879917622,-0.004442418925464153
1772656098895380700,11.401380615234375,-0.0021313277538865805,-0.002602973720058799,-0.00404534162953496
1772656098905363700,11.41136376953125,-0.003620833856984973,-0.000059921123465755954,-0.00606508320197463
1772656098915345700,11.421345703125,-0.00267674308270216,-0.0018045579781755805,-0.0044983453117311
1772656098925328600,11.43132861328125,-0.00009480853623244911,-0.004564125556498766,-0.0038661109283566475
1772656098935310800,11.441310791015624,-0.004077832214534283,-0.001618403010070324,-0.005031510256230831
1772656098945293600,11.45129345703125,-0.0017536915838718414,0.000031691615731688216,-0.003961452282965183
1772656098955275800,11.46127587890625,-0.004199272487312555,-0.003964648116379976,-0.0027768779546022415
1772656098965258800,11.4712587890625,-0.0019984361715614796,-0.003560912562534213,-0.0067966533824801445
1772656098975240700,11.48124072265625,-0.0027148264925926924,-0.0018471685471013188,-0.004084223881363869
1772656098985223700,11.4912236328125,-0.0029758161399513483,-0.004312722943723202,-0.0034972631838172674
1772656098995206000,11.501205810546875,-0.002808036981150508,-0.0012681973166763783,-0.005902896635234356
1772656099005187800,11.511187744140624,-0.001627457677386701,-0.0007384945638477802,-0.004367318004369736
1772656099015170800,11.5211708984375,-0.0005936186062172055,-0.0013978932984173298,-0.004190484061837196
1772656099025152800,11.53115283203125,-0.005262406077235937,-0.003721501212567091,-0.0017126789316534996
