time,seconds_elapsed,z,y,x
1772650981552535800,0.215535888671875,0.20692451298236847,0.04947862774133682,-0.14095300436019897
1772650981562413000,0.2254130859375,0.1710372269153595,0.06734590977430344,-0.17897824943065643
1772650981572290600,0.23529052734375,0.12232216447591782,0.09529217332601547,-0.18875180184841156
1772650981582167800,0.245167724609375,0.06200099736452103,0.10964708030223846,-0.16798299551010132
1772650981592045300,0.25504541015625,0.018783552572131157,0.1041494607925415,-0.10048437118530273
1772650981601922600,0.264922607421875,0.00015271181473508477,0.09483403712511063,-0.0035123717971146107
1772650981611800000,0.274800048828125,0.0029015245381742716,0.08796200156211853,0.08918370306491852
1772650981621677300,0.28467724609375,0.03802524134516716,0.1050657257437706,0.14797775447368622
1772650981631554600,0.294554443359375,0.08979454636573792,0.13927318155765533,0.1692046970129013
1772650981641432000,0.30443212890625,0.144465371966362,0.15393351018428802,0.16584503650665283
1772650981651309300,0.314309326171875,0.20142687857151031,0.14492350816726685,0.1719534993171692
1772650981661186800,0.324186767578125,0.25441789627075195,0.11468657106161118,0.20157960057258606
1772650981671064000,0.33406396484375,0.3017585575580597,0.047798797488212585,0.23868857324123383
1772650981680941600,0.343941650390625,0.3411581814289093,-0.026571854948997498,0.2611372172832489
1772650981690818800,0.35381884765625,0.3686463236808777,-0.08735115826129913,0.2564031481742859
1772650981700696300,0.3636962890625,0.3828485310077667,-0.1310267299413681,0.23090025782585144
1772650981710573600,0.373573486328125,0.3981196880340576,-0.15286453068256378,0.1985253542661667
1772650981720451000,0.383451171875,0.40972578525543213,-0.18569757044315338,0.16248537600040436
1772650981730328300,0.393328369140625,0.41232189536094666,-0.2295258641242981,0.13392825424671173
1772650981740205600,0.40320556640625,0.4002576768398285,-0.26602399349212646,0.11392301321029663
1772650981750083000,0.4130830078125,0.3849864900112152,-0.2864873707294464,0.08948912471532822
1772650981759960300,0.422960205078125,0.37383851408958435,-0.28373855352401733,0.0594048947095871
1772650981769837800,0.432837890625,0.3593308925628662,-0.2638860046863556,0.03542914241552353
1772650981779715000,0.442715087890625,0.33688226342201233,-0.23532891273498535,0.011453386396169662
1772650981789592600,0.452592529296875,0.30695074796676636,-0.2044811248779297,-0.016340164467692375
1772650981799469800,0.4624697265625,0.27152159810066223,-0.16752485930919647,-0.04718795046210289
1772650981809347000,0.47234716796875,0.24632415175437927,-0.111021488904953,-0.0794101431965828
1772650981819224600,0.482224609375,0.23212195932865143,-0.06291726976633072,-0.11147962510585785
1772650981829101800,0.492101806640625,0.22555534541606903,-0.03680354729294777,-0.13362284004688263
1772650981838979300,0.501979248046875,0.22402822971343994,-0.014813045971095562,-0.13621893525123596
1772650981848856600,0.511856689453125,0.22402822971343994,-0.0036650835536420345,-0.129499614238739
1772650981858734000,0.521734130859375,0.22631891071796417,0.007941014133393764,-0.1241547018289566
1772650981868611300,0.531611328125,0.22876229882240295,0.01710372418165207,-0.12965233623981476
1772650981878488800,0.54148876953125,0.22677704691886902,0.010231691412627697,-0.14309096336364746
1772650981888366000,0.551365966796875,0.2244863659143448,-0.017561858519911766,-0.15958385169506073
1772650981898243300,0.561243408203125,0.23716144263744354,-0.06551336497068405,-0.17286977171897888
1772650981908120800,0.571120849609375,0.2673983871936798,-0.1238492801785469,-0.19088977575302124
1772650981917998000,0.580998046875,0.3035911023616791,-0.1695101112127304,-0.22005772590637207
1772650981927875600,0.59087548828125,0.3358132839202881,-0.19623468816280365,-0.27029991149902344
1772650981937752800,0.6007529296875,0.367730051279068,-0.19989976286888123,-0.32008397579193115
1772650981947630300,0.61063037109375,0.4083513915538788,-0.1847812980413437,-0.34161633253097534
1772650981957507600,0.620507568359375,0.44668206572532654,-0.18600298464298248,-0.35200074315071106
1772650981967384800,0.630384765625,0.4734066128730774,-0.1973036676645279,-0.3833066523075104
1772650981977262300,0.640262451171875,0.47707170248031616,-0.18997350335121155,-0.4300364851951599
1772650981987139600,0.6501396484375,0.4556920528411865,-0.15744587779045105,-0.4816530644893646
1772650981997017000,0.66001708984375,0.42728766798973083,-0.10842538625001907,-0.5216635465621948
1772650982006894300,0.669894287109375,0.41827765107154846,-0.06994201242923737,-0.5329642295837402
1772650982016771800,0.679771728515625,0.42362257838249207,-0.05085303261876106,-0.5268557667732239
1772650982026649000,0.689649169921875,0.4381301999092102,-0.026877280324697495,-0.5166240930557251
1772650982036526600,0.699526611328125,0.4399627447128296,-0.006261184345930815,-0.4885250926017761
1772650982046403800,0.70940380859375,0.4375193417072296,0.05085303261876106,-0.4282039403915405
1772650982056267500,0.719267578125,0.45141613483428955,0.111632339656353,-0.363454133272171
1772650982066158600,0.72915869140625,0.5347967743873596,0.26067906618118286,-0.36452311277389526
1772650982076035800,0.739035888671875,0.730573296546936,0.5013529062271118,-0.44698747992515564
1772650982085899500,0.7488994140625,0.957503080368042,0.7446228265762329,-0.5835118293762207
1772650982095790600,0.75879052734375,1.1015102863311768,0.9164236187934875,-0.7482879161834717
1772650982105668000,0.768668212890625,1.1118947267532349,1.044243335723877,-0.8729007244110107
1772650982115545300,0.77854541015625,1.0251544713974,1.0960127115249634,-0.8927532434463501
1772650982125422600,0.788422607421875,0.8777875304222107,1.0308047533035278,-0.7872294187545776
1772650982135300000,0.798300048828125,0.7224795818328857,0.7565343379974365,-0.51998370885849
1772650982145163800,0.808163818359375,0.50685054063797,0.17714570462703705,-0.10766182839870453
1772650982155054800,0.818054931640625,0.2808370292186737,-0.40819868445396423,0.23380178213119507
1772650982164932000,0.82793212890625,0.12797249853610992,-0.7481352090835571,0.3124483823776245
1772650982174795800,0.837795654296875,0.05757235363125801,-0.906191885471344,0.15149012207984924
1772650982184686800,0.847686767578125,-0.007635590620338917,-0.9051229357719421,-0.16783028841018677
1772650982194564400,0.857564453125,-0.005650337319821119,-0.7380561828613281,-0.509141206741333
1772650982204427800,0.867427734375,0.062153708189725876,-0.44546034932136536,-0.7989882230758667
1772650982214318800,0.87731884765625,0.12690351903438568,-0.18630841374397278,-0.9709417223930359
1772650982224196400,0.8871962890625,0.23227466642856598,-0.1635543555021286,-0.9724688529968262
1772650982234073600,0.897073486328125,0.32787227630615234,-0.26632940769195557,-0.826018214225769
1772650982243951000,0.906951171875,0.39140036702156067,-0.3939964771270752,-0.6310052275657654
1772650982253828400,0.916828369140625,0.4175141155719757,-0.46485477685928345,-0.4584408700466156
1772650982263705900,0.926705810546875,0.42514967918395996,-0.4474456310272217,-0.33535513281822205
1772650982273583000,0.9365830078125,0.416597843170166,-0.3970507085323334,-0.26312246918678284
1772650982283460400,0.94646044921875,0.39979952573776245,-0.3477247953414917,-0.2414373755455017
1772650982293337900,0.956337890625,0.39384377002716064,-0.3106158375740051,-0.26006820797920227
1772650982303215000,0.966215087890625,0.4169032573699951,-0.2829749882221222,-0.3086305856704712
1772650982313092600,0.976092529296875,0.47233763337135315,-0.27152159810066223,-0.3830012381076813
1772650982322969900,0.985969970703125,0.5318952798843384,-0.26938363909721375,-0.46699273586273193
1772650982332847400,0.995847412109375,0.5761816501617432,-0.2560977041721344,-0.5517477989196777
1772650982342724600,1.005724609375,0.6021426916122437,-0.2279987335205078,-0.6206207871437073
1772650982352602000,1.01560205078125,0.6022953987121582,-0.19654010236263275,-0.6514685750007629
1772650982362479400,1.025479248046875,0.5772506594657898,-0.1829487532377243,-0.6361974477767944
1772650982372356600,1.035356689453125,0.529451847076416,-0.1817270666360855,-0.5809157490730286
1772650982382234000,1.045234130859375,0.4695888161659241,-0.20906247198581696,-0.48806697130203247
1772650982392111400,1.055111328125,0.40850409865379333,-0.29794076085090637,-0.3765873312950134
1772650982401988900,1.06498876953125,0.3443651497364044,-0.434617817401886,-0.27029991149902344
1772650982411866000,1.0748662109375,0.2970244884490967,-0.5914528369903564,-0.1516428291797638
1772650982421743600,1.08474365234375,0.27350685000419617,-0.7510367035865784,-0.01832541823387146
1772650982431620900,1.094620849609375,0.2790044844150543,-0.8942803740501404,0.10033166408538818
1772650982441498000,1.104498046875,0.2982461750507355,-0.9883508682250977,0.16767756640911102
1772650982451375600,1.114375732421875,0.32283276319503784,-1.0060654878616333,0.1682884246110916
1772650982461252900,1.1242529296875,0.3506263196468353,-0.9655967950820923,0.11712995916604996
1772650982471130400,1.13413037109375,0.3590254783630371,-0.8991671800613403,0.03390202298760414
1772650982481007600,1.144007568359375,0.34971004724502563,-0.8353336453437805,-0.060779303312301636
1772650982490885000,1.153885009765625,0.337798535823822,-0.7708892226219177,-0.15622419118881226
1772650982500762400,1.163762451171875,0.3402419090270996,-0.6788040399551392,-0.252432644367218
1772650982510639900,1.173639892578125,0.36727190017700195,-0.5914528369903564,-0.33321717381477356
1772650982520517000,1.18351708984375,0.40606072545051575,-0.533727765083313,-0.3808632791042328
1772650982530394400,1.193394287109375,0.4480564594268799,-0.4862344264984131,-0.4062134325504303
1772650982540271900,1.20327197265625,0.4903576374053955,-0.41110020875930786,-0.4312581717967987
1772650982550149000,1.213149169921875,0.5135698318481445,-0.31565532088279724,-0.45324867963790894
1772650982560012800,1.2230126953125,0.5173876285552979,-0.1844758689403534,-0.4969242513179779
1772650982569903900,1.23290380859375,0.48898324370384216,-0.021685076877474785,-0.5509842038154602
1772650982579781400,1.242781494140625,0.4268295168876648,0.15515519678592682,-0.6212316751480103
1772650982589644800,1.252644775390625,0.3180987238883972,0.2945810854434967,-0.6867450475692749
1772650982599536000,1.2625361328125,0.16905197501182556,0.3778090178966522,-0.7281299233436584
1772650982609413400,1.272413330078125,-0.014049487188458443,0.420873761177063,-0.7409577369689941
1772650982619290600,1.28229052734375,-0.2279987335205078,0.4596625566482544,-0.7348492741584778
1772650982629168000,1.292168212890625,-0.4390464723110199,0.4874561131000519,-0.694227933883667
1772650982639045400,1.30204541015625,-0.6067240238189697,0.4775298535823822,-0.6233696341514587
1772650982648923000,1.3119228515625,-0.7253811359405518,0.4384356141090393,-0.5464028716087341
1772650982658800000,1.321800048828125,-0.7892146706581116,0.4077405333518982,-0.48424917459487915
1772650982668677600,1.331677734375,-0.8130376935005188,0.3972034156322479,-0.42957833409309387
1772650982678555000,1.341554931640625,-0.8205205798149109,0.40163207054138184,-0.37383851408958435
1772650982688432000,1.35143212890625,-0.8222004175186157,0.3993414044380188,-0.30084228515625
1772650982698309600,1.3613095703125,-0.8364025950431824,0.38956785202026367,-0.18966807425022125
1772650982708187000,1.371186767578125,-0.8761076927185059,0.3874298632144928,-0.05344913527369499
1772650982718064400,1.381064453125,-0.9604045748710632,0.3987305462360382,0.08948912471532822
1772650982727941600,1.390941650390625,-0.9906415343284607,0.46928340196609497,0.20493926107883453
1772650982737805300,1.400805419921875,-0.9338327646255493,0.4850127100944519,0.29442837834358215
1772650982747696400,1.4106962890625,-0.7876875400543213,0.42957833409309387,0.402395635843277
1772650982757573600,1.42057373046875,-0.6390989422798157,0.3512371778488159,0.5442649126052856
1772650982767437300,1.430437255859375,-0.4706578254699707,0.314586341381073,0.647192656993866
1772650982777328400,1.440328369140625,-0.30725616216659546,0.45645561814308167,0.6456655263900757
1772650982787206000,1.450205810546875,-0.1954711228609085,0.8313631415367126,0.4766135811805725
1772650982797083100,1.460083251953125,-0.1560714691877365,1.3658545017242432,0.1682884246110916
1772650982806960600,1.469960693359375,-0.15530791878700256,1.8329999446868896,-0.18187977373600006
1772650982816838000,1.479837890625,-0.11545012891292572,1.9661645889282227,-0.42667680978775024
1772650982826701600,1.48970166015625,-0.03497100621461868,1.7858120203018188,-0.573585569858551
1772650982836592600,1.499592529296875,0.031153209507465363,1.3728792667388916,-0.6267293095588684
1772650982846470000,1.509469970703125,0.05405998229980469,0.8240329623222351,-0.5213581323623657
1772650982856333600,1.51933349609375,0.028404397889971733,0.24785128235816956,-0.22570806741714478
1772650982866224600,1.529224609375,-0.016798298805952072,-0.29381752014160156,0.19989976286888123
1772650982876102100,1.53910205078125,-0.07085828483104706,-0.7238540053367615,0.6326850652694702
1772650982885979400,1.5489794921875,-0.1178935244679451,-1.0066763162612915,0.9910996556282043
1772650982895857000,1.55885693359375,-0.1569877415895462,-1.2116155624389648,1.22963547706604
1772650982905734100,1.568734130859375,-0.18691925704479218,-1.3696722984313965,1.3347012996673584
1772650982915597800,1.578597900390625,-0.21379654109477997,-1.4342693090438843,1.3166812658309937
1772650982925489000,1.588489013671875,-0.23425991833209991,-1.380972981452942,1.212226390838623
1772650982935366100,1.5983662109375,-0.24601873755455017,-1.2343696355819702,1.0790616273880005
1772650982945243600,1.60824365234375,-0.2495311051607132,-1.0488247871398926,0.9602518677711487
1772650982955121000,1.618120849609375,-0.24937839806079865,-0.8955020904541016,0.8773293495178223
1772650982964998400,1.627998291015625,-0.2554868757724762,-0.7631009221076965,0.825101912021637
1772650982974861800,1.63786181640625,-0.2874036431312561,-0.6482616662979126,0.7950177192687988
1772650982984753200,1.647753173828125,-0.3370349705219269,-0.5360184907913208,0.7669187188148499
1772650982994630400,1.65763037109375,-0.3903313875198364,-0.3574983477592468,0.6844543814659119
1772650983004507600,1.667507568359375,-0.4688252806663513,-0.08231166750192642,0.5439594984054565
1772650983014385200,1.67738525390625,-0.5696150660514832,0.22280654311180115,0.40071579813957214
1772650983024262400,1.687262451171875,-0.6432221531867981,0.4752391576766968,0.29946786165237427
1772650983034140000,1.697139892578125,-0.6876612901687622,0.6694886088371277,0.25625041127204895
1772650983044017200,1.70701708984375,-0.7061394453048706,0.7608102560043335,0.2777827978134155
1772650983053894700,1.716894775390625,-0.6671979427337646,0.7151494026184082,0.34787750244140625
1772650983063758000,1.726758056640625,-0.591605544090271,0.5686988234519958,0.4405735731124878
1772650983073649400,1.7366494140625,-0.49952033162117004,0.39766156673431396,0.5230379700660706
1772650983083526700,1.746526611328125,-0.4049917459487915,0.26785650849342346,0.566408097743988
1772650983093404000,1.75640380859375,-0.32909396290779114,0.1882936656475067,0.5612159371376038
1772650983103281400,1.766281494140625,-0.27839362621307373,0.1450762301683426,0.5172349214553833
1772650983113158700,1.77615869140625,-0.25747212767601013,0.129499614238739,0.4462239146232605
1772650983123036200,1.7860361328125,-0.25319617986679077,0.12491826713085175,0.3689517378807068
1772650983132913400,1.795913330078125,-0.25625041127204895,0.1169772520661354,0.3077143132686615
1772650983142791000,1.805791015625,-0.2648022770881653,0.08994726091623306,0.2582356929779053
1772650983152668200,1.815668212890625,-0.2754921019077301,0.03130592033267021,0.2241809368133545
1772650983162545400,1.82554541015625,-0.27808821201324463,-0.04306473210453987,0.20127417147159576
1772650983172423000,1.8354228515625,-0.2739650011062622,-0.10338589549064636,0.17271706461906433
1772650983182300200,1.845300048828125,-0.2652604281902313,-0.12064233422279358,0.10659284889698029
1772650983192177700,1.855177734375,-0.2408265322446823,-0.09620844572782516,-0.002748812548816204
1772650983202055000,1.865054931640625,-0.19424942135810852,-0.045355409383773804,-0.12323843687772751
1772650983211932400,1.874932373046875,-0.1375933438539505,0.04825693368911743,-0.24647687375545502
1772650983221809700,1.8848095703125,-0.08887827396392822,0.16813570261001587,-0.381474107503891
1772650983231687200,1.894687255859375,-0.06123743951320648,0.2898470163345337,-0.5079194903373718
1772650983241564400,1.904564453125,-0.050547610968351364,0.4043808877468109,-0.6116108298301697
1772650983251441700,1.914441650390625,-0.03955236077308655,0.5112791657447815,-0.694227933883667
1772650983261319200,1.924319091796875,-0.008246437646448612,0.6055023670196533,-0.7653915882110596
1772650983271182800,1.934182861328125,0.04688252881169319,0.6594096422195435,-0.8289197087287903
1772650983281074000,1.944073974609375,0.10811996459960938,0.6658235192298889,-0.8750386834144592
1772650983290951200,1.953951171875,0.15927842259407043,0.6508577466011047,-0.9031376838684082
1772650983300814800,1.96381494140625,0.182643324136734,0.6447492837905884,-0.8982508778572083
1772650983310706000,1.973705810546875,0.1363716572523117,0.6927008032798767,-0.8278507590293884
1772650983320583400,1.98358349609375,0.01175880990922451,0.8338065147399902,-0.6763606071472168
1772650983330446800,1.99344677734375,-0.1507265567779541,1.0335536003112793,-0.4450022280216217
1772650983340338000,2.003337890625,-0.31199023127555847,1.1966497898101807,-0.1328592747449875
1772650983350215400,2.01321533203125,-0.4506525695323944,1.207950472831726,0.2817533016204834
1772650983360079000,2.0230791015625,-0.5012001991271973,1.0130901336669922,0.7598940134048462
1772650983369970200,2.03297021484375,-0.4291202127933502,0.7295043468475342,1.1317472457885742
1772650983379847400,2.042847412109375,-0.3315373361110687,0.5628957748413086,1.277281641960144
1772650983389711000,2.052711181640625,-0.2483094036579132,0.5946598052978516,1.2003148794174194
1772650983399602200,2.062602294921875,-0.15515519678592682,0.7363763451576233,0.9897252917289734
1772650983409479700,2.072479736328125,-0.11774080991744995,0.8893936276435852,0.7637118101119995
1772650983419343000,2.082343017578125,-0.15149012207984924,0.9721634387969971,0.564117431640625
1772650983429234200,2.092234130859375,-0.24708771705627441,1.0799779891967773,0.30786702036857605
1772650983439111700,2.102111572265625,-0.40667155385017395,1.23940908908844,-0.02748812735080719
1772650983448989000,2.111989013671875,-0.5364766120910645,1.2546802759170532,-0.3315373361110687
1772650983458866400,2.121866455078125,-0.557550847530365,0.9562813639640808,-0.44515493512153625
1772650983468743700,2.13174365234375,-0.4683671295642853,0.3755183517932892,-0.3465031087398529
1772650983478621200,2.14162109375,-0.33230090141296387,-0.26495498418807983,-0.12247487902641296
1772650983488498400,2.15149853515625,-0.18646112084388733,-0.8389987349510193,0.12216944992542267
1772650983498376000,2.1613759765625,-0.07681404054164886,-1.200467586517334,0.30969956517219543
1772650983508239400,2.1712392578125,-0.029778804630041122,-1.2329951524734497,0.4146125912666321
1772650983518130400,2.18113037109375,-0.013744063675403595,-0.9801044464111328,0.4518742561340332
1772650983528008000,2.191008056640625,-0.008704573847353458,-0.6212316751480103,0.4492781460285187
1772650983537885200,2.20088525390625,-0.007788302376866341,-0.3118375241756439,0.44454410672187805
1772650983547762700,2.2107626953125,0.011453386396169662,-0.10246963053941727,0.4343124032020569
1772650983557640000,2.220639892578125,0.07375980913639069,-0.013896775431931019,0.4017847776412964
1772650983567503600,2.230503662109375,0.16752485930919647,-0.008704573847353458,0.3071034550666809
1772650983577394700,2.240394775390625,0.26663482189178467,-0.026724567636847496,0.1122431829571724
1772650983587272200,2.250272216796875,0.34100547432899475,-0.04734066128730774,-0.20310671627521515
1772650983597149400,2.2601494140625,0.3930802047252655,-0.043828289955854416,-0.6016845703125
1772650983607027000,2.27002685546875,0.4372139275074005,-0.025350160896778107,-1.0341644287109375
1772650983616904200,2.279904296875,0.46867257356643677,-0.006261184345930815,-1.4573287963867188
1772650983626768000,2.289767822265625,0.47859883308410645,-0.0009162708884105086,-1.838192105293274
1772650983636659000,2.299658935546875,0.4359922409057617,-0.007788302376866341,-2.12070894241333
1772650983646536200,2.3095361328125,0.30969956517219543,-0.04107947647571564,-2.224705696105957
1772650983656400000,2.31939990234375,0.13377554714679718,-0.08643488585948944,-2.0898611545562744
1772650983666291000,2.329291015625,-0.03649812191724777,-0.11147962510585785,-1.6934213638305664
1772650983676168400,2.33916845703125,-0.15286453068256378,-0.11804623156785965,-1.1143381595611572
1772650983686032000,2.349031982421875,-0.19287502765655518,-0.13652436435222626,-0.4900522232055664
1772650983695923200,2.358923095703125,-0.182643324136734,-0.19363857805728912,0.04443913698196411
1772650983705800400,2.368800537109375,-0.13117945194244385,-0.3080197274684906,0.42881476879119873
1772650983715664100,2.3786640625,-0.045355409383773804,-0.43858832120895386,0.6722373962402344
1772650983725555200,2.38855517578125,0.06872031837701797,-0.5181511640548706,0.7650861740112305
1772650983735432400,2.398432373046875,0.19944162666797638,-0.5204418897628784,0.7139277458190918
1772650983745296100,2.408296142578125,0.3110739588737488,-0.46485477685928345,0.5632011890411377
1772650983755187200,2.418187255859375,0.3775036036968231,-0.39231663942337036,0.363454133272171
1772650983765064700,2.428064697265625,0.3965925872325897,-0.3173351585865021,0.1785201132297516
1772650983774928100,2.43792822265625,0.3649812340736389,-0.2686200737953186,0.042759306728839874
1772650983784819500,2.4478193359375,0.29229041934013367,-0.2721324563026428,-0.031916771084070206
1772650983794696700,2.45769677734375,0.20600824058055878,-0.2861819267272949,-0.08017370104789734
1772650983804560400,2.467560302734375,0.12232216447591782,-0.2673983871936798,-0.1385096162557602
1772650983814451500,2.477451416015625,0.05008947476744652,-0.18615570664405823,-0.20188501477241516
1772650983824328700,2.48732861328125,-0.015576604753732681,-0.0778830274939537,-0.2513636350631714
1772650983834206200,2.497206298828125,-0.07406523078680038,0.020616095513105392,-0.2623589038848877
1772650983844083500,2.50708349609375,-0.1256818175315857,0.08154810965061188,-0.22586077451705933
1772650983853961000,2.5169609375,-0.17592400312423706,0.11254860460758209,-0.1426328420639038
1772650983863838200,2.526838134765625,-0.2166980654001236,0.13270656764507294,-0.034665580838918686
1772650983873715500,2.536715576171875,-0.23929941654205322,0.17928366363048553,0.07559234648942947
1772650983883593000,2.546593017578125,-0.26312246918678284,0.2617480456829071,0.1701209545135498
1772650983893470200,2.55647021484375,-0.29977330565452576,0.3733803927898407,0.2363978922367096
1772650983903347700,2.56634765625,-0.3171824514865875,0.5097520351409912,0.27442312240600586
1772650983913225000,2.576224853515625,-0.2982461750507355,0.6397097706794739,0.2858765125274658
1772650983923088600,2.586088623046875,-0.2486148327589035,0.7508839964866638,0.3017585575580597
1772650983932979700,2.595979736328125,-0.16783028841018677,0.8360971808433533,0.3533751368522644
1772650983942857200,2.605857177734375,-0.07207997888326645,0.8706100583076477,0.4553866386413574
1772650983952720600,2.615720703125,0.05375456064939499,0.7359182238578796,0.6528429985046387
1772650983962612000,2.625612060546875,0.19379130005836487,0.38009971380233765,0.9678874611854553
1772650983972489200,2.6354892578125,0.2664821147918701,0.04810422286391258,1.2264286279678345
1772650983982366700,2.64536669921875,0.27060532569885254,-0.28037887811660767,1.4385453462600708
1772650983992244000,2.655243896484375,0.23334364593029022,-0.5479300022125244,1.6161491870880127
1772650984002121200,2.665121337890625,0.18187977373600006,-0.592216432094574,1.6709727048873901
1772650984011985000,2.67498486328125,0.12247487902641296,-0.3035911023616791,1.5136795043945312
1772650984021876000,2.6848759765625,0.11606097966432571,0.08246438205242157,1.1523633003234863
1772650984031753500,2.69475341796875,0.19470755755901337,0.2811424434185028,0.674680769443512
1772650984041617200,2.7046171875,0.3167243003845215,0.29595550894737244,0.0784938707947731
1772650984051508200,2.71450830078125,0.5354076027870178,0.12140589207410812,-0.5948125123977661
1772650984061385500,2.724385498046875,0.7763868570327759,-0.12003148347139359,-1.1653438806533813
1772650984071249200,2.734249267578125,0.7855495810508728,-0.31855684518814087,-1.323706030845642
1772650984081140200,2.74414013671875,0.5476245880126953,-0.36192700266838074,-1.0123265981674194
1772650984091017700,2.754017822265625,0.1575985997915268,-0.08689302206039429,-0.4847072958946228
1772650984100881200,2.763881103515625,-0.1760767251253128,0.34848836064338684,0.02733541466295719
1772650984110772500,2.7737724609375,-0.30572906136512756,0.7198835015296936,0.4387410581111908
1772650984120649700,2.783649658203125,-0.270452618598938,0.8842014074325562,0.7572978734970093
1772650984130513400,2.793513427734375,-0.09605573117733002,0.8061656951904297,0.9793408513069153
1772650984140404500,2.803404541015625,0.1372879147529602,0.612527072429657,1.050046443939209
1772650984150281700,2.81328173828125,0.3381039500236511,0.47203221917152405,0.9585720896720886
1772650984160145400,2.8231455078125,0.43202173709869385,0.46485477685928345,0.7414158582687378
1772650984170036500,2.833036376953125,0.4199574887752533,0.5676298141479492,0.46073153614997864
1772650984179914000,2.8429140625,0.33596599102020264,0.7014053463935852,0.22524993121623993
1772650984189777400,2.85277734375,0.23120568692684174,0.7734853625297546,0.1188097894191742
1772650984199668500,2.86266845703125,0.15484978258609772,0.6873558759689331,0.1513374149799347
1772650984209546000,2.8725458984375,0.09590301662683487,0.43858832120895386,0.30908870697021484
1772650984219409700,2.88240966796875,0.03420744836330414,0.08322793990373611,0.5325061082839966
1772650984229300700,2.89230078125,-0.012064233422279358,-0.3171824514865875,0.7855495810508728
1772650984239178000,2.902177978515625,-0.04504998400807381,-0.697892963886261,1.0292776823043823
1772650984249041700,2.912041748046875,-0.07864658534526825,-0.9747595191001892,1.1896250247955322
1772650984258932700,2.9219326171875,-0.09620844572782516,-1.0811996459960938,1.220778226852417
1772650984268810200,2.931810302734375,-0.0841442123055458,-1.0955545902252197,1.1908466815948486
1772650984278674000,2.941673828125,-0.04077405482530594,-1.0805888175964355,1.1453386545181274
1772650984288565000,2.95156494140625,0.03955236077308655,-1.068677306175232,1.050046443939209
1772650984298442200,2.961442138671875,0.1429382562637329,-1.048366665840149,0.8935168385505676
1772650984308306000,2.971305908203125,0.25090551376342773,-0.9930849075317383,0.6748335361480713
1772650984318197000,2.981197021484375,0.34008920192718506,-0.9248227477073669,0.4155288338661194
1772650984328074500,2.991074462890625,0.4372139275074005,-0.8733588457107544,0.13377554714679718
1772650984337938000,3.00093798828125,0.48272204399108887,-0.8043331503868103,-0.16172181069850922
1772650984347829200,3.010829345703125,0.478751540184021,-0.6723901033401489,-0.46042612195014954
1772650984357706500,3.02070654296875,0.45202696323394775,-0.49295374751091003,-0.730573296546936
1772650984367570200,3.030570068359375,0.40041038393974304,-0.2921377122402191,-0.943759024143219
1772650984377461200,3.040461181640625,0.3118375241756439,-0.09284878522157669,-1.0813523530960083
1772650984387338500,3.05033837890625,0.18676654994487762,0.09086353331804276,-1.1251806020736694
1772650984397202200,3.0602021484375,0.04734066128730774,0.2304421216249466,-1.063179612159729
1772650984407093200,3.07009326171875,-0.07559234648942947,0.32130566239356995,-0.917645275592804
1772650984416970800,3.079970703125,-0.1635543555021286,0.37231141328811646,-0.73255854845047
1772650984426834200,3.089834228515625,-0.1892099380493164,0.3900259733200073,-0.5696150660514832
1772650984436725500,3.0997255859375,-0.15714046359062195,0.3949127495288849,-0.46668729186058044
1772650984446602800,3.109602783203125,-0.07467607408761978,0.4043808877468109,-0.4477510452270508
1772650984456466400,3.119466552734375,0.04886778071522713,0.44988900423049927,-0.5132644176483154
1772650984466357500,3.129357421875,0.18493400514125824,0.50196373462677,-0.5847335457801819
1772650984476234800,3.13923486328125,0.328330397605896,0.5057815313339233,-0.5966450572013855
1772650984486112300,3.1491123046875,0.4643966257572174,0.4671454429626465,-0.5671716928482056
1772650984495989500,3.158989501953125,0.5500679612159729,0.4199574887752533,-0.5234960913658142
1772650984505867000,3.168866943359375,0.5622848868370056,0.36009445786476135,-0.45767730474472046
1772650984515744300,3.178744140625,0.5352548956871033,0.2376195788383484,-0.3367295563220978
1772650984525621800,3.188621826171875,0.48760882019996643,0.12522368133068085,-0.2041756957769394
1772650984535499000,3.1984990234375,0.44958359003067017,0.21853061020374298,-0.17531315982341766
1772650984545362700,3.20836279296875,0.4703523814678192,0.6296308040618896,-0.3313846290111542
1772650984555253800,3.218253662109375,0.5758762359619141,1.1070079803466797,-0.5493044257164001
1772650984565131300,3.22813134765625,0.7704311013221741,1.1352596282958984,-0.5245651006698608
1772650984575008500,3.238008544921875,0.9280297160148621,0.6531484127044678,-0.16660858690738678
1772650984584886000,3.247885986328125,0.9071081876754761,0.18065807223320007,0.30084228515625
1772650984594763300,3.25776318359375,0.7524111270904541,0.034818295389413834,0.5906893014907837
1772650984604627000,3.267626953125,0.5593833923339844,-0.03771981969475746,0.763559103012085
1772650984614518000,3.27751806640625,0.3602471649646759,-0.4017847776412964,1.088987946510315
1772650984624395300,3.287395263671875,0.23334364593029022,-0.9848384857177734,1.4541219472885132
1772650984634259000,3.297259033203125,0.144465371966362,-1.6286715269088745,1.7826050519943237
1772650984644150000,3.30714990234375,0.12155860662460327,-2.2233312129974365,1.9606670141220093
1772650984654027500,3.317027587890625,0.1901262104511261,-2.53104567527771,1.832236409187317
1772650984663891000,3.326890869140625,0.3507790267467499,-2.433310031890869,1.404185175895691
1772650984673782300,3.3367822265625,0.5292991399765015,-2.0525994300842285,0.767224133014679
1772650984683659500,3.346659423828125,0.7069029808044434,-1.5217732191085815,0.07009471952915192
1772650984693537000,3.356537109375,0.9064973592758179,-1.0573766231536865,-0.4993676245212555
1772650984703414300,3.366414306640625,1.0266815423965454,-0.830294132232666,-0.7970029711723328
1772650984713291800,3.376291748046875,1.0712733268737793,-0.7035433053970337,-0.9129112362861633
1772650984723155200,3.3861552734375,1.0460759401321411,-0.4987567961215973,-1.0465340614318848
1772650984733046500,3.396046630859375,0.9512419104576111,-0.208298921585083,-1.2968287467956543
1772650984742923800,3.405923828125,0.8087617754936218,-0.02764083817601204,-1.6017942428588867
1772650984752787500,3.415787353515625,0.6293253898620605,-0.06459710001945496,-1.8626259565353394
1772650984762678500,3.425678466796875,0.47707170248031616,-0.29320669174194336,-2.0089240074157715
1772650984772555800,3.4355556640625,0.38223767280578613,-0.611152708530426,-1.990445852279663
1772650984782419500,3.44541943359375,0.3739912211894989,-0.938872218132019,-1.7758857011795044
1772650984792310500,3.455310546875,0.4309527277946472,-1.2183349132537842,-1.3759334087371826
1772650984802188000,3.46518798828125,0.5178457498550415,-1.4420576095581055,-0.8603783845901489
1772650984812051500,3.475051513671875,0.5954233407974243,-1.5810253620147705,-0.3184041380882263
1772650984821942800,3.48494287109375,0.6447492837905884,-1.5940059423446655,0.14034216105937958
1772650984831820000,3.494820068359375,0.6694886088371277,-1.514137625694275,0.4766135811805725
1772650984841683700,3.50468359375,0.6743753552436829,-1.3965495824813843,0.6781931519508362
1772650984851574800,3.51457470703125,0.6864396333694458,-1.2746855020523071,0.7339329719543457
1772650984861452300,3.524452392578125,0.7091936469078064,-1.1230427026748657,0.6473453640937805
1772650984871315700,3.534315673828125,0.749204158782959,-0.9287932515144348,0.4291202127933502
1772650984881207000,3.54420703125,0.8347227573394775,-0.7603521347045898,0.15087927877902985
1772650984891084300,3.554084228515625,0.9361234307289124,-0.6752916574478149,-0.08887827396392822
1772650984900948000,3.563947998046875,1.003622055053711,-0.6635328531265259,-0.2411319613456726
1772650984910839000,3.573839111328125,1.029735803604126,-0.705986738204956,-0.3107685446739197
1772650984920716500,3.583716552734375,1.0144646167755127,-0.7794411182403564,-0.3139754831790924
1772650984930593800,3.59359375,0.968956470489502,-0.837471604347229,-0.29351210594177246
1772650984940471000,3.603470947265625,0.8993198871612549,-0.8751913905143738,-0.2582356929779053
1772650984950348500,3.6133486328125,0.8127322793006897,-0.9000834226608276,-0.21868331730365753
1772650984960225800,3.623225830078125,0.7230904698371887,-0.8887827396392822,-0.18737739324569702
1772650984970103300,3.633103271484375,0.6542174220085144,-0.8301414251327515,-0.1901262104511261
1772650984979980500,3.64298046875,0.5923691391944885,-0.7284353375434875,-0.23899398744106293
1772650984989844200,3.65284423828125,0.5181511640548706,-0.5540384650230408,-0.35383328795433044
1772650984999735300,3.6627353515625,0.42072105407714844,-0.30068957805633545,-0.5181511640548706
1772650985009612800,3.67261279296875,0.2796153426170349,-0.058183200657367706,-0.6591041684150696
1772650985019476200,3.682476318359375,0.08628217875957489,0.12400199472904205,-0.7278245091438293
1772650985029367600,3.692367431640625,-0.13377554714679718,0.26403874158859253,-0.7272136807441711
1772650985039244800,3.702244873046875,-0.3449759781360626,0.4133908748626709,-0.6920899152755737
1772650985049108500,3.7121083984375,-0.5283828973770142,0.5725166201591492,-0.6227588057518005
1772650985058999600,3.72199951171875,-0.6806365847587585,0.7826480269432068,-0.5544965863227844
1772650985068877000,3.731876953125,-0.795628547668457,0.9422318935394287,-0.4643966257572174
1772650985078740500,3.741740478515625,-0.862669050693512,1.0265288352966309,-0.3599417507648468
1772650985088631600,3.751631591796875,-0.8680139780044556,1.1018157005310059,-0.3179459869861603
1772650985098509000,3.761509033203125,-0.8432746529579163,1.200467586517334,-0.37689274549484253
1772650985108372700,3.771372802734375,-0.807081937789917,1.3134742975234985,-0.5080721974372864
1772650985118263800,3.781263916015625,-0.7576032876968384,1.4315205812454224,-0.635739266872406
1772650985128141000,3.79114111328125,-0.6934643387794495,1.5095562934875488,-0.684148907661438
1772650985138004700,3.801004638671875,-0.6218425035476685,1.5162756443023682,-0.6395570635795593
1772650985147895800,3.810895751953125,-0.5680879354476929,1.495506763458252,-0.5383091568946838
1772650985157773300,3.820773193359375,-0.5538857579231262,1.4632846117019653,-0.409420371055603
1772650985167637000,3.830636962890625,-0.5909947156906128,1.3753225803375244,-0.22616620361804962
1772650985177528000,3.840528076171875,-0.6865923404693604,1.1928319931030273,0.004428642801940441
1772650985187405300,3.8504052734375,-0.8586985468864441,0.853506326675415,0.3148917555809021
1772650985197269000,3.86026904296875,-1.010799527168274,0.4943281412124634,0.633448600769043
1772650985207160000,3.87016015625,-1.0279031991958618,0.395218163728714,0.8044858574867249
1772650985217037600,3.88003759765625,-0.9236010313034058,0.3970507085323334,0.8565605878829956
1772650985226901000,3.88990087890625,-0.8171609044075012,0.31473904848098755,0.8684720993041992
1772650985236792300,3.899792236328125,-0.718814492225647,0.17180079221725464,0.7857022881507874
1772650985246669600,3.909669677734375,-0.6210789680480957,0.01695101149380207,0.6245913505554199
1772650985256533200,3.919533203125,-0.5470137000083923,-0.04734066128730774,0.3530697226524353
1772650985266424300,3.92942431640625,-0.48806697130203247,-0.0847550556063652,0.01847812905907631
1772650985276301600,3.939301513671875,-0.3883461356163025,-0.2527380585670471,-0.21501824259757996
1772650985286179000,3.949178955078125,-0.2432699203491211,-0.6122216582298279,-0.18081079423427582
1772650985296056300,3.959056396484375,-0.05803048983216286,-1.0648595094680786,0.17348061501979828
1772650985305933800,3.968933837890625,0.11682453751564026,-1.4156385660171509,0.6998782753944397
1772650985315811000,3.97881103515625,0.2689255177974701,-1.5633108615875244,1.158624529838562
1772650985325688600,3.9886884765625,0.40697699785232544,-1.5010044574737549,1.4467917680740356
1772650985335565800,3.99856591796875,0.5402944087982178,-1.3163758516311646,1.5535372495651245
1772650985345429500,4.008429443359375,0.6717792749404907,-1.0581401586532593,1.4625210762023926
1772650985355320600,4.018320556640625,0.7905890941619873,-0.8011261820793152,1.1935955286026
1772650985365198000,4.028197998046875,0.8877137899398804,-0.5880932211875916,0.7488987445831299
1772650985375061500,4.0380615234375,0.916270911693573,-0.45950984954833984,0.19944162666797638
1772650985384952800,4.047952880859375,0.8800781965255737,-0.3695625960826874,-0.33886751532554626
1772650985394830000,4.057830078125,0.809983491897583,-0.31000497937202454,-0.7461498975753784
1772650985404693800,4.06769384765625,0.6868977546691895,-0.29565006494522095,-0.9171871542930603
1772650985414584800,4.077584716796875,0.5430431962013245,-0.3345915973186493,-0.8144121170043945
1772650985424462300,4.08746240234375,0.4143071472644806,-0.4017847776412964,-0.46546560525894165
1772650985434325800,4.09732568359375,0.2867927849292755,-0.4674508571624756,0.02626643143594265
1772650985444217000,4.107217041015625,0.1769929975271225,-0.4793623983860016,0.4955498278141022
1772650985454094300,4.11709423828125,0.10582929104566574,-0.4462239146232605,0.8412894010543823
1772650985463958000,4.1269580078125,0.08002099394798279,-0.3746020793914795,1.0469921827316284
1772650985473849000,4.13684912109375,0.08612946420907974,-0.3268032968044281,1.1601516008377075
1772650985483726600,4.1467265625,0.11743538826704025,-0.33504971861839294,1.233605980873108
1772650985493590000,4.156590087890625,0.1582094430923462,-0.40544986724853516,1.2855280637741089
1772650985503481000,4.166481201171875,0.19150061905384064,-0.49295374751091003,1.297592282295227
1772650985513358600,4.176358642578125,0.21196399629116058,-0.5625903010368347,1.2507097721099854
1772650985523222300,4.18622216796875,0.22494450211524963,-0.6091674566268921,1.1381611824035645
1772650985533113300,4.19611328125,0.24449162185192108,-0.6384881138801575,0.9880454540252686
1772650985542990600,4.205990478515625,0.26403874158859253,-0.6507050395011902,0.8194515705108643
1772650985552868000,4.2158681640625,0.2786990702152252,-0.638029932975769,0.6403206586837769
1772650985562745300,4.225745361328125,0.28312769532203674,-0.5809157490730286,0.4456130862236023
1772650985572622800,4.235622802734375,0.284654825925827,-0.4747810363769531,0.24632415175437927
1772650985582500000,4.2455,0.31229567527770996,-0.3930802047252655,0.09025268256664276
1772650985592377600,4.255377685546875,0.3208475112915039,-0.35200074315071106,-0.004581354558467865
1772650985602254800,4.2652548828125,0.3142809271812439,-0.3623851239681244,-0.05482354015111923
1772650985612132400,4.27513232421875,0.3011476993560791,-0.40193748474121094,-0.0778830274939537
1772650985622009600,4.285009521484375,0.2826695740222931,-0.4627167880535126,-0.08551861345767975
1772650985631887000,4.29488720703125,0.2582356929779053,-0.5154023766517639,-0.08643488585948944
1772650985641764400,4.304764404296875,0.2438807636499405,-0.5454866290092468,-0.09345962852239609
1772650985651641900,4.314641845703125,0.23884128034114838,-0.5519005060195923,-0.12232216447591782
1772650985661519000,4.32451904296875,0.2504473626613617,-0.5421269536018372,-0.18126893043518066
1772650985671396600,4.334396728515625,0.2761029601097107,-0.5175403356552124,-0.28129515051841736
1772650985681273900,4.34427392578125,0.30969956517219543,-0.457830011844635,-0.4220954477787018
1772650985691151400,4.3541513671875,0.3549022674560547,-0.3671191930770874,-0.5864133834838867
1772650985701014800,4.364014892578125,0.41384902596473694,-0.2829749882221222,-0.7285880446434021
1772650985710906000,4.373906005859375,0.44515493512153625,-0.1832541823387146,-0.8015843033790588
1772650985720783400,4.383783447265625,0.4268295168876648,-0.04688252881169319,-0.7728744745254517
1772650985730647000,4.39364697265625,0.3742966651916504,0.07528692483901978,-0.6378772258758545
1772650985740538000,4.4035380859375,0.32787227630615234,0.10491301864385605,-0.40071579813957214
1772650985750415600,4.41341552734375,0.33474430441856384,-0.01817270554602146,-0.12171131372451782
1772650985760279000,4.423279052734375,0.4112529158592224,-0.258999228477478,0.12552911043167114
1772650985770170400,4.43317041015625,0.5132644176483154,-0.4886777997016907,0.2724378705024719
1772650985780047600,4.443047607421875,0.6129852533340454,-0.6058077812194824,0.3049654960632324
1772650985789925000,4.452925048828125,0.6881194114685059,-0.6340594291687012,0.2895416021347046
1772650985799802400,4.46280224609375,0.7069029808044434,-0.6423059105873108,0.32161107659339905
1772650985809680000,4.472679931640625,0.6394043564796448,-0.5602996349334717,0.37704548239707947
1772650985819557000,4.48255712890625,0.5393781065940857,-0.22708246111869812,0.27839362621307373
1772650985829434400,4.492434326171875,0.47951510548591614,0.36482852697372437,-0.07986827939748764
1772650985839312000,4.502311767578125,0.4291202127933502,0.92711341381073,-0.515707790851593
1772650985849175600,4.512175537109375,0.3602471649646759,0.9918632507324219,-0.6336013078689575
1772650985859066600,4.522066650390625,0.3309265077114105,0.47615543007850647,-0.3990359604358673
1772650985868944000,4.53194384765625,0.2089097648859024,-0.18783552944660187,-0.04581354558467865
1772650985878821400,4.5418212890625,-0.04153761267662048,-0.6413896083831787,0.24525517225265503
1772650985888698600,4.55169873046875,-0.3167243003845215,-0.8783983588218689,0.39292749762535095
1772650985898576100,4.561576171875,-0.5195255875587463,-1.0198094844818115,0.4840964674949646
1772650985908439800,4.571439697265625,-0.6128324866294861,-1.0880717039108276,0.6329904794692993
1772650985918331000,4.581330810546875,-0.5824428796768188,-1.1384665966033936,0.8275453448295593
1772650985928208100,4.5912080078125,-0.4234698712825775,-1.1951227188110352,1.0011786222457886
1772650985938071800,4.60107177734375,-0.15775130689144135,-1.190388560295105,1.0989142656326294
1772650985947963000,4.610962890625,0.1716480851173401,-1.074938416481018,1.0763128995895386
1772650985957840400,4.62084033203125,0.5193728804588318,-0.8948912620544434,0.9191724061965942
1772650985967703800,4.630703857421875,0.8287670016288757,-0.716829240322113,0.6375718116760254
1772650985977595100,4.64059521484375,1.0472975969314575,-0.5596888065338135,0.2641914486885071
1772650985987472400,4.650472412109375,1.157250165939331,-0.43354883790016174,-0.13591352105140686
1772650985997336000,4.660336181640625,1.161220669746399,-0.3426853120326996,-0.4865398406982422
1772650986007227100,4.67022705078125,1.065775752067566,-0.3038965165615082,-0.7360709309577942
1772650986017104600,4.680104736328125,0.8803836107254028,-0.33413344621658325,-0.8866447806358337
1772650986026968000,4.689968017578125,0.6410841941833496,-0.43706122040748596,-0.9536852836608887
1772650986036859400,4.699859375,0.3965925872325897,-0.5757235288619995,-0.9373451471328735
1772650986046736600,4.709736572265625,0.20066332817077637,-0.7262973785400391,-0.841747522354126
1772650986056600300,4.719600341796875,0.1241547018289566,-0.8722898960113525,-0.6882721781730652
1772650986066491400,4.729491455078125,0.1904316395521164,-0.9709417223930359,-0.4891359508037567
1772650986076368600,4.73936865234375,0.35795649886131287,-0.9869764447212219,-0.2593046724796295
1772650986086232300,4.749232421875,0.5839699506759644,-0.9287932515144348,-0.02870982140302658
1772650986096123600,4.75912353515625,0.8211314082145691,-0.8348754644393921,0.17897824943065643
1772650986106001000,4.7690009765625,1.0355387926101685,-0.7211052179336548,0.34543412923812866
1772650986115878400,4.77887841796875,1.2110047340393066,-0.5938962697982788,0.45477578043937683
1772650986125755600,4.788755615234375,1.3340904712677002,-0.4694361090660095,0.5005893111228943
1772650986135633200,4.798633056640625,1.397313117980957,-0.38483378291130066,0.4950917065143585
1772650986145496600,4.80849658203125,1.4009782075881958,-0.3545968234539032,0.4668400287628174
1772650986155387600,4.8183876953125,1.3606622219085693,-0.38071054220199585,0.43202173709869385
1772650986165265200,4.82826513671875,1.2908729314804077,-0.45615020394325256,0.3889569938182831
1772650986175128800,4.83812890625,1.2016892433166504,-0.5580089688301086,0.3301629424095154
1772650986185020000,4.84802001953125,1.1013575792312622,-0.6711684465408325,0.252432644367218
1772650986194897200,4.857897216796875,1.00392746925354,-0.7791357040405273,0.14400723576545715
1772650986204774700,4.867774658203125,0.9182561635971069,-0.8628217577934265,0.02748812735080719
1772650986214652000,4.87765185546875,0.8420529365539551,-0.9046648144721985,-0.08872556686401367
1772650986224529400,4.887529296875,0.7684458494186401,-0.9034430980682373,-0.1910424828529358
1772650986234406700,4.89740673828125,0.6957550048828125,-0.8518264889717102,-0.26968905329704285
1772650986244284200,4.9072841796875,0.6297835111618042,-0.7667660117149353,-0.31855684518814087
1772650986254161400,4.917161376953125,0.5665608048439026,-0.6852179169654846,-0.35383328795433044
1772650986264039000,4.927038818359375,0.49799323081970215,-0.6346703171730042,-0.38040512800216675
1772650986273916200,4.936916259765625,0.4246915578842163,-0.6323796510696411,-0.3826957941055298
1772650986283793700,4.946793701171875,0.35826191306114197,-0.6670452356338501,-0.3486410677433014
1772650986293671000,4.9566708984375,0.305576354265213,-0.7166765332221985,-0.2858765125274658
1772650986303548400,4.96654833984375,0.26037365198135376,-0.7556180357933044,-0.20157960057258606
1772650986313425700,4.97642578125,0.22815145552158356,-0.7551599144935608,-0.11147962510585785
1772650986323303200,4.98630322265625,0.208298921585083,-0.7094991207122803,-0.021990500390529633
1772650986333180400,4.996180419921875,0.20280128717422485,-0.6300889253616333,0.06765133142471313
1772650986343058000,5.006057861328125,0.20524467527866364,-0.5425850749015808,0.1585148572921753
1772650986352935200,5.01593505859375,0.20997874438762665,-0.4608842432498932,0.23899398744106293
1772650986362812700,5.025812744140625,0.20967331528663635,-0.3897205591201782,0.29381752014160156
1772650986372690000,5.03568994140625,0.1979145109653473,-0.3405473530292511,0.3199312388896942
1772650986382567400,5.0455673828125,0.17867282032966614,-0.31290650367736816,0.324054479598999
1772650986392444700,5.055444580078125,0.149199441075325,-0.30817243456840515,0.3161134421825409
1772650986402322200,5.065322265625,0.10705098509788513,-0.3101576864719391,0.3032856583595276
1772650986412199400,5.075199462890625,0.054518118500709534,-0.3190149664878845,0.2948864996433258
1772650986422077000,5.085076904296875,0.002748812548816204,-0.33443886041641235,0.2864873707294464
1772650986431954200,5.0949541015625,-0.04504998400807381,-0.33474430441856384,0.26694026589393616
1772650986441831700,5.104831787109375,-0.08872556686401367,-0.2739650011062622,0.2304421216249466
1772650986451709000,5.114708984375,-0.1459924876689911,-0.1498102843761444,0.17531315982341766
1772650986461586400,5.12458642578125,-0.22402822971343994,-0.011300674639642239,0.1366770714521408
1772650986471463700,5.134463623046875,-0.3080197274684906,0.09422318637371063,0.15087927877902985
1772650986481341000,5.1443408203125,-0.3906368315219879,0.208298921585083,0.17424418032169342
1772650986491218400,5.154218505859375,-0.4527905285358429,0.3289412558078766,0.13209572434425354
1772650986501082000,5.16408203125,-0.49051034450531006,0.4062134325504303,0.029320668429136276
1772650986510973200,5.17397314453125,-0.5367820262908936,0.4262186884880066,-0.14064757525920868
1772650986520850400,5.183850341796875,-0.5911474227905273,0.3865135908126831,-0.33535513281822205
1772650986530728000,5.19372802734375,-0.6412369012832642,0.31031039357185364,-0.5041016936302185
1772650986540605200,5.203605224609375,-0.6516213417053223,0.21410197019577026,-0.6145123243331909
1772650986550482700,5.213482666015625,-0.5804576277732849,0.06978929787874222,-0.6015318632125854
1772650986560346400,5.223346435546875,-0.39979952573776245,-0.14721418917179108,-0.36879903078079224
1772650986570237400,5.233237548828125,-0.14721418917179108,-0.4031592011451721,0.08780929446220398
1772650986580114700,5.24311474609375,0.10201149433851242,-0.5880932211875916,0.5906893014907837
1772650986589992200,5.2529921875,0.31825143098831177,-0.6615476012229919,0.9451334476470947
1772650986599869400,5.262869384765625,0.5024218559265137,-0.6213843822479248,1.10532808303833
1772650986609747000,5.272746826171875,0.6490252017974854,-0.49646610021591187,1.1227372884750366
1772650986619610600,5.282610595703125,0.7682931423187256,-0.3571929335594177,1.0317209959030151
1772650986629501700,5.292501708984375,0.8774821162223816,-0.28664007782936096,0.9086353182792664
1772650986639379000,5.30237890625,0.974148690700531,-0.32130566239356995,0.8179244995117188
1772650986649242600,5.31224267578125,1.0492829084396362,-0.4709632396697998,0.7898254990577698
1772650986659133700,5.3221337890625,1.090667724609375,-0.6923953890800476,0.8124268651008606
1772650986669011200,5.33201123046875,1.090820550918579,-0.9136747717857361,0.8515210747718811
1772650986678874600,5.34187451171875,1.0564603805541992,-1.0741748809814453,0.8525900840759277
1772650986688766000,5.351765869140625,0.9885035753250122,-1.1317472457885742,0.7627955079078674
1772650986698643200,5.361643310546875,0.901915967464447,-1.106244444847107,0.5880932211875916
1772650986708507000,5.3715068359375,0.8014315962791443,-1.0462286472320557,0.39476004242897034
1772650986718398000,5.38139794921875,0.6994200944900513,-0.9941539168357849,0.24311721324920654
1772650986728275500,5.391275390625,0.610236406326294,-0.9469659924507141,0.150421142578125
1772650986738139000,5.401138916015625,0.5329642295837402,-0.8875610828399658,0.11407572776079178
1772650986748030200,5.4110302734375,0.4746283292770386,-0.8396095633506775,0.13530266284942627
1772650986757907500,5.420907470703125,0.45324867963790894,-0.8240329623222351,0.208298921585083
1772650986767785000,5.430784912109375,0.4816530644893646,-0.8319739699363708,0.31916770339012146
1772650986777662200,5.440662109375,0.5592306852340698,-0.8493831157684326,0.4387410581111908
1772650986787539700,5.450539794921875,0.6484143733978271,-0.8316685557365417,0.5299099683761597
1772650986797417000,5.4604169921875,0.7322531342506409,-0.7748597264289856,0.5638120174407959
1772650986807294200,5.470294189453125,0.8064711093902588,-0.6945333480834961,0.5479300022125244
1772650986817171700,5.480171630859375,0.8625163435935974,-0.6184828281402588,0.49768781661987305
1772650986827049000,5.490049072265625,0.8945857882499695,-0.5743491649627686,0.43981003761291504
1772650986836926500,5.499926513671875,0.8984035849571228,-0.5841227173805237,0.3859027624130249
1772650986846803700,5.5098037109375,0.8758022785186768,-0.6209262609481812,0.3384093940258026
1772650986856681200,5.51968115234375,0.8452599048614502,-0.6675033569335938,0.2877090573310852
1772650986866558700,5.529558837890625,0.8162446618080139,-0.6991146802902222,0.2107423096895218
1772650986876436000,5.53943603515625,0.7849387526512146,-0.7027797698974609,0.1053711548447609
1772650986886313500,5.5493134765625,0.7470661997795105,-0.6914790868759155,-0.017409147694706917
1772650986896190700,5.559190673828125,0.7049177289009094,-0.6633801460266113,-0.13392825424671173
1772650986906068000,5.56906787109375,0.658951461315155,-0.6192464232444763,-0.23166382312774658
1772650986915945500,5.578945556640625,0.6273401379585266,-0.5824428796768188,-0.3249707520008087
1772650986925822700,5.58882275390625,0.6142069101333618,-0.5705313682556152,-0.40483900904655457
1772650986935700200,5.5987001953125,0.6200099587440491,-0.5876350402832031,-0.46164780855178833
1772650986945577500,5.608577392578125,0.6525375843048096,-0.6259657144546509,-0.4897467792034149
1772650986955455000,5.618455078125,0.710262656211853,-0.6711684465408325,-0.4950917065143585
1772650986965332200,5.628332275390625,0.7896727919578552,-0.7169819474220276,-0.488219678401947
1772650986975209700,5.638209716796875,0.8629744648933411,-0.7444701194763184,-0.4918847680091858
1772650986985087000,5.6480869140625,0.9236010313034058,-0.7579087615013123,-0.49860408902168274
1772650986994964500,5.657964599609375,0.9724688529968262,-0.7620319724082947,-0.4931064546108246
1772650987004841700,5.667841796875,1.0201148986816406,-0.7493568658828735,-0.4680617153644562
1772650987014719200,5.67771923828125,1.0705097913742065,-0.7383615970611572,-0.4259132444858551
1772650987024596500,5.687596435546875,1.11678147315979,-0.7458444833755493,-0.38422292470932007
1772650987034474000,5.697473876953125,1.1577082872390747,-0.749204158782959,-0.3695625960826874
1772650987044351200,5.707351318359375,1.185807228088379,-0.7559235095977783,-0.3715478479862213
1772650987054228700,5.717228759765625,1.1865707635879517,-0.8422056436538696,-0.3133646547794342
1772650987064106000,5.72710595703125,1.1546540260314941,-0.9822424054145813,-0.22677704691886902
1772650987073983500,5.7369833984375,1.12655508518219,-1.1299147605895996,-0.11865708231925964
1772650987083860700,5.74686083984375,1.141215443611145,-1.1574028730392456,-0.011147962883114815
1772650987093738200,5.75673828125,1.1888614892959595,-1.0822685956954956,0.07314895838499069
1772650987103615500,5.766615478515625,1.2481136322021484,-0.9785773158073425,0.13682979345321655
1772650987113493000,5.776492919921875,1.3195828199386597,-0.8878664970397949,0.1754658818244934
1772650987123370200,5.786370361328125,1.3983820676803589,-0.7824953198432922,0.16630317270755768
1772650987133247500,5.79624755859375,1.4877184629440308,-0.6597150564193726,0.12675081193447113
1772650987143125000,5.806125,1.5721681118011475,-0.5170822143554688,0.04734066128730774
1772650987153002200,5.816002197265625,1.6404303312301636,-0.38697174191474915,-0.10185877978801727
1772650987162879700,5.825879638671875,1.6886872053146362,-0.28908345103263855,-0.33001023530960083
1772650987172757200,5.83575732421875,1.7209094762802124,-0.27060532569885254,-0.5961869359016418
1772650987182620700,5.84562060546875,1.7291558980941772,-0.40102121233940125,-0.8524373769760132
1772650987192512000,5.855511962890625,1.7057909965515137,-0.6351284384727478,-1.074938416481018
1772650987202389200,5.86538916015625,1.6508147716522217,-0.9350544214248657,-1.2123790979385376
1772650987212253000,5.8752529296875,1.5773603916168213,-1.313627004623413,-1.1880979537963867
1772650987222144000,5.88514404296875,1.5054330825805664,-1.6332528591156006,-1.0605835914611816
1772650987232021200,5.895021240234375,1.4445010423660278,-1.8951536417007446,-0.867861270904541
1772650987241898800,5.904898681640625,1.4049487113952637,-2.1110880374908447,-0.6224533319473267
1772650987251776000,5.91477587890625,1.398992896080017,-2.2112669944763184,-0.4337015450000763
1772650987261653500,5.924653564453125,1.4307570457458496,-2.1326205730438232,-0.3552076816558838
1772650987271530800,5.93453076171875,1.4994772672653198,-1.9066070318222046,-0.32878854870796204
1772650987281408300,5.944408203125,1.6008780002593994,-1.6741796731948853,-0.26342788338661194
1772650987291285500,5.954285400390625,1.6819679737091064,-1.5022261142730713,-0.1363716572523117
1772650987301163000,5.9641630859375,1.7085397243499756,-1.3895248174667358,0.02489202655851841
1772650987311040300,5.974040283203125,1.7057909965515137,-1.305838704109192,0.16553960740566254
1772650987320917800,5.983917724609375,1.7007514238357544,-1.2172658443450928,0.25090551376342773
1772650987330795000,5.993794921875,1.6908252239227295,-1.0880717039108276,0.24846212565898895
1772650987340672500,6.003672607421875,1.6561596393585205,-0.969261884689331,0.18401773273944855
1772650987350549800,6.0135498046875,1.626991629600525,-0.9744541049003601,0.12583453953266144
1772650987360427300,6.02342724609375,1.5833160877227783,-1.0028585195541382,0.047646086663007736
1772650987370304500,6.033304443359375,1.5152065753936768,-1.0060654878616333,-0.05543438717722893
1772650987380182000,6.04318212890625,1.4597722291946411,-1.0830321311950684,-0.13514995574951172
1772650987390059300,6.053059326171875,1.4008255004882812,-1.1809204816818237,-0.21929416060447693
1772650987399936800,6.062936767578125,1.3151541948318481,-1.2459757328033447,-0.3223746418952942
1772650987409814000,6.07281396484375,1.233758807182312,-1.3114891052246094,-0.42240089178085327
1772650987419691500,6.08269140625,1.151447057723999,-1.3805148601531982,-0.49921491742134094
1772650987429568800,6.09256884765625,1.077534556388855,-1.4112098217010498,-0.5412106513977051
1772650987439446300,6.1024462890625,1.019656777381897,-1.4055595397949219,-0.5247178077697754
1772650987449309700,6.112309814453125,0.9843803644180298,-1.3910518884658813,-0.4240806996822357
1772650987459201000,6.122200927734375,0.9515473246574402,-1.3663126230239868,-0.2414373755455017
1772650987469078300,6.132078369140625,0.9281824231147766,-1.3238587379455566,-0.006261184345930815
1772650987478955500,6.14195556640625,0.9301676750183105,-1.2704095840454102,0.21364383399486542
1772650987488833000,6.1518330078125,0.9497147798538208,-1.1951227188110352,0.37078428268432617
1772650987498710300,6.161710205078125,0.9915578365325928,-1.096165418624878,0.4486673176288605
1772650987508587800,6.171587890625,1.0491302013397217,-0.9813261032104492,0.46210595965385437
1772650987518465000,6.181465087890625,1.1212100982666016,-0.846023440361023,0.4367557764053345
1772650987528342500,6.191342529296875,1.2006202936172485,-0.7136223316192627,0.38009971380233765
1772650987538219800,6.2012197265625,1.264301061630249,-0.6114581227302551,0.30282753705978394
1772650987548097300,6.21109716796875,1.3093510866165161,-0.5485408306121826,0.22937314212322235
1772650987557974500,6.220974609375,1.3464601039886475,-0.5363239049911499,0.17225892841815948
1772650987567852000,6.23085205078125,1.3821946382522583,-0.5905365943908691,0.1382041871547699
1772650987577729300,6.240729248046875,1.4014363288879395,-0.7033905982971191,0.11911521852016449
1772650987587606800,6.250606689453125,1.4017417430877686,-0.8548807501792908,0.10903623700141907
1772650987597484000,6.260484130859375,1.3889139890670776,-0.9978190064430237,0.08887827396392822
1772650987607361500,6.270361572265625,1.3647854328155518,-1.112200140953064,0.05344913527369499
1772650987617238800,6.28023876953125,1.3385190963745117,-1.2114628553390503,0.005497625097632408
1772650987627116300,6.2901162109375,1.3151541948318481,-1.2960652112960815,-0.04504998400807381
1772650987636993500,6.29999365234375,1.29163658618927,-1.3750171661376953,-0.09361234307289124
1772650987646871000,6.30987109375,1.261552333831787,-1.4470971822738647,-0.12873606383800507
1772650987656748300,6.319748291015625,1.2387982606887817,-1.4982556104660034,-0.14492350816726685
1772650987666625800,6.329625732421875,1.2314680814743042,-1.519940733909607,-0.16309621930122375
1772650987676503000,6.3395029296875,1.220778226852417,-1.5066547393798828,-0.1785201132297516
1772650987686380500,6.349380615234375,1.2096302509307861,-1.4727526903152466,-0.16584503650665283
1772650987696257800,6.3592578125,1.191610336303711,-1.3846380710601807,-0.1656923145055771
1772650987706135000,6.369135009765625,1.1722159385681152,-1.2823210954666138,-0.16676130890846252
1772650987716012500,6.379012451171875,1.1561810970306396,-1.1538904905319214,-0.18707197904586792
1772650987725889800,6.388889892578125,1.137092113494873,-1.040272831916809,-0.2092151790857315
1772650987735767300,6.398767333984375,1.1073133945465088,-0.9092461466789246,-0.2570139765739441
1772650987745644500,6.40864453125,1.0692881345748901,-0.8067765235900879,-0.29748260974884033
1772650987755522000,6.41852197265625,1.0147700309753418,-0.6937697529792786,-0.3249707520008087
1772650987765399600,6.428399658203125,0.9501729011535645,-0.5874823331832886,-0.32665055990219116
1772650987775276800,6.43827685546875,0.8890882134437561,-0.4581354558467865,-0.3223746418952942
1772650987785154000,6.448154052734375,0.8228112459182739,-0.36223241686820984,-0.3258870244026184
1772650987795031600,6.458031494140625,0.7664605975151062,-0.37047886848449707,-0.29442837834358215
1772650987804908800,6.46790869140625,0.7113316059112549,-0.4343124032020569,-0.2438807636499405
1772650987814786300,6.477786376953125,0.6487197875976562,-0.5657972693443298,-0.1656923145055771
1772650987824663600,6.48766357421875,0.587329626083374,-0.7021689414978027,-0.08215895295143127
1772650987834541000,6.497541015625,0.5430431962013245,-0.8040276765823364,-0.02504473738372326
1772650987844418300,6.507418212890625,0.5335750579833984,-0.8449544906616211,0.023059483617544174
1772650987854295800,6.5172958984375,0.555260181427002,-0.818535327911377,0.09025268256664276
1772650987864159200,6.5271591796875,0.6152759194374084,-0.7560762166976929,0.18493400514125824
1772650987874050600,6.537050537109375,0.7301151752471924,-0.7151494026184082,0.3101576864719391
1772650987883927800,6.546927734375,0.8724426031112671,-0.6558972597122192,0.38575005531311035
1772650987893791500,6.55679150390625,0.9904888272285461,-0.5372401475906372,0.3524588644504547
1772650987903682600,6.5666826171875,1.055696725845337,-0.40010493993759155,0.22708246111869812
1772650987913560000,6.57656005859375,1.0651649236679077,-0.3242071866989136,0.06917845457792282
1772650987923423500,6.586423583984375,1.0899041891098022,-0.34879377484321594,-0.050394900143146515
1772650987933314800,6.596314697265625,1.15114164352417,-0.4947862923145294,-0.07421794533729553
1772650987943192000,6.606192138671875,1.202147364616394,-0.7255338430404663,-0.017867282032966614
1772650987953055700,6.6160556640625,1.200467586517334,-0.9596410393714905,0.07727217674255371
1772650987962946800,6.62594677734375,1.1812258958816528,-1.132510781288147,0.18065807223320007
1772650987972824000,6.635823974609375,1.1555702686309814,-1.1842801570892334,0.26067906618118286
1772650987982687700,6.645687744140625,1.1509889364242554,-1.1769499778747559,0.314586341381073
1772650987992578800,6.655578857421875,1.1186140775680542,-1.122584581375122,0.3689517378807068
1772650988002456300,6.665456298828125,1.0363023281097412,-1.0679137706756592,0.44484952092170715
1772650988012333600,6.67533349609375,0.9501729011535645,-1.0895987749099731,0.5444176197052002
1772650988022211000,6.685211181640625,0.8854231238365173,-1.2088667154312134,0.6720846891403198
1772650988032088300,6.69508837890625,0.8058602213859558,-1.2888877391815186,0.7632536292076111
1772650988041952000,6.704951904296875,0.6859814524650574,-1.2094775438308716,0.7592831254005432
1772650988051843000,6.714843017578125,0.5876350402832031,-1.090362310409546,0.7404996156692505
1772650988061720600,6.724720458984375,0.5468609929084778,-1.0208784341812134,0.7756233215332031
1772650988071584000,6.734583984375,0.5412106513977051,-1.0028585195541382,0.8461761474609375
1772650988081475300,6.744475341796875,0.5453338623046875,-0.9885035753250122,0.9129112362861633
1772650988091352600,6.7543525390625,0.5549547076225281,-0.9521581530570984,0.9390249252319336
1772650988101216300,6.76421630859375,0.5758762359619141,-0.8727480173110962,0.9109259843826294
1772650988111107300,6.774107421875,0.6015318632125854,-0.7528692483901978,0.8409839868545532
1772650988120984800,6.78398486328125,0.6210789680480957,-0.6372663974761963,0.7667660117149353
1772650988130848300,6.79384814453125,0.6319214701652527,-0.5632011890411377,0.7062921524047852
1772650988140739600,6.803739501953125,0.6398624777793884,-0.5041016936302185,0.6348230242729187
1772650988150616800,6.813616943359375,0.6665870547294617,-0.45615020394325256,0.5351021885871887
1772650988160494300,6.823494384765625,0.7200362086296082,-0.4627167880535126,0.42728766798973083
1772650988170371600,6.83337158203125,0.7769976854324341,-0.511431872844696,0.3365768492221832
1772650988180249000,6.8432490234375,0.8341119289398193,-0.5868715047836304,0.2701472043991089
1772650988190126300,6.853126220703125,0.8855758309364319,-0.6621584296226501,0.21226942539215088
1772650988200003600,6.863003662109375,0.9374978542327881,-0.7284353375434875,0.13713520765304565
1772650988209881000,6.872881103515625,0.9888089895248413,-0.7650861740112305,0.031153209507465363
1772650988219758300,6.88275830078125,1.038593053817749,-0.7495095729827881,-0.10033166408538818
1772650988229635800,6.8926357421875,1.0757020711898804,-0.681858241558075,-0.24846212565898895
1772650988239513000,6.90251318359375,1.082115888595581,-0.5891621708869934,-0.3943018913269043
1772650988249376800,6.912376708984375,1.0541696548461914,-0.4680617153644562,-0.5175403356552124
1772650988259267800,6.922267822265625,1.0031639337539673,-0.33566057682037354,-0.6053496599197388
1772650988269145300,6.932145263671875,0.9390249252319336,-0.24052110314369202,-0.6387935280799866
1772650988279008800,6.9420087890625,0.8712208867073059,-0.20845162868499756,-0.6051968932151794
1772650988288900000,6.951900146484375,0.8034168481826782,-0.2411319613456726,-0.5074613690376282
1772650988298777300,6.96177734375,0.739736020565033,-0.32970482110977173,-0.3633013963699341
1772650988308654800,6.97165478515625,0.6789567470550537,-0.44607120752334595,-0.20005246996879578
1772650988318532000,6.981531982421875,0.6328377723693848,-0.5407525300979614,-0.05864133685827255
1772650988328409600,6.99140966796875,0.6155813336372375,-0.6088619828224182,0.04367557913064957
1772650988338286800,7.001286865234375,0.6358919739723206,-0.6395570635795593,0.09468132257461548
1772650988348164400,7.011164306640625,0.6789567470550537,-0.6241331696510315,0.08842013776302338
1772650988358041600,7.02104150390625,0.72599196434021,-0.559841513633728,0.02244863659143448
1772650988367918800,7.0309189453125,0.7568397521972656,-0.4921901822090149,-0.06200099736452103
1772650988377796400,7.04079638671875,0.744928240776062,-0.4437805414199829,-0.10949437320232391
1772650988387673600,7.050673583984375,0.6957550048828125,-0.40163207054138184,-0.11392301321029663
1772650988397551000,7.060551025390625,0.6232169270515442,-0.3471139669418335,-0.10124793648719788
1772650988407428400,7.070428466796875,0.5381564497947693,-0.25777754187583923,-0.09620844572782516
1772650988417305900,7.080305908203125,0.4553866386413574,-0.1585148572921753,-0.08307522535324097
1772650988427183000,7.09018310546875,0.3826957941055298,-0.09987352788448334,-0.04031591862440109
1772650988437060600,7.100060546875,0.3232909142971039,-0.12323843687772751,0.05925218388438225
1772650988446937900,7.109937744140625,0.2951919436454773,-0.22631891071796417,0.21623992919921875
1772650988456801500,7.119801513671875,0.32344362139701843,-0.291374146938324,0.3605526089668274
1772650988466692600,7.129692626953125,0.42041563987731934,-0.1328592747449875,0.33321717381477356
1772650988476570000,7.139570068359375,0.4963133931159973,0.17913095653057098,0.22601348161697388
1772650988486433500,7.14943359375,0.5801522135734558,0.47203221917152405,0.11270131915807724
1772650988496324900,7.159324951171875,0.7287407517433167,0.7195780873298645,-0.0594048947095871
1772650988506202000,7.1692021484375,0.8304468393325806,0.8703046441078186,-0.1823379099369049
1772650988516079600,7.17907958984375,0.7785248160362244,0.7718055248260498,-0.15775130689144135
1772650988525956900,7.188956787109375,0.6068767309188843,0.46210595965385437,-0.05665608495473862
1772650988535834000,7.198834228515625,0.40789327025413513,0.06978929787874222,0.05131116881966591
1772650988545697800,7.20869775390625,0.3014531135559082,-0.3953709006309509,0.16752485930919647
1772650988555588900,7.2185888671875,0.36452311277389526,-0.9429954290390015,0.319320410490036
1772650988565466400,7.22846630859375,0.5749599933624268,-1.4467917680740356,0.4897467792034149
1772650988575343600,7.238343505859375,0.8448017835617065,-1.7853537797927856,0.6739172339439392
1772650988585221000,7.24822119140625,1.0697462558746338,-1.9773125648498535,0.8991671800613403
1772650988595098400,7.258098388671875,1.2241379022598267,-1.9777706861495972,1.1019684076309204
1772650988604962000,7.267962158203125,1.2722420692443848,-1.6990716457366943,1.1954281330108643
1772650988614853000,7.27785302734375,1.2452120780944824,-1.194969892501831,1.1355650424957275
1772650988624730600,7.287730712890625,1.216196894645691,-0.5657972693443298,0.9292513728141785
1772650988634594000,7.297593994140625,1.2410888671875,-0.04230117425322533,0.6859814524650574
1772650988644485400,7.3074853515625,1.2549856901168823,0.26907822489738464,0.4862344264984131
1772650988654362600,7.317362548828125,1.2516260147094727,0.34635040163993835,0.33382803201675415
1772650988664226300,7.327226318359375,1.2154333591461182,0.20341213047504425,0.20646637678146362
1772650988674117400,7.337117431640625,1.1537377834320068,-0.07986827939748764,0.08918370306491852
1772650988683994600,7.34699462890625,1.0782980918884277,-0.4100312292575836,-0.0004581354442052543
1772650988693872000,7.3568720703125,1.015380859375,-0.7209524512290955,-0.06978929787874222
1772650988703749400,7.366749267578125,0.9588775038719177,-0.9866710305213928,-0.150421142578125
1772650988713627000,7.376626953125,0.9022213816642761,-1.129762053489685,-0.22738789021968842
1772650988723490300,7.386490234375,0.8683193922042847,-1.1338852643966675,-0.26785650849342346
1772650988733381600,7.396381591796875,0.8663341403007507,-1.0443960428237915,-0.2602209448814392
1772650988743259000,7.4062587890625,0.8935168385505676,-0.9040539264678955,-0.208298921585083
1772650988753122600,7.41612255859375,0.9420791864395142,-0.7478297352790833,-0.10934165865182877
1772650988763013600,7.426013671875,1.0028585195541382,-0.6029062271118164,0.024128466844558716
1772650988772891000,7.435890869140625,1.068982720375061,-0.48959407210350037,0.17485502362251282
1772650988782768400,7.445768310546875,1.1231954097747803,-0.40987852215766907,0.3232909142971039
1772650988792645600,7.455645751953125,1.1438114643096924,-0.35352784395217896,0.4340069890022278
1772650988802523100,7.465523193359375,1.1302201747894287,-0.3071034550666809,0.48043137788772583
1772650988812386800,7.47538671875,1.08074152469635,-0.26037365198135376,0.45141613483428955
1772650988822278000,7.48527783203125,0.9988879561424255,-0.24021568894386292,0.33917292952537537
1772650988832155100,7.495155029296875,0.8826742768287659,-0.2530434727668762,0.1579040139913559
1772650988842032600,7.50503271484375,0.7437065243721008,-0.2710634768009186,-0.06261184066534042
1772650988851910000,7.514909912109375,0.5942016839981079,-0.29412296414375305,-0.28664007782936096
1772650988861787400,7.524787353515625,0.4396573007106781,-0.34008920192718506,-0.48241662979125977
1772650988871664600,7.53466455078125,0.2880144715309143,-0.43385425209999084,-0.6282563805580139
1772650988881542100,7.544542236328125,0.16217994689941406,-0.553274929523468,-0.710262656211853
1772650988891419400,7.55441943359375,0.07498150318861008,-0.6833853721618652,-0.7192726731300354
1772650988901283000,7.564282958984375,0.040010496973991394,-0.7954758405685425,-0.656660795211792
1772650988911174100,7.574174072265625,0.05497625470161438,-0.8573241233825684,-0.5538857579231262
1772650988921051600,7.5840517578125,0.09300149232149124,-0.834570050239563,-0.4375193417072296
1772650988930915000,7.5939150390625,0.13209572434425354,-0.7307260632514954,-0.31382277607917786
1772650988940806100,7.60380615234375,0.1557660549879074,-0.5578562617301941,-0.19883078336715698
1772650988950683600,7.61368359375,0.15912571549415588,-0.38849884271621704,-0.1169772520661354
1772650988960561000,7.623560791015625,0.12522368133068085,-0.2648022770881653,-0.07406523078680038
1772650988970438400,7.6334384765625,0.06551336497068405,-0.20035789906978607,-0.05405998229980469
1772650988980315600,7.643315673828125,-0.01847812905907631,-0.20707722008228302,-0.03558185324072838
1772650988990193200,7.653193115234375,-0.11422843486070633,-0.2510582208633423,-0.001374406274408102
1772650989000070400,7.6630703125,-0.1835595965385437,-0.2848075330257416,0.04611896723508835
1772650989009948000,7.672947998046875,-0.2163926362991333,-0.319320410490036,0.08261708915233612
1772650989019825200,7.6828251953125,-0.2214321345090866,-0.3758237659931183,0.0847550556063652
1772650989029702700,7.69270263671875,-0.21181128919124603,-0.43415969610214233,0.0647498071193695
1772650989039580000,7.702579833984375,-0.21410197019577026,-0.4706578254699707,0.039857782423496246
1772650989049457200,7.71245703125,-0.265718549489975,-0.4760027229785919,0.00015271181473508477
1772650989059334700,7.722334716796875,-0.38391751050949097,-0.40758782625198364,-0.10934165865182877
1772650989069212000,7.7322119140625,-0.49952033162117004,-0.29656633734703064,-0.28694549202919006
1772650989079075600,7.74207568359375,-0.6326850652694702,-0.12766708433628082,-0.4515688419342041
1772650989088966700,7.751966552734375,-0.8225058317184448,0.13988402485847473,-0.5544965863227844
1772650989098844200,7.76184423828125,-1.0143119096755981,0.40712970495224,-0.6206207871437073
1772650989108707800,7.771707763671875,-1.156028389930725,0.5662553906440735,-0.6549809575080872
1772650989118599000,7.781598876953125,-1.185807228088379,0.5967977643013,-0.6067240238189697
1772650989128476200,7.79147607421875,-1.0728005170822144,0.5306735634803772,-0.4605788290500641
1772650989138339800,7.80133984375,-0.8614473342895508,0.39796698093414307,-0.2516690790653229
1772650989148231000,7.81123095703125,-0.62627112865448,0.25625041127204895,-0.04459185153245926
1772650989158108400,7.8211083984375,-0.4265241026878357,0.14141114056110382,0.11712995916604996
1772650989167985700,7.830985595703125,-0.2770192325115204,0.07574506103992462,0.2435753494501114
1772650989177863000,7.84086279296875,-0.17653486132621765,0.08032641559839249,0.36788275837898254
1772650989187740400,7.850740478515625,-0.11667182296514511,0.18676654994487762,0.497229665517807
1772650989197617700,7.86061767578125,-0.08185353130102158,0.36223241686820984,0.6303943991661072
1772650989207495200,7.8704951171875,-0.042453885078430176,0.5376983284950256,0.7447755336761475
1772650989217372400,7.880372314453125,0.010078979656100273,0.6771242022514343,0.8205205798149109
1772650989227236000,7.890236083984375,0.06917845457792282,0.7670714259147644,0.8580876588821411
1772650989237127200,7.900127197265625,0.12888877093791962,0.8357917666435242,0.9115368127822876
1772650989247004400,7.91000439453125,0.1366770714521408,0.7437065243721008,1.0622633695602417
1772650989256868000,7.9198681640625,0.09422318637371063,0.2845021188259125,0.9746068120002747
1772650989266759200,7.92975927734375,-0.013591351918876171,-0.0984991192817688,0.7751652002334595
1772650989276636700,7.93963671875,-0.10674555599689484,-0.39109495282173157,0.5419742465019226
1772650989286514000,7.949513916015625,-0.14095300436019897,-0.5531222224235535,0.3614688515663147
1772650989296391400,7.959391357421875,-0.18997350335121155,-0.5729747414588928,0.29656633734703064
1772650989306268700,7.9692685546875,-0.29626092314720154,-0.6015318632125854,0.3306210935115814
1772650989316132400,7.97913232421875,-0.42545512318611145,-0.6397097706794739,0.38193225860595703
1772650989326023400,7.9890234375,-0.499673068523407,-0.585038959980011,0.46516019105911255
