time,seconds_elapsed,z,y,x
1772650981552535800,0.215535888671875,0.22021043300628662,0.0525328628718853,-0.14080029726028442
1772650981562413000,0.2254130859375,0.18432316184043884,0.07040014863014221,-0.17882554233074188
1772650981572290600,0.23529052734375,0.13560809195041656,0.09834641218185425,-0.18875180184841156
1772650981582167800,0.245167724609375,0.07528692483901978,0.11270131915807724,-0.16783028841018677
1772650981592045300,0.25504541015625,0.032069481909275055,0.10720369219779968,-0.10033166408538818
1772650981601922600,0.264922607421875,0.013438640162348747,0.0978882759809494,-0.003359660040587187
1772650981611800000,0.274800048828125,0.016187451779842377,0.0910162404179573,0.08918370306491852
1772650981621677300,0.28467724609375,0.05131116881966591,0.10811996459960938,0.14797775447368622
1772650981631554600,0.294554443359375,0.10308047384023666,0.1423274129629135,0.1692046970129013
1772650981641432000,0.30443212890625,0.15775130689144135,0.1569877415895462,0.16584503650665283
1772650981651309300,0.314309326171875,0.21471281349658966,0.14797775447368622,0.1719534993171692
1772650981661186800,0.324186767578125,0.2677038013935089,0.11774080991744995,0.20157960057258606
1772650981671064000,0.33406396484375,0.31504446268081665,0.05085303261876106,0.23868857324123383
1772650981680941600,0.343941650390625,0.35444411635398865,-0.02351761981844902,0.2611372172832489
1772650981690818800,0.35381884765625,0.38193225860595703,-0.0841442123055458,0.2564031481742859
1772650981700696300,0.3636962890625,0.3961344361305237,-0.12797249853610992,0.23090025782585144
1772650981710573600,0.373573486328125,0.41140562295913696,-0.14965757727622986,0.1985253542661667
1772650981720451000,0.383451171875,0.4230117201805115,-0.182643324136734,0.16248537600040436
1772650981730328300,0.393328369140625,0.425607830286026,-0.22631891071796417,0.13392825424671173
1772650981740205600,0.40320556640625,0.41354358196258545,-0.26281702518463135,0.11392301321029663
1772650981750083000,0.4130830078125,0.39827242493629456,-0.2832804024219513,0.08948912471532822
1772650981759960300,0.422960205078125,0.3871244490146637,-0.2805316150188446,0.0594048947095871
1772650981769837800,0.432837890625,0.37261682748794556,-0.26067906618118286,0.03542914241552353
1772650981779715000,0.442715087890625,0.3501681983470917,-0.23227466642856598,0.011453386396169662
1772650981789592600,0.452592529296875,0.3202366828918457,-0.20127417147159576,-0.016340164467692375
1772650981799469800,0.4624697265625,0.2848075330257416,-0.16431790590286255,-0.04703523963689804
1772650981809347000,0.47234716796875,0.2596100866794586,-0.10781454294919968,-0.07925742864608765
1772650981819224600,0.482224609375,0.24540787935256958,-0.05986303091049194,-0.1113269105553627
1772650981829101800,0.492101806640625,0.23884128034114838,-0.03374931216239929,-0.13362284004688263
1772650981838979300,0.501979248046875,0.2373141646385193,-0.01175880990922451,-0.13621893525123596
1772650981848856600,0.511856689453125,0.2373141646385193,-0.0006108472589403391,-0.129499614238739
1772650981858734000,0.521734130859375,0.23960483074188232,0.010995250195264816,-0.12400199472904205
1772650981868611300,0.531611328125,0.2420482337474823,0.020157959312200546,-0.12965233623981476
1772650981878488800,0.54148876953125,0.24006296694278717,0.013285927474498749,-0.14309096336364746
1772650981888366000,0.551365966796875,0.23777230083942413,-0.01435491070151329,-0.15943112969398499
1772650981898243300,0.561243408203125,0.2504473626613617,-0.062306419014930725,-0.17271706461906433
1772650981908120800,0.571120849609375,0.28068432211875916,-0.12064233422279358,-0.19088977575302124
1772650981917998000,0.580998046875,0.31687700748443604,-0.16630317270755768,-0.22005772590637207
1772650981927875600,0.59087548828125,0.34909921884536743,-0.19318044185638428,-0.27029991149902344
1772650981937752800,0.6007529296875,0.38101598620414734,-0.1966928243637085,-0.3199312388896942
1772650981947630300,0.61063037109375,0.42163732647895813,-0.1817270666360855,-0.3414636254310608
1772650981957507600,0.620507568359375,0.4599680006504059,-0.1829487532377243,-0.35200074315071106
1772650981967384800,0.630384765625,0.48669254779815674,-0.19424942135810852,-0.3833066523075104
1772650981977262300,0.640262451171875,0.4903576374053955,-0.18676654994487762,-0.429883748292923
1772650981987139600,0.6501396484375,0.46897798776626587,-0.15439164638519287,-0.4815003573894501
1772650981997017000,0.66001708984375,0.4405735731124878,-0.10521844029426575,-0.5216635465621948
1772650982006894300,0.669894287109375,0.4315635859966278,-0.06688777357339859,-0.5328115224838257
1772650982016771800,0.679771728515625,0.4369085133075714,-0.047798797488212585,-0.5268557667732239
1772650982026649000,0.689649169921875,0.45141613483428955,-0.02367033064365387,-0.5166240930557251
1772650982036526600,0.699526611328125,0.45324867963790894,-0.0032069480512291193,-0.4885250926017761
1772650982046403800,0.70940380859375,0.45080527663230896,0.05390727147459984,-0.4280512034893036
1772650982056267500,0.719267578125,0.4647020399570465,0.11468657106161118,-0.363454133272171
1772650982066158600,0.72915869140625,0.548082709312439,0.26373329758644104,-0.3643703758716583
1772650982076035800,0.739035888671875,0.7438592314720154,0.5044071078300476,-0.4468347728252411
1772650982085899500,0.7488994140625,0.9707890152931213,0.7476770281791687,-0.5833591222763062
1772650982095790600,0.75879052734375,1.1147962808609009,0.9194778203964233,-0.7482879161834717
1772650982105668000,0.768668212890625,1.1251806020736694,1.0472975969314575,-0.8729007244110107
1772650982115545300,0.77854541015625,1.0384403467178345,1.099066972732544,-0.8927532434463501
1772650982125422600,0.788422607421875,0.89107346534729,1.0338590145111084,-0.7872294187545776
1772650982135300000,0.798300048828125,0.7357655167579651,0.7595885396003723,-0.51998370885849
1772650982145163800,0.808163818359375,0.5201364159584045,0.18019993603229523,-0.10766182839870453
1772650982155054800,0.818054931640625,0.29412296414375305,-0.4049917459487915,0.23380178213119507
1772650982164932000,0.82793212890625,0.14125843346118927,-0.744928240776062,0.3124483823776245
1772650982174795800,0.837795654296875,0.07085828483104706,-0.9031376838684082,0.15149012207984924
1772650982184686800,0.847686767578125,0.005650337319821119,-0.901915967464447,-0.16783028841018677
1772650982194564400,0.857564453125,0.007635590620338917,-0.7350019812583923,-0.5089884996414185
1772650982204427800,0.867427734375,0.07543963938951492,-0.4422534108161926,-0.7989882230758667
1772650982214318800,0.87731884765625,0.14018943905830383,-0.18310146033763885,-0.9709417223930359
1772650982224196400,0.8871962890625,0.24556060135364532,-0.16034740209579468,-0.9724688529968262
1772650982234073600,0.897073486328125,0.3411581814289093,-0.2632751762866974,-0.826018214225769
1772650982243951000,0.906951171875,0.40468630194664,-0.39078953862190247,-0.6310052275657654
1772650982253828400,0.916828369140625,0.43080002069473267,-0.46164780855178833,-0.4584408700466156
1772650982263705900,0.926705810546875,0.4384356141090393,-0.4443913698196411,-0.3352024257183075
1772650982273583000,0.9365830078125,0.429883748292923,-0.3939964771270752,-0.26312246918678284
1772650982283460400,0.94646044921875,0.4130854606628418,-0.3446705639362335,-0.24128466844558716
1772650982293337900,0.956337890625,0.40712970495224,-0.30756160616874695,-0.2599155008792877
1772650982303215000,0.966215087890625,0.43018919229507446,-0.279920756816864,-0.30847787857055664
1772650982313092600,0.976092529296875,0.4856235682964325,-0.2683146595954895,-0.3828485310077667
1772650982322969900,0.985969970703125,0.545181155204773,-0.266176700592041,-0.46699273586273193
1772650982332847400,0.995847412109375,0.5894675850868225,-0.25289076566696167,-0.5517477989196777
1772650982342724600,1.005724609375,0.615428626537323,-0.22494450211524963,-0.6204680800437927
1772650982352602000,1.01560205078125,0.6155813336372375,-0.19348587095737457,-0.6513158679008484
1772650982362479400,1.025479248046875,0.5905365943908691,-0.17974179983139038,-0.6360446810722351
1772650982372356600,1.035356689453125,0.5427377820014954,-0.17867282032966614,-0.580763041973114
1772650982382234000,1.045234130859375,0.4828747510910034,-0.20585553348064423,-0.48806697130203247
1772650982392111400,1.055111328125,0.4217900335788727,-0.29473379254341125,-0.3764346241950989
1772650982401988900,1.06498876953125,0.35765108466148376,-0.4315635859966278,-0.2701472043991089
1772650982411866000,1.0748662109375,0.31031039357185364,-0.5882459282875061,-0.15149012207984924
1772650982421743600,1.08474365234375,0.2867927849292755,-0.7478297352790833,-0.01817270554602146
1772650982431620900,1.094620849609375,0.29229041934013367,-0.89107346534729,0.10033166408538818
1772650982441498000,1.104498046875,0.3115321099758148,-0.9851438999176025,0.16767756640911102
1772650982451375600,1.114375732421875,0.3361186981201172,-1.0028585195541382,0.1682884246110916
1772650982461252900,1.1242529296875,0.3639122545719147,-0.9625425934791565,0.11712995916604996
1772650982471130400,1.13413037109375,0.37231141328811646,-0.8959602117538452,0.03390202298760414
1772650982481007600,1.144007568359375,0.362995982170105,-0.8321266770362854,-0.060779303312301636
1772650982490885000,1.153885009765625,0.35108447074890137,-0.7676823139190674,-0.1560714691877365
1772650982500762400,1.163762451171875,0.35352784395217896,-0.6757497787475586,-0.2522799074649811
1772650982510639900,1.173639892578125,0.3805578351020813,-0.5883986353874207,-0.33321717381477356
1772650982520517000,1.18351708984375,0.4193466305732727,-0.5306735634803772,-0.38071054220199585
1772650982530394400,1.193394287109375,0.46134239435195923,-0.4831801950931549,-0.4062134325504303
1772650982540271900,1.20327197265625,0.5036435723304749,-0.4080459773540497,-0.4312581717967987
1772650982550149000,1.213149169921875,0.5268557667732239,-0.31260108947753906,-0.45324867963790894
1772650982560012800,1.2230126953125,0.5306735634803772,-0.18142163753509521,-0.49677154421806335
1772650982569903900,1.23290380859375,0.5022691488265991,-0.01847812905907631,-0.5509842038154602
1772650982579781400,1.242781494140625,0.44011545181274414,0.1582094430923462,-0.6212316751480103
1772650982589644800,1.252644775390625,0.3313846290111542,0.2976353168487549,-0.6867450475692749
1772650982599536000,1.2625361328125,0.1823379099369049,0.3808632791042328,-0.7281299233436584
1772650982609413400,1.272413330078125,-0.0006108472589403391,0.42392799258232117,-0.7409577369689941
1772650982619290600,1.28229052734375,-0.2145601063966751,0.4627167880535126,-0.7348492741584778
1772650982629168000,1.292168212890625,-0.42576053738594055,0.49051034450531006,-0.6940752267837524
1772650982639045400,1.30204541015625,-0.5934380888938904,0.4805840849876404,-0.6233696341514587
1772650982648923000,1.3119228515625,-0.7119424939155579,0.4414898455142975,-0.5464028716087341
1772650982658800000,1.321800048828125,-0.7757760286331177,0.41079479455947876,-0.4840964674949646
1772650982668677600,1.331677734375,-0.7995990514755249,0.4002576768398285,-0.4294256269931793
1772650982678555000,1.341554931640625,-0.807081937789917,0.40468630194664,-0.3736858069896698
1772650982688432000,1.35143212890625,-0.8089144825935364,0.402395635843277,-0.30068957805633545
1772650982698309600,1.3613095703125,-0.823116660118103,0.39262208342552185,-0.18966807425022125
1772650982708187000,1.371186767578125,-0.862669050693512,0.39048412442207336,-0.05344913527369499
1772650982718064400,1.381064453125,-0.9469659924507141,0.4017847776412964,0.08948912471532822
1772650982727941600,1.390941650390625,-0.9772028923034668,0.47233763337135315,0.20493926107883453
1772650982737805300,1.400805419921875,-0.9203941226005554,0.48806697130203247,0.29442837834358215
1772650982747696400,1.4106962890625,-0.7744016051292419,0.43263256549835205,0.402395635843277
1772650982757573600,1.42057373046875,-0.6258130073547363,0.3542914092540741,0.5442649126052856
1772650982767437300,1.430437255859375,-0.4572191834449768,0.3176405727863312,0.647192656993866
1772650982777328400,1.440328369140625,-0.2939702570438385,0.45950984954833984,0.6456655263900757
1772650982787206000,1.450205810546875,-0.1820324808359146,0.8344173431396484,0.4766135811805725
1772650982797083100,1.460083251953125,-0.1426328420639038,1.3690614700317383,0.1682884246110916
1772650982806960600,1.469960693359375,-0.14186927676200867,1.8360542058944702,-0.18187977373600006
1772650982816838000,1.479837890625,-0.10216420143842697,1.9693715572357178,-0.42667680978775024
1772650982826701600,1.48970166015625,-0.021532366052269936,1.7888661623001099,-0.573585569858551
1772650982836592600,1.499592529296875,0.04443913698196411,1.3760861158370972,-0.6265766024589539
1772650982846470000,1.509469970703125,0.06734590977430344,0.8270871639251709,-0.5212054252624512
1772650982856333600,1.51933349609375,0.04169032722711563,0.25090551376342773,-0.22555534541606903
1772650982866224600,1.529224609375,-0.0035123717971146107,-0.2907632887363434,0.19989976286888123
1772650982876102100,1.53910205078125,-0.05741964280605316,-0.7207997441291809,0.6326850652694702
1772650982885979400,1.5489794921875,-0.1044548824429512,-1.0034693479537964,0.9910996556282043
1772650982895857000,1.55885693359375,-0.14370182156562805,-1.2084085941314697,1.22963547706604
1772650982905734100,1.568734130859375,-0.17348061501979828,-1.366618037223816,1.3347012996673584
1772650982915597800,1.578597900390625,-0.20051060616970062,-1.4312151670455933,1.3166812658309937
1772650982925489000,1.588489013671875,-0.2208212912082672,-1.3779187202453613,1.212226390838623
1772650982935366100,1.5983662109375,-0.23273280262947083,-1.231162667274475,1.0790616273880005
1772650982945243600,1.60824365234375,-0.23624517023563385,-1.045770525932312,0.9602518677711487
1772650982955121000,1.618120849609375,-0.2360924631357193,-0.8922951221466064,0.8773293495178223
1772650982964998400,1.627998291015625,-0.2420482337474823,-0.7598940134048462,0.825101912021637
1772650982974861800,1.63786181640625,-0.27411770820617676,-0.645207405090332,0.7950177192687988
1772650982984753200,1.647753173828125,-0.32374903559684753,-0.5328115224838257,0.7669187188148499
1772650982994630400,1.65763037109375,-0.37689274549484253,-0.35444411635398865,0.6844543814659119
1772650983004507600,1.667507568359375,-0.4553866386413574,-0.07925742864608765,0.5439594984054565
1772650983014385200,1.67738525390625,-0.5561764240264893,0.22586077451705933,0.40071579813957214
1772650983024262400,1.687262451171875,-0.6297835111618042,0.47829338908195496,0.29946786165237427
1772650983034140000,1.697139892578125,-0.6743753552436829,0.6725428104400635,0.25625041127204895
1772650983044017200,1.70701708984375,-0.6927008032798767,0.7638645172119141,0.2777827978134155
1772650983053894700,1.716894775390625,-0.6537593007087708,0.7182036638259888,0.34787750244140625
1772650983063758000,1.726758056640625,-0.5783196687698364,0.5717530250549316,0.4405735731124878
1772650983073649400,1.7366494140625,-0.48608171939849854,0.40071579813957214,0.5230379700660706
1772650983083526700,1.746526611328125,-0.3915531039237976,0.27091076970100403,0.566408097743988
1772650983093404000,1.75640380859375,-0.31565532088279724,0.1913478970527649,0.5612159371376038
1772650983103281400,1.766281494140625,-0.26495498418807983,0.14813046157360077,0.5172349214553833
1772650983113158700,1.77615869140625,-0.2441861927509308,0.1325538605451584,0.4462239146232605
1772650983123036200,1.7860361328125,-0.23991025984287262,0.12797249853610992,0.3689517378807068
1772650983132913400,1.795913330078125,-0.24281178414821625,0.12003148347139359,0.3077143132686615
1772650983142791000,1.805791015625,-0.2515163719654083,0.09300149232149124,0.2582356929779053
1772650983152668200,1.815668212890625,-0.26220619678497314,0.03436015918850899,0.2241809368133545
1772650983162545400,1.82554541015625,-0.2648022770881653,-0.040010496973991394,0.20127417147159576
1772650983172423000,1.8354228515625,-0.26067906618118286,-0.10033166408538818,0.17271706461906433
1772650983182300200,1.845300048828125,-0.251974493265152,-0.1175880953669548,0.10659284889698029
1772650983192177700,1.855177734375,-0.22754059731960297,-0.09315420687198639,-0.002748812548816204
1772650983202055000,1.865054931640625,-0.18096350133419037,-0.04230117425322533,-0.12308572232723236
1772650983211932400,1.874932373046875,-0.12430741637945175,0.05131116881966591,-0.24647687375545502
1772650983221809700,1.8848095703125,-0.07543963938951492,0.17118994891643524,-0.381474107503891
1772650983231687200,1.894687255859375,-0.047951508313417435,0.29290124773979187,-0.5077667832374573
1772650983241564400,1.904564453125,-0.037261683493852615,0.4074351191520691,-0.6114581227302551
1772650983251441700,1.914441650390625,-0.02626643143594265,0.5143333673477173,-0.694227933883667
1772650983261319200,1.924319091796875,0.00519220158457756,0.6085565686225891,-0.7653915882110596
1772650983271182800,1.934182861328125,0.06016845628619194,0.6624638438224792,-0.8289197087287903
1772650983281074000,1.944073974609375,0.12140589207410812,0.6688777208328247,-0.8750386834144592
1772650983290951200,1.953951171875,0.17256435751914978,0.6539120078086853,-0.9031376838684082
1772650983300814800,1.96381494140625,0.19592925906181335,0.647803544998169,-0.8982508778572083
1772650983310706000,1.973705810546875,0.14965757727622986,0.6957550048828125,-0.8278507590293884
1772650983320583400,1.98358349609375,0.02504473738372326,0.836860716342926,-0.6763606071472168
1772650983330446800,1.99344677734375,-0.1372879147529602,1.0366077423095703,-0.44484952092170715
1772650983340338000,2.003337890625,-0.2985515892505646,1.1998567581176758,-0.1328592747449875
1772650983350215400,2.01321533203125,-0.4372139275074005,1.2111574411392212,0.2817533016204834
1772650983360079000,2.0230791015625,-0.487761527299881,1.0161443948745728,0.7598940134048462
1772650983369970200,2.03297021484375,-0.4156815707683563,0.73255854845047,1.1317472457885742
1772650983379847400,2.042847412109375,-0.3180987238883972,0.5659499764442444,1.277281641960144
1772650983389711000,2.052711181640625,-0.2348707765340805,0.5977140665054321,1.2003148794174194
1772650983399602200,2.062602294921875,-0.14171656966209412,0.7394306063652039,0.9897252917289734
1772650983409479700,2.072479736328125,-0.1044548824429512,0.892447829246521,0.7637118101119995
1772650983419343000,2.082343017578125,-0.1382041871547699,0.9752176403999329,0.564117431640625
1772650983429234200,2.092234130859375,-0.23364907503128052,1.0830321311950684,0.30786702036857605
1772650983439111700,2.102111572265625,-0.393385648727417,1.2424633502960205,-0.02748812735080719
1772650983448989000,2.111989013671875,-0.5230379700660706,1.2578872442245483,-0.3315373361110687
1772650983458866400,2.121866455078125,-0.5442649126052856,0.9593356251716614,-0.44515493512153625
1772650983468743700,2.13174365234375,-0.45508119463920593,0.37857258319854736,-0.34635040163993835
1772650983478621200,2.14162109375,-0.3190149664878845,-0.26190075278282166,-0.12247487902641296
1772650983488498400,2.15149853515625,-0.17302247881889343,-0.8359444737434387,0.12216944992542267
1772650983498376000,2.1613759765625,-0.06337540596723557,-1.1974133253097534,0.30969956517219543
1772650983508239400,2.1712392578125,-0.016340164467692375,-1.2299410104751587,0.4146125912666321
1772650983518130400,2.18113037109375,-0.00030542362947016954,-0.9770501852035522,0.4518742561340332
1772650983528008000,2.191008056640625,0.004581354558467865,-0.6180247068405151,0.4492781460285187
1772650983537885200,2.20088525390625,0.005650337319821119,-0.30878329277038574,0.44454410672187805
1772650983547762700,2.2107626953125,0.02473931387066841,-0.09926267713308334,0.4343124032020569
1772650983557640000,2.220639892578125,0.08704573661088943,-0.010689826682209969,0.4017847776412964
1772650983567503600,2.230503662109375,0.18081079423427582,-0.005497625097632408,0.3071034550666809
1772650983577394700,2.240394775390625,0.279920756816864,-0.02351761981844902,0.1122431829571724
1772650983587272200,2.250272216796875,0.3542914092540741,-0.04413371533155441,-0.2029540091753006
1772650983597149400,2.2601494140625,0.40636613965034485,-0.04062134400010109,-0.6016845703125
1772650983607027000,2.27002685546875,0.45049986243247986,-0.02229592576622963,-1.0341644287109375
1772650983616904200,2.279904296875,0.4819584786891937,-0.0032069480512291193,-1.4573287963867188
1772650983626768000,2.289767822265625,0.4918847680091858,0.0022906772792339325,-1.838192105293274
1772650983636659000,2.299658935546875,0.4492781460285187,-0.004734066314995289,-2.12070894241333
1772650983646536200,2.3095361328125,0.3229855000972748,-0.03787253051996231,-2.224705696105957
1772650983656400000,2.31939990234375,0.14706148207187653,-0.08322793990373611,-2.0898611545562744
1772650983666291000,2.329291015625,-0.023212196305394173,-0.10842538625001907,-1.6934213638305664
1772650983676168400,2.33916845703125,-0.13942588865756989,-0.11483928561210632,-1.1143381595611572
1772650983686032000,2.349031982421875,-0.17958909273147583,-0.13347013294696808,-0.4900522232055664
1772650983695923200,2.358923095703125,-0.16935740411281586,-0.1904316395521164,0.04443913698196411
1772650983705800400,2.368800537109375,-0.1178935244679451,-0.30481278896331787,0.42881476879119873
1772650983715664100,2.3786640625,-0.031916771084070206,-0.43538138270378113,0.6722373962402344
1772650983725555200,2.38855517578125,0.08200624585151672,-0.5149442553520203,0.7650861740112305
1772650983735432400,2.398432373046875,0.21272756159305573,-0.5172349214553833,0.7139277458190918
1772650983745296100,2.408296142578125,0.3243598937988281,-0.4618005156517029,0.5632011890411377
1772650983755187200,2.418187255859375,0.39078953862190247,-0.3892624080181122,0.363454133272171
1772650983765064700,2.428064697265625,0.40987852215766907,-0.31412819027900696,0.1785201132297516
1772650983774928100,2.43792822265625,0.37826716899871826,-0.2655658423900604,0.042759306728839874
1772650983784819500,2.4478193359375,0.305576354265213,-0.2689255177974701,-0.031916771084070206
1772650983794696700,2.45769677734375,0.21929416060447693,-0.28312769532203674,-0.08017370104789734
1772650983804560400,2.467560302734375,0.13560809195041656,-0.26434415578842163,-0.13835690915584564
1772650983814451500,2.477451416015625,0.06337540596723557,-0.18310146033763885,-0.20188501477241516
1772650983824328700,2.48732861328125,-0.0022906772792339325,-0.07467607408761978,-0.2513636350631714
1772650983834206200,2.497206298828125,-0.060779303312301636,0.02367033064365387,-0.26220619678497314
1772650983844083500,2.50708349609375,-0.1122431829571724,0.08460234850645065,-0.22570806741714478
1772650983853961000,2.5169609375,-0.16248537600040436,0.11560284346342087,-0.14248012006282806
1772650983863838200,2.526838134765625,-0.2032594233751297,0.13576079905033112,-0.03451287001371384
1772650983873715500,2.536715576171875,-0.22601348161697388,0.1823379099369049,0.07559234648942947
1772650983883593000,2.546593017578125,-0.2498365342617035,0.2648022770881653,0.1701209545135498
1772650983893470200,2.55647021484375,-0.28633466362953186,0.3764346241950989,0.2363978922367096
1772650983903347700,2.56634765625,-0.3038965165615082,0.5128062963485718,0.27442312240600586
1772650983913225000,2.576224853515625,-0.28496024012565613,0.6427640318870544,0.2858765125274658
1772650983923088600,2.586088623046875,-0.23532891273498535,0.7539382576942444,0.3017585575580597
1772650983932979700,2.595979736328125,-0.15454435348510742,0.8391514420509338,0.3533751368522644
1772650983942857200,2.605857177734375,-0.0587940476834774,0.8736643195152283,0.4553866386413574
1772650983952720600,2.615720703125,0.06704048812389374,0.7389724850654602,0.6528429985046387
1772650983962612000,2.625612060546875,0.20707722008228302,0.3831539452075958,0.9678874611854553
1772650983972489200,2.6354892578125,0.27976804971694946,0.05115845799446106,1.2264286279678345
1772650983982366700,2.64536669921875,0.2838912606239319,-0.27717193961143494,1.4385453462600708
1772650983992244000,2.655243896484375,0.24662958085536957,-0.5447230339050293,1.6161491870880127
1772650984002121200,2.665121337890625,0.1951656937599182,-0.5890094637870789,1.6709727048873901
1772650984011985000,2.67498486328125,0.13576079905033112,-0.3005368411540985,1.5136795043945312
1772650984021876000,2.6848759765625,0.12934690713882446,0.08551861345767975,1.1523633003234863
1772650984031753500,2.69475341796875,0.2079934924840927,0.284196674823761,0.674680769443512
1772650984041617200,2.7046171875,0.33001023530960083,0.2990097403526306,0.0784938707947731
1772650984051508200,2.71450830078125,0.5486935377120972,0.1244601309299469,-0.5946598052978516
1772650984061385500,2.724385498046875,0.7896727919578552,-0.1169772520661354,-1.1653438806533813
1772650984071249200,2.734249267578125,0.7988355159759521,-0.31534990668296814,-1.323706030845642
1772650984081140200,2.74414013671875,0.5609105229377747,-0.358720064163208,-1.0123265981674194
1772650984091017700,2.754017822265625,0.17088451981544495,-0.08383878320455551,-0.48455458879470825
1772650984100881200,2.763881103515625,-0.16279079020023346,0.351542592048645,0.02733541466295719
1772650984110772500,2.7737724609375,-0.29229041934013367,0.7229377031326294,0.4387410581111908
1772650984120649700,2.783649658203125,-0.2570139765739441,0.8872556686401367,0.7572978734970093
1772650984130513400,2.793513427734375,-0.08276980370283127,0.8092198967933655,0.9793408513069153
1772650984140404500,2.803404541015625,0.15057384967803955,0.6155813336372375,1.050046443939209
1772650984150281700,2.81328173828125,0.35138988494873047,0.4750864505767822,0.9585720896720886
1772650984160145400,2.8231455078125,0.4453076422214508,0.4679090082645416,0.7414158582687378
1772650984170036500,2.833036376953125,0.43324342370033264,0.5706840753555298,0.46073153614997864
1772650984179914000,2.8429140625,0.349251925945282,0.7044596076011658,0.22524993121623993
1772650984189777400,2.85277734375,0.24449162185192108,0.7765395641326904,0.1188097894191742
1772650984199668500,2.86266845703125,0.16813570261001587,0.6904101371765137,0.1513374149799347
1772650984209546000,2.8725458984375,0.10918894410133362,0.4416425824165344,0.30908870697021484
1772650984219409700,2.88240966796875,0.04749337583780289,0.08628217875957489,0.5325061082839966
1772650984229300700,2.89230078125,0.001374406274408102,-0.3139754831790924,0.7855495810508728
1772650984239178000,2.902177978515625,-0.03161134570837021,-0.6946860551834106,1.0292776823043823
1772650984249041700,2.912041748046875,-0.06520794332027435,-0.9717052578926086,1.1896250247955322
1772650984258932700,2.9219326171875,-0.08276980370283127,-1.0779926776885986,1.220778226852417
1772650984268810200,2.931810302734375,-0.07070557028055191,-1.0923476219177246,1.1908466815948486
1772650984278674000,2.941673828125,-0.02733541466295719,-1.077534556388855,1.1453386545181274
1772650984288565000,2.95156494140625,0.0528382882475853,-1.0656230449676514,1.050046443939209
1772650984298442200,2.961442138671875,0.15622419118881226,-1.0451596975326538,0.8935168385505676
1772650984308306000,2.971305908203125,0.2641914486885071,-0.9898779988288879,0.6748335361480713
1772650984318197000,2.981197021484375,0.3533751368522644,-0.9216157793998718,0.4155288338661194
1772650984328074500,2.991074462890625,0.45049986243247986,-0.8703046441078186,0.13377554714679718
1772650984337938000,3.00093798828125,0.4960079789161682,-0.8012788891792297,-0.16172181069850922
1772650984347829200,3.010829345703125,0.49203747510910034,-0.6693359017372131,-0.46042612195014954
1772650984357706500,3.02070654296875,0.4653128981590271,-0.48989951610565186,-0.730573296546936
1772650984367570200,3.030570068359375,0.4136963188648224,-0.288930743932724,-0.943759024143219
1772650984377461200,3.040461181640625,0.32512345910072327,-0.08979454636573792,-1.0813523530960083
1772650984387338500,3.05033837890625,0.20005246996879578,0.09391776472330093,-1.1251806020736694
1772650984397202200,3.0602021484375,0.06062658876180649,0.23349636793136597,-1.063179612159729
1772650984407093200,3.07009326171875,-0.062153708189725876,0.3243598937988281,-0.917645275592804
1772650984416970800,3.079970703125,-0.15026842057704926,0.37536564469337463,-0.73255854845047
1772650984426834200,3.089834228515625,-0.1757712960243225,0.3930802047252655,-0.5694623589515686
1772650984436725500,3.0997255859375,-0.1438545286655426,0.39796698093414307,-0.4665345847606659
1772650984446602800,3.109602783203125,-0.06139015033841133,0.4074351191520691,-0.44759833812713623
1772650984456466400,3.119466552734375,0.062153708189725876,0.45294323563575745,-0.5131117105484009
1772650984466357500,3.129357421875,0.19821994006633759,0.5050179958343506,-0.5847335457801819
1772650984476234800,3.13923486328125,0.34161633253097534,0.5088357925415039,-0.5966450572013855
1772650984486112300,3.1491123046875,0.47768256068229675,0.47019967436790466,-0.567018985748291
1772650984495989500,3.158989501953125,0.5633538961410522,0.4230117201805115,-0.5233433842658997
1772650984505867000,3.168866943359375,0.575570821762085,0.36314868927001953,-0.4575245976448059
1772650984515744300,3.178744140625,0.5485408306121826,0.24067382514476776,-0.3365768492221832
1772650984525621800,3.188621826171875,0.5008947253227234,0.12827792763710022,-0.2041756957769394
1772650984535499000,3.1984990234375,0.4628695249557495,0.22158484160900116,-0.1751604527235031
1772650984545362700,3.20836279296875,0.48363831639289856,0.6326850652694702,-0.3313846290111542
1772650984555253800,3.218253662109375,0.5891621708869934,1.1102149486541748,-0.5493044257164001
1772650984565131300,3.22813134765625,0.7837170362472534,1.1384665966033936,-0.5245651006698608
1772650984575008500,3.238008544921875,0.9413156509399414,0.6562026739120483,-0.16660858690738678
1772650984584886000,3.247885986328125,0.9203941226005554,0.18371231853961945,0.30084228515625
1772650984594763300,3.25776318359375,0.7656970620155334,0.03787253051996231,0.5906893014907837
1772650984604627000,3.267626953125,0.5726693272590637,-0.03451287001371384,0.763559103012085
1772650984614518000,3.27751806640625,0.37353309988975525,-0.3987305462360382,1.088987946510315
1772650984624395300,3.287395263671875,0.24662958085536957,-0.9816315174102783,1.4541219472885132
1772650984634259000,3.297259033203125,0.15775130689144135,-1.625617265701294,1.7826050519943237
1772650984644150000,3.30714990234375,0.13484452664852142,-2.2202770709991455,1.9606670141220093
1772650984654027500,3.317027587890625,0.20341213047504425,-2.52799129486084,1.832236409187317
1772650984663891000,3.326890869140625,0.3640649616718292,-2.430255889892578,1.404185175895691
1772650984673782300,3.3367822265625,0.5425850749015808,-2.0495452880859375,0.767224133014679
1772650984683659500,3.346659423828125,0.7201889157295227,-1.5185662508010864,0.07009471952915192
1772650984693537000,3.356537109375,0.9197832345962524,-1.054322361946106,-0.4993676245212555
1772650984703414300,3.366414306640625,1.03996741771698,-0.8272398710250854,-0.7970029711723328
1772650984713291800,3.376291748046875,1.084712028503418,-0.7004891037940979,-0.9129112362861633
1772650984723155200,3.3861552734375,1.0595145225524902,-0.4955498278141022,-1.0465340614318848
1772650984733046500,3.396046630859375,0.9645278453826904,-0.20509196817874908,-1.2968287467956543
1772650984742923800,3.405923828125,0.8220477104187012,-0.024433890357613564,-1.6017942428588867
1772650984752787500,3.415787353515625,0.6426113247871399,-0.06139015033841133,-1.8626259565353394
1772650984762678500,3.425678466796875,0.4903576374053955,-0.2901524603366852,-2.0089240074157715
1772650984772555800,3.4355556640625,0.3955236077308655,-0.6079457402229309,-1.990445852279663
1772650984782419500,3.44541943359375,0.38727715611457825,-0.9356653094291687,-1.7758857011795044
1772650984792310500,3.455310546875,0.44423866271972656,-1.2152806520462036,-1.3759334087371826
1772650984802188000,3.46518798828125,0.5311316847801208,-1.4390034675598145,-0.8603783845901489
1772650984812051500,3.475051513671875,0.6087092757225037,-1.577818512916565,-0.31825143098831177
1772650984821942800,3.48494287109375,0.6580352187156677,-1.5907989740371704,0.14034216105937958
1772650984831820000,3.494820068359375,0.682774543762207,-1.5109306573867798,0.4766135811805725
1772650984841683700,3.50468359375,0.6876612901687622,-1.3934953212738037,0.6781931519508362
1772650984851574800,3.51457470703125,0.6997255086898804,-1.271478533744812,0.7339329719543457
1772650984861452300,3.524452392578125,0.7224795818328857,-1.1199884414672852,0.6473453640937805
1772650984871315700,3.534315673828125,0.7624900937080383,-0.925739049911499,0.4291202127933502
1772650984881207000,3.54420703125,0.8480086922645569,-0.7572978734970093,0.15087927877902985
1772650984891084300,3.554084228515625,0.9494093656539917,-0.6722373962402344,-0.08887827396392822
1772650984900948000,3.563947998046875,1.0169079303741455,-0.6604785919189453,-0.24097923934459686
1772650984910839000,3.573839111328125,1.0430216789245605,-0.7027797698974609,-0.3107685446739197
1772650984920716500,3.583716552734375,1.0277504920959473,-0.7763868570327759,-0.3139754831790924
1772650984930593800,3.59359375,0.9822424054145813,-0.8344173431396484,-0.2933593988418579
1772650984940471000,3.603470947265625,0.9126058220863342,-0.872137188911438,-0.25808295607566833
1772650984950348500,3.6133486328125,0.826018214225769,-0.8968765139579773,-0.21853061020374298
1772650984960225800,3.623225830078125,0.7363763451576233,-0.8857285380363464,-0.18737739324569702
1772650984970103300,3.633103271484375,0.6675033569335938,-0.8269344568252563,-0.18997350335121155
1772650984979980500,3.64298046875,0.6056550741195679,-0.7253811359405518,-0.23884128034114838
1772650984989844200,3.65284423828125,0.53143709897995,-0.5509842038154602,-0.35383328795433044
1772650984999735300,3.6627353515625,0.4340069890022278,-0.2976353168487549,-0.5181511640548706
1772650985009612800,3.67261279296875,0.29290124773979187,-0.05497625470161438,-0.6591041684150696
1772650985019476200,3.682476318359375,0.09956810623407364,0.12705622613430023,-0.7278245091438293
1772650985029367600,3.692367431640625,-0.12033691257238388,0.2670929729938507,-0.7272136807441711
1772650985039244800,3.702244873046875,-0.3315373361110687,0.4164451062679291,-0.6920899152755737
1772650985049108500,3.7121083984375,-0.5150969624519348,0.575570821762085,-0.6227588057518005
1772650985058999600,3.72199951171875,-0.6673506498336792,0.7857022881507874,-0.5543438792228699
1772650985068877000,3.731876953125,-0.7823426127433777,0.9452861547470093,-0.4643966257572174
1772650985078740500,3.741740478515625,-0.8493831157684326,1.0295830965042114,-0.3599417507648468
1772650985088631600,3.751631591796875,-0.8545753359794617,1.1048699617385864,-0.3179459869861603
1772650985098509000,3.761509033203125,-0.8298360109329224,1.2035218477249146,-0.376740038394928
1772650985108372700,3.771372802734375,-0.7937960028648376,1.3166812658309937,-0.5080721974372864
1772650985118263800,3.781263916015625,-0.7441646456718445,1.4347275495529175,-0.635739266872406
1772650985128141000,3.79114111328125,-0.6801784038543701,1.5126105546951294,-0.684148907661438
1772650985138004700,3.801004638671875,-0.6084038615226746,1.5194826126098633,-0.6395570635795593
1772650985147895800,3.810895751953125,-0.5548020005226135,1.498713731765747,-0.5381564497947693
1772650985157773300,3.820773193359375,-0.5405998229980469,1.466338872909546,-0.4092676639556885
1772650985167637000,3.830636962890625,-0.5777087807655334,1.378376841545105,-0.22601348161697388
1772650985177528000,3.840528076171875,-0.673306405544281,1.195886254310608,0.004428642801940441
1772650985187405300,3.8504052734375,-0.8452599048614502,0.8565605878829956,0.3148917555809021
1772650985197269000,3.86026904296875,-0.9975135922431946,0.49738237261772156,0.633448600769043
1772650985207160000,3.87016015625,-1.0146173238754272,0.39827242493629456,0.8044858574867249
1772650985217037600,3.88003759765625,-0.9103151559829712,0.40010493993759155,0.8565605878829956
1772650985226901000,3.88990087890625,-0.8037222623825073,0.3177932798862457,0.8684720993041992
1772650985236792300,3.899792236328125,-0.7053758502006531,0.17485502362251282,0.7857022881507874
1772650985246669600,3.909669677734375,-0.6076403260231018,0.020005248486995697,0.6245913505554199
1772650985256533200,3.919533203125,-0.533727765083313,-0.04413371533155441,0.3530697226524353
1772650985266424300,3.92942431640625,-0.4746283292770386,-0.08154810965061188,0.01847812905907631
1772650985276301600,3.939301513671875,-0.3749074935913086,-0.2495311051607132,-0.21501824259757996
1772650985286179000,3.949178955078125,-0.22998400032520294,-0.6091674566268921,-0.18081079423427582
1772650985296056300,3.959056396484375,-0.04459185153245926,-1.0616525411605835,0.17348061501979828
1772650985305933800,3.968933837890625,0.1301104724407196,-1.4125843048095703,0.6998782753944397
1772650985315811000,3.97881103515625,0.28221142292022705,-1.5602566003799438,1.158624529838562
1772650985325688600,3.9886884765625,0.4202629029750824,-1.4977974891662598,1.4467917680740356
1772650985335565800,3.99856591796875,0.5535803437232971,-1.3131688833236694,1.5535372495651245
1772650985345429500,4.008429443359375,0.6850652098655701,-1.0549331903457642,1.4625210762023926
1772650985355320600,4.018320556640625,0.8038749694824219,-0.7980719208717346,1.1935955286026
1772650985365198000,4.028197998046875,0.9009997248649597,-0.5848862528800964,0.7488987445831299
1772650985375061500,4.0380615234375,0.9295567870140076,-0.45645561814308167,0.19944162666797638
1772650985384952800,4.047952880859375,0.8933641314506531,-0.3665083646774292,-0.3387148082256317
1772650985394830000,4.057830078125,0.8232693672180176,-0.30695074796676636,-0.7461498975753784
1772650985404693800,4.06769384765625,0.7001836895942688,-0.29259583353996277,-0.9171871542930603
1772650985414584800,4.077584716796875,0.5563291311264038,-0.3313846290111542,-0.8144121170043945
1772650985424462300,4.08746240234375,0.42759308218955994,-0.3987305462360382,-0.46546560525894165
1772650985434325800,4.09732568359375,0.30007871985435486,-0.4643966257572174,0.02626643143594265
1772650985444217000,4.107217041015625,0.19027891755104065,-0.476308137178421,0.4955498278141022
1772650985454094300,4.11709423828125,0.11911521852016449,-0.44301697611808777,0.8412894010543823
1772650985463958000,4.1269580078125,0.09330692142248154,-0.3715478479862213,1.0469921827316284
1772650985473849000,4.13684912109375,0.09941539168357849,-0.323596328496933,1.1601516008377075
1772650985483726600,4.1467265625,0.130721315741539,-0.33199548721313477,1.233605980873108
1772650985493590000,4.156590087890625,0.17149536311626434,-0.402395635843277,1.2855280637741089
1772650985503481000,4.166481201171875,0.2047865390777588,-0.4897467792034149,1.297592282295227
1772650985513358600,4.176358642578125,0.22524993121623993,-0.5595360994338989,1.2507097721099854
1772650985523222300,4.18622216796875,0.23823043704032898,-0.6061131954193115,1.1381611824035645
1772650985533113300,4.19611328125,0.25777754187583923,-0.6352811455726624,0.9880454540252686
1772650985542990600,4.205990478515625,0.2773246467113495,-0.6476507782936096,0.8194515705108643
1772650985552868000,4.2158681640625,0.2919849753379822,-0.6349757313728333,0.6403206586837769
1772650985562745300,4.225745361328125,0.2964136302471161,-0.5777087807655334,0.4456130862236023
1772650985572622800,4.235622802734375,0.29794076085090637,-0.4715740978717804,0.24632415175437927
1772650985582500000,4.2455,0.3255815804004669,-0.3900259733200073,0.09025268256664276
1772650985592377600,4.255377685546875,0.33413344621658325,-0.34879377484321594,-0.004428642801940441
1772650985602254800,4.2652548828125,0.32756683230400085,-0.35917818546295166,-0.05467082932591438
1772650985612132400,4.27513232421875,0.31443363428115845,-0.3987305462360382,-0.07773031294345856
1772650985622009600,4.285009521484375,0.29595550894737244,-0.45950984954833984,-0.0853659063577652
1772650985631887000,4.29488720703125,0.27152159810066223,-0.5121954083442688,-0.08628217875957489
1772650985641764400,4.304764404296875,0.25716668367385864,-0.5422796607017517,-0.09345962852239609
1772650985651641900,4.314641845703125,0.25212720036506653,-0.5488462448120117,-0.12232216447591782
1772650985661519000,4.32451904296875,0.26373329758644104,-0.5390726923942566,-0.18111620843410492
1772650985671396600,4.334396728515625,0.28938889503479004,-0.5144860744476318,-0.28129515051841736
1772650985681273900,4.34427392578125,0.3229855000972748,-0.4546230733394623,-0.4220954477787018
1772650985691151400,4.3541513671875,0.36818817257881165,-0.3640649616718292,-0.5864133834838867
1772650985701014800,4.364014892578125,0.4271349310874939,-0.27976804971694946,-0.7285880446434021
1772650985710906000,4.373906005859375,0.4584408700466156,-0.18019993603229523,-0.8015843033790588
1772650985720783400,4.383783447265625,0.44011545181274414,-0.043828289955854416,-0.7728744745254517
1772650985730647000,4.39364697265625,0.38758260011672974,0.07834116369485855,-0.6378772258758545
1772650985740538000,4.4035380859375,0.3411581814289093,0.10796725004911423,-0.40071579813957214
1772650985750415600,4.41341552734375,0.3480302393436432,-0.014965757727622986,-0.12155860662460327
1772650985760279000,4.423279052734375,0.42453885078430176,-0.25594499707221985,0.12552911043167114
1772650985770170400,4.43317041015625,0.5265503525733948,-0.4856235682964325,0.2724378705024719
1772650985780047600,4.443047607421875,0.62627112865448,-0.6027535200119019,0.3049654960632324
1772650985789925000,4.452925048828125,0.7014053463935852,-0.6310052275657654,0.2895416021347046
1772650985799802400,4.46280224609375,0.7201889157295227,-0.6390989422798157,0.32161107659339905
1772650985809680000,4.472679931640625,0.6526902914047241,-0.5570927262306213,0.37704548239707947
1772650985819557000,4.48255712890625,0.552664041519165,-0.2238755226135254,0.27839362621307373
1772650985829434400,4.492434326171875,0.4928010404109955,0.36788275837898254,-0.07971556484699249
1772650985839312000,4.502311767578125,0.4424061179161072,0.9301676750183105,-0.5155550837516785
1772650985849175600,4.512175537109375,0.37353309988975525,0.9949174523353577,-0.6336013078689575
1772650985859066600,4.522066650390625,0.34421244263648987,0.47920966148376465,-0.3990359604358673
1772650985868944000,4.53194384765625,0.22219568490982056,-0.18462859094142914,-0.0456608310341835
1772650985878821400,4.5418212890625,-0.028098974376916885,-0.6381826996803284,0.24525517225265503
1772650985888698600,4.55169873046875,-0.3032856583595276,-0.8753440976142883,0.39292749762535095
1772650985898576100,4.561576171875,-0.506239652633667,-1.016755223274231,0.4840964674949646
1772650985908439800,4.571439697265625,-0.5993938446044922,-1.085017442703247,0.6329904794692993
1772650985918331000,4.581330810546875,-0.569004237651825,-1.135412335395813,0.8275453448295593
1772650985928208100,4.5912080078125,-0.4100312292575836,-1.19191575050354,1.0011786222457886
1772650985938071800,4.60107177734375,-0.144465371966362,-1.187334418296814,1.0989142656326294
1772650985947963000,4.610962890625,0.18493400514125824,-1.071884274482727,1.0763128995895386
1772650985957840400,4.62084033203125,0.5326588153839111,-0.8916842937469482,0.9191724061965942
1772650985967703800,4.630703857421875,0.8420529365539551,-0.7137750387191772,0.6375718116760254
1772650985977595100,4.64059521484375,1.0605835914611816,-0.5564818382263184,0.2641914486885071
1772650985987472400,4.650472412109375,1.1705360412597656,-0.430341899394989,-0.13576079905033112
1772650985997336000,4.660336181640625,1.1745065450668335,-0.33947837352752686,-0.48638713359832764
1772650986007227100,4.67022705078125,1.0792144536972046,-0.30084228515625,-0.7360709309577942
1772650986017104600,4.680104736328125,0.8936695456504822,-0.3310792148113251,-0.8866447806358337
1772650986026968000,4.689968017578125,0.654370129108429,-0.43385425209999084,-0.9536852836608887
1772650986036859400,4.699859375,0.40987852215766907,-0.5725166201591492,-0.9373451471328735
1772650986046736600,4.709736572265625,0.21394924819469452,-0.7230904698371887,-0.841747522354126
1772650986056600300,4.719600341796875,0.13744063675403595,-0.8690829277038574,-0.6882721781730652
1772650986066491400,4.729491455078125,0.20371755957603455,-0.9678874611854553,-0.48898324370384216
1772650986076368600,4.73936865234375,0.3712424337863922,-0.9839222431182861,-0.2593046724796295
1772650986086232300,4.749232421875,0.5972558856010437,-0.925739049911499,-0.02870982140302658
1772650986096123600,4.75912353515625,0.8344173431396484,-0.8316685557365417,0.17897824943065643
1772650986106001000,4.7690009765625,1.0489774942398071,-0.7178982496261597,0.34543412923812866
1772650986115878400,4.77887841796875,1.2244433164596558,-0.5906893014907837,0.45477578043937683
1772650986125755600,4.788755615234375,1.3473763465881348,-0.46638187766075134,0.5005893111228943
1772650986135633200,4.798633056640625,1.4105989933013916,-0.3817795515060425,0.4950917065143585
1772650986145496600,4.80849658203125,1.4142640829086304,-0.35138988494873047,0.4668400287628174
1772650986155387600,4.8183876953125,1.3739482164382935,-0.37765631079673767,0.43202173709869385
1772650986165265200,4.82826513671875,1.3041589260101318,-0.45294323563575745,0.3889569938182831
1772650986175128800,4.83812890625,1.2149752378463745,-0.5549547076225281,0.3301629424095154
1772650986185020000,4.84802001953125,1.1147962808609009,-0.6679614782333374,0.252432644367218
1772650986194897200,4.857897216796875,1.0172133445739746,-0.7760814428329468,0.14400723576545715
1772650986204774700,4.867774658203125,0.9315420985221863,-0.8596147894859314,0.02748812735080719
1772650986214652000,4.87765185546875,0.8553388714790344,-0.9014578461647034,-0.08857285231351852
1772650986224529400,4.887529296875,0.7817317843437195,-0.9003888368606567,-0.19088977575302124
1772650986234406700,4.89740673828125,0.7090409398078918,-0.8487722873687744,-0.26968905329704285
1772650986244284200,4.9072841796875,0.6430694460868835,-0.763559103012085,-0.3184041380882263
1772650986254161400,4.917161376953125,0.5798467397689819,-0.6820109486579895,-0.3536805510520935
1772650986264039000,4.927038818359375,0.5112791657447815,-0.6316160559654236,-0.3802524209022522
1772650986273916200,4.936916259765625,0.43797749280929565,-0.6293253898620605,-0.3826957941055298
1772650986283793700,4.946793701171875,0.3715478479862213,-0.663838267326355,-0.3486410677433014
1772650986293671000,4.9566708984375,0.31886225938796997,-0.7136223316192627,-0.2858765125274658
1772650986303548400,4.96654833984375,0.2736595869064331,-0.7524111270904541,-0.20157960057258606
1772650986313425700,4.97642578125,0.2414373755455017,-0.752105712890625,-0.1113269105553627
1772650986323303200,4.98630322265625,0.22158484160900116,-0.7064448595046997,-0.021990500390529633
1772650986333180400,4.996180419921875,0.2160872220993042,-0.6270347237586975,0.06765133142471313
1772650986343058000,5.006057861328125,0.21853061020374298,-0.5395308136940002,0.1585148572921753
1772650986352935200,5.01593505859375,0.223264679312706,-0.45767730474472046,0.23899398744106293
1772650986362812700,5.025812744140625,0.2229592502117157,-0.38666632771492004,0.29381752014160156
1772650986372690000,5.03568994140625,0.21120044589042664,-0.337340384721756,0.3199312388896942
1772650986382567400,5.0455673828125,0.19195875525474548,-0.30985227227211,0.324054479598999
1772650986392444700,5.055444580078125,0.16248537600040436,-0.3049654960632324,0.3161134421825409
1772650986402322200,5.065322265625,0.12033691257238388,-0.3071034550666809,0.3032856583595276
1772650986412199400,5.075199462890625,0.06780404597520828,-0.3158080279827118,0.2948864996433258
1772650986422077000,5.085076904296875,0.016034740954637527,-0.3312319219112396,0.2864873707294464
1772650986431954200,5.0949541015625,-0.03176405653357506,-0.3315373361110687,0.26694026589393616
1772650986441831700,5.104831787109375,-0.07528692483901978,-0.27091076970100403,0.2304421216249466
1772650986451709000,5.114708984375,-0.13270656764507294,-0.14660334587097168,0.17531315982341766
1772650986461586400,5.12458642578125,-0.2107423096895218,-0.008093725889921188,0.1366770714521408
1772650986471463700,5.134463623046875,-0.2945810854434967,0.09727742522954941,0.15087927877902985
1772650986481341000,5.1443408203125,-0.37735089659690857,0.2113531529903412,0.17424418032169342
1772650986491218400,5.154218505859375,-0.439351886510849,0.33199548721313477,0.13209572434425354
1772650986501082000,5.16408203125,-0.47707170248031616,0.4092676639556885,0.029320668429136276
1772650986510973200,5.17397314453125,-0.5233433842658997,0.42927291989326477,-0.14064757525920868
1772650986520850400,5.183850341796875,-0.5777087807655334,0.38956785202026367,-0.3352024257183075
1772650986530728000,5.19372802734375,-0.6279509663581848,0.3133646547794342,-0.5041016936302185
1772650986540605200,5.203605224609375,-0.6383354067802429,0.21715620160102844,-0.6145123243331909
1772650986550482700,5.213482666015625,-0.5671716928482056,0.072843536734581,-0.6015318632125854
1772650986560346400,5.223346435546875,-0.3865135908126831,-0.1441599577665329,-0.36879903078079224
1772650986570237400,5.233237548828125,-0.13392825424671173,-0.399952232837677,0.08780929446220398
1772650986580114700,5.24311474609375,0.11529742181301117,-0.5848862528800964,0.5906893014907837
1772650986589992200,5.2529921875,0.3315373361110687,-0.6583406329154968,0.9451334476470947
1772650986599869400,5.262869384765625,0.515707790851593,-0.6181774139404297,1.10532808303833
1772650986609747000,5.272746826171875,0.6623111367225647,-0.4934118688106537,1.1227372884750366
1772650986619610600,5.282610595703125,0.7815790772438049,-0.353985995054245,1.0317209959030151
1772650986629501700,5.292501708984375,0.8907679915428162,-0.2835858464241028,0.9086353182792664
1772650986639379000,5.30237890625,0.9874345660209656,-0.3180987238883972,0.8179244995117188
1772650986649242600,5.31224267578125,1.0625687837600708,-0.4677563011646271,0.7898254990577698
1772650986659133700,5.3221337890625,1.1041064262390137,-0.6891884207725525,0.8124268651008606
1772650986669011200,5.33201123046875,1.1042591333389282,-0.9104678630828857,0.8515210747718811
1772650986678874600,5.34187451171875,1.0698989629745483,-1.0711206197738647,0.8525900840759277
1772650986688766000,5.351765869140625,1.0017894506454468,-1.128540277481079,0.7627955079078674
1772650986698643200,5.361643310546875,0.9152019023895264,-1.1031901836395264,0.5880932211875916
1772650986708507000,5.3715068359375,0.8147175312042236,-1.0430216789245605,0.39476004242897034
1772650986718398000,5.38139794921875,0.7127060294151306,-0.9910996556282043,0.24311721324920654
1772650986728275500,5.391275390625,0.6235223412513733,-0.9439117312431335,0.150421142578125
1772650986738139000,5.401138916015625,0.5462501645088196,-0.8843541145324707,0.11407572776079178
1772650986748030200,5.4110302734375,0.48791423439979553,-0.8364025950431824,0.13530266284942627
1772650986757907500,5.420907470703125,0.4665345847606659,-0.8209787011146545,0.208298921585083
1772650986767785000,5.430784912109375,0.49493899941444397,-0.8287670016288757,0.31916770339012146
1772650986777662200,5.440662109375,0.5725166201591492,-0.846328854560852,0.4387410581111908
1772650986787539700,5.450539794921875,0.6617003083229065,-0.8286142945289612,0.5299099683761597
1772650986797417000,5.4604169921875,0.7455390691757202,-0.7716528177261353,0.5638120174407959
1772650986807294200,5.470294189453125,0.8197570443153381,-0.6914790868759155,0.5479300022125244
1772650986817171700,5.480171630859375,0.8758022785186768,-0.615428626537323,0.49768781661987305
1772650986827049000,5.490049072265625,0.9078717231750488,-0.571294903755188,0.43981003761291504
1772650986836926500,5.499926513671875,0.9116895198822021,-0.5810684561729431,0.3859027624130249
1772650986846803700,5.5098037109375,0.8890882134437561,-0.6178719997406006,0.3384093940258026
1772650986856681200,5.51968115234375,0.8585458397865295,-0.6642963886260986,0.2877090573310852
1772650986866558700,5.529558837890625,0.8295305967330933,-0.695907711982727,0.2107423096895218
1772650986876436000,5.53943603515625,0.7982246279716492,-0.6997255086898804,0.1053711548447609
1772650986886313500,5.5493134765625,0.7603521347045898,-0.6882721781730652,-0.017409147694706917
1772650986896190700,5.559190673828125,0.7182036638259888,-0.6603258848190308,-0.13392825424671173
1772650986906068000,5.56906787109375,0.6722373962402344,-0.6161921620368958,-0.23166382312774658
1772650986915945500,5.578945556640625,0.640626072883606,-0.5792359113693237,-0.3249707520008087
1772650986925822700,5.58882275390625,0.6274928450584412,-0.5673243999481201,-0.40468630194664
1772650986935700200,5.5987001953125,0.6332958936691284,-0.5845808386802673,-0.46164780855178833
1772650986945577500,5.608577392578125,0.6658235192298889,-0.6227588057518005,-0.4897467792034149
1772650986955455000,5.618455078125,0.7235485911369324,-0.668114185333252,-0.4950917065143585
1772650986965332200,5.628332275390625,0.8029587268829346,-0.7137750387191772,-0.488219678401947
1772650986975209700,5.638209716796875,0.8762603998184204,-0.7412631511688232,-0.4918847680091858
1772650986985087000,5.6480869140625,0.9368869662284851,-0.7547017931938171,-0.49860408902168274
1772650986994964500,5.657964599609375,0.9857547879219055,-0.7588250041007996,-0.4931064546108246
1772650987004841700,5.667841796875,1.0334008932113647,-0.7463026642799377,-0.4680617153644562
1772650987014719200,5.67771923828125,1.0837957859039307,-0.7353073954582214,-0.4259132444858551
1772650987024596500,5.687596435546875,1.1300674676895142,-0.742637574672699,-0.38422292470932007
1772650987034474000,5.697473876953125,1.1711468696594238,-0.7461498975753784,-0.3695625960826874
1772650987044351200,5.707351318359375,1.1992459297180176,-0.7528692483901978,-0.37139514088630676
1772650987054228700,5.717228759765625,1.2000094652175903,-0.8391514420509338,-0.31321191787719727
1772650987064106000,5.72710595703125,1.1679399013519287,-0.9791881442070007,-0.22662433981895447
1772650987073983500,5.7369833984375,1.139993667602539,-1.1267077922821045,-0.1185043677687645
1772650987083860700,5.74686083984375,1.1546540260314941,-1.154348611831665,-0.011147962883114815
1772650987093738200,5.75673828125,1.202147364616394,-1.0792144536972046,0.07314895838499069
1772650987103615500,5.766615478515625,1.261552333831787,-0.9753703474998474,0.13682979345321655
1772650987113493000,5.776492919921875,1.3328686952590942,-0.8848122358322144,0.1754658818244934
1772650987123370200,5.786370361328125,1.411668062210083,-0.7794411182403564,0.16630317270755768
1772650987133247500,5.79624755859375,1.5011571645736694,-0.656660795211792,0.12675081193447113
1772650987143125000,5.806125,1.5856068134307861,-0.5140279531478882,0.04734066128730774
1772650987153002200,5.816002197265625,1.6537162065505981,-0.38391751050949097,-0.10170606523752213
1772650987162879700,5.825879638671875,1.702125906944275,-0.2858765125274658,-0.3298575282096863
1772650987172757200,5.83575732421875,1.7343480587005615,-0.26755109429359436,-0.5961869359016418
1772650987182620700,5.84562060546875,1.7425944805145264,-0.3978142738342285,-0.8524373769760132
1772650987192512000,5.855511962890625,1.7190768718719482,-0.6320741772651672,-1.074938416481018
1772650987202389200,5.86538916015625,1.6641006469726562,-0.9320002198219299,-1.2123790979385376
1772650987212253000,5.8752529296875,1.5906462669372559,-1.310420036315918,-1.1880979537963867
1772650987222144000,5.88514404296875,1.5188716650009155,-1.6300458908081055,-1.0605835914611816
1772650987232021200,5.895021240234375,1.457787036895752,-1.892099380493164,-0.867861270904541
1772650987241898800,5.904898681640625,1.4182345867156982,-2.1080338954925537,-0.6224533319473267
1772650987251776000,5.91477587890625,1.4124315977096558,-2.2082128524780273,-0.4337015450000763
1772650987261653500,5.924653564453125,1.4440429210662842,-2.129566192626953,-0.35505497455596924
1772650987271530800,5.93453076171875,1.512763261795044,-1.903552770614624,-0.32878854870796204
1772650987281408300,5.944408203125,1.614163875579834,-1.6711254119873047,-0.2632751762866974
1772650987291285500,5.954285400390625,1.6954065561294556,-1.4991718530654907,-0.13621893525123596
1772650987301163000,5.9641630859375,1.7218257188796997,-1.3863178491592407,0.02489202655851841
1772650987311040300,5.974040283203125,1.7192295789718628,-1.3026317358016968,0.16553960740566254
1772650987320917800,5.983917724609375,1.714190125465393,-1.2140588760375977,0.25090551376342773
1772650987330795000,5.993794921875,1.7042638063430786,-1.0848647356033325,0.24846212565898895
1772650987340672500,6.003672607421875,1.6695982217788696,-0.9662076234817505,0.18401773273944855
1772650987350549800,6.0135498046875,1.6404303312301636,-0.971247136592865,0.12583453953266144
1772650987360427300,6.02342724609375,1.5966020822525024,-0.9998042583465576,0.047646086663007736
1772650987370304500,6.033304443359375,1.5286452770233154,-1.0028585195541382,-0.05528167635202408
1772650987380182000,6.04318212890625,1.4732109308242798,-1.0798252820968628,-0.13514995574951172
1772650987390059300,6.053059326171875,1.4142640829086304,-1.1777135133743286,-0.21914145350456238
1772650987399936800,6.062936767578125,1.3285927772521973,-1.2427687644958496,-0.3223746418952942
1772650987409814000,6.07281396484375,1.2470446825027466,-1.3084348440170288,-0.42240089178085327
1772650987419691500,6.08269140625,1.1647330522537231,-1.3773078918457031,-0.49921491742134094
1772650987429568800,6.09256884765625,1.090820550918579,-1.4080029726028442,-0.5412106513977051
1772650987439446300,6.1024462890625,1.032942771911621,-1.4025052785873413,-0.5245651006698608
1772650987449309700,6.112309814453125,0.9976662993431091,-1.3878449201583862,-0.4240806996822357
1772650987459201000,6.122200927734375,0.9648332595825195,-1.3631056547164917,-0.2414373755455017
1772650987469078300,6.132078369140625,0.941468358039856,-1.3206517696380615,-0.006261184345930815
1772650987478955500,6.14195556640625,0.9436063170433044,-1.2673553228378296,0.21364383399486542
1772650987488833000,6.1518330078125,0.9630007147789001,-1.19191575050354,0.37078428268432617
1772650987498710300,6.161710205078125,1.0048437118530273,-1.0929584503173828,0.4486673176288605
1772650987508587800,6.171587890625,1.0624160766601562,-0.9781191945075989,0.46210595965385437
1772650987518465000,6.181465087890625,1.1346487998962402,-0.8429692387580872,0.4367557764053345
1772650987528342500,6.191342529296875,1.213906168937683,-0.7105680704116821,0.38009971380233765
1772650987538219800,6.2012197265625,1.2775870561599731,-0.6084038615226746,0.30282753705978394
1772650987548097300,6.21109716796875,1.3226370811462402,-0.5454866290092468,0.22937314212322235
1772650987557974500,6.220974609375,1.3598986864089966,-0.5331169366836548,0.17225892841815948
1772650987567852000,6.23085205078125,1.3954805135726929,-0.587329626083374,0.1382041871547699
1772650987577729300,6.240729248046875,1.4148749113082886,-0.7003363966941833,0.11911521852016449
1772650987587606800,6.250606689453125,1.4150276184082031,-0.8518264889717102,0.10903623700141907
1772650987597484000,6.260484130859375,1.4021998643875122,-0.9947647452354431,0.08887827396392822
1772650987607361500,6.270361572265625,1.3780714273452759,-1.1091458797454834,0.05344913527369499
1772650987617238800,6.28023876953125,1.3518049716949463,-1.2082558870315552,0.005497625097632408
1772650987627116300,6.2901162109375,1.3284400701522827,-1.2928582429885864,-0.04489727318286896
1772650987636993500,6.29999365234375,1.3050751686096191,-1.3719629049301147,-0.09345962852239609
1772650987646871000,6.30987109375,1.2748382091522217,-1.4440429210662842,-0.12858334183692932
1772650987656748300,6.319748291015625,1.2520841360092163,-1.4950486421585083,-0.1447708010673523
1772650987666625800,6.329625732421875,1.2449066638946533,-1.5167337656021118,-0.16309621930122375
1772650987676503000,6.3395029296875,1.2342169284820557,-1.5034477710723877,-0.1785201132297516
1772650987686380500,6.349380615234375,1.2229162454605103,-1.4696985483169556,-0.1656923145055771
1772650987696257800,6.3592578125,1.20504891872406,-1.3814311027526855,-0.1656923145055771
1772650987706135000,6.369135009765625,1.1856545209884644,-1.2792668342590332,-0.16676130890846252
1772650987716012500,6.379012451171875,1.1694670915603638,-1.1508362293243408,-0.18707197904586792
1772650987725889800,6.388889892578125,1.1503781080245972,-1.037218689918518,-0.20906247198581696
1772650987735767300,6.398767333984375,1.1205992698669434,-0.9060391783714294,-0.2570139765739441
1772650987745644500,6.40864453125,1.0825740098953247,-0.8037222623825073,-0.2973299026489258
1772650987755522000,6.41852197265625,1.028208613395691,-0.6907155513763428,-0.3249707520008087
1772650987765399600,6.428399658203125,0.9634588360786438,-0.5842754244804382,-0.32665055990219116
1772650987775276800,6.43827685546875,0.9025267958641052,-0.45508119463920593,-0.3223746418952942
1772650987785154000,6.448154052734375,0.8360971808433533,-0.3590254783630371,-0.3258870244026184
1772650987795031600,6.458031494140625,0.7797465324401855,-0.36727190017700195,-0.29442837834358215
1772650987804908800,6.46790869140625,0.7246175408363342,-0.43110546469688416,-0.24372805655002594
1772650987814786300,6.477786376953125,0.6620057225227356,-0.5627430081367493,-0.1656923145055771
1772650987824663600,6.48766357421875,0.6006155610084534,-0.6991146802902222,-0.08200624585151672
1772650987834541000,6.497541015625,0.5563291311264038,-0.8008207678794861,-0.02504473738372326
1772650987844418300,6.507418212890625,0.5468609929084778,-0.8419002294540405,0.023059483617544174
1772650987854295800,6.5172958984375,0.5685460567474365,-0.8154810667037964,0.09025268256664276
1772650987864159200,6.5271591796875,0.6285618543624878,-0.7530219554901123,0.18493400514125824
1772650987874050600,6.537050537109375,0.7434011101722717,-0.7120952010154724,0.3101576864719391
1772650987883927800,6.546927734375,0.8857285380363464,-0.6528429985046387,0.38575005531311035
1772650987893791500,6.55679150390625,1.0037747621536255,-0.5341859459877014,0.3524588644504547
1772650987903682600,6.5666826171875,1.068982720375061,-0.3970507085323334,0.22708246111869812
1772650987913560000,6.57656005859375,1.0784507989883423,-0.32100024819374084,0.06917845457792282
1772650987923423500,6.586423583984375,1.1031901836395264,-0.3455868363380432,-0.050394900143146515
1772650987933314800,6.596314697265625,1.164427638053894,-0.4915793240070343,-0.07421794533729553
1772650987943192000,6.606192138671875,1.2154333591461182,-0.7223268747329712,-0.017714571207761765
1772650987953055700,6.6160556640625,1.2137534618377686,-0.9565867781639099,0.07727217674255371
1772650987962946800,6.62594677734375,1.1945117712020874,-1.129456639289856,0.18065807223320007
1772650987972824000,6.635823974609375,1.1688562631607056,-1.1812258958816528,0.26067906618118286
1772650987982687700,6.645687744140625,1.1642749309539795,-1.1738957166671753,0.314586341381073
1772650987992578800,6.655578857421875,1.1318999528884888,-1.119377613067627,0.3689517378807068
1772650988002456300,6.665456298828125,1.0495883226394653,-1.064706802368164,0.44484952092170715
1772650988012333600,6.67533349609375,0.9634588360786438,-1.086391806602478,0.5444176197052002
1772650988022211000,6.685211181640625,0.8987090587615967,-1.2056597471237183,0.6720846891403198
1772650988032088300,6.69508837890625,0.8191461563110352,-1.2856807708740234,0.7632536292076111
1772650988041952000,6.704951904296875,0.6992673873901367,-1.2062705755233765,0.7592831254005432
1772650988051843000,6.714843017578125,0.6009209752082825,-1.0871554613113403,0.7404996156692505
1772650988061720600,6.724720458984375,0.5601469278335571,-1.0176715850830078,0.7756233215332031
1772650988071584000,6.734583984375,0.5544965863227844,-0.9996515512466431,0.8461761474609375
1772650988081475300,6.744475341796875,0.5586197972297668,-0.9854493141174316,0.9129112362861633
1772650988091352600,6.7543525390625,0.5682406425476074,-0.948951244354248,0.9390249252319336
1772650988101216300,6.76421630859375,0.5891621708869934,-0.8696937561035156,0.9109259843826294
1772650988111107300,6.774107421875,0.61481773853302,-0.7498149871826172,0.8409839868545532
1772650988120984800,6.78398486328125,0.634364902973175,-0.6342121958732605,0.7667660117149353
1772650988130848300,6.79384814453125,0.645207405090332,-0.5601469278335571,0.7062921524047852
1772650988140739600,6.803739501953125,0.6531484127044678,-0.5008947253227234,0.6348230242729187
1772650988150616800,6.813616943359375,0.679872989654541,-0.45294323563575745,0.5351021885871887
1772650988160494300,6.823494384765625,0.7333221435546875,-0.4596625566482544,0.42728766798973083
1772650988170371600,6.83337158203125,0.7902836203575134,-0.5083776116371155,0.3365768492221832
1772650988180249000,6.8432490234375,0.8473978638648987,-0.5838172435760498,0.2701472043991089
1772650988190126300,6.853126220703125,0.8988617658615112,-0.6591041684150696,0.21226942539215088
1772650988200003600,6.863003662109375,0.9507837295532227,-0.7253811359405518,0.13713520765304565
1772650988209881000,6.872881103515625,1.0020949840545654,-0.7620319724082947,0.031153209507465363
1772650988219758300,6.88275830078125,1.0518789291381836,-0.7463026642799377,-0.10017894953489304
1772650988229635800,6.8926357421875,1.088987946510315,-0.6786513328552246,-0.24846212565898895
1772650988239513000,6.90251318359375,1.0954018831253052,-0.5861079692840576,-0.39414918422698975
1772650988249376800,6.912376708984375,1.067455530166626,-0.465007483959198,-0.5175403356552124
1772650988259267800,6.922267822265625,1.0164498090744019,-0.3324536085128784,-0.6051968932151794
1772650988269145300,6.932145263671875,0.9523108601570129,-0.23746687173843384,-0.638640820980072
1772650988279008800,6.9420087890625,0.8846595287322998,-0.20539739727973938,-0.6051968932151794
1772650988288900000,6.951900146484375,0.8168554902076721,-0.23807771503925323,-0.5073086619377136
1772650988298777300,6.96177734375,0.7531746625900269,-0.3264978528022766,-0.3633013963699341
1772650988308654800,6.97165478515625,0.6922426819801331,-0.44301697611808777,-0.20005246996879578
1772650988318532000,6.981531982421875,0.6461237072944641,-0.5376983284950256,-0.0584886260330677
1772650988328409600,6.99140966796875,0.6288672685623169,-0.6056550741195679,0.04367557913064957
1772650988338286800,7.001286865234375,0.6491779088973999,-0.636350154876709,0.09468132257461548
1772650988348164400,7.011164306640625,0.6922426819801331,-0.6209262609481812,0.08842013776302338
1772650988358041600,7.02104150390625,0.7392778992652893,-0.5567872524261475,0.02244863659143448
1772650988367918800,7.0309189453125,0.7702783942222595,-0.4891359508037567,-0.06200099736452103
1772650988377796400,7.04079638671875,0.7583668828010559,-0.4405735731124878,-0.10934165865182877
1772650988387673600,7.050673583984375,0.7090409398078918,-0.3984251320362091,-0.11392301321029663
1772650988397551000,7.060551025390625,0.6365028619766235,-0.3439069986343384,-0.10124793648719788
1772650988407428400,7.070428466796875,0.5514423847198486,-0.2545706033706665,-0.09605573117733002
1772650988417305900,7.080305908203125,0.46867257356643677,-0.15530791878700256,-0.08292251825332642
1772650988427183000,7.09018310546875,0.39598172903060913,-0.09681928902864456,-0.04031591862440109
1772650988437060600,7.100060546875,0.3365768492221832,-0.12018419802188873,0.05925218388438225
1772650988446937900,7.109937744140625,0.30847787857055664,-0.223264679312706,0.21623992919921875
1772650988456801500,7.119801513671875,0.3367295563220978,-0.2883199155330658,0.3605526089668274
1772650988466692600,7.129692626953125,0.4337015450000763,-0.1298050433397293,0.33321717381477356
1772650988476570000,7.139570068359375,0.5095993280410767,0.18218518793582916,0.22601348161697388
1772650988486433500,7.14943359375,0.5934380888938904,0.4750864505767822,0.11270131915807724
1772650988496324900,7.159324951171875,0.742026686668396,0.7226322889328003,-0.05925218388438225
1772650988506202000,7.1692021484375,0.8437327742576599,0.8733588457107544,-0.1823379099369049
1772650988516079600,7.17907958984375,0.7918107509613037,0.7748597264289856,-0.15775130689144135
1772650988525956900,7.188956787109375,0.6201626658439636,0.46516019105911255,-0.05650337040424347
1772650988535834000,7.198834228515625,0.4211791753768921,0.072843536734581,0.05131116881966591
1772650988545697800,7.20869775390625,0.31473904848098755,-0.39231663942337036,0.16752485930919647
1772650988555588900,7.2185888671875,0.3778090178966522,-0.9399412274360657,0.319320410490036
1772650988565466400,7.22846630859375,0.5882459282875061,-1.4435847997665405,0.4897467792034149
1772650988575343600,7.238343505859375,0.8580876588821411,-1.7822996377944946,0.6739172339439392
1772650988585221000,7.24822119140625,1.0830321311950684,-1.974258303642273,0.8991671800613403
1772650988595098400,7.258098388671875,1.2374237775802612,-1.9747164249420166,1.1019684076309204
1772650988604962000,7.267962158203125,1.2855280637741089,-1.6960173845291138,1.1954281330108643
1772650988614853000,7.27785302734375,1.2584980726242065,-1.19191575050354,1.1355650424957275
1772650988624730600,7.287730712890625,1.2294827699661255,-0.5627430081367493,0.9292513728141785
1772650988634594000,7.297593994140625,1.2543748617172241,-0.03924693539738655,0.6859814524650574
1772650988644485400,7.3074853515625,1.268424391746521,0.2721324563026428,0.4862344264984131
1772650988654362600,7.317362548828125,1.2650647163391113,0.34940463304519653,0.33382803201675415
1772650988664226300,7.327226318359375,1.2287192344665527,0.20646637678146362,0.20646637678146362
1772650988674117400,7.337117431640625,1.1670236587524414,-0.07681404054164886,0.08918370306491852
1772650988683994600,7.34699462890625,1.0915840864181519,-0.40697699785232544,-0.00030542362947016954
1772650988693872000,7.3568720703125,1.0286667346954346,-0.7178982496261597,-0.06963659077882767
1772650988703749400,7.366749267578125,0.9721634387969971,-0.9834640622138977,-0.15026842057704926
1772650988713627000,7.376626953125,0.9155073165893555,-1.12655508518219,-0.22723518311977386
1772650988723490300,7.386490234375,0.881605327129364,-1.130831003189087,-0.2677038013935089
1772650988733381600,7.396381591796875,0.8796200752258301,-1.0413419008255005,-0.2602209448814392
1772650988743259000,7.4062587890625,0.906802773475647,-0.9009997248649597,-0.208298921585083
1772650988753122600,7.41612255859375,0.9553651213645935,-0.7447755336761475,-0.10934165865182877
1772650988763013600,7.426013671875,1.0161443948745728,-0.5996993184089661,0.024128466844558716
1772650988772891000,7.435890869140625,1.0822685956954956,-0.48638713359832764,0.17485502362251282
1772650988782768400,7.445768310546875,1.1364812850952148,-0.4068242609500885,0.3232909142971039
1772650988792645600,7.455645751953125,1.1570974588394165,-0.3503209054470062,0.4340069890022278
1772650988802523100,7.465523193359375,1.1435060501098633,-0.3038965165615082,0.48043137788772583
1772650988812386800,7.47538671875,1.0940274000167847,-0.25716668367385864,0.45141613483428955
1772650988822278000,7.48527783203125,1.0121738910675049,-0.23716144263744354,0.33917292952537537
1772650988832155100,7.495155029296875,0.8959602117538452,-0.2498365342617035,0.1579040139913559
1772650988842032600,7.50503271484375,0.7569924592971802,-0.2680092453956604,-0.06261184066534042
1772650988851910000,7.514909912109375,0.6074876189231873,-0.29091599583625793,-0.28664007782936096
1772650988861787400,7.524787353515625,0.45294323563575745,-0.3370349705219269,-0.48241662979125977
1772650988871664600,7.53466455078125,0.30130040645599365,-0.43080002069473267,-0.6281036734580994
1772650988881542100,7.544542236328125,0.1754658818244934,-0.5502206683158875,-0.710262656211853
1772650988891419400,7.55441943359375,0.08826743066310883,-0.6803311109542847,-0.7192726731300354
1772650988901283000,7.564282958984375,0.05329642444849014,-0.7924215793609619,-0.6565080881118774
1772650988911174100,7.574174072265625,0.06826218217611313,-0.8542698621749878,-0.5538857579231262
1772650988921051600,7.5840517578125,0.10628741979598999,-0.8313631415367126,-0.4375193417072296
1772650988930915000,7.5939150390625,0.1453816443681717,-0.7276718020439148,-0.3136700689792633
1772650988940806100,7.60380615234375,0.16905197501182556,-0.5548020005226135,-0.19883078336715698
1772650988950683600,7.61368359375,0.17241163551807404,-0.3852919042110443,-0.1169772520661354
1772650988960561000,7.623560791015625,0.1385096162557602,-0.2617480456829071,-0.07391251623630524
1772650988970438400,7.6334384765625,0.0787992998957634,-0.1973036676645279,-0.05405998229980469
1772650988980315600,7.643315673828125,-0.00519220158457756,-0.20402298867702484,-0.03542914241552353
1772650988990193200,7.653193115234375,-0.10078980028629303,-0.24785128235816956,-0.001374406274408102
1772650989000070400,7.6630703125,-0.17027367651462555,-0.2817533016204834,0.04611896723508835
1772650989009948000,7.672947998046875,-0.20310671627521515,-0.31626617908477783,0.08261708915233612
1772650989019825200,7.6828251953125,-0.2079934924840927,-0.37261682748794556,0.0847550556063652
1772650989029702700,7.69270263671875,-0.19837264716625214,-0.4309527277946472,0.0647498071193695
1772650989039580000,7.702579833984375,-0.20081603527069092,-0.4674508571624756,0.039857782423496246
1772650989049457200,7.71245703125,-0.2522799074649811,-0.47294849157333374,0.00015271181473508477
1772650989059334700,7.722334716796875,-0.37047886848449707,-0.40453359484672546,-0.10934165865182877
1772650989069212000,7.7322119140625,-0.48608171939849854,-0.2933593988418579,-0.28694549202919006
1772650989079075600,7.74207568359375,-0.6192464232444763,-0.12461283802986145,-0.45141613483428955
1772650989088966700,7.751966552734375,-0.8090671896934509,0.1429382562637329,-0.5543438792228699
1772650989098844200,7.76184423828125,-1.001025915145874,0.41018393635749817,-0.6206207871437073
1772650989108707800,7.771707763671875,-1.142589807510376,0.569309651851654,-0.6549809575080872
1772650989118599000,7.781598876953125,-1.1723686456680298,0.5998520255088806,-0.6065713167190552
1772650989128476200,7.79147607421875,-1.0593618154525757,0.533727765083313,-0.46042612195014954
1772650989138339800,7.80133984375,-0.8481613993644714,0.40102121233940125,-0.2516690790653229
1772650989148231000,7.81123095703125,-0.6128324866294861,0.2593046724796295,-0.04459185153245926
1772650989158108400,7.8211083984375,-0.41323816776275635,0.144465371966362,0.11712995916604996
1772650989167985700,7.830985595703125,-0.26373329758644104,0.0787992998957634,0.2435753494501114
1772650989177863000,7.84086279296875,-0.1632489264011383,0.08338065445423126,0.36788275837898254
1772650989187740400,7.850740478515625,-0.10323318839073181,0.1898207813501358,0.497229665517807
1772650989197617700,7.86061767578125,-0.06856760382652283,0.365286648273468,0.6303943991661072
1772650989207495200,7.8704951171875,-0.02901524491608143,0.5407525300979614,0.7447755336761475
1772650989217372400,7.880372314453125,0.023364907130599022,0.6801784038543701,0.8205205798149109
1772650989227236000,7.890236083984375,0.08246438205242157,0.770125687122345,0.8580876588821411
1772650989237127200,7.900127197265625,0.14217470586299896,0.8388460278511047,0.9115368127822876
1772650989247004400,7.91000439453125,0.14996300637722015,0.7467607855796814,1.0622633695602417
1772650989256868000,7.9198681640625,0.10750912129878998,0.28755635023117065,0.9746068120002747
1772650989266759200,7.92975927734375,-0.00030542362947016954,-0.09544488787651062,0.7751652002334595
1772650989276636700,7.93963671875,-0.09345962852239609,-0.3880407214164734,0.5419742465019226
1772650989286514000,7.949513916015625,-0.12751436233520508,-0.5500679612159729,0.3614688515663147
1772650989296391400,7.959391357421875,-0.1766875684261322,-0.5699204802513123,0.29656633734703064
1772650989306268700,7.9692685546875,-0.2829749882221222,-0.5984776020050049,0.3306210935115814
1772650989316132400,7.97913232421875,-0.4121691882610321,-0.6366555690765381,0.38193225860595703
1772650989326023400,7.9890234375,-0.48638713359832764,-0.5818319916725159,0.46516019105911255
