time,seconds_elapsed,z,y,x
1772651051206790400,0.173790283203125,8.309076309204102,-1.2335001230239868,2.5567309856414795
1772651051216668000,0.18366796875,8.356334686279297,-1.113858938217163,2.5836503505706787
1772651051226545200,0.193545166015625,8.389236450195312,-1.0013962984085083,2.5872395038604736
1772651051236422400,0.20342236328125,8.402995109558105,-0.906281590461731,2.572284460067749
1772651051246299600,0.213299560546875,8.47477912902832,-0.8225327730178833,2.551945447921753
1772651051256177000,0.223177001953125,8.555537223815918,-0.7728816866874695,2.5058834552764893
1772651051266054100,0.23305419921875,8.61475944519043,-0.7543373107910156,2.4460630416870117
1772651051275931600,0.242931640625,8.653044700622559,-0.7471588850021362,2.3886351585388184
1772651051285809000,0.252808837890625,8.693124771118164,-0.7405785918235779,2.3096721172332764
1772651051295686100,0.26268603515625,8.769695281982422,-0.7722834944725037,2.181057929992676
1772651051305563400,0.2725634765625,8.85344409942627,-0.8189435601234436,2.050050735473633
1772651051315440600,0.282440673828125,8.936594009399414,-0.8769695162773132,1.9142581224441528
1772651051325318100,0.292318115234375,9.013164520263672,-0.906281590461731,1.8005990982055664
1772651051335195400,0.3021953125,9.061020851135254,-0.9020941257476807,1.7072789669036865
1772651051345072600,0.31207275390625,9.041280746459961,-0.865005373954773,1.6205391883850098
1772651051354950000,0.321949951171875,8.864211082458496,-0.8189435601234436,1.5355939865112305
1772651051364827100,0.3318271484375,8.58185863494873,-0.7471588850021362,1.4189438819885254
1772651051374704400,0.341704345703125,8.23011302947998,-0.6849454641342163,1.2693923711776733
1772651051384582000,0.351581787109375,7.883154392242432,-0.5946164131164551,1.119242787361145
1772651051394459100,0.361459228515625,7.522436141967773,-0.5210371017456055,0.9726824164390564
1772651051404336400,0.37133642578125,7.244270324707031,-0.45164528489112854,0.877567708492279
1772651051414213600,0.381213623046875,7.045666217803955,-0.3601198196411133,0.760917603969574
1772651051424091000,0.3910908203125,6.849454879760742,-0.28115665912628174,0.641276478767395
1772651051433968000,0.400968017578125,6.698707103729248,-0.22552353143692017,0.5365904569625854
1772651051443845600,0.410845703125,6.657430648803711,-0.19800607860088348,0.4695914387702942
1772651051453723000,0.420722900390625,6.821937561035156,-0.05922235921025276,0.43908295035362244
1772651051463600000,0.43060009765625,7.143772125244141,0.09272187948226929,0.45523449778556824
1772651051473477400,0.440477294921875,7.253243446350098,0.13160525262355804,0.46899324655532837
1772651051483354600,0.450354736328125,7.134200572967529,0.09032905846834183,0.48873403668403625
1772651051493231900,0.46023193359375,6.927221775054932,0.09391828626394272,0.6329016089439392
1772651051503109400,0.470109375,6.86261510848999,0.10707881301641464,0.8662018179893494
1772651051512986600,0.479986572265625,6.975078105926514,0.12741780281066895,1.170688509941101
1772651051522863900,0.48986376953125,7.29093074798584,0.07118647545576096,1.3872389793395996
1772651051532741000,0.4997412109375,7.841279983520508,-0.06939185410737991,1.49611234664917
1772651051542604800,0.509604736328125,8.71645450592041,-0.3080759048461914,1.5852450132369995
1772651051552495600,0.51949560546875,9.829116821289062,-0.6340979933738708,1.797009825706482
1772651051562373000,0.529373046875,10.944172859191895,-0.9702895879745483,2.0679969787597656
1772651051572236500,0.539236572265625,12.094522476196289,-1.301695466041565,2.1954147815704346
1772651051582127600,0.549127685546875,13.14975643157959,-1.8023936748504639,2.0440688133239746
1772651051592004900,0.5590048828125,14.228919982910156,-2.3976082801818848,1.7270197868347168
1772651051601868500,0.56886865234375,15.42473316192627,-2.933002471923828,1.363310694694519
1772651051611759400,0.57875927734375,16.438692092895508,-3.4163525104522705,1.0450652837753296
1772651051621636900,0.588636962890625,17.03211212158203,-3.7812578678131104,0.8129615187644958
1772651051631500300,0.598500244140625,17.102699279785156,-4.054637908935547,0.6394818425178528
1772651051641391400,0.608391357421875,16.75933074951172,-4.244867324829102,0.5712863802909851
1772651051651268600,0.6182685546875,16.03609848022461,-4.3447675704956055,0.6346961855888367
1772651051661145900,0.628145751953125,15.101701736450195,-4.2484564781188965,0.8823533654212952
1772651051671023000,0.638023193359375,14.1194486618042,-3.8877387046813965,1.3232308626174927
1772651051680900600,0.647900634765625,13.2299165725708,-3.3200414180755615,1.8951154947280884
1772651051690764000,0.657763916015625,12.535399436950684,-2.737389087677002,2.5088746547698975
1772651051700655000,0.667655029296875,11.928220748901367,-2.2911276817321777,3.0687949657440186
1772651051710532400,0.677532470703125,11.364112854003906,-1.9932212829589844,3.50129771232605
1772651051720396000,0.68739599609375,10.859227180480957,-1.7736797332763672,3.7393836975097656
1772651051730287000,0.697287109375,10.361519813537598,-1.5858432054519653,3.810570001602173
1772651051740164400,0.707164306640625,9.806983947753906,-1.4500504732131958,3.7878382205963135
1772651051750027800,0.71702783203125,9.226125717163086,-1.317248821258545,3.6885361671447754
1772651051759918800,0.7269189453125,8.62313461303711,-1.1635099649429321,3.5294134616851807
1772651051769796000,0.736796142578125,8.02074146270752,-1.0043872594833374,3.442075490951538
1772651051779659800,0.74665966796875,7.487142086029053,-0.8165507316589355,3.3583266735076904
1772651051789550800,0.75655078125,6.99122953414917,-0.6113662123680115,3.2656047344207764
1772651051799428000,0.766427978515625,6.608377933502197,-0.42293140292167664,3.1860432624816895
1772651051809291500,0.77629150390625,6.342774391174316,-0.26500511169433594,3.0855448246002197
1772651051819182600,0.7861826171875,6.179464340209961,-0.1543370634317398,2.9802606105804443
1772651051829059800,0.796059814453125,6.068796634674072,-0.06759724020957947,2.89890456199646
1772651051838937000,0.80593701171875,6.049055576324463,0.008374879136681557,2.8002007007598877
1772651051848814600,0.815814697265625,6.025127410888672,0.03768695518374443,2.669193744659424
1772651051858691800,0.82569189453125,6.001199245452881,0.004785645287483931,2.495713949203491
1772651051868569000,0.835569091796875,5.938985824584961,-0.049651071429252625,2.2917258739471436
1772651051878446300,0.8454462890625,5.812166213989258,-0.08075776696205139,2.09431791305542
1772651051888323600,0.855323486328125,5.661418437957764,-0.08015955984592438,1.9423737525939941
1772651051898200800,0.865200927734375,5.539384365081787,-0.05383851006627083,1.7976080179214478
1772651051908078300,0.875078369140625,5.555535793304443,-0.04546362906694412,1.649253010749817
1772651051917955600,0.88495556640625,5.785246849060059,-0.08614161610603333,1.532004714012146
1772651051927832800,0.894832763671875,6.043073654174805,-0.20099709928035736,1.3872389793395996
1772651051937710000,0.9047099609375,6.150750637054443,-0.39601215720176697,1.181456208229065
1772651051947587300,0.91458740234375,6.235097408294678,-0.5497509837150574,0.9942178130149841
1772651051957464600,0.924464599609375,6.474380016326904,-0.6478567123413086,0.8542376756668091
1772651051967342000,0.934342041015625,6.9930243492126465,-0.729810893535614,0.836291491985321
1772651051977219300,0.94421923828125,7.774280548095703,-0.8560323119163513,1.0444670915603638
1772651051987082800,0.954082763671875,8.478368759155273,-1.1880364418029785,1.2664014101028442
1772651051996973800,0.963973876953125,8.855836868286133,-1.7114664316177368,1.2729816436767578
1772651052006851000,0.97385107421875,9.05862808227539,-2.2235305309295654,1.215553879737854
1772651052016714800,0.98371484375,9.263813018798828,-2.7152554988861084,1.353141188621521
1772651052026605800,0.993605712890625,9.875179290771484,-3.1830523014068604,1.6175481081008911
1772651052036483000,1.003483154296875,11.069197654724121,-3.5844483375549316,1.8317056894302368
1772651052046346500,1.013346435546875,12.693325996398926,-3.6735808849334717,1.8574285507202148
1772651052056237600,1.023237548828125,14.291132926940918,-3.6023945808410645,1.6767704486846924
1772651052066114800,1.03311474609375,15.436697006225586,-3.586841106414795,1.3178470134735107
1772651052075978500,1.042978515625,16.29332733154297,-3.61017107963562,0.8165507316589355
1772651052085869600,1.05286962890625,16.44886016845703,-3.772883176803589,0.4456632137298584
1772651052095746800,1.062746826171875,15.18604850769043,-4.058825492858887,-0.049651071429252625
1772651052105610200,1.0726103515625,13.38724422454834,-4.302295207977295,-0.6119644045829773
1772651052115501300,1.082501220703125,11.980862617492676,-4.466801643371582,-0.5599204897880554
1772651052125378600,1.092378662109375,10.962119102478027,-4.431507587432861,0.04905286431312561
1772651052135242200,1.1022421875,10.479366302490234,-4.137190341949463,0.8386843204498291
1772651052145133300,1.11213330078125,10.469197273254395,-3.6610186100006104,1.5463616847991943
1772651052155010600,1.122010498046875,10.838888168334961,-3.188436269760132,2.1409780979156494
1772651052164874000,1.1318740234375,11.592029571533203,-2.8049862384796143,2.579462766647339
1772651052174765000,1.14176513671875,12.363714218139648,-2.6350958347320557,2.7942185401916504
1772651052184642300,1.151642333984375,12.819547653198242,-2.7152554988861084,2.7050859928131104
1772651052194519800,1.161519775390625,12.963714599609375,-2.9168508052825928,2.311466693878174
1772651052204397000,1.17139697265625,12.76211929321289,-3.0652058124542236,1.7796618938446045
1772651052214274300,1.1812744140625,12.238689422607422,-3.067000389099121,1.3052847385406494
1772651052224151600,1.191151611328125,11.508878707885742,-2.9419753551483154,0.9397810697555542
1772651052234028800,1.20102880859375,10.64806079864502,-2.7379872798919678,0.6999006271362305
1772651052243906000,1.210906005859375,9.722636222839355,-2.4915266036987305,0.6029912829399109
1772651052253769700,1.220769775390625,8.751151084899902,-2.204387903213501,0.5874379873275757
1772651052263660800,1.230660888671875,7.881359577178955,-1.923829436302185,0.5928218364715576
1772651052273538000,1.2405380859375,7.189235687255859,-1.649253010749817,0.6089733839035034
1772651052283401500,1.2504013671875,6.639484405517578,-1.4273186922073364,0.6329016089439392
1772651052293292500,1.26029248046875,6.247061729431152,-1.2735798358917236,0.6586244106292725
1772651052303169800,1.270169677734375,6.005386829376221,-1.1694921255111694,0.6299105882644653
1772651052313033500,1.280033447265625,5.950351715087891,-1.1682956218719482,0.5395814776420593
1772651052322924500,1.289924560546875,6.005386829376221,-1.262213945388794,0.4307080805301666
1772651052332801800,1.2998017578125,6.127420425415039,-1.4033905267715454,0.33379876613616943
1772651052342679000,1.309678955078125,6.297909259796143,-1.5487544536590576,0.27038896083831787
1772651052352556300,1.319556396484375,6.4941205978393555,-1.6959130764007568,0.25244277715682983
1772651052362433500,1.32943359375,6.659823417663574,-1.8305093050003052,0.31465616822242737
1772651052372311000,1.33931103515625,6.796214580535889,-1.9010975360870361,0.4247260093688965
1772651052382188300,1.349188232421875,6.973283290863037,-1.8747764825820923,0.6143572330474854
1772651052392065500,1.3590654296875,7.171289443969727,-1.7670994997024536,0.8081758618354797
1772651052401942800,1.36894287109375,7.381259441375732,-1.6785650253295898,0.9780662655830383
1772651052411820000,1.378820068359375,7.548757076263428,-1.6654045581817627,1.0671988725662231
1772651052421697500,1.388697509765625,7.677969455718994,-1.7072789669036865,1.1318050622940063
1772651052431574800,1.39857470703125,7.762316703796387,-1.7826528549194336,1.2251251935958862
1772651052441452000,1.4084521484375,7.850851058959961,-1.83828604221344,1.3663017749786377
1772651052451329300,1.418329345703125,8.00638484954834,-1.831107497215271,1.5248262882232666
1772651052461206500,1.42820654296875,8.157132148742676,-1.8077775239944458,1.6671991348266602
1772651052471084000,1.438083984375,8.278568267822266,-1.7629120349884033,1.7832510471343994
1772651052480961300,1.447961181640625,8.373682975769043,-1.695314884185791,1.8652052879333496
1772651052490838500,1.457838623046875,8.431110382080078,-1.5966109037399292,1.9405791759490967
1772651052500715800,1.4677158203125,8.413763046264648,-1.495514154434204,2.0512471199035645
1772651052510593000,1.477593017578125,8.332406997680664,-1.3567304611206055,2.1475582122802734
1772651052520470300,1.48747021484375,8.252845764160156,-1.1754741668701172,2.172683000564575
1772651052530347800,1.49734765625,8.13260555267334,-1.0205388069152832,2.1954147815704346
1772651052540225000,1.50722509765625,7.762914657592773,-1.0115658044815063,2.2444677352905273
1772651052550102300,1.517102294921875,7.292725086212158,-1.1515458822250366,2.328814744949341
1772651052559979500,1.5269794921875,7.060023307800293,-1.3334003686904907,2.562114953994751
1772651052569856800,1.536856689453125,7.141977310180664,-1.4739787578582764,2.823530673980713
1772651052579734000,1.546734130859375,7.749754428863525,-1.6133606433868408,2.9796624183654785
1772651052589611500,1.556611572265625,8.98803997039795,-1.8502501249313354,2.8869404792785645
1772651052599488800,1.56648876953125,10.63669490814209,-2.1756739616394043,2.3718855381011963
1772651052609352200,1.576352294921875,12.543176651000977,-2.6362924575805664,1.5804593563079834
1772651052619243300,1.5862431640625,14.245071411132812,-3.315854072570801,0.6640082597732544
1772651052629120500,1.59612060546875,15.348162651062012,-4.222135543823242,-0.22911277413368225
1772651052638984200,1.605984130859375,15.637694358825684,-5.166104316711426,-1.0235298871994019
1772651052648875300,1.615875244140625,15.058032989501953,-6.107679843902588,-1.5314065217971802
1772651052658752500,1.62575244140625,14.12243938446045,-6.882954120635986,-1.6342978477478027
1772651052668616000,1.635615966796875,13.499707221984863,-7.386643409729004,-1.2149556875228882
1772651052678507000,1.645507080078125,13.062418937683105,-7.573283672332764,-0.3008974492549896
1772651052688384300,1.65538427734375,12.802199363708496,-7.2681989669799805,0.7860422134399414
1772651052698248000,1.665248046875,12.791431427001953,-6.556334018707275,1.9010975360870361
1772651052708139000,1.675138916015625,13.025928497314453,-5.650650501251221,2.803191661834717
1772651052718016300,1.685016357421875,13.271790504455566,-4.843072891235352,3.3206396102905273
1772651052727879700,1.694879638671875,13.365111351013184,-4.344169616699219,3.3367912769317627
1772651052737770800,1.704770751953125,13.322638511657715,-4.167698860168457,2.8325037956237793
1772651052747648000,1.71464794921875,13.283156394958496,-4.157529354095459,1.9130617380142212
1772651052757511700,1.72451171875,13.243077278137207,-4.193421840667725,0.8410771489143372
1772651052767402800,1.73440283203125,13.060026168823242,-4.127020835876465,-0.13160525262355804
1772651052777280000,1.744280029296875,12.585050582885742,-3.940380573272705,-0.8817551732063293
1772651052787143400,1.754143310546875,11.706884384155273,-3.689732551574707,-1.3268201351165771
1772651052797034800,1.76403466796875,10.475179672241211,-3.3541390895843506,-1.3926228284835815
1772651052806912000,1.773912109375,9.05982494354248,-2.9377880096435547,-1.1581261157989502
1772651052816775400,1.783775390625,7.6737823486328125,-2.530410051345825,-0.7208378314971924
1772651052826666500,1.79366650390625,6.454638957977295,-2.1583259105682373,-0.23389841616153717
1772651052836543700,1.803543701171875,5.557928562164307,-1.797009825706482,0.2566302418708801
1772651052846407400,1.813407470703125,4.996213912963867,-1.444068431854248,0.7411768436431885
1772651052856298500,1.823298583984375,4.701896667480469,-1.129412293434143,1.1324033737182617
1772651052866175700,1.83317578125,4.5822553634643555,-0.973878800868988,1.4195420742034912
1772651052876039200,1.8430390625,4.575675010681152,-0.9726824164390564,1.5625132322311401
1772651052885930200,1.85293017578125,4.71445894241333,-1.0289137363433838,1.602592945098877
1772651052895807500,1.862807373046875,4.9531426429748535,-1.0803594589233398,1.6265212297439575
1772651052905685000,1.87268505859375,5.237888813018799,-1.1419745683670044,1.592423439025879
1772651052915562200,1.882562255859375,5.465207099914551,-1.2179467678070068,1.537388563156128
1772651052925439500,1.892439453125,5.629713535308838,-1.2418749332427979,1.4518451690673828
1772651052935316700,1.902316650390625,5.708078384399414,-1.220937728881836,1.3674981594085693
1772651052945194000,1.912194091796875,5.784648895263672,-1.1784651279449463,1.3076776266098022
1772651052955071500,1.922071533203125,5.84865665435791,-1.1312068700790405,1.2185449600219727
1772651052964948700,1.93194873046875,5.876772403717041,-1.0719845294952393,1.1802598237991333
1772651052974826000,1.941825927734375,5.828916072845459,-0.9882357716560364,1.236491084098816
1772651052984703200,1.951703125,5.769095420837402,-0.867398202419281,1.397408366203308
1772651052994580500,1.96158056640625,5.776273727416992,-0.7148557901382446,1.6671991348266602
1772651053004458000,1.9714580078125,5.835496425628662,-0.5515456199645996,1.9609181880950928
1772651053014335200,1.981335205078125,5.933003902435303,-0.3678964674472809,2.201396942138672
1772651053024212500,1.99121240234375,6.241079807281494,-0.25064817070961,2.3401806354522705
1772651053034089700,2.00108984375,6.876374244689941,-0.2602194547653198,2.335394859313965
1772651053043967000,2.010967041015625,7.664809226989746,-0.42771705985069275,2.2815563678741455
1772651053053830700,2.02083056640625,8.423334121704102,-0.7405785918235779,2.155933141708374
1772651053063721700,2.0307216796875,9.138788223266602,-1.171286702156067,1.9884356260299683
1772651053073599000,2.040598876953125,9.924830436706543,-1.6265212297439575,1.9567307233810425
1772651053083462700,2.050462646484375,10.850852012634277,-2.0925233364105225,2.039283037185669
1772651053093353500,2.060353515625,11.767303466796875,-2.4885356426239014,2.1876380443573
1772651053103231000,2.07023095703125,12.364313125610352,-2.8636105060577393,2.39401912689209
1772651053113094400,2.080094482421875,12.418749809265137,-3.1818559169769287,2.7637102603912354
1772651053122985500,2.0899853515625,11.878569602966309,-3.3589248657226562,3.3924243450164795
1772651053132862700,2.09986279296875,11.093724250793457,-3.4444682598114014,4.036691665649414
1772651053142726400,2.109726318359375,10.636096954345703,-3.4654054641723633,4.543970108032227
1772651053152617500,2.119617431640625,10.810772895812988,-3.40797758102417,4.7712883949279785
1772651053162494700,2.12949462890625,11.631510734558105,-3.3511481285095215,4.593621253967285
1772651053172358400,2.1393583984375,12.965509414672852,-3.2709884643554688,3.985246181488037
1772651053182249200,2.149249267578125,14.59322738647461,-3.2303106784820557,3.0801608562469482
1772651053192126700,2.159126708984375,15.936797142028809,-3.331407308578491,2.1445672512054443
1772651053201990100,2.168990234375,16.3046932220459,-3.7052857875823975,1.3561322689056396
1772651053211881200,2.178881103515625,15.333806037902832,-4.230510234832764,0.6741777658462524
1772651053221758500,2.188758544921875,13.383056640625,-4.59003210067749,0.22013968229293823
1772651053231622100,2.1986220703125,11.192427635192871,-4.587040901184082,0.1501496136188507
1772651053241513200,2.20851318359375,9.253045082092285,-4.423730850219727,0.5437689423561096
1772651053251390500,2.218390380859375,7.899305820465088,-4.219144344329834,1.2783654928207397
1772651053261254000,2.22825390625,7.237690448760986,-3.9493536949157715,2.1260228157043457
1772651053271145000,2.23814501953125,7.254439830780029,-3.6227335929870605,2.840280532836914
1772651053281022500,2.2480224609375,7.901100158691406,-3.246462106704712,3.4983067512512207
1772651053290886000,2.257885986328125,9.028120040893555,-2.968296527862549,4.00618314743042
1772651053300777000,2.26777685546875,10.411170959472656,-2.857030153274536,4.166502475738525
1772651053310654200,2.277654296875,11.885149955749512,-2.964707374572754,4.012165546417236
1772651053320518000,2.287517822265625,13.010375022888184,-3.3104701042175293,3.558725595474243
1772651053330409000,2.297408935546875,13.64148235321045,-3.741776466369629,2.8695926666259766
1772651053340286200,2.3072861328125,13.981263160705566,-4.104887008666992,2.173879384994507
1772651053350149600,2.317149658203125,13.940585136413574,-4.392025947570801,1.550549030303955
1772651053360040700,2.327040771484375,13.50150203704834,-4.604389190673828,0.9678967595100403
1772651053369918200,2.336918212890625,12.717253684997559,-4.683950424194336,0.4259224236011505
1772651053379781600,2.34678173828125,11.84447193145752,-4.559523582458496,0.03768695518374443
1772651053389672700,2.356672607421875,10.856236457824707,-4.266402721405029,-0.14775680005550385
1772651053399550000,2.366550048828125,9.77527904510498,-3.879363775253296,-0.12861421704292297
1772651053409413600,2.37641357421875,8.677571296691895,-3.4911282062530518,0.04785645380616188
1772651053419304700,2.3863046875,7.596613883972168,-3.084348440170288,0.2955136001110077
1772651053429182000,2.396181884765625,6.598806858062744,-2.6398816108703613,0.5186443328857422
1772651053439045600,2.406045654296875,5.787639617919922,-2.228914260864258,0.6580262184143066
1772651053448936400,2.4159365234375,5.216353416442871,-1.9256240129470825,0.7190431952476501
1772651053458814000,2.42581396484375,4.852046012878418,-1.7048860788345337,0.7543373107910156
1772651053468677400,2.435677490234375,4.7030930519104,-1.5625132322311401,0.7292127013206482
1772651053478568400,2.445568359375,4.695914268493652,-1.4841482639312744,0.6975077986717224
1772651053488446000,2.455446044921875,4.764708042144775,-1.4626128673553467,0.6735795736312866
1772651053498323200,2.4653232421875,4.84187650680542,-1.5068800449371338,0.7405785918235779
1772651053508200400,2.475200439453125,4.858626365661621,-1.557727575302124,0.9050851464271545
1772651053518077700,2.48507763671875,4.868795871734619,-1.591825246810913,1.0504491329193115
1772651053527955000,2.494954833984375,4.911866664886475,-1.6007983684539795,1.1198409795761108
1772651053537832400,2.50483251953125,4.990829944610596,-1.659422516822815,1.160519003868103
1772651053547709700,2.514709716796875,5.082355499267578,-1.7282161712646484,1.1940184831619263
1772651053557587000,2.5245869140625,5.300102233886719,-1.7718851566314697,1.2987045049667358
1772651053567464400,2.53446435546875,5.67338228225708,-1.8436698913574219,1.4051851034164429
1772651053577341700,2.544341796875,6.072385787963867,-1.9369899034500122,1.4500504732131958
1772651053587219000,2.554218994140625,6.402595043182373,-2.050050735473633,1.4590235948562622
1772651053597096200,2.56409619140625,6.622735023498535,-2.170290231704712,1.4787644147872925
1772651053606973400,2.573973388671875,6.732804775238037,-2.251646041870117,1.5032907724380493
1772651053616851000,2.583850830078125,6.702296257019043,-2.2821545600891113,1.532004714012146
1772651053626728200,2.593728271484375,6.677769660949707,-2.2510478496551514,1.551147222518921
1772651053636605400,2.60360546875,6.785446643829346,-2.239083766937256,1.521835207939148
1772651053646482700,2.613482666015625,6.949953556060791,-2.255833625793457,1.4452649354934692
1772651053656360200,2.623360107421875,7.253243446350098,-2.286342144012451,1.3417752981185913
1772651053666237400,2.633237548828125,7.64028263092041,-2.3820550441741943,1.1461620330810547
1772651053676114700,2.64311474609375,8.137392044067383,-2.4975085258483887,0.8859425783157349
1772651053685992200,2.6529921875,8.751151084899902,-2.650649309158325,0.5587241053581238
1772651053695869400,2.662869384765625,9.403793334960938,-2.89890456199646,0.27038896083831787
1772651053705732900,2.67273291015625,10.006784439086914,-3.181257724761963,0.19740787148475647
1772651053715624000,2.6826240234375,10.381260871887207,-3.4947173595428467,0.4654040038585663
1772651053725501400,2.69250146484375,10.36630630493164,-3.726821184158325,0.9158528447151184
1772651053735378700,2.702378662109375,10.201799392700195,-3.675973892211914,1.3046865463256836
1772651053745256000,2.712255859375,10.363913536071777,-3.422334671020508,1.6085749864578247
1772651053755133200,2.72213330078125,11.136795043945312,-3.1692936420440674,1.7676976919174194
1772651053764996900,2.731996826171875,12.619148254394531,-3.029313564300537,1.672582983970642
1772651053774888000,2.741887939453125,14.424532890319824,-3.1411778926849365,1.2287144660949707
1772651053784765200,2.75176513671875,16.037893295288086,-3.6538400650024414,0.5509474277496338
1772651053794628900,2.76162890625,17.310277938842773,-4.409373760223389,-0.13220344483852386
1772651053804520000,2.77152001953125,17.769699096679688,-5.277370452880859,-0.5324030518531799
1772651053814397200,2.781397216796875,17.24327850341797,-6.072983741760254,-0.44805604219436646
1772651053824260600,2.791260498046875,15.949957847595215,-6.6454668045043945,0.3128615617752075
1772651053834152000,2.80115185546875,14.54776382446289,-6.726822853088379,1.6199408769607544
1772651053844029200,2.811029296875,13.571492195129395,-6.327819347381592,3.1417760848999023
1772651053853892600,2.820892578125,13.021740913391113,-5.580660820007324,4.656432628631592
1772651053863783700,2.83078369140625,12.99661636352539,-4.859224796295166,5.78345251083374
1772651053873661200,2.8406611328125,13.23709487915039,-4.402195453643799,6.340381622314453
1772651053883524600,2.850524658203125,13.721043586730957,-4.253840446472168,6.2105712890625
1772651053893415700,2.860415771484375,14.389239311218262,-4.508676052093506,5.465207099914551
1772651053903293200,2.870293212890625,14.95813274383545,-5.008177757263184,4.395615100860596
1772651053913156600,2.880156494140625,15.192628860473633,-5.498108386993408,3.191427230834961
1772651053923047700,2.890047607421875,14.946168899536133,-5.84566593170166,2.0572292804718018
1772651053932925000,2.899925048828125,14.147563934326172,-5.998208045959473,1.1180464029312134
1772651053942788600,2.90978857421875,12.925429344177246,-5.886343479156494,0.597607433795929
1772651053952679700,2.9196796875,11.483156204223633,-5.482554912567139,0.4815555512905121
1772651053962557000,2.929556884765625,9.909276962280273,-4.911866664886475,0.6370890140533447
1772651053972420600,2.939420654296875,8.405387878417969,-4.275375843048096,0.9337990283966064
1772651053982311700,2.949311767578125,7.0893354415893555,-3.6670007705688477,1.2424731254577637
1772651053992189000,2.95918896484375,6.072385787963867,-3.1316065788269043,1.4739787578582764
1772651054002052600,2.969052490234375,5.402395248413086,-2.712862730026245,1.6151553392410278
1772651054011943700,2.978943603515625,5.117051124572754,-2.4675984382629395,1.7066807746887207
1772651054021821000,2.988821044921875,5.102096080780029,-2.334198474884033,1.700698733329773
1772651054031684400,2.998684326171875,5.190032482147217,-2.2540390491485596,1.5828521251678467
1772651054041575700,3.00857568359375,5.340181827545166,-2.204387903213501,1.4171491861343384
1772651054051453000,3.018452880859375,5.492724418640137,-2.160120725631714,1.2897313833236694
1772651054061330200,3.028330078125,5.597410202026367,-2.1990039348602295,1.1497513055801392
1772651054071207400,3.03820751953125,5.6548380851745605,-2.2480568885803223,1.0043872594833374
1772651054081085000,3.0480849609375,5.66201639175415,-2.193620204925537,0.908674418926239
1772651054090962200,3.057962158203125,5.544169902801514,-2.09431791305542,0.8626125454902649
1772651054100839400,3.06783935546875,5.314459323883057,-2.002194404602051,0.867398202419281
1772651054110717000,3.077717041015625,5.13021183013916,-1.9076778888702393,0.8745766878128052
1772651054120594200,3.08759423828125,4.957928657531738,-1.8436698913574219,0.8883354067802429
1772651054130471400,3.097471435546875,4.816751956939697,-1.8323038816452026,0.900897741317749
1772651054140349000,3.107348876953125,4.7952165603637695,-1.8305093050003052,0.8488538265228271
1772651054150226200,3.11722607421875,4.907679080963135,-1.8263218402862549,0.7740781307220459
1772651054160103400,3.127103515625,5.07936429977417,-1.797009825706482,0.7304090857505798
1772651054169981000,3.13698095703125,5.343770980834961,-1.724626898765564,0.7046862840652466
1772651054179858200,3.146858154296875,5.638088226318359,-1.649253010749817,0.753140926361084
1772651054189735400,3.1567353515625,5.969494342803955,-1.5966109037399292,0.8560323119163513
1772651054199613000,3.166613037109375,6.380461692810059,-1.5326029062271118,0.9493523836135864
1772651054209490200,3.176490234375,6.817749977111816,-1.516451358795166,0.9565308690071106
1772651054219367400,3.186367431640625,7.290332317352295,-1.5535401105880737,0.898504912853241
1772651054229244700,3.19624462890625,7.731808185577393,-1.583450436592102,0.8015955686569214
1772651054239108400,3.2061083984375,8.278568267822266,-1.5487544536590576,0.7232306599617004
1772651054248999400,3.21599951171875,8.97368335723877,-1.4608181715011597,0.666999340057373
1772651054258876700,3.225876708984375,9.716055870056152,-1.4111671447753906,0.597607433795929
1772651054268740400,3.235740234375,10.348958015441895,-1.4117653369903564,0.5258227586746216
1772651054278631400,3.24563134765625,10.855039596557617,-1.4057832956314087,0.4450650215148926
1772651054288509000,3.255509033203125,11.258829116821289,-1.4123635292053223,0.37926238775253296
1772651054298372400,3.265372314453125,11.485548973083496,-1.4644074440002441,0.35533416271209717
1772651054308263400,3.275263427734375,11.58126163482666,-1.534995675086975,0.4127618968486786
1772651054318140700,3.285140625,11.627323150634766,-1.5792629718780518,0.4654040038585663
1772651054328018200,3.29501806640625,11.81336498260498,-1.5499508380889893,0.5072783827781677
1772651054337895400,3.3048955078125,11.944971084594727,-1.5230315923690796,0.49710890650749207
1772651054347773000,3.31477294921875,11.861222267150879,-1.5637096166610718,0.47617170214653015
1772651054357650200,3.324650146484375,11.756535530090332,-1.6767704486846924,0.4588237404823303
1772651054367527400,3.33452734375,11.805588722229004,-1.8987047672271729,0.45104706287384033
1772651054377404700,3.34440478515625,11.990434646606445,-2.258824586868286,0.39960137009620667
1772651054387282200,3.3542822265625,12.144771575927734,-2.736790895462036,0.21355941891670227
1772651054397159400,3.364159423828125,12.263813972473145,-3.25663161277771,-0.058624155819416046
1772651054407036700,3.37403662109375,12.561720848083496,-3.686143398284912,-0.2147558331489563
1772651054416914200,3.3839140625,12.985848426818848,-4.018745422363281,-0.23210379481315613
1772651054426791400,3.39379150390625,13.424333572387695,-4.30169677734375,-0.06640082597732544
1772651054436669000,3.4036689453125,13.791033744812012,-4.54636287689209,0.17766708135604858
1772651054446546200,3.413546142578125,14.00220012664795,-4.701896667480469,0.5312066078186035
1772651054456423400,3.42342333984375,13.924432754516602,-4.782055854797363,0.9158528447151184
1772651054466301000,3.433301025390625,13.552947044372559,-4.800002098083496,1.2083754539489746
1772651054476178200,3.44317822265625,13.01815128326416,-4.807778835296631,1.3770694732666016
1772651054486055400,3.453055419921875,12.430713653564453,-4.878366947174072,1.4416756629943848
1772651054495933000,3.462932861328125,11.967702865600586,-4.894518852233887,1.4273186922073364
1772651054505810200,3.47281005859375,11.651849746704102,-4.879563808441162,1.34476637840271
1772651054515687400,3.4826875,11.462817192077637,-4.835894584655762,1.2305090427398682
1772651054525565000,3.49256494140625,11.412567138671875,-4.801796913146973,1.0803594589233398
1772651054535442200,3.502442138671875,11.333005905151367,-4.806582450866699,0.8638089895248413
1772651054545319400,3.5123193359375,11.1104736328125,-4.77667236328125,0.5832505226135254
1772651054555197000,3.522197021484375,10.806585311889648,-4.6995038986206055,0.2787638306617737
1772651054565074200,3.53207421875,10.466206550598145,-4.572684288024902,-0.02153540402650833
1772651054574951700,3.54195166015625,10.070792198181152,-4.404588222503662,-0.3026920557022095
1772651054584829000,3.551828857421875,9.644869804382324,-4.17009162902832,-0.5204389095306396
1772651054594692400,3.5616923828125,9.227322578430176,-3.90568470954895,-0.6765705943107605
1772651054604583400,3.57158349609375,8.824729919433594,-3.64127779006958,-0.794417142868042
1772651054614461000,3.5814609375,8.369495391845703,-3.3792638778686523,-0.8691928386688232
1772651054624324400,3.591324462890625,7.83111047744751,-3.1094729900360107,-0.9056833982467651
1772651054634215700,3.601215576171875,7.317251682281494,-2.8390841484069824,-0.8542376756668091
1772651054644093000,3.611093017578125,6.890730857849121,-2.5148565769195557,-0.7250252366065979
1772651054653956600,3.62095654296875,6.499504566192627,-2.1122641563415527,-0.6418746709823608
1772651054663847700,3.63084765625,5.953342914581299,-1.731805443763733,-0.7770691514015198
1772651054673725000,3.640724853515625,5.311468124389648,-1.4350954294204712,-0.9846464991569519
1772651054683588600,3.650588623046875,4.752145767211914,-1.3256237506866455,-1.0342975854873657
1772651054693479700,3.660479736328125,4.462614059448242,-1.256830096244812,-0.9553344249725342
1772651054703357000,3.67035693359375,4.346562385559082,-1.262213945388794,-0.7304090857505798
1772651054713234400,3.680234375,4.456632137298584,-1.2382856607437134,-0.46899324655532837
1772651054723111700,3.690111572265625,4.682754039764404,-1.0354939699172974,-0.33858439326286316
1772651054732989000,3.699989013671875,4.883750915527344,-0.5790630578994751,-0.3415754437446594
1772651054742866400,3.709866455078125,4.9393839836120605,-0.16151553392410278,-0.3152543902397156
1772651054752743700,3.71974365234375,4.951348304748535,-0.09690931439399719,-0.27816563844680786
1772651054762621200,3.72962109375,5.038686275482178,-0.44027936458587646,-0.33379876613616943
1772651054772498400,3.73949853515625,5.2767720222473145,-0.9523434042930603,-0.5802595019340515
1772651054782375700,3.749375732421875,5.4514479637146,-1.205384373664856,-0.9116654396057129
1772651054792253200,3.759253173828125,5.443671703338623,-1.072582721710205,-1.0133603811264038
1772651054802130400,3.76913037109375,5.373681545257568,-0.8602197170257568,-0.9553344249725342
1772651054812008000,3.779008056640625,5.258825778961182,-0.7615157961845398,-0.8177471160888672
1772651054821885200,3.78888525390625,5.103890895843506,-0.7292127013206482,-0.6675975322723389
1772651054831762400,3.798762451171875,5.0943193435668945,-0.6131607890129089,-0.4612165689468384
1772651054841640000,3.808639892578125,5.277968406677246,-0.45164528489112854,-0.11126625537872314
1772651054851517200,3.81851708984375,5.48375129699707,-0.3445664644241333,0.28534409403800964
1772651054861394400,3.82839453125,5.696712493896484,-0.3170489966869354,0.6107679605484009
1772651054871272000,3.83827197265625,5.945566177368164,-0.373878538608551,0.7746763229370117
1772651054881149200,3.848149169921875,6.237490653991699,-0.48454657196998596,0.8225327730178833
1772651054891026700,3.858026611328125,6.711269378662109,-0.6544370055198669,0.8578268885612488
1772651054900904000,3.867904052734375,7.5433735847473145,-0.8608179688453674,0.9092726111412048
1772651054910781200,3.87778125,8.473583221435547,-1.1024930477142334,0.9463613629341125
1772651054920644900,3.887644775390625,9.351150512695312,-1.3399807214736938,0.9619147181510925
1772651054930536000,3.897535888671875,10.226325988769531,-1.551147222518921,0.9708877801895142
1772651054940413400,3.907413330078125,11.115259170532227,-1.7497515678405762,1.0648061037063599
1772651054950276900,3.91727685546875,11.83849048614502,-1.9507486820220947,1.2406785488128662
1772651054960168200,3.927168212890625,12.396018028259277,-2.2265214920043945,1.3794622421264648
1772651054970045400,3.93704541015625,12.77049446105957,-2.6673989295959473,1.4919248819351196
1772651054979909000,3.9469091796875,13.204792022705078,-3.118446111679077,1.583450436592102
1772651054989800200,3.95680029296875,13.739587783813477,-3.4749767780303955,1.7994025945663452
1772651054999677400,3.966677490234375,14.267205238342285,-3.8183467388153076,2.2917258739471436
1772651055009541000,3.976541015625,14.780465126037598,-4.0558342933654785,3.0287153720855713
1772651055019432200,3.98643212890625,15.464812278747559,-4.01037073135376,3.762115478515625
1772651055029309400,3.996309326171875,16.47697639465332,-3.768097400665283,4.2484564781188965
1772651055039173000,4.006173095703125,17.620746612548828,-3.6269209384918213,4.35254430770874
1772651055049064200,4.016064208984375,18.716659545898438,-3.6939198970794678,3.9014973640441895
1772651055058941700,4.025941650390625,19.494924545288086,-3.9792640209198,2.9030921459198
1772651055068805000,4.03580517578125,19.592432022094727,-4.392025947570801,1.6055840253829956
1772651055078696200,4.0456962890625,18.90928077697754,-4.901697158813477,0.4408775866031647
1772651055088573700,4.05557373046875,17.293527603149414,-5.505885124206543,-0.27337998151779175
1772651055098437000,4.06543701171875,14.875579833984375,-6.02811861038208,-0.5736792087554932
1772651055108328400,4.075328369140625,12.28953742980957,-6.178267955780029,-0.5431707501411438
1772651055118205700,4.085205810546875,10.063613891601562,-6.0125651359558105,-0.06520441919565201
1772651055128069400,4.0950693359375,8.446663856506348,-5.5722856521606445,0.7417750358581543
1772651055137960400,4.10496044921875,7.40399169921875,-4.908875465393066,1.7330018281936646
1772651055147837700,4.114837646484375,6.805187702178955,-4.133601188659668,2.691925525665283
1772651055157701400,4.124701416015625,6.597609996795654,-3.414557933807373,3.483949661254883
1772651055167592400,4.134592529296875,6.694519519805908,-2.843869686126709,3.961317777633667
1772651055177470000,4.144469970703125,7.070192813873291,-2.4837498664855957,4.06839656829834
1772651055187347200,4.15434716796875,7.606783390045166,-2.3742783069610596,3.809971809387207
1772651055197224700,4.164224609375,8.182256698608398,-2.528017044067383,3.1854450702667236
1772651055207102000,4.17410205078125,8.74337387084961,-2.8151557445526123,2.3856441974639893
1772651055216965600,4.183965576171875,9.204590797424316,-3.1028928756713867,1.5433706045150757
1772651055226856700,4.193856689453125,9.490532875061035,-3.342773199081421,0.7202396392822266
1772651055236734000,4.20373388671875,9.504291534423828,-3.5066816806793213,0.0568295381963253
1772651055246597600,4.21359765625,9.226125717163086,-3.521636724472046,-0.43968117237091064
1772651055256488700,4.22348876953125,8.764310836791992,-3.3469607830047607,-0.7046862840652466
1772651055266366200,4.2333662109375,8.123034477233887,-3.0729825496673584,-0.7094719409942627
1772651055276229600,4.243229736328125,7.417750358581543,-2.7182464599609375,-0.5006981492042542
1772651055286120700,4.25312060546875,6.750152587890625,-2.311466693878174,-0.11665010452270508
1772651055295998200,4.262998291015625,6.206982135772705,-1.9262222051620483,0.2727817893028259
1772651055305862000,4.27286181640625,5.752345561981201,-1.5900306701660156,0.6137589812278748
1772651055315753000,4.2827529296875,5.343173027038574,-1.333998680114746,0.9152546525001526
1772651055325630200,4.292630126953125,4.965705394744873,-1.144965648651123,1.160519003868103
1772651055335494000,4.302493896484375,4.597808837890625,-1.0271191596984863,1.3674981594085693
1772651055345385000,4.312385009765625,4.261018753051758,-0.9768698215484619,1.5278172492980957
1772651055355262500,4.322262451171875,3.9864425659179688,-0.97926265001297,1.6289139986038208
1772651055365139700,4.3321396484375,3.8147575855255127,-1.017547845840454,1.689931035041809
1772651055375017000,4.342016845703125,3.8123645782470703,-1.0151549577713013,1.7114664316177368
1772651055384894500,4.35189453125,4.060619831085205,-0.9254241585731506,1.77607262134552
1772651055394771700,4.361771728515625,4.5308098793029785,-0.7752745151519775,1.815554141998291
1772651055404649200,4.371649169921875,5.08654260635376,-0.6729813814163208,1.8317056894302368
1772651055414526500,4.3815263671875,5.652445316314697,-0.6305087804794312,1.810170292854309
1772651055424404000,4.391404052734375,6.022734642028809,-0.6801598072052002,1.7330018281936646
1772651055434281200,4.40128125,6.307480335235596,-0.8009973764419556,1.6354942321777344
1772651055444158700,4.41115869140625,6.605985164642334,-0.8458628058433533,1.5990036725997925
1772651055454036000,4.421035888671875,6.80159854888916,-0.8159525394439697,1.6193426847457886
1772651055463913500,4.43091357421875,7.035496711730957,-0.7357929348945618,1.7252250909805298
1772651055473790700,4.440790771484375,7.29810905456543,-0.6245267391204834,1.789831280708313
1772651055483668200,4.450668212890625,7.448258876800537,-0.5862415432929993,1.7413766384124756
1772651055493545500,4.46054541015625,7.677371501922607,-0.6460621356964111,1.609771490097046
1772651055503422700,4.470422607421875,7.916653633117676,-0.7734799385070801,1.441077470779419
1772651055513300200,4.48030029296875,8.050651550292969,-0.9655039310455322,1.2376874685287476
1772651055523177500,4.490177490234375,8.091927528381348,-1.181456208229065,1.0630114078521729
1772651055533055000,4.500054931640625,8.087740898132324,-1.3704891204833984,1.0360921621322632
1772651055542932200,4.50993212890625,8.217551231384277,-1.4374881982803345,1.2323036193847656
1772651055552809700,4.519809814453125,8.638090133666992,-1.3848460912704468,1.5397813320159912
1772651055562687000,4.52968701171875,9.283554077148438,-1.3794622421264648,1.8807586431503296
1772651055572550700,4.539550537109375,10.189835548400879,-1.3627125024795532,2.301297187805176
1772651055582441700,4.549441650390625,11.243873596191406,-1.3028919696807861,2.8755745887756348
1772651055592319200,4.5593193359375,12.075977325439453,-1.3298112154006958,3.5258240699768066
1772651055602182700,4.5691826171875,12.78305721282959,-1.5948163270950317,4.235894203186035
1772651055612073700,4.57907373046875,13.776676177978516,-2.072782516479492,4.765904426574707
1772651055621951200,4.588951171875,15.18724536895752,-2.723630428314209,4.966901779174805
1772651055631815000,4.59881494140625,16.604394912719727,-3.6370904445648193,4.730610370635986
1772651055641706000,4.6087060546875,17.745771408081055,-4.482953071594238,4.118047714233398
1772651055651583200,4.618583251953125,18.856637954711914,-4.9052863121032715,3.3266217708587646
1772651055661447000,4.628447021484375,19.966310501098633,-4.878366947174072,2.4981069564819336
1772651055671338000,4.638337890625,20.665613174438477,-4.576871395111084,1.8113667964935303
1772651055681215500,4.648215576171875,20.207984924316406,-4.300500392913818,1.423729419708252
1772651055691079200,4.6580791015625,18.201005935668945,-4.261018753051758,1.1042876243591309
1772651055700970200,4.66797021484375,15.50668716430664,-4.345963954925537,0.7627122402191162
1772651055710847500,4.677847412109375,13.25862979888916,-4.281357765197754,0.6705885529518127
1772651055720711200,4.687711181640625,11.536396026611328,-4.198805332183838,0.771087110042572
1772651055730602200,4.697602294921875,10.305887222290039,-4.05403995513916,0.9337990283966064
1772651055740479700,4.707479736328125,9.559925079345703,-3.8189449310302734,1.0462616682052612
1772651055750343200,4.71734326171875,9.291330337524414,-3.538386583328247,1.0893324613571167
1772651055760234500,4.727234375,9.378668785095215,-3.248854875564575,1.1509476900100708
1772651055770111700,4.73711181640625,9.723833084106445,-3.005983352661133,1.1880364418029785
1772651055779989000,4.746989013671875,10.182058334350586,-2.8731818199157715,1.189831018447876
1772651055789866500,4.756866455078125,10.439885139465332,-2.940778970718384,1.048654556274414
1772651055799743700,4.76674365234375,10.385448455810547,-3.119642496109009,0.8243274092674255
1772651055809621200,4.776621337890625,10.130014419555664,-3.224926710128784,0.5880361795425415
1772651055819498800,4.786498779296875,9.80219841003418,-3.187239646911621,0.39601215720176697
1772651055829376000,4.7963759765625,9.383454322814941,-3.080759048461914,0.2602194547653198
1772651055839253500,4.80625341796875,8.904889106750488,-2.9760732650756836,0.14895321428775787
1772651055849130800,4.816130859375,8.436494827270508,-2.8450660705566406,0.07537391036748886
1772651055859008000,4.826008056640625,8.041678428649902,-2.696112871170044,0.05922235921025276
1772651055868871700,4.83587158203125,7.670791149139404,-2.561516523361206,0.10887342691421509
1772651055878762800,4.8457626953125,7.2951178550720215,-2.4047868251800537,0.18305093050003052
1772651055888640300,4.85564013671875,6.872186660766602,-2.2169501781463623,0.2679961323738098
1772651055898504000,4.86550390625,6.434299945831299,-2.014756679534912,0.3678964674472809
1772651055908395000,4.87539501953125,5.982056617736816,-1.797009825706482,0.41216370463371277
1772651055918272300,4.885272216796875,5.508277893066406,-1.602592945098877,0.4456632137298584
1772651055928136000,4.895135986328125,5.099104881286621,-1.415354609489441,0.48095735907554626
1772651055938027000,4.905027099609375,4.802394866943359,-1.2544373273849487,0.4827519655227661
1772651055947904500,4.914904541015625,4.577469825744629,-1.1694921255111694,0.5042873620986938
1772651055957781800,4.92478173828125,4.426722049713135,-1.1300104856491089,0.4492524564266205
1772651055967659300,4.9346591796875,4.369294166564941,-1.1359925270080566,0.33798620104789734
1772651055977536500,4.94453662109375,4.467400074005127,-1.179063320159912,0.22612173855304718
1772651055987414000,4.9544140625,4.655834674835205,-1.2532408237457275,0.1501496136188507
1772651055997291300,4.964291259765625,4.835296154022217,-1.3627125024795532,0.10229317098855972
1772651056007168800,4.974168701171875,4.986044406890869,-1.430907964706421,0.12622138857841492
1772651056017046000,4.9840458984375,5.197210788726807,-1.4895321130752563,0.1621137410402298
1772651056026923500,4.993923583984375,5.447858810424805,-1.550549030303955,0.1782652884721756
1772651056036800800,5.00380078125,5.646463394165039,-1.6091731786727905,0.1950150430202484
1772651056046678300,5.01367822265625,5.876173973083496,-1.700698733329773,0.259621262550354
1772651056056555500,5.023555419921875,6.183053493499756,-1.786242127418518,0.40677985548973083
1772651056066433000,5.03343310546875,6.5419769287109375,-1.8969101905822754,0.6855437159538269
1772651056076310300,5.043310302734375,7.010970115661621,-2.0099709033966064,0.9373882412910461
1772651056086187800,5.053187744140625,7.799405574798584,-2.129014015197754,1.1024930477142334
1772651056096065000,5.06306494140625,8.898907661437988,-2.2265214920043945,1.2424731254577637
1772651056105928700,5.0729287109375,10.205986976623535,-2.3234307765960693,1.322034478187561
1772651056115819800,5.08281982421875,11.508878707885742,-2.4807589054107666,1.3351950645446777
1772651056125697300,5.092697265625,12.228520393371582,-2.785843849182129,1.3142578601837158
1772651056135560700,5.102560791015625,12.111271858215332,-3.232105255126953,1.323829174041748
1772651056145452000,5.1124521484375,11.203195571899414,-3.675973892211914,1.4554343223571777
1772651056155329300,5.122329345703125,9.978668212890625,-3.87876558303833,1.6342978477478027
1772651056165206800,5.132206787109375,9.035896301269531,-3.7154552936553955,1.929213285446167
1772651056175084000,5.142083984375,8.670990943908691,-3.267399311065674,2.242672920227051
1772651056184961300,5.151961181640625,9.075976371765137,-2.8319056034088135,2.503490686416626
1772651056194838800,5.1618388671875,10.053443908691406,-2.520240545272827,2.5250260829925537
1772651056204716000,5.171716064453125,11.540583610534668,-2.368894338607788,2.32761812210083
1772651056214593500,5.181593505859375,12.971491813659668,-2.4675984382629395,1.9351953268051147
1772651056224457200,5.191457275390625,14.209178924560547,-2.7984061241149902,1.454836130142212
1772651056234348300,5.201348388671875,15.261423110961914,-3.2919256687164307,1.0480563640594482
1772651056244225800,5.211225830078125,15.724433898925781,-3.8021950721740723,0.6640082597732544
1772651056254089200,5.221089111328125,15.407384872436523,-4.251447677612305,0.17168502509593964
1772651056263980300,5.230980224609375,14.754144668579102,-4.687539577484131,-0.24586252868175507
1772651056273857800,5.24085791015625,13.800604820251465,-5.182853698730469,-0.2925225794315338
1772651056283721500,5.250721435546875,12.629916191101074,-5.496912002563477,0.24406790733337402
1772651056293612500,5.260612548828125,11.570493698120117,-5.408377170562744,1.1982059478759766
1772651056303489800,5.27048974609375,10.895119667053223,-5.0087761878967285,2.4023938179016113
1772651056313353500,5.280353515625,10.576874732971191,-4.425525665283203,3.655634880065918
1772651056323244800,5.290244873046875,10.380064964294434,-3.786641836166382,4.693521499633789
1772651056333122000,5.3001220703125,10.28614616394043,-3.22552490234375,5.338387489318848
1772651056342985700,5.30998583984375,10.408778190612793,-2.8564319610595703,5.496313571929932
1772651056352876800,5.319876708984375,10.740184783935547,-2.782254457473755,5.115854740142822
1772651056362754000,5.329754150390625,11.10030460357666,-3.0580272674560547,4.287938117980957
1772651056372631600,5.339631591796875,11.248659133911133,-3.4815568923950195,3.336193084716797
1772651056382508800,5.3495087890625,11.24626636505127,-3.7974095344543457,2.4221346378326416
1772651056392386300,5.35938623046875,10.925628662109375,-3.968496322631836,1.688734531402588
1772651056402250000,5.36925,10.315458297729492,-3.9529430866241455,1.2239288091659546
1772651056412141000,5.37914111328125,9.569496154785156,-3.8045880794525146,1.0839486122131348
1772651056422018600,5.3890185546875,8.72782039642334,-3.589832067489624,1.1808580160140991
1772651056431882000,5.398882080078125,7.939385414123535,-3.3828530311584473,1.4386845827102661
1772651056441773000,5.40877294921875,7.208378314971924,-3.16749906539917,1.7587246894836426
1772651056451650600,5.418650634765625,6.583851337432861,-2.87198543548584,1.9866410493850708
1772651056461514200,5.42851416015625,6.147759437561035,-2.5525436401367188,2.1684954166412354
1772651056471405300,5.4384052734375,5.901298999786377,-2.242074728012085,2.3258235454559326
1772651056481282600,5.448282470703125,5.848058700561523,-2.028515338897705,2.4430718421936035
1772651056491160000,5.45816015625,5.980860233306885,-1.8807586431503296,2.4460630416870117
1772651056501037300,5.468037353515625,6.281757831573486,-1.8352949619293213,2.3395824432373047
1772651056510914800,5.477914794921875,6.656234264373779,-1.8370895385742188,2.2331018447875977
1772651056520792000,5.4877919921875,6.978667259216309,-1.7718851566314697,2.1619153022766113
1772651056530669600,5.497669677734375,7.190432071685791,-1.731805443763733,2.0608184337615967
1772651056540546800,5.507546875,7.171289443969727,-1.7497515678405762,1.9351953268051147
1772651056550424300,5.51742431640625,7.009175777435303,-1.8370895385742188,1.7796618938446045
1772651056560301600,5.527301513671875,6.74656343460083,-1.9184455871582031,1.6618152856826782
1772651056570179000,5.537178955078125,6.479165554046631,-1.9657038450241089,1.551147222518921
1772651056580056300,5.547056396484375,6.314060688018799,-1.9573289155960083,1.4662020206451416
1772651056589933800,5.556933837890625,6.180062770843506,-1.903490424156189,1.4159528017044067
1772651056599811000,5.56681103515625,6.1435723304748535,-1.8652052879333496,1.4446666240692139
1772651056609688600,5.5766884765625,6.192026615142822,-1.8496519327163696,1.555932879447937
1772651056619565800,5.58656591796875,6.342774391174316,-1.8813568353652954,1.667797327041626
1772651056629443300,5.596443359375,6.622735023498535,-1.8837496042251587,1.8335003852844238
1772651056639320600,5.606320556640625,6.961917400360107,-1.8735800981521606,2.0033907890319824
1772651056649198000,5.616197998046875,7.246065139770508,-1.8789639472961426,2.083550214767456
1772651056659075300,5.626075439453125,7.415955543518066,-1.882553219795227,2.1332013607025146
1772651056668952800,5.635952880859375,7.468597888946533,-1.8993029594421387,2.1379871368408203
1772651056678830000,5.645830078125,7.298707485198975,-1.8765711784362793,2.0883359909057617
1772651056688707600,5.65570751953125,7.16231632232666,-1.8562321662902832,2.0171494483947754
1772651056698584800,5.665584716796875,7.205387115478516,-1.908874273300171,1.9627127647399902
1772651056708462300,5.67546240234375,7.404589653015137,-1.9812572002410889,2.0195422172546387
1772651056718339600,5.685339599609375,7.6049885749816895,-2.035095691680908,2.060220241546631
1772651056728217000,5.695217041015625,7.75334358215332,-2.1260228157043457,2.0033907890319824
1772651056738094300,5.70509423828125,7.846663475036621,-2.3156540393829346,1.843071699142456
1772651056747971800,5.714971923828125,7.723433494567871,-2.599203586578369,1.6671991348266602
1772651056757849000,5.72484912109375,7.2095746994018555,-3.057429075241089,1.5667005777359009
1772651056767726600,5.7347265625,6.655636310577393,-3.7250266075134277,1.5637096166610718
1772651056777603800,5.744603759765625,6.465406894683838,-4.438685894012451,1.6049858331680298
1772651056787467500,5.754467529296875,6.870391845703125,-5.199005603790283,1.7641085386276245
1772651056797358600,5.764358642578125,7.867002487182617,-5.849255084991455,2.00518536567688
1772651056807236000,5.774236083984375,9.215956687927246,-6.221338748931885,2.218146562576294
1772651056817099800,5.784099853515625,11.1104736328125,-6.375676155090332,2.272583246231079
1772651056826990800,5.793990966796875,13.27238941192627,-6.505486488342285,2.08713960647583
1772651056836868000,5.8038681640625,15.293725967407227,-6.756732940673828,1.7102699279785156
1772651056846731800,5.813731689453125,16.916059494018555,-7.103692054748535,1.1838489770889282
1772651056856622800,5.823622802734375,17.599809646606445,-7.60080099105835,0.5641079545021057
1772651056866500400,5.833500244140625,17.35215187072754,-8.109275817871094,-0.17587246000766754
1772651056876364000,5.843364013671875,16.564912796020508,-8.515457153320312,-0.9002995491027832
1772651056886255000,5.853255126953125,15.650256156921387,-8.741579055786133,-1.2849457263946533
1772651056896132400,5.86313232421875,14.849857330322266,-8.626724243164062,-1.171286702156067
1772651056906009900,5.873009765625,14.420944213867188,-8.103293418884277,-0.6245267391204834
1772651056915887000,5.88288720703125,14.099109649658203,-7.310671329498291,0.064606212079525
1772651056925764600,5.8927646484375,13.582858085632324,-6.484549522399902,0.6203392744064331
1772651056935628300,5.902628173828125,12.851850509643555,-5.719444274902344,0.9056833982467651
1772651056945519400,5.912519287109375,12.108879089355469,-5.07936429977417,1.0091729164123535
1772651056955396600,5.922396728515625,11.466405868530273,-4.6199421882629395,0.9092726111412048
1772651056965260300,5.93226025390625,11.030314445495605,-4.332205295562744,0.6843472719192505
1772651056975151400,5.9421513671875,10.690533638000488,-4.164109706878662,0.4169493317604065
1772651056985028900,5.95202880859375,10.402796745300293,-4.071985721588135,0.1908276081085205
1772651056994892500,5.961892578125,10.122836112976074,-3.9798622131347656,-0.009571290574967861
1772651057004783600,5.97178369140625,9.930811882019043,-3.8602211475372314,-0.1698904037475586
1772651057014660900,5.981660888671875,9.91107177734375,-3.751347780227661,-0.23988047242164612
1772651057024538400,5.991538330078125,9.89850902557373,-3.6699917316436768,-0.2548356056213379
1772651057034415600,6.00141552734375,9.91286563873291,-3.5742788314819336,-0.19381862878799438
1772651057044293000,6.011293212890625,10.000204086303711,-3.3966116905212402,-0.06999006122350693
1772651057054170400,6.02117041015625,9.964311599731445,-3.208775281906128,0.10229317098855972
1772651057064047900,6.0310478515625,9.698708534240723,-3.039483070373535,0.2231307178735733
1772651057073925000,6.040925048828125,9.320642471313477,-2.8564319610595703,0.2847459018230438
1772651057083802600,6.050802734375,8.906683921813965,-2.700300455093384,0.27756741642951965
1772651057093679900,6.060679931640625,8.476573944091797,-2.5812573432922363,0.19680966436862946
1772651057103557400,6.070557373046875,8.028517723083496,-2.4598217010498047,0.09690931439399719
1772651057113421000,6.080421142578125,7.633702278137207,-2.268994092941284,0.020338991656899452
1772651057123312000,6.09031201171875,7.210172653198242,-2.1343977451324463,-0.0011964113218709826
1772651057133189400,6.100189453125,6.832705020904541,-2.045863389968872,-0.062213387340307236
1772651057143067000,6.11006689453125,6.595217227935791,-1.9334007501602173,-0.14835500717163086
1772651057152944000,6.119944091796875,6.50189733505249,-1.827518343925476,-0.2967100143432617
1772651057162821600,6.129821533203125,6.418148517608643,-1.8203397989273071,-0.4707878530025482
1772651057172699000,6.139698974609375,6.236293792724609,-1.7886348962783813,-0.582054078578949
1772651057182576400,6.149576416015625,6.051448345184326,-1.6917256116867065,-0.6514459848403931
1772651057192453600,6.15945361328125,5.905486106872559,-1.597209095954895,-0.7070791125297546
1772651057202331100,6.1693310546875,5.7517476081848145,-1.5224334001541138,-0.7501499056816101
1772651057212208400,6.17920849609375,5.577669620513916,-1.4638092517852783,-0.7812566161155701
1772651057222086000,6.1890859375,5.383851051330566,-1.4123635292053223,-0.8303094506263733
1772651057231963100,6.198963134765625,5.132604598999023,-1.3561322689056396,-0.8805587291717529
1772651057241840600,6.208840576171875,4.855037212371826,-1.2741780281066895,-0.908674418926239
1772651057251718000,6.2187177734375,4.635495662689209,-1.2681959867477417,-0.9314061999320984
1772651057261595400,6.228595458984375,4.612165451049805,-1.4464613199234009,-0.8727820515632629
1772651057271472600,6.23847265625,4.8568315505981445,-1.6995022296905518,-0.7280163168907166
1772651057281350100,6.24835009765625,5.338387489318848,-1.9154545068740845,-0.5252245664596558
1772651057291227400,6.258227294921875,6.017350673675537,-1.9555343389511108,-0.24107688665390015
1772651057301105000,6.26810498046875,7.033103942871094,-1.9244276285171509,0.12622138857841492
1772651057310982100,6.277982177734375,8.208578109741211,-1.9489539861679077,0.5581258535385132
1772651057320845800,6.287845703125,9.293723106384277,-1.9752750396728516,0.8733802437782288
1772651057330737000,6.29773681640625,10.144969940185547,-2.0333011150360107,0.997208833694458
1772651057340614400,6.307614501953125,10.841879844665527,-2.084148406982422,0.8715856671333313
1772651057350477800,6.317477783203125,11.162517547607422,-2.2133610248565674,0.7238288521766663
1772651057360369200,6.327369140625,10.774880409240723,-2.6153552532196045,0.753140926361084
1772651057370246400,6.337246337890625,10.127023696899414,-3.0580272674560547,0.8769695162773132
1772651057380124000,6.3471240234375,9.712467193603516,-3.2057840824127197,1.0325030088424683
1772651057390001200,6.357001220703125,9.57906723022461,-3.125624656677246,1.2370892763137817
1772651057399878700,6.366878662109375,9.879366874694824,-2.9449665546417236,1.3154542446136475
1772651057409756000,6.376755859375,10.594820022583008,-2.7834508419036865,1.153340458869934
1772651057419633400,6.38663330078125,11.403594970703125,-2.761915445327759,0.8835497498512268
1772651057429510700,6.3965107421875,12.132208824157715,-2.901895761489868,0.6484549641609192
1772651057439374300,6.406374267578125,12.65863037109375,-3.197409152984619,0.4827519655227661
1772651057449265400,6.416265380859375,12.942179679870605,-3.600001573562622,0.4169493317604065
1772651057459143000,6.426142822265625,12.881760597229004,-3.9332022666931152,0.5324030518531799
1772651057469020200,6.436020263671875,12.443276405334473,-4.096512317657471,0.8404789566993713
1772651057478897700,6.445897705078125,11.990434646606445,-4.070191383361816,1.3304094076156616
1772651057488775000,6.45577490234375,11.709277153015137,-3.99900484085083,1.922034740447998
1772651057498652400,6.46565234375,11.745768547058105,-3.961317777633667,2.3647069931030273
1772651057508529700,6.47552978515625,12.109477043151855,-3.988237142562866,2.627917528152466
1772651057518407000,6.485406982421875,12.783655166625977,-4.171886444091797,2.6081767082214355
1772651057528270600,6.4952705078125,13.566107749938965,-4.532604217529297,2.4705893993377686
1772651057538161700,6.50516162109375,14.19302749633789,-4.859224796295166,2.2600209712982178
1772651057548039200,6.5150390625,14.558530807495117,-5.051248550415039,2.0003998279571533
1772651057557916400,6.52491650390625,14.551352500915527,-5.139184951782227,1.7826528549194336
1772651057567794000,6.5347939453125,14.087743759155273,-5.124827861785889,1.6791633367538452
1772651057577671200,6.544671142578125,13.277174949645996,-4.954339504241943,1.6348960399627686
1772651057587534800,6.554534912109375,12.337393760681152,-4.679164886474609,1.6002001762390137
1772651057597426000,6.564426025390625,11.311470985412598,-4.36809778213501,1.609771490097046
1772651057607303400,6.574303466796875,10.28315544128418,-4.0181474685668945,1.6917256116867065
1772651057617167000,6.5841669921875,9.361918449401855,-3.649054527282715,1.7533408403396606
1772651057627058200,6.59405810546875,8.6303129196167,-3.290729284286499,1.831107497215271
1772651057636935400,6.603935302734375,8.074580192565918,-2.927020311355591,1.9555343389511108
1772651057646799000,6.613799072265625,7.560122966766357,-2.648256540298462,2.1068804264068604
1772651057656690200,6.623690185546875,7.134200572967529,-2.462214469909668,2.2498514652252197
1772651057666567700,6.633567626953125,6.847062110900879,-2.3222343921661377,2.313859462738037
1772651057676431400,6.643431396484375,6.796214580535889,-2.1242282390594482,2.276172637939453
1772651057686322400,6.653322509765625,6.829115867614746,-1.911865234375,2.2785654067993164
1772651057696199700,6.66319970703125,6.882954120635986,-1.6803597211837769,2.2953150272369385
1772651057706077200,6.6730771484375,6.955935478210449,-1.4350954294204712,2.227717876434326
1772651057715954400,6.682954345703125,7.004988193511963,-1.2640085220336914,2.1164517402648926
1772651057725832000,6.69283203125,6.9756760597229,-1.1802598237991333,1.9441684484481812
1772651057735709200,6.702709228515625,6.8895344734191895,-1.2418749332427979,1.7377874851226807
1772651057745586700,6.712586669921875,6.758527755737305,-1.34476637840271,1.500898003578186
1772651057755464000,6.7224638671875,6.545566558837891,-1.4638092517852783,1.3483555316925049
1772651057765341200,6.732341064453125,6.252445697784424,-1.5655041933059692,1.3124631643295288
1772651057775218700,6.74221875,6.015556335449219,-1.5302101373672485,1.3435698747634888
1772651057785096200,6.75209619140625,5.938985824584961,-1.378864049911499,1.4709876775741577
1772651057794973400,6.761973388671875,5.9647088050842285,-1.1940184831619263,1.6265212297439575
1772651057804850700,6.7718505859375,6.102894306182861,-1.0701899528503418,1.7389838695526123
1772651057814728200,6.781728271484375,6.417550563812256,-0.9278169870376587,1.8652052879333496
1772651057824605700,6.791605712890625,6.735795974731445,-0.7986045479774475,1.9770697355270386
1772651057834483000,6.80148291015625,7.000202655792236,-0.649053156375885,2.076970100402832
1772651057844360200,6.811360107421875,7.211967468261719,-0.42293140292167664,2.190629243850708
1772651057854237700,6.82123779296875,7.27537727355957,-0.2356930375099182,2.252842426300049
1772651057864115000,6.831114990234375,7.270591735839844,-0.15912270545959473,2.3090739250183105
1772651057873992400,6.840992431640625,7.198208808898926,-0.13698910176753998,2.1589243412017822
1772651057883869700,6.85086962890625,6.990033149719238,-0.16749759018421173,1.8095721006393433
1772651057893747200,6.860747314453125,6.8033928871154785,-0.22372891008853912,1.4464613199234009
1772651057903624400,6.87062451171875,6.724429607391357,-0.2626122832298279,1.176072359085083
1772651057913502000,6.880501953125,6.796214580535889,-0.31345975399017334,1.0354939699172974
1772651057923379200,6.890379150390625,7.015756130218506,-0.33738797903060913,0.9559326171875
1772651057933256700,6.900256591796875,7.396214962005615,-0.3690928816795349,1.0145567655563354
1772651057943134000,6.910134033203125,7.847859859466553,-0.4007977843284607,1.2370892763137817
1772651057953011500,6.920011474609375,8.328219413757324,-0.4366901218891144,1.5074782371520996
1772651057962888700,6.929888671875,8.895318031311035,-0.4773681163787842,1.8394824266433716
1772651057972752400,6.93975244140625,9.610174179077148,-0.5862415432929993,2.14516544342041
1772651057982643500,6.9496435546875,10.442277908325195,-0.6484549641609192,2.338385820388794
1772651057992520700,6.959520751953125,11.374282836914062,-0.7483552694320679,2.447857618331909
1772651058002384400,6.96938427734375,12.242279052734375,-0.9308080077171326,2.489133834838867
1772651058012275500,6.979275390625,12.821940422058105,-1.3046865463256836,2.6123640537261963
1772651058022153000,6.989153076171875,13.089338302612305,-1.77607262134552,2.816352367401123
1772651058032016400,6.999016357421875,13.192229270935059,-2.2636101245880127,2.956930637359619
1772651058041907700,7.00890771484375,13.374682426452637,-2.6153552532196045,3.0167510509490967
1772651058051785000,7.018784912109375,13.679766654968262,-2.8899314403533936,3.108874797821045
1772651058061648600,7.028648681640625,13.981263160705566,-3.1316065788269043,3.177070379257202
1772651058071539700,7.038539794921875,14.528620719909668,-3.19860577583313,3.1824541091918945
1772651058081417200,7.048417236328125,15.50967788696289,-2.9856443405151367,3.122035264968872
1772651058091280600,7.05828076171875,16.592430114746094,-2.761915445327759,2.8725836277008057
1772651058101172000,7.068171875,17.21755599975586,-2.7044878005981445,2.4221346378326416
1772651058111049200,7.07804931640625,16.913667678833008,-2.7732813358306885,1.8113667964935303
1772651058120926700,7.0879267578125,15.592828750610352,-3.0382864475250244,1.2735798358917236
1772651058130804000,7.097803955078125,13.804792404174805,-3.3780672550201416,1.179063320159912
1772651058140681500,7.107681396484375,11.989835739135742,-3.348755359649658,1.1611171960830688
1772651058150545000,7.117544921875,10.41476058959961,-3.19441819190979,1.170688509941101
1772651058160436000,7.12743603515625,9.161520004272461,-3.1680972576141357,1.4769697189331055
1772651058170313500,7.1373134765625,8.318648338317871,-3.064009428024292,1.9250258207321167
1772651058180177200,7.14717724609375,7.904689788818359,-2.7427730560302734,2.2857437133789062
1772651058190068200,7.157068115234375,7.932207107543945,-2.41375994682312,2.520240545272827
1772651058199945500,7.166945556640625,8.423932075500488,-2.172683000564575,2.6159534454345703
1772651058209823000,7.176822998046875,9.196813583374023,-2.1032910346984863,2.5429723262786865
1772651058219700200,7.1867001953125,10.034899711608887,-2.1720848083496094,2.2719850540161133
1772651058229577700,7.19657763671875,10.620543479919434,-2.3814568519592285,1.852044701576233
1772651058239455000,7.206455078125,10.809576034545898,-2.599801778793335,1.3483555316925049
1772651058249332200,7.216332275390625,10.591829299926758,-2.788236618041992,0.9439685344696045
1772651058259209700,7.226209716796875,10.066604614257812,-2.9359934329986572,0.6544370055198669
1772651058269087000,7.2360869140625,9.397810935974121,-2.9617161750793457,0.4498506486415863
1772651058278964500,7.245964599609375,8.749954223632812,-2.836092948913574,0.38644084334373474
1772651058288841700,7.255841796875,8.180462837219238,-2.572284460067749,0.5096712112426758
1772651058298705400,7.265705322265625,7.63729190826416,-2.214557409286499,0.6849454641342163
1772651058308596500,7.275596435546875,7.167101860046387,-1.8263218402862549,0.8632107973098755
1772651058318474000,7.285473876953125,6.686144828796387,-1.5182459354400635,1.0432707071304321
1772651058328337400,7.29533740234375,6.131010055541992,-1.272383451461792,1.0929217338562012
1772651058338228700,7.305228759765625,5.602794170379639,-1.1120643615722656,1.0809576511383057
1772651058348106000,7.31510595703125,5.20379114151001,-0.9708877801895142,1.0432707071304321
1772651058357969700,7.3249697265625,5.037489891052246,-0.8189435601234436,1.0612168312072754
1772651058367860700,7.33486083984375,5.075775146484375,-0.6604190468788147,1.1479566097259521
1772651058377738000,7.344738037109375,5.163711071014404,-0.5569294691085815,1.1611171960830688
1772651058387615500,7.354615478515625,5.337789058685303,-0.5377869009971619,1.1168500185012817
1772651058397492700,7.36449267578125,5.565107345581055,-0.6442674994468689,1.0857433080673218
1772651058407370200,7.374370361328125,5.754140377044678,-0.7776673436164856,1.0582258701324463
1772651058417247500,7.38424755859375,5.866602897644043,-0.8679963946342468,1.077966570854187
1772651058427125000,7.394125,5.938387393951416,-0.8715856671333313,1.1252248287200928
1772651058437002200,7.404002197265625,5.976672649383545,-0.8799605369567871,1.2275179624557495
1772651058446879700,7.413879638671875,6.025127410888672,-0.9337990283966064,1.3280165195465088
1772651058456757000,7.423757080078125,6.207580089569092,-1.0085747241973877,1.4111671447753906
1772651058466634500,7.433634521484375,6.449255466461182,-1.1030912399291992,1.4279168844223022
1772651058476511700,7.44351171875,6.750152587890625,-1.207179069519043,1.4446666240692139
1772651058486389000,7.453388916015625,7.063612461090088,-1.306481122970581,1.41834557056427
1772651058496266500,7.4632666015625,7.340581893920898,-1.3411771059036255,1.3866406679153442
1772651058506143700,7.473143798828125,7.551149845123291,-1.3692927360534668,1.3603196144104004
1772651058516021200,7.483021240234375,7.6875410079956055,-1.3920245170593262,1.4291132688522339
1772651058525898500,7.4928984375,7.814360618591309,-1.4231312274932861,1.5882359743118286
1772651058535776000,7.50277587890625,7.972286701202393,-1.4709876775741577,1.7766708135604858
1772651058545653200,7.5126533203125,8.14516830444336,-1.5565310716629028,2.008176326751709
1772651058555530500,7.522530517578125,8.392227172851562,-1.689931035041809,2.2325034141540527
1772651058565408000,7.532407958984375,8.773283958435059,-1.9716858863830566,2.510071039199829
1772651058575285200,7.54228515625,9.34457015991211,-2.368894338607788,2.9455647468566895
1772651058585162800,7.552162841796875,10.007980346679688,-2.7038896083831787,3.528217077255249
1772651058595026200,7.562026123046875,10.858031272888184,-2.919841766357422,4.158725738525391
1772651058604917500,7.57191748046875,11.802597999572754,-2.9730820655822754,4.663012981414795
1772651058614794800,7.581794677734375,12.536596298217773,-2.9485557079315186,4.926821708679199
1772651058624658400,7.591658447265625,13.064213752746582,-2.9012975692749023,4.972285270690918
1772651058634549500,7.601549560546875,13.627124786376953,-2.8582265377044678,4.771886348724365
1772651058644426800,7.6114267578125,14.305490493774414,-2.9515466690063477,4.460819721221924
1772651058654290400,7.62129052734375,14.986845970153809,-3.1657042503356934,4.210171222686768
1772651058664181500,7.631181396484375,15.455241203308105,-3.4097721576690674,3.943969964981079
1772651058674059000,7.64105908203125,15.742380142211914,-3.5958142280578613,3.5635111331939697
1772651058683922400,7.65092236328125,16.08814239501953,-3.724428415298462,3.2105698585510254
1772651058693813800,7.660813720703125,16.214962005615234,-3.8111681938171387,3.0586254596710205
1772651058703691000,7.67069091796875,15.799209594726562,-3.747758388519287,3.1405797004699707
1772651058713568300,7.680568359375,15.223137855529785,-3.456432342529297,3.411566972732544
1772651058723445800,7.69044580078125,14.112269401550293,-3.22552490234375,4.05703067779541
1772651058733323000,7.700322998046875,12.705887794494629,-3.091526746749878,4.634897232055664
1772651058743186700,7.710186767578125,11.10030460357666,-2.908475875854492,5.010570526123047
1772651058753077800,7.720077880859375,9.614361763000488,-2.6051857471466064,5.349154949188232
1772651058762955300,7.729955322265625,8.407182693481445,-2.255235433578491,5.812166213989258
1772651058772818700,7.739818603515625,7.405786037445068,-1.852044701576233,6.202794551849365
1772651058782710000,7.7497099609375,6.684948444366455,-1.4315061569213867,6.303891181945801
1772651058792587300,7.759587158203125,6.356533527374268,-1.1521440744400024,6.192625045776367
1772651058802451000,7.769450927734375,6.482754707336426,-1.1252248287200928,5.972485542297363
1772651058812342000,7.779342041015625,6.967899322509766,-1.301695466041565,5.519643783569336
1772651058822219300,7.78921923828125,7.600203037261963,-1.592423439025879,4.7958149909973145
1772651058832083000,7.7990830078125,8.133204460144043,-1.903490424156189,3.9559340476989746
1772651058841974000,7.80897412109375,8.467002868652344,-2.160120725631714,3.1304101943969727
1772651058851851500,7.8188515625,8.550153732299805,-2.2636101245880127,2.4951157569885254
1772651058861715000,7.82871484375,8.353343963623047,-2.218146562576294,2.0829520225524902
1772651058871606300,7.838606201171875,7.984251022338867,-2.0542383193969727,1.9160526990890503
1772651058881483500,7.8484833984375,7.494320392608643,-1.8197416067123413,1.9465612173080444
1772651058891360800,7.85836083984375,7.031907558441162,-1.4889339208602905,2.059023857116699
1772651058901238300,7.86823828125,6.6484575271606445,-1.1521440744400024,2.235494613647461
1772651058911115500,7.878115478515625,6.372684955596924,-0.8410771489143372,2.4388844966888428
1772651058920993000,7.887992919921875,6.180660724639893,-0.5545366406440735,2.571686029434204
1772651058930870300,7.897870361328125,6.139384746551514,-0.34695929288864136,2.589632272720337
1772651058940747800,7.907747802734375,6.220142364501953,-0.28115665912628174,2.466402053833008
1772651058950625000,7.917625,6.375077724456787,-0.3086741268634796,2.266601324081421
1772651058960502300,7.927502197265625,6.4947190284729,-0.4414757788181305,2.0003998279571533
1772651058970379800,7.9373798828125,6.525825500488281,-0.6496513485908508,1.6971094608306885
1772651058980257000,7.947257080078125,6.512066841125488,-0.8548358678817749,1.425524115562439
1772651058990134500,7.957134521484375,6.522236347198486,-0.9852447509765625,1.2221341133117676
1772651059000011800,7.96701171875,6.5527448654174805,-0.9984052777290344,1.119242787361145
1772651059009889300,7.97688916015625,6.643074035644531,-0.828514814376831,1.1700903177261353
1772651059019766500,7.9867666015625,6.783652305603027,-0.597607433795929,1.2646067142486572
1772651059029643800,7.996643798828125,6.916453838348389,-0.39421752095222473,1.3070793151855469
1772651059039521300,8.006521240234376,7.003791809082031,-0.27756741642951965,1.241276741027832
1772651059049398500,8.0163984375,7.120441913604736,-0.21296121180057526,1.1784651279449463
1772651059059276000,8.026276123046875,7.277770042419434,-0.23748764395713806,1.0875378847122192
1772651059069153300,8.0361533203125,7.521838188171387,-0.30628129839897156,1.0348957777023315
1772651059079030500,8.046030517578124,7.8179497718811035,-0.30568310618400574,0.9786644577980042
1772651059088908000,8.055907958984376,8.14815902709961,-0.32602208852767944,0.9421738982200623
1772651059098785300,8.065785400390626,8.575278282165527,-0.3278166949748993,0.8691928386688232
1772651059108662800,8.075662841796875,9.165108680725098,-0.3026920557022095,0.7501499056816101
1772651059118540000,8.0855400390625,9.762118339538574,-0.34636107087135315,0.6550351977348328
1772651059128403700,8.09540380859375,10.206584930419922,-0.4001995921134949,0.5850451588630676
1772651059138294800,8.105294677734374,10.462018966674805,-0.4019941985607147,0.5629115104675293
1772651059148172000,8.115172119140626,10.481161117553711,-0.3846462368965149,0.6149554252624512
1772651059158049500,8.125049560546875,10.383055686950684,-0.34636107087135315,0.6484549641609192
1772651059167926800,8.1349267578125,10.2418794631958,-0.3332005441188812,0.6269195079803467
1772651059177804300,8.14480419921875,10.094121932983398,-0.3643072545528412,0.625723123550415
1772651059187681500,8.154681640625,9.94397258758545,-0.4420739710330963,0.5910272002220154
1772651059197558800,8.164558837890626,9.89133071899414,-0.4707878530025482,0.5659025311470032
1772651059207436300,8.174436279296875,9.975079536437988,-0.4630111753940582,0.6125625967979431
1772651059217313500,8.1843134765625,10.176076889038086,-0.4205385744571686,0.7334001660346985
1772651059227191000,8.19419091796875,10.371689796447754,-0.3439682424068451,0.9439685344696045
1772651059237068300,8.204068359375,10.375279426574707,-0.46899324655532837,1.3645070791244507
1772651059246945800,8.21394580078125,10.265807151794434,-0.8069794178009033,2.0207388401031494
1772651059256823000,8.223822998046876,10.328021049499512,-1.3459627628326416,2.495713949203491
1772651059266700300,8.2337001953125,10.920244216918945,-1.8753747940063477,2.5226333141326904
1772651059276564000,8.24356396484375,12.001201629638672,-2.282752752304077,2.39401912689209
1772651059286455000,8.253455078125,13.180863380432129,-2.729612350463867,2.318047046661377
1772651059296332500,8.26333251953125,14.174483299255371,-3.3415768146514893,2.3300111293792725
1772651059306196000,8.273196044921875,15.123835563659668,-3.769293785095215,2.1379871368408203
1772651059316087000,8.283087158203125,15.836297988891602,-4.001397609710693,1.7682958841323853
1772651059325964500,8.292964599609375,16.031911849975586,-4.196412563323975,1.2143574953079224
1772651059335841800,8.302841796875,15.591631889343262,-4.289134502410889,0.6759724020957947
1772651059345719000,8.312718994140624,14.31625747680664,-4.348955154418945,0.3523431420326233
1772651059355596500,8.322596435546876,12.600604057312012,-4.2281174659729,0.21236300468444824
1772651059365460200,8.332460205078124,10.999207496643066,-3.9020955562591553,0.27696922421455383
1772651059375351300,8.342351318359375,9.722636222839355,-3.5856447219848633,0.46899324655532837
1772651059385228500,8.352228515625,8.737990379333496,-3.3822548389434814,0.6711867451667786
1772651059395092200,8.36209228515625,8.081160545349121,-3.249453067779541,0.8602197170257568
1772651059404983300,8.3719833984375,7.872984886169434,-3.119044303894043,1.074377417564392
1772651059414860500,8.381860595703126,8.047062873840332,-3.0209386348724365,1.308275818824768
1772651059424738000,8.391738037109375,8.572885513305664,-2.9174489974975586,1.4530415534973145
1772651059434615300,8.401615234375,9.355338096618652,-2.799602508544922,1.4775680303573608
1772651059444492800,8.411492919921875,10.119845390319824,-2.8145575523376465,1.3770694732666016
1772651059454370000,8.4213701171875,10.633105278015137,-2.981456995010376,1.1838489770889282
1772651059464247300,8.431247314453126,10.877771377563477,-3.1788649559020996,0.8967102766036987
1772651059474124800,8.441124755859375,10.956136703491211,-3.291327476501465,0.5467599630355835
1772651059484002000,8.451001953125,10.925029754638672,-3.3756744861602783,0.26201409101486206
1772651059493879600,8.460879638671875,10.807781219482422,-3.4157543182373047,0.061016976833343506
1772651059503756800,8.4707568359375,10.637890815734863,-3.3672995567321777,-0.037088751792907715
1772651059513634000,8.480634033203126,10.333404541015625,-3.1657042503356934,-0.03768695518374443
1772651059523511600,8.490511474609375,9.871589660644531,-2.9066812992095947,0.06161518394947052
1772651059533388800,8.500388916015625,9.312267303466797,-2.6524438858032227,0.17527425289154053
1772651059543266300,8.510266357421875,8.807381629943848,-2.3742783069610596,0.3002992272377014
1772651059553143600,8.5201435546875,8.443673133850098,-2.1230318546295166,0.4899304509162903
1772651059563020800,8.530020751953124,8.088936805725098,-1.9298114776611328,0.6131607890129089
1772651059572884500,8.539884521484375,7.753942012786865,-1.7336000204086304,0.5910272002220154
1772651059582775600,8.549775634765625,7.383054256439209,-1.5499508380889893,0.46420758962631226
1772651059592653000,8.559653076171875,6.961319446563721,-1.3310075998306274,0.36311084032058716
1772651059602516500,8.5695166015625,6.4564337730407715,-1.1156535148620605,0.30568310618400574
1772651059612407600,8.579407470703124,6.032305717468262,-0.8267202377319336,0.29730820655822754
1772651059622285000,8.58928515625,5.595615863800049,-0.30209386348724365,0.4414757788181305
1772651059632148500,8.5991484375,4.880760192871094,-0.07417750358581543,0.6520441770553589
1772651059642039800,8.609039794921875,5.2181477546691895,0.025722842663526535,0.9684949517250061
1772651059651917000,8.6189169921875,5.739185333251953,0.013160524889826775,1.2149556875228882
1772651059661794300,8.628794189453124,6.293721675872803,-0.11545369029045105,1.2352946996688843
1772651059671671800,8.638671875,7.205387115478516,-0.08315058797597885,1.0480563640594482
1772651059681549000,8.648549072265626,7.785646915435791,-0.09451649338006973,0.8602197170257568
