time,seconds_elapsed,z,y,x
1772651051285939700,0.252939697265625,-0.6479434967041016,0.6792990565299988,-0.20667004585266113
1772651051305694500,0.272694580078125,-0.49138450622558594,0.6495888829231262,-0.4286477565765381
1772651051325449000,0.292448974609375,-0.33557891845703125,0.614205539226532,-0.6517031192779541
1772651051345203500,0.312203369140625,-0.33045101165771484,0.6942020058631897,-0.7906079292297363
1772651051364958200,0.331958251953125,-0.7884492874145508,0.8386467695236206,-0.9295613765716553
1772651051384712700,0.351712646484375,-1.5020251274108887,1.0208261013031006,-1.141784429550171
1772651051404467200,0.37146728515625,-2.1355438232421875,1.212936520576477,-1.295222520828247
1772651051424222000,0.391221923828125,-2.5449485778808594,1.4351471662521362,-1.4313408136367798
1772651051443976400,0.4109765625,-2.7219204902648926,1.6060214042663574,-1.5282268524169922
1772651051463731000,0.43073095703125,-2.2929162979125977,1.9313855171203613,-1.4890848398208618
1772651051483485700,0.450485595703125,-2.285215377807617,2.0081698894500732,-1.3844189643859863
1772651051503240200,0.470240234375,-2.518033027648926,2.0766308307647705,-0.9608548879623413
1772651051522994700,0.48999462890625,-2.0703349113464355,2.104957342147827,-0.43915772438049316
1772651051542749400,0.50974951171875,-0.6198148727416992,1.8444750308990479,-0.1848665475845337
1772651051562504000,0.52950390625,1.6135025024414062,1.3387621641159058,0.28851819038391113
1772651051582244900,0.549244873046875,3.849720001220703,0.6227909326553345,0.26631367206573486
1772651051602013200,0.56901318359375,6.134860992431641,-0.3675875663757324,-0.4229545593261719
1772651051621767700,0.588767578125,7.723176002502441,-1.126047134399414,-0.9707547426223755
1772651051641522200,0.608522216796875,7.4607086181640625,-1.5634148120880127,-1.1328885555267334
1772651051661277000,0.62827685546875,5.820586204528809,-1.560788631439209,-0.6849280595779419
1772651051681031400,0.648031494140625,3.9450435638427734,-0.715933084487915,0.43819403648376465
1772651051700772400,0.6677724609375,2.5868825912475586,0.21661019325256348,1.682370901107788
1772651051720540700,0.687540771484375,1.4785385131835938,0.6506160497665405,2.4093849658966064
1772651051740295200,0.707295166015625,0.38565921783447266,0.859515905380249,2.5149340629577637
1772651051760036000,0.7270361328125,-0.8359689712524414,1.0131173133850098,2.3207473754882812
1772651051779804400,0.746804443359375,-1.999532699584961,1.2469263076782227,2.174351215362549
1772651051799559000,0.766558837890625,-2.8913869857788086,1.5438302755355835,2.035966634750366
1772651051819299800,0.7862998046875,-3.3442511558532715,1.75910222530365,1.8588396310806274
1772651051839068200,0.806068115234375,-3.48628568649292,1.8890031576156616,1.6731642484664917
1772651051858822700,0.82582275390625,-3.5396170616149902,1.8844949007034302,1.3615349531173706
1772651051878577400,0.845577392578125,-3.7168493270874023,1.8226357698440552,0.967592716217041
1772651051898332000,0.865331787109375,-3.961181163787842,1.9072723388671875,0.6612249612808228
1772651051918086400,0.88508642578125,-3.701693534851074,1.9696789979934692,0.3755180835723877
1772651051937841200,0.904841064453125,-3.309253692626953,1.8012847900390625,-0.006866931915283203
1772651051957595600,0.924595703125,-2.9051146507263184,1.676127314567566,-0.40782201290130615
1772651051977350100,0.94435009765625,-1.5961894989013672,1.567638635635376,-0.3685215711593628
1772651051997091000,0.964091064453125,-0.4668703079223633,0.8663947582244873,-0.2933758497238159
1772651052016859400,0.983859375,0.0822916030883789,0.0030663013458251953,-0.35020291805267334
1772651052036614000,1.00361376953125,1.9888687133789062,-0.6413393020629883,-0.11469078063964844
1772651052056354800,1.023354736328125,5.202181816101074,-0.5408830642700195,-0.4619826078414917
1772651052076123100,1.043123046875,7.234076499938965,-0.45160913467407227,-1.4069653749465942
1772651052095877600,1.062877685546875,6.137004852294922,-0.8866839408874512,-2.250411033630371
1772651052115618600,1.08261865234375,2.9920406341552734,-1.337289571762085,-2.567066192626953
1772651052135387000,1.102386962890625,1.4744110107421875,-1.0414087772369385,-1.1639695167541504
1772651052155141400,1.122141357421875,1.825861930847168,-0.1148684024810791,0.15858864784240723
1772651052174896000,1.141896240234375,3.264677047729492,0.42542362213134766,0.7577710151672363
1772651052194650600,1.161650634765625,3.867542266845703,0.17570877075195312,0.2667267322540283
1772651052214405000,1.181405029296875,3.1453542709350586,0.005810737609863281,-0.6671136617660522
1772651052234146000,1.20114599609375,1.5286626815795898,0.2732889652252197,-1.1449031829833984
1772651052253914400,1.220914306640625,-0.39749813079833984,0.7598106861114502,-1.0852926969528198
1772651052273668900,1.2406689453125,-2.0037407875061035,1.2813833951950073,-0.8666316270828247
1772651052293409800,1.260409912109375,-2.974283218383789,1.647455096244812,-0.65488600730896
1772651052313178000,1.28017822265625,-3.287759304046631,1.7449644804000854,-0.6618837118148804
1772651052332932900,1.299932861328125,-3.1196327209472656,1.5343825817108154,-0.8146700859069824
1772651052352687400,1.319687255859375,-2.759769916534424,1.2686716318130493,-0.8743876218795776
1772651052372441900,1.33944189453125,-2.4336352348327637,1.1121907234191895,-0.6991515755653381
1772651052392196600,1.359196533203125,-2.045132637023926,1.2751896381378174,-0.34210145473480225
1772651052411951000,1.378951171875,-1.6568880081176758,1.4165935516357422,-0.10350561141967773
1772651052431705600,1.39870556640625,-1.4267492294311523,1.340624451637268,0.02972853183746338
1772651052451460400,1.41846044921875,-1.167062759399414,1.312032699584961,0.26665186882019043
1772651052471214800,1.43821484375,-0.8830966949462891,1.4025260210037231,0.45998501777648926
1772651052490969300,1.45796923828125,-0.7200326919555664,1.5713887214660645,0.5627641677856445
1772651052510724000,1.47772412109375,-0.8046197891235352,1.8229490518569946,0.711919903755188
1772651052530478600,1.497478515625,-1.0336408615112305,2.1427063941955566,0.7701961994171143
1772651052550233000,1.517233154296875,-1.795152187347412,2.0684361457824707,0.9584128856658936
1772651052569987800,1.53698779296875,-1.8760881423950195,1.863456130027771,1.4348124265670776
1772651052589728500,1.556728515625,0.03304862976074219,1.6747114658355713,1.4077705144882202
1772651052609497000,1.5764970703125,3.622868537902832,1.0839416980743408,0.019593000411987305
1772651052629251600,1.59625146484375,6.426843643188477,-0.36106276512145996,-1.8995683193206787
1772651052648992300,1.6159921875,6.19876766204834,-2.252263307571411,-3.253782272338867
1772651052668760800,1.6357607421875,4.676126480102539,-3.636030673980713,-3.035412311553955
1772651052688515300,1.655515380859375,3.969392776489258,-3.6133997440338135,-1.2066818475723267
1772651052708256300,1.67525634765625,4.1640729904174805,-2.124166488647461,0.6609585285186768
1772651052728024600,1.695024658203125,4.490410804748535,-0.8628778457641602,1.1138279438018799
1772651052747779000,1.714779052734375,4.4415740966796875,-0.6301319599151611,-0.29214954376220703
1772651052767520000,1.73452001953125,4.172591209411621,-0.582695484161377,-2.271310806274414
1772651052787288300,1.754288330078125,2.77384090423584,-0.20808792114257812,-3.3847737312316895
1772651052807042800,1.774042724609375,0.10399913787841797,0.4047672748565674,-3.1406664848327637
1772651052826783700,1.79378369140625,-2.537062168121338,1.0404372215270996,-2.1553149223327637
1772651052846552000,1.813552001953125,-4.055392742156982,1.641294240951538,-1.1378618478775024
1772651052866306600,1.833306640625,-4.516738414764404,2.0184507369995117,-0.47116827964782715
1772651052886061300,1.853061279296875,-4.386518478393555,1.931990146636963,-0.32848691940307617
1772651052905815800,1.87281591796875,-3.872581958770752,1.7802590131759644,-0.4496573209762573
1772651052925570300,1.8925703125,-3.4702253341674805,1.654827356338501,-0.6961548328399658
1772651052945325000,1.912324951171875,-3.290158271789551,1.6868245601654053,-0.947786808013916
1772651052965079600,1.93207958984375,-3.1893177032470703,1.776796579360962,-1.1415655612945557
1772651052984834300,1.951834228515625,-3.2591090202331543,1.9763996601104736,-0.9905738830566406
1772651053004588800,1.9715888671875,-3.170661449432373,2.3291189670562744,-0.5196737051010132
1772651053024343600,1.991343505859375,-2.667586326599121,2.6915316581726074,-0.2467038631439209
1772651053044098000,2.01109814453125,-1.2080011367797852,2.6446878910064697,-0.43009281158447266
1772651053063839000,2.0308388671875,0.3888578414916992,2.0655879974365234,-0.8688633441925049
1772651053083607300,2.050607177734375,2.2207374572753906,1.301497459411621,-1.0399456024169922
1772651053103361800,2.07036181640625,3.7848262786865234,0.6361219882965088,-0.8694133758544922
1772651053123102700,2.090102783203125,3.4253406524658203,0.20230460166931152,-0.059931278228759766
1772651053142871000,2.10987109375,2.3971481323242188,0.14020681381225586,0.8698701858520508
1772651053162625800,2.129625732421875,3.503671646118164,0.327486515045166,0.6888477802276611
1772651053182366500,2.149366455078125,6.488765716552734,0.515331506729126,-0.9366414546966553
1772651053202134800,2.169134765625,8.061239242553711,0.0372312068939209,-2.64512300491333
1772651053221889500,2.1888896484375,5.138971328735352,-0.8800780773162842,-3.5344269275665283
1772651053241630200,2.208630126953125,0.9205398559570312,-0.8846113681793213,-2.913658618927002
1772651053261398800,2.228398681640625,-1.215078353881836,-0.4770796298980713,-1.1420905590057373
1772651053281153300,2.2481533203125,-0.6187210083007812,0.20535063743591309,0.3575439453125
1772651053300894200,2.267894287109375,1.8670110702514648,0.6092829704284668,0.9741265773773193
1772651053320662500,2.28766259765625,4.417638778686523,0.17088556289672852,0.27768707275390625
1772651053340417000,2.3074169921875,5.407231330871582,-0.6509425640106201,-1.1173226833343506
1772651053360158000,2.327157958984375,4.872794151306152,-1.2125358581542969,-2.2634215354919434
1772651053379926300,2.34692626953125,3.148959159851074,-1.247553825378418,-2.973048448562622
1772651053399681000,2.366680908203125,0.9502077102661133,-0.6953079700469971,-2.8560094833374023
1772651053419421700,2.386421630859375,-1.3595342636108398,-0.02471184730529785,-2.1124603748321533
1772651053439190300,2.406190185546875,-3.275531768798828,0.6925053596496582,-1.4112690687179565
1772651053458944800,2.42594482421875,-4.304628849029541,1.1294889450073242,-1.0135852098464966
1772651053478685700,2.445685791015625,-4.54666805267334,1.277256727218628,-0.8383738994598389
1772651053498454000,2.4654541015625,-4.466451644897461,1.1889952421188354,-0.632171630859375
1772651053518208800,2.485208740234375,-4.457870960235596,1.0220704078674316,-0.2701324224472046
1772651053537963300,2.50496337890625,-4.366479873657227,0.8876686096191406,-0.1164093017578125
1772651053557718000,2.524718017578125,-4.042120933532715,0.7484951019287109,0.03252732753753662
1772651053577472500,2.544472412109375,-3.293118953704834,0.5977883338928223,0.16287457942962646
1772651053597227300,2.564227294921875,-2.731983184814453,0.4034702777862549,0.16939032077789307
1772651053616981800,2.583981689453125,-2.6249656677246094,0.34605884552001953,0.20503556728363037
1772651053636736500,2.603736572265625,-2.5080060958862305,0.4732346534729004,0.16794145107269287
1772651053656491000,2.623490966796875,-1.988356590270996,0.563396692276001,-0.04101395606994629
1772651053676245800,2.643245849609375,-1.025710105895996,0.5527992248535156,-0.531973123550415
1772651053696000300,2.663000244140625,0.30460453033447266,0.37641096115112305,-1.1654362678527832
1772651053715741200,2.6827412109375,1.319849967956543,-0.0026018619537353516,-1.0197521448135376
1772651053735509500,2.702509521484375,1.3233013153076172,0.02878713607788086,-0.23349380493164062
1772651053755264300,2.72226416015625,2.4157752990722656,0.7375378608703613,0.16540896892547607
1772651053775005200,2.742005126953125,5.709206581115723,0.9635698795318604,-0.4600902795791626
1772651053794773500,2.7617734375,8.616097450256348,-0.11356830596923828,-1.8518359661102295
1772651053814528000,2.781528076171875,8.548999786376953,-1.7541866302490234,-2.144829034805298
1772651053834269000,2.80126904296875,5.959207534790039,-2.4884753227233887,-0.12225782871246338
1772651053854037500,2.82103759765625,4.381734848022461,-1.525118350982666,2.8534326553344727
1772651053873792000,2.8407919921875,4.5257568359375,-0.44217491149902344,4.484923362731934
1772651053893546800,2.860546630859375,5.6328229904174805,-0.5719218254089355,3.622513771057129
1772651053913301200,2.88030126953125,6.370701789855957,-1.54508638381958,1.4007071256637573
1772651053933056000,2.900055908203125,5.276551246643066,-2.1145050525665283,-0.5330619812011719
1772651053952797000,2.919796875,2.5540590286254883,-1.7511210441589355,-1.0157877206802368
1772651053972565200,2.939565185546875,-0.5925455093383789,-0.7552671432495117,-0.40164029598236084
1772651053992320000,2.959320068359375,-2.9998207092285156,0.18722152709960938,0.28916215896606445
1772651054012060700,2.979060791015625,-4.0358710289001465,0.6915597915649414,0.6311360597610474
1772651054031829200,2.998829345703125,-4.038125514984131,0.7960286140441895,0.5845205783843994
1772651054051583700,3.018583740234375,-3.7857589721679688,0.7868673801422119,0.3653169274330139
1772651054071338500,3.03833837890625,-3.6573400497436523,0.6524567604064941,0.15941143035888672
1772651054091093200,3.05809326171875,-3.8088889122009277,0.7147245407104492,0.106900155544281
1772651054110847700,3.07784765625,-4.233671188354492,0.8330185413360596,0.21355503797531128
1772651054130602500,3.0976025390625,-4.549129009246826,0.8725254535675049,0.3287736773490906
1772651054150357200,3.117357177734375,-4.478443145751953,0.863670825958252,0.2866501212120056
1772651054170111700,3.13711181640625,-4.048920631408691,0.9665473699569702,0.25333547592163086
1772651054189866500,3.156866455078125,-3.401431083679199,1.1300214529037476,0.4053504467010498
1772651054209621000,3.17662109375,-2.5400943756103516,1.2679038047790527,0.5051056146621704
1772651054229375700,3.196375732421875,-1.5832538604736328,1.317384123802185,0.3390507102012634
1772651054249116700,3.21611669921875,-0.30454254150390625,1.5639623403549194,0.1821027398109436
1772651054268885000,3.235885009765625,1.0953121185302734,1.760669231414795,0.0237959623336792
1772651054288639700,3.2556396484375,2.042734146118164,1.8853096961975098,-0.1055288016796112
1772651054308394500,3.27539453125,2.41843318939209,1.8796391487121582,-0.03644305467605591
1772651054328149000,3.29514892578125,2.682159423828125,1.9433351755142212,0.11215081810951233
1772651054347903700,3.31490380859375,2.753249168395996,1.980592966079712,0.1617324948310852
1772651054367658500,3.334658447265625,2.7315216064453125,1.6697051525115967,0.19402563571929932
1772651054387413000,3.3544130859375,3.0516653060913086,0.8645837306976318,-0.020176216959953308
1772651054407167700,3.374167724609375,3.4906139373779297,-0.0661625862121582,-0.430584579706192
1772651054426922500,3.393922607421875,4.314958572387695,-0.7289543151855469,-0.3483918607234955
1772651054446677000,3.413677001953125,4.830740928649902,-1.2288475036621094,0.16190817952156067
1772651054466431700,3.433431640625,4.34626579284668,-1.4831881523132324,0.7562927603721619
1772651054486186500,3.4531865234375,3.2066097259521484,-1.7007524967193604,0.9541673064231873
1772651054505941200,3.472941162109375,2.384831428527832,-1.8291165828704834,0.8624042272567749
1772651054525695700,3.49269580078125,2.0997238159179688,-1.8405094146728516,0.6091582179069519
1772651054545450500,3.512450439453125,1.7696332931518555,-1.8730278015136719,0.15698859095573425
1772651054565205200,3.532205322265625,1.1068315505981445,-1.730600357055664,-0.3892345428466797
1772651054584959700,3.551959716796875,0.26995849609375,-1.394225835800171,-0.8071058988571167
1772651054604700700,3.57170068359375,-0.581268310546875,-0.9330043792724609,-0.9879132509231567
1772651054624469200,3.59146923828125,-1.5815787315368652,-0.4677751064300537,-0.9768496751785278
1772651054644224000,3.61122412109375,-2.5381784439086914,0.07925748825073242,-0.6892067193984985
1772651054663965000,3.63096484375,-3.512754440307617,0.7852720022201538,-0.6062959432601929
1772651054683733200,3.650733154296875,-4.670470237731934,1.148549199104309,-0.731389045715332
1772651054703488000,3.670488037109375,-5.090761184692383,1.1773841381072998,-0.4070638120174408
1772651054723242800,3.69024267578125,-4.796596527099609,1.4195219278335571,-0.04082685708999634
1772651054742997200,3.709997314453125,-4.539168357849121,2.2310030460357666,0.012536406517028809
1772651054762752000,3.729751953125,-4.392122268676758,2.0264415740966797,-0.0009440779685974121
1772651054782506800,3.7495068359375,-4.009641647338867,1.419227957725525,-0.4679935872554779
1772651054802261500,3.769261474609375,-4.042715072631836,1.7588987350463867,-0.47456321120262146
1772651054822016300,3.789016357421875,-4.273532390594482,1.9642925262451172,-0.15715277194976807
1772651054841770800,3.808770751953125,-4.104945659637451,2.2642126083374023,0.3867533504962921
1772651054861525500,3.828525390625,-3.663675308227539,2.466270923614502,1.047650933265686
1772651054881280300,3.8482802734375,-3.07437801361084,2.4197847843170166,1.2166969776153564
1772651054901021200,3.868021240234375,-1.7272024154663086,2.216921806335449,1.1829708814620972
1772651054920789800,3.887789794921875,0.1316547393798828,1.9339457750320435,1.0526957511901855
1772651054940544300,3.907544189453125,1.9427518844604492,1.700895071029663,0.9270179271697998
1772651054960285200,3.92728515625,3.283717155456543,1.346599817276001,0.9659624099731445
1772651054980053800,3.9470537109375,4.205821990966797,0.6114926338195801,0.8954319357872009
1772651054999808500,3.96680859375,5.321813583374023,0.005856990814208984,1.2886344194412231
1772651055019549400,3.986549560546875,6.656774520874023,-0.08870244026184082,2.3346095085144043
1772651055039317800,4.00631787109375,8.855018615722656,0.31954050064086914,2.551156997680664
1772651055059072500,4.026072509765625,10.713398933410645,0.021593093872070312,0.9237183332443237
1772651055078813400,4.0458134765625,10.071920394897461,-0.9606432914733887,-1.4567525386810303
1772651055098582000,4.06558203125,6.022146224975586,-2.2125439643859863,-2.3390514850616455
1772651055118336800,4.085336669921875,1.1546554565429688,-2.481705665588379,-1.6143875122070312
1772651055138077700,4.10507763671875,-1.6571707725524902,-1.670682430267334,0.2816363573074341
1772651055157846000,4.124845947265625,-2.5674734115600586,-0.43747711181640625,2.046886444091797
1772651055177600800,4.144600830078125,-2.152679443359375,0.34147024154663086,2.607758045196533
1772651055197355500,4.16435546875,-1.0748538970947266,0.2608022689819336,1.7260814905166626
1772651055217110300,4.1841103515625,-0.077392578125,-0.29079723358154297,0.11884796619415283
1772651055236865000,4.203864990234375,0.20009422302246094,-0.6787879467010498,-1.2703062295913696
1772651055256606000,4.22360595703125,-0.5570344924926758,-0.5637028217315674,-1.8970160484313965
1772651055276374500,4.24337451171875,-1.918931007385254,-0.024669885635375977,-1.57321035861969
1772651055296129300,4.26312939453125,-3.1662111282348633,0.6310606002807617,-0.7223919630050659
1772651055315870200,4.2828701171875,-4.08463191986084,1.088584542274475,0.0030738115310668945
1772651055335638500,4.302638427734375,-4.86763858795166,1.276423692703247,0.5410493016242981
1772651055355393300,4.322393310546875,-5.494020938873291,1.2504242658615112,0.8663918972015381
1772651055375148000,4.34214794921875,-5.659418106079102,1.2083609104156494,0.9978137016296387
1772651055394902800,4.36190283203125,-4.9535322189331055,1.4545307159423828,1.0719947814941406
1772651055414657500,4.381657470703125,-3.85575008392334,1.6411616802215576,1.0219086408615112
1772651055434412300,4.401412353515625,-3.1513776779174805,1.5447971820831299,0.8029111623764038
1772651055454167000,4.4211669921875,-2.6356353759765625,1.5735633373260498,0.7375831007957458
1772651055473921800,4.440921875,-2.146538257598877,1.8022072315216064,0.827460765838623
1772651055493676500,4.460676513671875,-1.722221851348877,1.8440663814544678,0.5709549188613892
1772651055513431300,4.480431396484375,-1.3239431381225586,1.6021144390106201,0.08635151386260986
1772651055533185800,4.500185791015625,-1.2124052047729492,1.3091377019882202,-0.24854636192321777
1772651055552940500,4.5199404296875,-0.5894403457641602,1.3747013807296753,0.02754032611846924
1772651055572695300,4.5396953125,1.0452051162719727,1.5239521265029907,0.5235773324966431
1772651055592450000,4.559449951171875,2.984283447265625,1.5928014516830444,1.410599946975708
1772651055612191000,4.57919091796875,4.876029014587402,0.9327163696289062,2.2412731647491455
1772651055631959600,4.59895947265625,7.731919288635254,-0.508021354675293,1.9026024341583252
1772651055651714300,4.61871435546875,10.119455337524414,-1.6237168312072754,0.38997340202331543
1772651055671455200,4.638455322265625,11.786486625671387,-1.3217213153839111,-1.093138575553894
1772651055691223800,4.658223876953125,9.286246299743652,-1.1478123664855957,-1.6939489841461182
1772651055710978600,4.677978515625,4.356618881225586,-1.3434832096099854,-1.8552169799804688
1772651055730719500,4.697719482421875,1.2780771255493164,-1.2743477821350098,-1.3827091455459595
1772651055750488000,4.717488037109375,0.17203140258789062,-0.877540111541748,-1.0341194868087769
1772651055770242800,4.737242919921875,0.532313346862793,-0.4498453140258789,-0.8508738279342651
1772651055789997600,4.75699755859375,1.1534433364868164,-0.4920804500579834,-0.9749659299850464
1772651055809752300,4.77675244140625,0.8382387161254883,-0.8631794452667236,-1.3875559568405151
1772651055829507000,4.796507080078125,0.047512054443359375,-0.8667562007904053,-1.6495914459228516
1772651055849248000,4.816248046875,-0.9325551986694336,-0.7407100200653076,-1.728157639503479
1772651055869016600,4.8360166015625,-1.7552475929260254,-0.5835330486297607,-1.586108922958374
1772651055888771000,4.85577099609375,-2.6061153411865234,-0.3755338191986084,-1.3068960905075073
1772651055908512300,4.87551220703125,-3.546266555786133,-0.11248290538787842,-1.0441564321517944
1772651055928280600,4.895280517578125,-4.454061508178711,0.13989508152008057,-0.8609211444854736
1772651055948035300,4.915035400390625,-5.008307456970215,0.28104329109191895,-0.7362648248672485
1772651055967790000,4.9347900390625,-5.227185249328613,0.2611367702484131,-0.8035441637039185
1772651055987544800,4.954544921875,-4.969081878662109,0.13095200061798096,-0.94174724817276
1772651056007299600,4.974299560546875,-4.625232219696045,-0.019427061080932617,-0.9573637247085571
1772651056027054300,4.994054443359375,-4.1755499839782715,-0.09822511672973633,-0.933876097202301
1772651056046809000,5.01380908203125,-3.706861972808838,-0.18130230903625488,-0.9132121801376343
1772651056066563800,5.033563720703125,-3.0109620094299316,-0.2743864059448242,-0.6099441051483154
1772651056086304800,5.0533046875,-1.6658945083618164,-0.346682071685791,-0.3652689456939697
1772651056106073300,5.0730732421875,0.7742214202880859,-0.37331509590148926,-0.3591923713684082
1772651056125828000,5.092828125,2.7517004013061523,-0.7062437534332275,-0.5272661447525024
1772651056145582800,5.112582763671875,1.82879638671875,-1.4662489891052246,-0.47737252712249756
1772651056165337600,5.132337646484375,-0.19251251220703125,-1.3854150772094727,-0.03940773010253906
1772651056185092400,5.15209228515625,-0.09659862518310547,-0.32466578483581543,0.4766273498535156
1772651056204833300,5.171833251953125,2.397247314453125,0.4275858402252197,0.26691579818725586
1772651056224601900,5.191601806640625,5.151585578918457,0.2794351577758789,-0.6051007509231567
1772651056244356600,5.211356689453125,6.640802383422852,-0.5267236232757568,-1.4278342723846436
1772651056264097500,5.23109765625,5.738462448120117,-1.4023122787475586,-2.2267048358917236
1772651056283866000,5.2508662109375,3.630483627319336,-2.233236074447632,-1.690160870552063
1772651056303620900,5.270620849609375,1.8789453506469727,-1.9074900150299072,0.4230163097381592
1772651056323361800,5.29036181640625,1.2948169708251953,-0.8446156978607178,2.6319997310638428
1772651056343130400,5.31013037109375,1.3169431686401367,-0.029864072799682617,3.382108688354492
1772651056362885000,5.329885009765625,1.935969352722168,-0.26677799224853516,2.202986001968384
1772651056382626000,5.3496259765625,2.047750473022461,-1.0405871868133545,0.38222503662109375
1772651056402394600,5.36939453125,1.102574348449707,-1.3198978900909424,-0.7586127519607544
1772651056422149400,5.3891494140625,-0.5252275466918945,-1.1472842693328857,-0.7657936811447144
1772651056441890300,5.408890380859375,-2.0970840454101562,-0.8873372077941895,-0.15451014041900635
1772651056461659000,5.428658935546875,-3.196364402770996,-0.4318656921386719,0.32025837898254395
1772651056481413600,5.44841357421875,-3.52293062210083,-0.012892723083496094,0.6030553579330444
1772651056501168400,5.46816845703125,-3.108705997467041,0.11166524887084961,0.49157190322875977
1772651056520923100,5.487923095703125,-2.440972328186035,0.13142049312591553,0.27023637294769287
1772651056540678000,5.507677978515625,-2.256378173828125,0.10684216022491455,0.03225541114807129
1772651056560432600,5.5274326171875,-2.6748037338256836,-0.07980191707611084,-0.21902787685394287
1772651056580187400,5.5471875,-3.112056255340576,-0.12713634967803955,-0.3864527940750122
1772651056599942100,5.566942138671875,-3.274008274078369,-0.03975355625152588,-0.4028511047363281
1772651056619697000,5.58669677734375,-3.0520544052124023,-0.0068198442459106445,-0.22103917598724365
1772651056639451600,5.60645166015625,-2.4314393997192383,0.05650043487548828,0.039956092834472656
1772651056659206400,5.626206298828125,-1.9532685279846191,0.13965022563934326,0.13723993301391602
1772651056678961200,5.645961181640625,-2.0272064208984375,0.23610544204711914,0.0737454891204834
1772651056698716000,5.6657158203125,-2.079779624938965,0.28543806076049805,-0.06285691261291504
1772651056718470700,5.685470703125,-1.6838431358337402,0.22472023963928223,-0.0223233699798584
1772651056738225400,5.705225341796875,-1.4527559280395508,-0.008405447006225586,-0.2330162525177002
1772651056757980200,5.724980224609375,-2.0556554794311523,-0.7210965156555176,-0.4645630121231079
1772651056777735000,5.74473486328125,-2.6995534896850586,-2.0047028064727783,-0.44320929050445557
1772651056797475800,5.764475830078125,-1.2651972770690918,-3.216653823852539,-0.18125534057617188
1772651056817244400,5.784244384765625,2.0838422775268555,-3.5615482330322266,-0.12745428085327148
1772651056836999200,5.803999267578125,6.311612129211426,-3.755703926086426,-0.8658901453018188
1772651056856740000,5.823739990234375,8.608570098876953,-4.4886932373046875,-2.1150691509246826
1772651056876508700,5.8435087890625,7.6801347732543945,-5.3832855224609375,-3.519868850708008
1772651056896263400,5.863263427734375,5.993976593017578,-5.516234397888184,-3.7217109203338623
1772651056916018200,5.88301806640625,5.107931137084961,-4.334742069244385,-2.459871768951416
1772651056935773000,5.90277294921875,3.8079614639282227,-2.8759355545043945,-1.464300513267517
1772651056955527700,5.922527587890625,2.365389823913574,-1.9094479084014893,-1.2841120958328247
1772651056975268600,5.9422685546875,1.4868335723876953,-1.583378553390503,-1.586927890777588
1772651056995037200,5.962037109375,0.8517513275146484,-1.5246477127075195,-1.8481812477111816
1772651057014792000,5.9817919921875,0.5598583221435547,-1.442431926727295,-1.9470312595367432
1772651057034546700,6.001546630859375,0.5251684188842773,-1.4010655879974365,-1.8042805194854736
1772651057054301400,6.021301513671875,0.4773893356323242,-1.2260396480560303,-1.445683479309082
1772651057074056200,6.04105615234375,-0.1900949478149414,-1.0706738233566284,-1.1624394655227661
1772651057093811000,6.06081103515625,-1.0919036865234375,-0.9794628620147705,-1.1181691884994507
1772651057113565700,6.080565673828125,-1.9849023818969727,-0.8597104549407959,-1.1303049325942993
1772651057133320400,6.100320556640625,-2.799466609954834,-0.7822239398956299,-1.0706751346588135
1772651057153075200,6.1200751953125,-3.180150032043457,-0.7256268262863159,-1.1834259033203125
1772651057172830000,6.139829833984375,-3.4701719284057617,-0.7837904691696167,-1.3596608638763428
1772651057192584700,6.159584716796875,-3.8188562393188477,-0.7030624151229858,-1.4015653133392334
1772651057212339500,6.17933935546875,-4.156130313873291,-0.6326949596405029,-1.3968696594238281
1772651057232094200,6.19909423828125,-4.614138603210449,-0.5557274222373962,-1.4293640851974487
1772651057251849000,6.218848876953125,-5.08042049407959,-0.4865984320640564,-1.4487144947052002
1772651057271603700,6.238603759765625,-4.8419623374938965,-0.8052635788917542,-1.3089358806610107
1772651057291358500,6.2583583984375,-3.6429309844970703,-0.9208283424377441,-0.9805946350097656
1772651057311113200,6.27811328125,-1.4656009674072266,-0.7571731805801392,-0.4360818862915039
1772651057330854100,6.297854248046875,0.5054349899291992,-0.6944000720977783,-0.23267042636871338
1772651057350622700,6.317622802734375,1.4797239303588867,-0.8123718500137329,-0.5790343284606934
1772651057370377500,6.33737744140625,0.5935964584350586,-1.5004589557647705,-0.49805891513824463
1772651057390132200,6.35713232421875,0.08991718292236328,-1.4877032041549683,-0.17060065269470215
1772651057409887000,6.376886962890625,1.087148666381836,-1.0371601581573486,-0.28371739387512207
1772651057429641700,6.396641845703125,2.6181821823120117,-1.0510814189910889,-0.8290033340454102
1772651057449382700,6.416382568359375,3.4331703186035156,-1.668123483657837,-1.0858279466629028
1772651057469151200,6.436151123046875,2.973539352416992,-2.1418702602386475,-0.6560122966766357
1772651057488906000,6.455906005859375,2.280597686767578,-2.066371440887451,0.4200648069381714
1772651057508660700,6.47566064453125,2.6812963485717773,-2.0354268550872803,1.1282551288604736
1772651057528415500,6.49541552734375,4.087959289550781,-2.5230190753936768,0.978063702583313
1772651057548170200,6.515170166015625,5.052234649658203,-3.059142827987671,0.5017275810241699
1772651057567925000,6.534925048828125,4.557031631469727,-3.2184228897094727,0.21200549602508545
1772651057587679700,6.5546796875,2.802372932434082,-2.933009624481201,0.22326815128326416
1772651057607434500,6.5744345703125,0.7195034027099609,-2.443459987640381,0.4342801570892334
1772651057627175400,6.594175537109375,-0.963348388671875,-1.8923012018203735,0.7045767307281494
1772651057646943700,6.61394384765625,-2.0770797729492188,-1.4297981262207031,1.0482614040374756
1772651057666698500,6.633698486328125,-2.7925400733947754,-1.2321991920471191,1.2749744653701782
1772651057686453200,6.653453369140625,-2.855360984802246,-0.9365968704223633,1.2600010633468628
1772651057706208000,6.6732080078125,-2.7413644790649414,-0.5531684160232544,1.2055726051330566
1772651057725962800,6.692962646484375,-2.729605197906494,-0.3584737777709961,0.9397598505020142
1772651057745717500,6.712717529296875,-2.961611747741699,-0.5345990061759949,0.5610960721969604
1772651057765472300,6.73247216796875,-3.4531660079956055,-0.746484637260437,0.41186004877090454
1772651057785227000,6.75222705078125,-3.7657361030578613,-0.5752999186515808,0.5848730206489563
1772651057804981800,6.771981689453125,-3.5826892852783203,-0.256692111492157,0.8231085538864136
1772651057824736500,6.791736572265625,-2.977353572845459,0.03515052795410156,1.0128870010375977
1772651057844491300,6.8114912109375,-2.5074353218078613,0.41699355840682983,1.1722567081451416
1772651057864246000,6.83124609375,-2.428609848022461,0.6880073547363281,1.2205827236175537
1772651057884000800,6.851000732421875,-2.693966865539551,0.6910394430160522,0.698584794998169
1772651057903755500,6.870755615234375,-2.9292454719543457,0.6173631548881531,0.009669780731201172
1772651057923510300,6.89051025390625,-2.6183929443359375,0.6002246141433716,-0.3143646717071533
1772651057943265000,6.91026513671875,-1.7775325775146484,0.6253558993339539,-0.17842185497283936
1772651057963019800,6.930019775390625,-0.6751251220703125,0.6613628268241882,0.28036367893218994
1772651057982760700,6.9497607421875,0.9076681137084961,0.6219688057899475,0.618468165397644
1772651058002529300,6.969529296875,2.7041091918945312,0.434877872467041,0.6197603940963745
1772651058022283800,6.98928369140625,3.6175060272216797,-0.3219015598297119,0.7610282897949219
1772651058042025000,7.00902490234375,3.9791688919067383,-1.1003453731536865,0.8221964836120605
1772651058061793300,7.028793212890625,4.647927284240723,-1.537197470664978,0.8265488147735596
1772651058081548000,7.048548095703125,6.205384254455566,-1.330310583114624,0.63173508644104
1772651058101289000,7.0682890625,7.801093101501465,-1.037052869796753,-0.09178304672241211
1772651058121057500,7.0880576171875,6.187461853027344,-1.4515639543533325,-1.0593374967575073
1772651058140812300,7.107812255859375,2.598870277404785,-1.9189531803131104,-1.0434951782226562
1772651058160553200,7.12755322265625,-0.2782611846923828,-1.930445671081543,-0.5315744876861572
1772651058180321800,7.14732177734375,-1.574821949005127,-1.6383808851242065,0.36802875995635986
1772651058200076500,7.16707666015625,-1.0882978439331055,-1.1369813680648804,0.7314275503158569
1772651058219831300,7.186831298828125,0.45411205291748047,-1.1584304571151733,0.377530574798584
1772651058239586000,7.2065859375,1.2061042785644531,-1.6070096492767334,-0.5094512701034546
1772651058259340800,7.2263408203125,0.47605323791503906,-2.0024266242980957,-1.1481468677520752
1772651058279081700,7.246081787109375,-0.8377819061279297,-1.9947354793548584,-1.304054617881775
1772651058298850000,7.26585009765625,-1.974471092224121,-1.4962215423583984,-0.9501081705093384
1772651058318604800,7.285604736328125,-2.9714484214782715,-0.9371335506439209,-0.529294490814209
1772651058338345700,7.305345703125,-4.045862674713135,-0.6412798762321472,-0.4024094343185425
1772651058358114300,7.3251142578125,-4.6100077629089355,-0.42058220505714417,-0.36189472675323486
1772651058377869000,7.344869140625,-4.504189491271973,-0.1999284029006958,-0.25298166275024414
1772651058397623800,7.364623779296875,-4.120682716369629,-0.29071924090385437,-0.3226909637451172
1772651058417378600,7.384378662109375,-3.8173017501831055,-0.4964774549007416,-0.34727418422698975
1772651058437133300,7.40413330078125,-3.6983304023742676,-0.512231171131134,-0.22968530654907227
1772651058456888000,7.42388818359375,-3.4501609802246094,-0.5904369354248047,-0.09358417987823486
1772651058476642800,7.443642822265625,-2.901196002960205,-0.7222039699554443,-0.11225271224975586
1772651058496397600,7.4633974609375,-2.3073644638061523,-0.7860205173492432,-0.22296011447906494
1772651058516152000,7.483152099609375,-1.9338817596435547,-0.758865475654602,-0.22263574600219727
1772651058535906800,7.50290673828125,-1.638026237487793,-0.746619701385498,0.06717383861541748
1772651058555661600,7.52266162109375,-1.1719560623168945,-0.8701193332672119,0.4264339208602905
1772651058575402500,7.542402587890625,-0.17584991455078125,-1.393144965171814,0.9688301086425781
1772651058595171000,7.562171142578125,1.420271873474121,-1.8055987358093262,1.867281436920166
1772651058614925800,7.58192578125,3.1453590393066406,-1.713688611984253,2.346860647201538
1772651058634666800,7.601666748046875,4.371615409851074,-1.4840346574783325,1.9772343635559082
1772651058654435300,7.621435302734375,5.759707450866699,-1.5887603759765625,1.288654088973999
1772651058674189800,7.64118994140625,6.606614112854004,-1.8040729761123657,0.6316111087799072
1772651058693944600,7.660944580078125,6.9855451583862305,-1.8773634433746338,0.20075440406799316
1772651058713699300,7.68069921875,5.984344482421875,-1.5102267265319824,0.651540994644165
1772651058733454000,7.7004541015625,3.4437332153320312,-1.2857224941253662,1.939258098602295
1772651058753195000,7.720195068359375,0.32825279235839844,-1.0549578666687012,2.8545539379119873
1772651058772963600,7.739963623046875,-1.95953369140625,-0.569139838218689,3.7769832611083984
1772651058792718300,7.75971826171875,-3.0224361419677734,-0.09931206703186035,3.8629586696624756
1772651058812473000,7.77947314453125,-2.4765114784240723,-0.3145484924316406,3.192195415496826
1772651058832227600,7.7992275390625,-1.3634567260742188,-0.9181351661682129,1.718926191329956
1772651058851982300,7.818982421875,-0.9880409240722656,-1.2790586948394775,0.394472599029541
1772651058871723300,7.83872314453125,-1.5730009078979492,-1.1278936862945557,-0.03161191940307617
1772651058891491800,7.858491943359375,-2.5371475219726562,-0.6566361784934998,0.24810326099395752
1772651058911246600,7.87824658203125,-3.230441093444824,-0.11129868030548096,0.7328593730926514
1772651058931001300,7.89800146484375,-3.480919361114502,0.2847862243652344,0.9732025861740112
1772651058950756000,7.917756103515625,-3.286396026611328,0.2798640727996826,0.7671856880187988
1772651058970510600,7.937510498046875,-3.150300979614258,-0.06846892833709717,0.3184969425201416
1772651058990265300,7.957265380859375,-3.1658501625061035,-0.3930426836013794,-0.03916144371032715
1772651059010020000,7.97702001953125,-3.0479297637939453,-0.2330930233001709,-0.022230148315429688
1772651059029774800,7.99677490234375,-2.7947616577148438,0.1951717734336853,0.15367722511291504
1772651059049529600,8.016529541015625,-2.5816102027893066,0.40672212839126587,0.06554901599884033
1772651059069284400,8.036284423828125,-2.1773972511291504,0.41310566663742065,-0.04141688346862793
1772651059089038800,8.056038818359376,-1.5413150787353516,0.49271076917648315,-0.09772074222564697
1772651059108779800,8.07577978515625,-0.5199928283691406,0.6512866020202637,-0.24689054489135742
1772651059128548400,8.09554833984375,0.506779670715332,0.6987982988357544,-0.3735252618789673
1772651059148303000,8.11530322265625,0.7961311340332031,0.7934948801994324,-0.31605058908462524
1772651059168057900,8.135057861328125,0.5721340179443359,0.8852301239967346,-0.26015400886535645
1772651059187812600,8.1548125,0.29151153564453125,0.8306258320808411,-0.2791476845741272
1772651059207567400,8.1745673828125,0.3330659866333008,0.8468474745750427,-0.24530959129333496
1772651059227321900,8.19432177734375,0.6921510696411133,0.9855571985244751,0.1007012128829956
1772651059247076600,8.21407666015625,0.6475019454956055,0.5887712836265564,1.085159420967102
1772651059266831400,8.233831298828125,1.3778305053710938,-0.33517444133758545,1.4323790073394775
1772651059286572300,8.253572265625,3.5945253372192383,-1.1228702068328857,1.0164793729782104
1772651059306340600,8.273340576171876,5.588600158691406,-2.023905038833618,0.575430154800415
1772651059326095400,8.293095458984375,6.473482131958008,-2.4411211013793945,-0.45614922046661377
1772651059345836300,8.312836181640625,4.758275985717773,-2.6745100021362305,-1.2556602954864502
1772651059365604900,8.33260498046875,1.494283676147461,-2.4086904525756836,-1.220956563949585
1772651059385359600,8.352359619140625,-0.8072299957275391,-2.030879497528076,-0.7454179525375366
1772651059405100500,8.3721005859375,-1.68267822265625,-1.8411805629730225,-0.29734063148498535
1772651059424868900,8.391868896484375,-0.9936590194702148,-1.6270077228546143,0.039255619049072266
1772651059444623600,8.41162353515625,0.5034141540527344,-1.5149093866348267,-0.08858156204223633
1772651059464378400,8.43137841796875,1.282461166381836,-1.8062669038772583,-0.6013326644897461
1772651059484133000,8.451133056640625,1.3417816162109375,-1.987439513206482,-1.2168817520141602
1772651059503888000,8.470887939453124,1.0427675247192383,-1.9645881652832031,-1.481224775314331
1772651059523642600,8.490642578125,0.2694435119628906,-1.5599994659423828,-1.333597183227539
1772651059543397000,8.510397216796875,-0.7830371856689453,-1.0943371057510376,-0.9946045875549316
1772651059563152000,8.53015185546875,-1.5431604385375977,-0.7095205783843994,-0.5932453870773315
1772651059582892800,8.549892822265624,-2.2846951484680176,-0.3962264060974121,-0.5769093036651611
1772651059602661400,8.569661376953125,-3.236795425415039,-0.03855299949645996,-0.5970860719680786
1772651059622416000,8.589415771484376,-4.17922306060791,0.6340028643608093,-0.36025509238243103
1772651059642170600,8.609170654296875,-4.473160266876221,0.9294881224632263,0.1367700695991516
1772651059661925400,8.62892529296875,-3.3528528213500977,0.8125139474868774,0.3141123652458191
1772651059681680100,8.64868017578125,-1.9786972999572754,0.7481946349143982,-0.1036185622215271
