time,seconds_elapsed,z,y,x
1772651051240241200,0.2072412109375,1.1957335472106934,0.025808297097682953,0.3184041380882263
1772651051250118400,0.217118408203125,1.110520362854004,0.017714571207761765,0.2664821147918701
1772651051259995600,0.22699560546875,1.0318737030029297,0.014507622458040714,0.21394924819469452
1772651051269873000,0.236872802734375,0.957503080368042,0.017409147694706917,0.1563768982887268
1772651051279750100,0.246750244140625,0.8904625773429871,0.022754060104489326,0.09452861547470093
1772651051289627400,0.25662744140625,0.8252546191215515,0.018783552572131157,0.033291175961494446
1772651051299505000,0.2665048828125,0.7667660117149353,0.014965757727622986,-0.020005248486995697
1772651051309382100,0.276382080078125,0.7214106321334839,0.01588202826678753,-0.055587101727724075
1772651051319259400,0.28625927734375,0.6844543814659119,0.020463382825255394,-0.07330167293548584
1772651051329136600,0.29613671875,0.6592568755149841,0.037567105144262314,-0.07269082218408585
1772651051339014000,0.306013916015625,0.6401679515838623,0.07452336698770523,-0.058183200657367706
1772651051348891100,0.31589111328125,0.6281036734580994,0.13591352105140686,-0.033443886786699295
1772651051358768600,0.3257685546875,0.6195518374443054,0.21272756159305573,-0.010537114925682545
1772651051368646000,0.33564599609375,0.6097782850265503,0.2832804024219513,-0.0010689827613532543
1772651051388400400,0.355400390625,0.6026008129119873,0.3761292099952698,-0.023059483617544174
1772651051398277600,0.365277587890625,0.6022953987121582,0.3900259733200073,-0.051922015845775604
1772651051408155000,0.37515478515625,0.6036698222160339,0.3901786804199219,-0.09055810421705246
1772651051418032400,0.385032470703125,0.6033644080162048,0.3883461356163025,-0.13530266284942627
1772651051427909600,0.39490966796875,0.5957288146018982,0.36574479937553406,-0.18050536513328552
1772651051437787000,0.404786865234375,0.5929799675941467,0.3101576864719391,-0.22005772590637207
1772651051447664000,0.4146640625,0.5928272604942322,0.23212195932865143,-0.24785128235816956
1772651051457541400,0.424541259765625,0.5854970812797546,0.16645587980747223,-0.2560977041721344
1772651051467418600,0.434418701171875,0.5748072862625122,0.15805672109127045,-0.24067382514476776
1772651051477296000,0.444296142578125,0.5686988234519958,0.19027891755104065,-0.20096874237060547
1772651051487173400,0.45417333984375,0.5682406425476074,0.2047865390777588,-0.16431790590286255
1772651051497050600,0.464050537109375,0.5601469278335571,0.17180079221725464,-0.1635543555021286
1772651051506927900,0.473927978515625,0.5303681492805481,0.10995250940322876,-0.20600824058055878
1772651051516805000,0.48380517578125,0.47294849157333374,0.05803048983216286,-0.28786176443099976
1772651051526682600,0.4936826171875,0.39506545662879944,0.04443913698196411,-0.4022429287433624
1772651051536559900,0.503559814453125,0.31137940287590027,0.05864133685827255,-0.5346440672874451
1772651051546437000,0.51343701171875,0.2363978922367096,0.07070557028055191,-0.6438329815864563
1772651051556300500,0.523300537109375,0.16004198789596558,0.09071081876754761,-0.7026270627975464
1772651051566191600,0.533191650390625,0.051616594195365906,0.0988045409321785,-0.7313368916511536
1772651051576068900,0.54306884765625,-0.072843536734581,0.0781884491443634,-0.7476770281791687
1772651051585932500,0.5529326171875,-0.17302247881889343,0.010537114925682545,-0.7588250041007996
1772651051595823600,0.56282373046875,-0.21883602440357208,-0.08628217875957489,-0.7502731680870056
1772651051605700900,0.572700927734375,-0.19470755755901337,-0.12720894813537598,-0.6838434934616089
1772651051615564300,0.582564208984375,-0.10246963053941727,-0.06978929787874222,-0.548082709312439
1772651051625455400,0.592455322265625,0.037567105144262314,0.05894676223397255,-0.36452311277389526
1772651051635332600,0.60233251953125,0.21471281349658966,0.2151709496974945,-0.17057909071445465
1772651051645210000,0.612210205078125,0.4211791753768921,0.363454133272171,0.01175880990922451
1772651051655087400,0.62208740234375,0.6503996253013611,0.4587462842464447,0.16844113171100616
1772651051664964600,0.631964599609375,0.8777875304222107,0.4746283292770386,0.3011476993560791
1772651051674828000,0.641828125,1.0741748809814453,0.41140562295913696,0.4133908748626709
1772651051684719000,0.651718994140625,1.2154333591461182,0.2958027720451355,0.5120427012443542
1772651051694596400,0.661596435546875,1.2948434352874756,0.1766875684261322,0.5934380888938904
1772651051704460000,0.6714599609375,1.3232479095458984,0.0844496339559555,0.6587987542152405
1772651051714351000,0.68135107421875,1.3153069019317627,0.007788302376866341,0.7088882327079773
1772651051724228400,0.691228271484375,1.288735032081604,-0.045202698558568954,0.753480076789856
1772651051734091800,0.701091796875,1.2526949644088745,-0.07345438003540039,0.7983773946762085
1772651051743982800,0.71098291015625,1.2097829580307007,-0.08108997344970703,0.8310576677322388
1772651051753860000,0.720860107421875,1.1708414554595947,-0.07482878863811493,0.8481613993644714
1772651051763723800,0.730723876953125,1.1322053670883179,-0.059710320085287094,0.8402203917503357
1772651051773614800,0.74061474609375,1.0963181257247925,-0.04489727318286896,0.80280601978302
1772651051783492000,0.7504921875,1.0534061193466187,-0.02733541466295719,0.7389724850654602
1772651051793355500,0.76035546875,1.002553105354309,-0.015576604753732681,0.649483323097229
1772651051803246600,0.77024658203125,0.939483106136322,-0.02351761981844902,0.5477772951126099
1772651051813123800,0.780123779296875,0.8690829277038574,-0.043828289955854416,0.4443913698196411
1772651051822987500,0.789987548828125,0.7918107509613037,-0.07513421028852463,0.3495573401451111
1772651051832878600,0.799878662109375,0.710262656211853,-0.111632339656353,0.2683146595954895
1772651051842755800,0.809755859375,0.6207735538482666,-0.14080029726028442,0.19806721806526184
1772651051852633000,0.819633056640625,0.5286883115768433,-0.14965757727622986,0.13331741094589233
1772651051862510300,0.82951025390625,0.4462239146232605,-0.13774605095386505,0.062306419014930725
1772651051872387600,0.8393876953125,0.3805578351020813,-0.10827267915010452,-0.018783552572131157
1772651051882265000,0.84926513671875,0.33352261781692505,-0.0787992998957634,-0.11942064017057419
1772651051892142300,0.859142333984375,0.30007871985435486,-0.06245913356542587,-0.23303823173046112
1772651051902019600,0.86901953125,0.27091076970100403,-0.07314895838499069,-0.35856732726097107
1772651051911896800,0.878896728515625,0.2539597451686859,-0.11606097966432571,-0.4772244095802307
1772651051921774000,0.888774169921875,0.24586601555347443,-0.182643324136734,-0.5639647245407104
1772651051931651600,0.898651611328125,0.2545706033706665,-0.2438807636499405,-0.6132906675338745
1772651051941528800,0.90852880859375,0.2851129472255707,-0.3274141252040863,-0.6337540149688721
1772651051951406000,0.918406005859375,0.32909396290779114,-0.45294323563575745,-0.6459710001945496
1772651051961283300,0.928283447265625,0.36605021357536316,-0.6184828281402588,-0.6580352187156677
1772651051971160600,0.93816064453125,0.390942245721817,-0.7875348329544067,-0.6577298045158386
1772651051981037800,0.948037841796875,0.38605546951293945,-0.8909206986427307,-0.6381826996803284
1772651051990915300,0.957915283203125,0.35474956035614014,-0.9089407324790955,-0.6097782850265503
1772651052000778800,0.96777880859375,0.32726141810417175,-0.9022213816642761,-0.6079457402229309
1772651052010669800,0.977669921875,0.32634514570236206,-0.9199360013008118,-0.6569662094116211
1772651052020547000,0.987547119140625,0.3361186981201172,-1.0104941129684448,-0.7620319724082947
1772651052030410500,0.997410400390625,0.3364241421222687,-1.1566393375396729,-0.8855758309364319
1772651052040301600,1.007301513671875,0.3455868363380432,-1.2823210954666138,-0.9628480076789856
1772651052050179000,1.017178955078125,0.36253786087036133,-1.3091983795166016,-0.9491039514541626
1772651052060042500,1.02704248046875,0.39201122522354126,-1.2238324880599976,-0.8356390595436096
1772651052069933600,1.03693359375,0.43950459361076355,-1.03828763961792,-0.6337540149688721
1772651052079810800,1.046810791015625,0.4679090082645416,-0.6299362182617188,-0.33199548721313477
1772651052089674500,1.056674560546875,0.4540122151374817,-0.07727217674255371,0.045355409383773804
1772651052099565300,1.0665654296875,0.4750864505767822,0.28602921962738037,0.36101073026657104
1772651052109442800,1.07644287109375,0.5920637249946594,0.3834593594074249,0.5123481154441833
1772651052119306200,1.08630615234375,0.7446228265762329,0.3808632791042328,0.5213581323623657
1772651052129197300,1.096197265625,0.8496885299682617,0.29351210594177246,0.430341899394989
1772651052139074600,1.106074462890625,0.8799254894256592,0.13774605095386505,0.29626092314720154
1772651052148938200,1.115938232421875,0.8356390595436096,-0.05803048983216286,0.1710372269153595
1772651052158829000,1.1258291015625,0.7166765332221985,-0.2536543309688568,0.07727217674255371
1772651052168706600,1.13570654296875,0.5453338623046875,-0.37139514088630676,0.027182703837752342
1772651052178583800,1.145583740234375,0.3561239540576935,-0.3686463236808777,0.021226942539215088
1772651052188461000,1.1554609375,0.19058434665203094,-0.2761029601097107,0.04993676394224167
1772651052198338300,1.16533837890625,0.09055810421705246,-0.12201674282550812,0.10430216789245605
1772651052208215600,1.175215576171875,0.06123743951320648,0.07482878863811493,0.1707318127155304
1772651052218092800,1.1850927734375,0.07773031294345856,0.293664813041687,0.23212195932865143
1772651052227970300,1.19497021484375,0.12155860662460327,0.5184566378593445,0.2754921019077301
1772651052237833700,1.204833740234375,0.17958909273147583,0.7227849960327148,0.2964136302471161
1772651052247724800,1.214724853515625,0.2351761907339096,0.8907679915428162,0.2985515892505646
1772651052257602000,1.22460205078125,0.2754921019077301,0.9953756332397461,0.27091076970100403
1772651052267465700,1.2344658203125,0.2930539846420288,1.024238109588623,0.23028941452503204
1772651052277356500,1.2443564453125,0.28572380542755127,0.9894198179244995,0.1844758689403534
1772651052287234000,1.254234130859375,0.25502872467041016,0.9049702286720276,0.13713520765304565
1772651052297097500,1.264097412109375,0.20035789906978607,0.776692271232605,0.08521319180727005
1772651052306988500,1.273988525390625,0.12812520563602448,0.6204680800437927,0.03405473381280899
1772651052316865800,1.28386572265625,0.05482354015111923,0.4622586667537689,-0.016645587980747223
1772651052326743000,1.293742919921875,-0.006413896102458239,0.3214583694934845,-0.05925218388438225
1772651052336620500,1.30362060546875,-0.04459185153245926,0.20509196817874908,-0.0984991192817688
1772651052346497800,1.313497802734375,-0.06413896381855011,0.11590826511383057,-0.1322484314441681
1772651052356375000,1.323375,-0.06810946762561798,0.05543438717722893,-0.1632489264011383
1772651052366252300,1.333252197265625,-0.05986303091049194,0.01725643500685692,-0.19180603325366974
1772651052376129500,1.343129638671875,-0.049020491540431976,-0.007177455350756645,-0.21990501880645752
1772651052386007000,1.353007080078125,-0.049020491540431976,-0.025808297097682953,-0.24372805655002594
1772651052395884300,1.36288427734375,-0.06917845457792282,-0.04367557913064957,-0.2602209448814392
1772651052405761500,1.372761474609375,-0.10430216789245605,-0.06154286116361618,-0.2582356929779053
1772651052415638800,1.382638671875,-0.15149012207984924,-0.08399149775505066,-0.2408265322446823
1772651052425516000,1.39251611328125,-0.19501298666000366,-0.11025793105363846,-0.2148655205965042
1772651052435393300,1.402393310546875,-0.23349636793136597,-0.1429382562637329,-0.1889045089483261
1772651052445270800,1.412270751953125,-0.2707580327987671,-0.17913095653057098,-0.1751604527235031
1772651052455148000,1.42214794921875,-0.31199023127555847,-0.20661908388137817,-0.16630317270755768
1772651052465025300,1.432025390625,-0.3581092059612274,-0.22066856920719147,-0.16065283119678497
1772651052474902500,1.441902587890625,-0.40987852215766907,-0.22311195731163025,-0.1495048701763153
1772651052484779800,1.45177978515625,-0.46241137385368347,-0.21196399629116058,-0.13484452664852142
1772651052494657000,1.461656982421875,-0.51341712474823,-0.16660858690738678,-0.11911521852016449
1772651052504534500,1.471534423828125,-0.5708367824554443,-0.08811471611261368,-0.11086877435445786
1772651052514411800,1.481411865234375,-0.6366555690765381,0.01588202826678753,-0.11865708231925964
1772651052524289000,1.4912890625,-0.7110261917114258,0.15683503448963165,-0.14996300637722015
1772651052534166300,1.501166259765625,-0.7889092564582825,0.3336753249168396,-0.20722992718219757
1772651052544043500,1.51104345703125,-0.8732061386108398,0.48928865790367126,-0.30191126465797424
1772651052553920800,1.520920654296875,-0.9568922519683838,0.5567872524261475,-0.45416492223739624
1772651052563798300,1.53079833984375,-1.0569185018539429,0.5448757410049438,-0.6604785919189453
1772651052573675500,1.540675537109375,-1.1853491067886353,0.46577104926109314,-0.9217684864997864
1772651052583552800,1.550552734375,-1.3502779006958008,0.3432961702346802,-1.213906168937683
1772651052593416200,1.560416259765625,-1.53047776222229,0.21532365679740906,-1.455190896987915
1772651052603307300,1.570307373046875,-1.6917414665222168,0.07666133344173431,-1.552315592765808
1772651052613184800,1.580184814453125,-1.7819942235946655,-0.022906772792339325,-1.4603830575942993
1772651052623048200,1.590048095703125,-1.7781764268875122,-0.050547610968351364,-1.1879452466964722
1772651052632939300,1.599939208984375,-1.6761648654937744,-0.00519220158457756,-0.7756233215332031
1772651052642816500,1.60981640625,-1.4851224422454834,0.051616594195365906,-0.2973299026489258
1772651052652680000,1.619679931640625,-1.2157387733459473,-0.014202198944985867,0.13682979345321655
1772651052662571300,1.6295712890625,-0.8892409205436707,-0.22815145552158356,0.4416425824165344
1772651052672448500,1.639448486328125,-0.543195903301239,-0.44255882501602173,0.6091674566268921
1772651052682312000,1.64931201171875,-0.21654535830020905,-0.5865660905838013,0.6554391384124756
1772651052692203000,1.659203125,0.032069481909275055,-0.6562026739120483,0.5978667736053467
1772651052702080300,1.669080322265625,0.16156910359859467,-0.6604785919189453,0.4695888161659241
1772651052711944000,1.67894384765625,0.16737215220928192,-0.5874823331832886,0.3164188861846924
1772651052721835000,1.6888349609375,0.06948387622833252,-0.448361873626709,0.16737215220928192
1772651052731712300,1.698712158203125,-0.0725381150841713,-0.28602921962738037,0.031916771084070206
1772651052741589500,1.708589599609375,-0.18493400514125824,-0.1423274129629135,-0.07681404054164886
1772651052751466800,1.718466796875,-0.2157817929983139,-0.025350160896778107,-0.130721315741539
1772651052761344000,1.728343994140625,-0.16156910359859467,0.07085828483104706,-0.09208522737026215
1772651052771207700,1.738207763671875,-0.033443886786699295,0.14935214817523956,0.057114217430353165
1772651052781098800,1.7480986328125,0.15408621728420258,0.21791976690292358,0.2912214398384094
1772651052790976000,1.75797607421875,0.3762819170951843,0.2635805904865265,0.555565595626831
1772651052800839400,1.76783935546875,0.5937435626983643,0.27152159810066223,0.7901309132575989
1772651052810730500,1.77773046875,0.7768449783325195,0.24189551174640656,0.9542961120605469
1772651052820607700,1.787607666015625,0.9135220646858215,0.1835595965385437,1.0286667346954346
1772651052830471400,1.797471435546875,1.0045382976531982,0.09407047927379608,1.0118684768676758
1772651052840362500,1.807362548828125,1.055696725845337,-0.02092151902616024,0.927724301815033
1772651052850239700,1.81723974609375,1.0639432668685913,-0.15271180868148804,0.8052493929862976
1772651052860103200,1.827103271484375,1.035996913909912,-0.2870981991291046,0.6791094541549683
1772651052869994500,1.836994384765625,0.9852966070175171,-0.4337015450000763,0.5696150660514832
1772651052879871700,1.846871826171875,0.9287932515144348,-0.59023118019104,0.49020493030548096
1772651052889749000,1.8567490234375,0.8871029615402222,-0.7348492741584778,0.44255882501602173
1772651052899626200,1.866626220703125,0.8568660020828247,-0.8437327742576599,0.41445985436439514
1772651052909503500,1.87650341796875,0.8396095633506775,-0.9009997248649597,0.39445462822914124
1772651052919380700,1.886380615234375,0.846939742565155,-0.9089407324790955,0.3840702176094055
1772651052929258200,1.89625830078125,0.869846522808075,-0.8857285380363464,0.3778090178966522
1772651052939135500,1.906135498046875,0.9011524319648743,-0.8582404255867004,0.3709369897842407
1772651052949012700,1.9160126953125,0.938872218132019,-0.8403730988502502,0.3683409094810486
1772651052958890000,1.925889892578125,0.9843803644180298,-0.8200624585151672,0.3718532621860504
1772651052968767200,1.935767333984375,1.0390511751174927,-0.7960866689682007,0.3709369897842407
1772651052978644700,1.945644775390625,1.0960127115249634,-0.7705838084220886,0.3474193811416626
1772651052988522000,1.95552197265625,1.1435060501098633,-0.7547017931938171,0.284196674823761
1772651052998399200,1.965399169921875,1.1706887483596802,-0.7513421177864075,0.18966807425022125
1772651053008276500,1.9752763671875,1.165496587753296,-0.7663078904151917,0.0647498071193695
1772651053018153700,1.98515380859375,1.1195303201675415,-0.8270871639251709,-0.09376505762338638
1772651053028031200,1.99503125,1.0416473150253296,-0.9393303990364075,-0.2635805904865265
1772651053037894700,2.004894775390625,0.9591829180717468,-1.0581401586532593,-0.4088095426559448
1772651053047785700,2.01478564453125,0.8898517489433289,-1.1610679626464844,-0.5099047422409058
1772651053057663000,2.0246630859375,0.846939742565155,-1.2618577480316162,-0.5705313682556152
1772651053067526700,2.034526611328125,0.8380824327468872,-1.3828054666519165,-0.5937435626983643
1772651053077417700,2.044417724609375,0.8591566681861877,-1.5124578475952148,-0.5809157490730286
1772651053087295000,2.054294921875,0.9095515608787537,-1.6071391105651855,-0.5099047422409058
1772651053097158400,2.064158447265625,0.9903361201286316,-1.6260753870010376,-0.365286648273468
1772651053107049500,2.074049560546875,1.0911259651184082,-1.5801091194152832,-0.15530791878700256
1772651053116927000,2.083927001953125,1.1884033679962158,-1.5234531164169312,0.07238540053367615
1772651053126790400,2.093790283203125,1.2349804639816284,-1.5184135437011719,0.23349636793136597
1772651053136681500,2.103681396484375,1.2024527788162231,-1.5878974199295044,0.2658712565898895
1772651053146558700,2.113558837890625,1.0975397825241089,-1.6786082983016968,0.17454960942268372
1772651053156436000,2.12343603515625,0.9439117312431335,-1.7193822860717773,-0.0022906772792339325
1772651053166313500,2.1333134765625,0.7886037826538086,-1.669140100479126,-0.1820324808359146
1772651053176190700,2.143190673828125,0.6658235192298889,-1.498713731765747,-0.2698417901992798
1772651053186054100,2.15305419921875,0.6076403260231018,-1.1633585691452026,-0.17531315982341766
1772651053195945200,2.1629453125,0.634364902973175,-0.645818293094635,0.12171131372451782
1772651053205822700,2.17282275390625,0.7391251921653748,-0.008551862090826035,0.5473191738128662
1772651053215686100,2.18268603515625,0.9142856597900391,0.5971031785011292,0.9785773158073425
1772651053225577200,2.1925771484375,1.141215443611145,1.0054545402526855,1.2978976964950562
1772651053235454500,2.202454345703125,1.368297815322876,1.1850436925888062,1.4339638948440552
1772651053245318100,2.212318115234375,1.5309358835220337,1.1621369123458862,1.3841798305511475
1772651053255209200,2.222209228515625,1.6031686067581177,0.9860602021217346,1.194969892501831
1772651053265086500,2.23208642578125,1.5836215019226074,0.6962131857872009,0.9249754548072815
1772651053274950000,2.241949951171875,1.4913835525512695,0.3252761662006378,0.6426113247871399
1772651053284841000,2.251841064453125,1.323706030845642,-0.07360709458589554,0.40163207054138184
1772651053294718200,2.26171826171875,1.0970816612243652,-0.4337015450000763,0.23777230083942413
1772651053304582000,2.271581787109375,0.8367080092430115,-0.705681324005127,0.1647760421037674
1772651053314473000,2.281472900390625,0.5920637249946594,-0.8150229454040527,0.17424418032169342
1772651053324350200,2.29135009765625,0.41262730956077576,-0.7582141757011414,0.24342262744903564
1772651053334214000,2.3012138671875,0.31229567527770996,-0.5919110178947449,0.3365768492221832
1772651053344105000,2.31110498046875,0.29687178134918213,-0.32191649079322815,0.4375193417072296
1772651053353982200,2.320982177734375,0.3533751368522644,0.031153209507465363,0.531742513179779
1772651053363845600,2.330845703125,0.47111594676971436,0.4034646153450012,0.61481773853302
1772651053373736700,2.34073681640625,0.6336013078689575,0.7209524512290955,0.7047650218009949
1772651053383614000,2.350614013671875,0.8217422962188721,0.9767447710037231,0.8215895891189575
1772651053393477600,2.3604775390625,1.0071344375610352,1.1752700805664062,0.9495620727539062
1772651053403368700,2.37036865234375,1.1664128303527832,1.318819284439087,1.058903694152832
1772651053413246000,2.380245849609375,1.2862915992736816,1.4203726053237915,1.1262496709823608
1772651053423109600,2.390109619140625,1.3632583618164062,1.476875901222229,1.1302201747894287
1772651053433000700,2.400000732421875,1.4005200862884521,1.4799301624298096,1.0688300132751465
1772651053442878000,2.4098779296875,1.4057122468948364,1.4199144840240479,0.9666658043861389
1772651053452741400,2.419741455078125,1.3857070207595825,1.3046170473098755,0.8496885299682617
1772651053462632400,2.429632568359375,1.3461546897888184,1.1384665966033936,0.7456917762756348
1772651053472510000,2.439510009765625,1.2949961423873901,0.9378032684326172,0.6678087711334229
1772651053482373400,2.449373291015625,1.2430741786956787,0.72599196434021,0.624285876750946
1772651053492264400,2.459264404296875,1.1937482357025146,0.5259394645690918,0.6119162440299988
1772651053502141700,2.4691416015625,1.149767279624939,0.34512871503829956,0.6160394549369812
1772651053512019200,2.479019287109375,1.0984560251235962,0.18340688943862915,0.6163448691368103
1772651053521896400,2.488896484375,1.0366077423095703,0.04947862774133682,0.5894675850868225
1772651053531773700,2.498773681640625,0.974148690700531,-0.046424392610788345,0.5245651006698608
1772651053541651000,2.50865087890625,0.9141329526901245,-0.1047603040933609,0.423164427280426
1772651053551528400,2.518528564453125,0.8550334572792053,-0.15943112969398499,0.3002314269542694
1772651053561405700,2.52840576171875,0.7886037826538086,-0.21791976690292358,0.17928366363048553
1772651053571283000,2.538282958984375,0.7131641507148743,-0.26464956998825073,0.07666133344173431
1772651053581160200,2.54816015625,0.640626072883606,-0.2901524603366852,0.00030542362947016954
1772651053591037700,2.55803759765625,0.575570821762085,-0.29946786165237427,-0.05482354015111923
1772651053600915000,2.5679150390625,0.5213581323623657,-0.29030516743659973,-0.10582929104566574
1772651053610792200,2.577792236328125,0.47539186477661133,-0.2623589038848877,-0.16844113171100616
1772651053620669400,2.58766943359375,0.4265241026878357,-0.2298312783241272,-0.2635805904865265
1772651053630547000,2.597546875,0.36849361658096313,-0.20493926107883453,-0.3898732662200928
1772651053640424200,2.607424072265625,0.3046600818634033,-0.18585027754306793,-0.5340332388877869
1772651053650301400,2.617301513671875,0.24220094084739685,-0.18035265803337097,-0.6859814524650574
1772651053660178700,2.6271787109375,0.1782146841287613,-0.197609081864357,-0.8379297256469727
1772651053670056200,2.63705615234375,0.11987877637147903,-0.23303823173046112,-0.9860602021217346
1772651053679933400,2.646933349609375,0.07727217674255371,-0.2817533016204834,-1.112505555152893
1772651053689796900,2.656796875,0.06154286116361618,-0.32512345910072327,-1.2012311220169067
1772651053699688200,2.666688232421875,0.08857285231351852,-0.3504736125469208,-1.2244433164596558
1772651053709565400,2.6765654296875,0.15423893928527832,-0.3509317636489868,-1.171757698059082
1772651053719428900,2.686428955078125,0.22677704691886902,-0.31168481707572937,-1.0795198678970337
1772651053729320000,2.69631982421875,0.27060532569885254,-0.2626643180847168,-1.0320264101028442
1772651053739197200,2.706197265625,0.27717193961143494,-0.2414373755455017,-1.096470832824707
1772651053749074700,2.71607470703125,0.2420482337474823,-0.2786990702152252,-1.2470446825027466
1772651053758952000,2.725951904296875,0.16126367449760437,-0.3921639323234558,-1.4028106927871704
1772651053768829200,2.7358291015625,0.0459662564098835,-0.5173876285552979,-1.463742733001709
1772651053778692900,2.74569287109375,-0.05207473039627075,-0.5734328627586365,-1.3646327257156372
1772651053788584000,2.755583984375,-0.06673506647348404,-0.5818319916725159,-1.0923476219177246
1772651053798461200,2.765461181640625,0.029473381116986275,-0.5253286361694336,-0.649483323097229
1772651053808324900,2.775324951171875,0.22723518311977386,-0.41888850927352905,-0.10582929104566574
1772651053818216000,2.7852158203125,0.49448084831237793,-0.32787227630615234,0.4121691882610321
1772651053828093200,2.79509326171875,0.7716528177261353,-0.312142938375473,0.7857022881507874
1772651053837956600,2.80495654296875,0.9744541049003601,-0.3507790267467499,0.9610154628753662
1772651053847848000,2.814847900390625,1.0480611324310303,-0.3855973184108734,0.9573503732681274
1772651053857725200,2.82472509765625,0.9634588360786438,-0.41201648116111755,0.8128849864006042
1772651053867588600,2.834588623046875,0.733169436454773,-0.3975088596343994,0.6058077812194824
1772651053877479700,2.844479736328125,0.4146125912666321,-0.3411581814289093,0.38956785202026367
1772651053887357200,2.854357177734375,0.07635590434074402,-0.25625041127204895,0.20066332817077637
1772651053897234400,2.864234375,-0.2026485800743103,-0.11835165321826935,0.08200624585151672
1772651053907111700,2.874111572265625,-0.3695625960826874,0.0784938707947731,0.06398624926805496
1772651053916989200,2.8839892578125,-0.41888850927352905,0.3133646547794342,0.14935214817523956
1772651053926852600,2.8938525390625,-0.36253786087036133,0.5602996349334717,0.314586341381073
1772651053936743700,2.90374365234375,-0.2095206081867218,0.7676823139190674,0.5236487984657288
1772651053946621000,2.913620849609375,-0.007024743594229221,0.9045121073722839,0.7408050298690796
1772651053956484600,2.923484619140625,0.18814095854759216,0.9733850955963135,0.9339854717254639
1772651053966375700,2.933375732421875,0.33947837352752686,0.9721634387969971,1.0784507989883423
1772651053976253000,2.9432529296875,0.42927291989326477,0.9095515608787537,1.1558756828308105
1772651053986116600,2.95311669921875,0.46164780855178833,0.8011261820793152,1.1638166904449463
1772651053996007700,2.963007568359375,0.44958359003067017,0.6668924689292908,1.103342890739441
1772651054005885000,2.972885009765625,0.41048935055732727,0.5241069197654724,0.998735249042511
1772651054015748600,2.98274853515625,0.35322242975234985,0.40010493993759155,0.8754968047142029
1772651054025639700,2.9926396484375,0.29442837834358215,0.3220692276954651,0.7565343379974365
1772651054035517000,3.002516845703125,0.2492256760597229,0.2919849753379822,0.650094211101532
1772651054045394200,3.012394287109375,0.22479179501533508,0.28847262263298035,0.5606050491333008
1772651054055271700,3.022271728515625,0.2098260372877121,0.3042019307613373,0.488219678401947
1772651054065149000,3.03214892578125,0.21120044589042664,0.3226800560951233,0.44271156191825867
1772651054075026200,3.042026123046875,0.23410721123218536,0.33535513281822205,0.4315635859966278
1772651054084903400,3.0519033203125,0.2644968628883362,0.36070531606674194,0.439351886510849
1772651054094781000,3.061781005859375,0.2939702570438385,0.3993414044380188,0.4402681589126587
1772651054104658200,3.071658203125,0.30740886926651,0.4340069890022278,0.409420371055603
1772651054114535400,3.081535400390625,0.31321191787719727,0.46516019105911255,0.35291701555252075
1772651054124413000,3.091412841796875,0.31321191787719727,0.46989426016807556,0.2835858464241028
1772651054134290200,3.101290283203125,0.3020639717578888,0.42240089178085327,0.20845162868499756
1772651054144167400,3.11116748046875,0.2877090573310852,0.33169007301330566,0.14400723576545715
1772651054154045000,3.121044921875,0.28221142292022705,0.22876229882240295,0.09055810421705246
1772651054163922200,3.130922119140625,0.2814478874206543,0.12888877093791962,0.03405473381280899
1772651054173799400,3.14079931640625,0.2805316150188446,0.05329642444849014,-0.028098974376916885
1772651054183677000,3.150677001953125,0.27839362621307373,0.008857285603880882,-0.10949437320232391
1772651054193554200,3.16055419921875,0.2673983871936798,-0.020463382825255394,-0.2104368805885315
1772651054203431400,3.170431396484375,0.24785128235816956,-0.04810422286391258,-0.3158080279827118
1772651054213309000,3.180308837890625,0.2229592502117157,-0.08353336155414581,-0.4161396920681
1772651054223172400,3.19017236328125,0.20661908388137817,-0.12323843687772751,-0.5071559548377991
1772651054233063400,3.2000634765625,0.21058958768844604,-0.16844113171100616,-0.6001574397087097
1772651054242940700,3.209940673828125,0.22311195731163025,-0.21226942539215088,-0.687050461769104
1772651054252804400,3.219804443359375,0.23410721123218536,-0.21853061020374298,-0.7527165412902832
1772651054262695400,3.2296953125,0.24693500995635986,-0.18569757044315338,-0.7829535007476807
1772651054272573000,3.239572998046875,0.26663482189178467,-0.1360662281513214,-0.7794411182403564
1772651054282436400,3.249436279296875,0.2883199155330658,-0.08108997344970703,-0.7441646456718445
1772651054292327400,3.259327392578125,0.31504446268081665,-0.019088976085186005,-0.6844543814659119
1772651054302204700,3.26920458984375,0.34314343333244324,0.04367557913064957,-0.6113054156303406
1772651054312082200,3.279082275390625,0.36818817257881165,0.0984991192817688,-0.5435013771057129
1772651054321959400,3.28895947265625,0.3883461356163025,0.14813046157360077,-0.49051034450531006
1772651054331836700,3.298836669921875,0.3993414044380188,0.19837264716625214,-0.4324798583984375
1772651054341714200,3.308714111328125,0.40193748474121094,0.2495311051607132,-0.358720064163208
1772651054351591400,3.31859130859375,0.39262208342552185,0.26251161098480225,-0.2851129472255707
1772651054361469000,3.328468994140625,0.3668137788772583,0.21975229680538177,-0.21807247400283813
1772651054371346200,3.33834619140625,0.32222193479537964,0.15423893928527832,-0.16187451779842377
1772651054381223400,3.348223388671875,0.26938363909721375,0.10124793648719788,-0.12278030067682266
1772651054391100700,3.3581005859375,0.23303823173046112,0.038483377546072006,-0.09177979826927185
1772651054400978200,3.367978271484375,0.23532891273498535,-0.08490777015686035,-0.047646086663007736
1772651054410855400,3.37785546875,0.26938363909721375,-0.24632415175437927,0.03176405653357506
1772651054420733000,3.38773291015625,0.3136700689792633,-0.4077405333518982,0.1563768982887268
1772651054430610200,3.397610107421875,0.3524588644504547,-0.5381564497947693,0.31473904848098755
1772651054440487400,3.4074873046875,0.3834593594074249,-0.6151232123374939,0.4874561131000519
1772651054450364700,3.41736474609375,0.39476004242897034,-0.6229115128517151,0.6578825116157532
1772651054460242200,3.4272421875,0.3727695345878601,-0.5632011890411377,0.798530101776123
1772651054470119400,3.437119384765625,0.31260108947753906,-0.45828816294670105,0.8802309036254883
1772651054479997000,3.446996826171875,0.23334364593029022,-0.33031564950942993,0.883895993232727
1772651054489874200,3.456874267578125,0.14660334587097168,-0.20570281147956848,0.8153283596038818
1772651054499751400,3.46675146484375,0.06810946762561798,-0.08811471611261368,0.7014053463935852
1772651054509629000,3.47662890625,-0.008551862090826035,0.013285927474498749,0.5832064151763916
1772651054519506200,3.486506103515625,-0.0847550556063652,0.08796200156211853,0.48043137788772583
1772651054529383400,3.496383544921875,-0.1623326539993286,0.16599774360656738,0.40728241205215454
1772651054539261000,3.506260986328125,-0.22708246111869812,0.25121092796325684,0.36513394117355347
1772651054549138200,3.51613818359375,-0.27442312240600586,0.32008397579193115,0.34283801913261414
1772651054559015400,3.526015380859375,-0.3005368411540985,0.3689517378807068,0.3352024257183075
1772651054568893000,3.535892822265625,-0.3071034550666809,0.4088095426559448,0.33443886041641235
1772651054578770200,3.545770263671875,-0.29717719554901123,0.4468347728252411,0.3390202224254608
1772651054588647400,3.5556474609375,-0.27060532569885254,0.4885250926017761,0.3443651497364044
1772651054598525000,3.56552490234375,-0.23624517023563385,0.5328115224838257,0.3489464819431305
1772651054608388600,3.575388671875,-0.1951656937599182,0.5832064151763916,0.35352784395217896
1772651054618279700,3.58527978515625,-0.14690876007080078,0.6322268843650818,0.3574983477592468
1772651054628157000,3.595156982421875,-0.09712471067905426,0.6610894203186035,0.35474956035614014
1772651054638020600,3.6050205078125,-0.05268557742238045,0.6702521443367004,0.3436015844345093
1772651054647911700,3.61491162109375,-0.014660334214568138,0.6853706240653992,0.32756683230400085
1772651054657789000,3.624788818359375,0.005803049076348543,0.7177455425262451,0.31137940287590027
1772651054667652600,3.634652587890625,0.009315420873463154,0.7189671993255615,0.30160582065582275
1772651054677543700,3.644543701171875,0.010078979656100273,0.6323796510696411,0.2880144715309143
1772651054687421000,3.6544208984375,0.012216945178806782,0.4593571424484253,0.26006820797920227
1772651054697284600,3.66428466796875,0.012675080448389053,0.2652604281902313,0.22127941250801086
1772651054707175700,3.67417578125,0.015271181240677834,0.08582404255867004,0.17317520081996918
1772651054717053000,3.684052978515625,0.01954711228609085,-0.03268032893538475,0.10949437320232391
1772651054726930400,3.693930419921875,0.03374931216239929,-0.05604523420333862,0.03665083646774292
1772651054736807700,3.7038076171875,0.029473381116986275,-0.0030542362947016954,-0.04474456235766411
1772651054746685000,3.713684814453125,-0.007635590620338917,0.07421794533729553,-0.14003673195838928
1772651054756562400,3.7235625,-0.07406523078680038,0.145687073469162,-0.251974493265152
1772651054766439700,3.733439697265625,-0.1188097894191742,0.2044811248779297,-0.3564293682575226
1772651054776317200,3.743317138671875,-0.08521319180727005,0.25655585527420044,-0.4211791753768921
1772651054786194400,3.7531943359375,0.031000498682260513,0.2958027720451355,-0.4259132444858551
1772651054796071700,3.76307177734375,0.16004198789596558,0.2921377122402191,-0.39231663942337036
1772651054805949200,3.77294921875,0.25945737957954407,0.23227466642856598,-0.3381039500236511
1772651054815826400,3.782826416015625,0.337340384721756,0.12461283802986145,-0.28068432211875916
1772651054825704000,3.792703857421875,0.40071579813957214,-0.014507622458040714,-0.24510246515274048
1772651054835581200,3.802581298828125,0.4540122151374817,-0.15423893928527832,-0.2480039894580841
1772651054845458400,3.81245849609375,0.47829338908195496,-0.2423536479473114,-0.29412296414375305
1772651054855336000,3.8223359375,0.4653128981590271,-0.2915268540382385,-0.37414395809173584
1772651054865213200,3.832213134765625,0.4115583300590515,-0.3333698809146881,-0.4799732267856598
1772651054875090700,3.842090576171875,0.33535513281822205,-0.38391751050949097,-0.6021426916122437
1772651054884968000,3.851968017578125,0.25090551376342773,-0.4695888161659241,-0.7365291118621826
1772651054894845200,3.86184521484375,0.1575985997915268,-0.6053496599197388,-0.8736643195152283
1772651054904708900,3.871708984375,0.06184828653931618,-0.7605048418045044,-0.9793408513069153
1772651054914600000,3.881599853515625,-0.029473381116986275,-0.9066500663757324,-1.0422581434249878
1772651054924477400,3.8914775390625,-0.1104106456041336,-1.0570712089538574,-1.061499834060669
1772651054934340900,3.9013408203125,-0.182643324136734,-1.195886254310608,-1.0361496210098267
1772651054944232000,3.91123193359375,-0.24586601555347443,-1.2797249555587769,-0.966971218585968
1772651054954109400,3.921109375,-0.3136700689792633,-1.3223315477371216,-0.8788564801216125
1772651054963972900,3.930972900390625,-0.3871244490146637,-1.3533320426940918,-0.7957812547683716
1772651054973864200,3.9408642578125,-0.44271156191825867,-1.4067811965942383,-0.7322531342506409
1772651054983741400,3.950741455078125,-0.4688252806663513,-1.5005463361740112,-0.6809419989585876
1772651054993605000,3.960605224609375,-0.4677563011646271,-1.6089717149734497,-0.6258130073547363
1772651055003496200,3.97049609375,-0.45950984954833984,-1.7196877002716064,-0.5632011890411377
1772651055013373400,3.98037353515625,-0.4734066128730774,-1.8111621141433716,-0.5253286361694336
1772651055023237000,3.990237060546875,-0.5477772951126099,-1.832847237586975,-0.5428904891014099
1772651055033128200,4.000128173828125,-0.6830799579620361,-1.71678626537323,-0.5960342288017273
1772651055043005700,4.010005615234375,-0.8443436026573181,-1.4386980533599854,-0.6316160559654236
1772651055052869000,4.019869140625,-0.9811733961105347,-1.0187405347824097,-0.5829010009765625
1772651055062760200,4.02976025390625,-1.0366077423095703,-0.5051707029342651,-0.39796698093414307
1772651055072637700,4.0396376953125,-0.9756757616996765,0.021990500390529633,-0.06795676052570343
1772651055082501000,4.049501220703125,-0.799904465675354,0.522885262966156,0.36513394117355347
1772651055092392400,4.059392333984375,-0.5450284481048584,0.9402466416358948,0.8241856694221497
1772651055102269700,4.069269775390625,-0.23991025984287262,1.1712995767593384,1.2192511558532715
1772651055112133400,4.07913330078125,0.0725381150841713,1.1780189275741577,1.4959648847579956
1772651055122024400,4.0890244140625,0.34405970573425293,1.011104941368103,1.6422628164291382
1772651055131901700,4.098901611328125,0.5257867574691772,0.7507312893867493,1.6741796731948853
1772651055141765400,4.108765380859375,0.5928272604942322,0.4640912115573883,1.6075972318649292
1772651055151656400,4.118656494140625,0.5384618639945984,0.21028417348861694,1.4495404958724976
1772651055161534000,4.128533935546875,0.3802524209022522,0.01817270554602146,1.2160441875457764
1772651055171397400,4.1383974609375,0.1525591015815735,-0.09284878522157669,0.9318475127220154
1772651055181288400,4.148288330078125,-0.10338589549064636,-0.10720369219779968,0.6250494718551636
1772651055191166000,4.158166015625,-0.33856210112571716,-0.03787253051996231,0.3374931216239929
1772651055201043200,4.168043212890625,-0.5163186192512512,0.07299624383449554,0.09727742522954941
1772651055210920700,4.177920654296875,-0.616802990436554,0.20692451298236847,-0.06887302547693253
1772651055220798000,4.1877978515625,-0.6354338526725769,0.3512371778488159,-0.14813046157360077
1772651055230661600,4.19766162109375,-0.5752654075622559,0.4947862923145294,-0.1372879147529602
1772651055240552700,4.207552734375,-0.4474456310272217,0.6142069101333618,-0.049173206090927124
1772651055250430000,4.217429931640625,-0.2790044844150543,0.6762079000473022,0.09376505762338638
1772651055260293600,4.227293701171875,-0.09468132257461548,0.6919372081756592,0.2626643180847168
1772651055270184700,4.237184814453125,0.08551861345767975,0.6629219651222229,0.43049460649490356
1772651055280062200,4.247062255859375,0.23685602843761444,0.5967977643013,0.5748072862625122
1772651055289925600,4.256925537109375,0.34070006012916565,0.50685054063797,0.6788040399551392
1772651055299817000,4.26681689453125,0.3970507085323334,0.4286620616912842,0.7435538172721863
1772651055309694200,4.276694091796875,0.4190412163734436,0.3775036036968231,0.7670714259147644
1772651055319558000,4.286557861328125,0.4161396920681,0.349251925945282,0.7524111270904541
1772651055329449000,4.296448974609375,0.39445462822914124,0.34070006012916565,0.7010999321937561
1772651055339326200,4.306326171875,0.35352784395217896,0.3352024257183075,0.6183301210403442
1772651055349190000,4.31618994140625,0.3045073449611664,0.31687700748443604,0.5070032477378845
1772651055359081000,4.3260810546875,0.2573194205760956,0.27289602160453796,0.3698680102825165
1772651055368958500,4.33595849609375,0.21776704490184784,0.1951656937599182,0.21822518110275269
1772651055378835700,4.345835693359375,0.18875180184841156,0.08429691940546036,0.06749862432479858
1772651055388713200,4.355713134765625,0.16141638159751892,-0.038636088371276855,-0.06917845457792282
1772651055398590500,4.365590576171875,0.12812520563602448,-0.1459924876689911,-0.17409147322177887
1772651055408468000,4.375468017578125,0.09116895496845245,-0.22937314212322235,-0.2360924631357193
1772651055418345200,4.38534521484375,0.055892523378133774,-0.2727433145046234,-0.2652604281902313
1772651055428222700,4.39522265625,0.033291175961494446,-0.28755635023117065,-0.2736595869064331
1772651055438100000,4.405099853515625,0.033443886786699295,-0.29977330565452576,-0.2736595869064331
1772651055447977200,4.414977294921875,0.05115845799446106,-0.29778802394866943,-0.26755109429359436
1772651055457854700,4.424854736328125,0.07070557028055191,-0.2880144715309143,-0.26755109429359436
1772651055467732000,4.43473193359375,0.07925742864608765,-0.30282753705978394,-0.2724378705024719
1772651055477609500,4.444609375,0.06551336497068405,-0.33535513281822205,-0.2851129472255707
1772651055487486700,4.45448681640625,0.04153761267662048,-0.41048935055732727,-0.31534990668296814
1772651055497364200,4.4643642578125,0.021532366052269936,-0.5152496695518494,-0.35826191306114197
1772651055507241500,4.474241455078125,0.02107422985136509,-0.6210789680480957,-0.3987305462360382
1772651055517119000,4.484118896484375,0.04504998400807381,-0.7298097610473633,-0.43324342370033264
1772651055526996200,4.493996337890625,0.09773556143045425,-0.8383878469467163,-0.460273414850235
1772651055536873500,4.50387353515625,0.16523417830467224,-0.9550597071647644,-0.4921901822090149
1772651055546751000,4.5137509765625,0.22662433981895447,-1.0958600044250488,-0.5430431962013245
1772651055556628200,4.523628173828125,0.2591519355773926,-1.278350591659546,-0.585038959980011
1772651055566505700,4.533505615234375,0.2730487287044525,-1.4988664388656616,-0.5887040495872498
1772651055576383000,4.543383056640625,0.2757975459098816,-1.7186187505722046,-0.5256340503692627
1772651055586246700,4.55324658203125,0.2551814317703247,-1.8742320537567139,-0.4124746024608612
1772651055596137700,4.5631376953125,0.1835595965385437,-1.96708083152771,-0.3309265077114105
1772651055606015200,4.57301513671875,0.04413371533155441,-2.01289439201355,-0.35261157155036926
1772651055615879000,4.58287890625,-0.13942588865756989,-1.9594452381134033,-0.46729815006256104
1772651055625770000,4.59277001953125,-0.29794076085090637,-1.7346534729003906,-0.6080984473228455
1772651055635647200,4.602647216796875,-0.36543938517570496,-1.3763915300369263,-0.7124006152153015
1772651055645511000,4.612510986328125,-0.3261924386024475,-1.0017894506454468,-0.7481352090835571
1772651055655402000,4.622402099609375,-0.20997874438762665,-0.6496360301971436,-0.6656708121299744
1772651055665279500,4.632279541015625,-0.043981000781059265,-0.2970244884490967,-0.4034646153450012
1772651055675143000,4.642142822265625,0.14171656966209412,0.09208522737026215,0.05772506445646286
1772651055685034000,4.652033935546875,0.2987042963504791,0.5537330508232117,0.6044333577156067
1772651055694911500,4.661911376953125,0.42576053738594055,0.9303203821182251,1.0534061193466187
1772651055704775200,4.671775146484375,0.556939959526062,1.0877662897109985,1.2995775938034058
1772651055714666200,4.681666259765625,0.6769714951515198,1.1381611824035645,1.3469182252883911
1772651055724543500,4.69154345703125,0.7582141757011414,1.1250278949737549,1.253764033317566
1772651055734407200,4.7014072265625,0.7965448498725891,1.0392038822174072,1.0824213027954102
1772651055744298200,4.71129833984375,0.80280601978302,0.867250382900238,0.8932114243507385
1772651055754175700,4.72117578125,0.7817317843437195,0.6375718116760254,0.7394306063652039
1772651055764039400,4.731039306640625,0.7298097610473633,0.38223767280578613,0.6482616662979126
1772651055773930500,4.740930419921875,0.6496360301971436,0.15026842057704926,0.6293253898620605
1772651055783807700,4.750807861328125,0.5599942207336426,0.004734066314995289,0.6664343476295471
1772651055793685200,4.760685302734375,0.4894413650035858,-0.037567105144262314,0.7299624681472778
1772651055803562500,4.7705625,0.4572191834449768,-0.004581354558467865,0.7757760286331177
1772651055813440000,4.78043994140625,0.4627167880535126,0.07406523078680038,0.7931851744651794
1772651055823317200,4.790317138671875,0.4859289824962616,0.18126893043518066,0.7895200848579407
1772651055833194800,4.80019482421875,0.5170822143554688,0.28602921962738037,0.7808154821395874
1772651055843072000,4.810072021484375,0.5566345453262329,0.3649812340736389,0.7748597264289856
1772651055852935700,4.819935791015625,0.5971031785011292,0.4091149568557739,0.7733326554298401
1772651055862826800,4.82982666015625,0.6383354067802429,0.435075968503952,0.7872294187545776
1772651055872704300,4.839704345703125,0.6745280623435974,0.45324867963790894,0.8177717924118042
1772651055882567700,4.849567626953125,0.7052231431007385,0.46668729186058044,0.8568660020828247
1772651055892459000,4.859458984375,0.7224795818328857,0.478751540184021,0.893058717250824
1772651055902336300,4.869336181640625,0.7261446714401245,0.4900522232055664,0.9119949340820312
1772651055912200000,4.879199951171875,0.7137750387191772,0.5077667832374573,0.9057337641716003
1772651055922091000,4.889091064453125,0.691326379776001,0.5150969624519348,0.8640434741973877
1772651055931968300,4.89896826171875,0.6528429985046387,0.510515570640564,0.7905890941619873
1772651055941832000,4.90883203125,0.6015318632125854,0.49524441361427307,0.687050461769104
1772651055951723000,4.918722900390625,0.5421269536018372,0.46363306045532227,0.5592306852340698
1772651055961600500,4.9286005859375,0.4778352677822113,0.41171106696128845,0.4190412163734436
1772651055971477800,4.938477783203125,0.41766682267189026,0.32787227630615234,0.2805316150188446
1772651055981355300,4.948355224609375,0.36879903078079224,0.2283041626214981,0.1579040139913559
1772651055991232500,4.958232421875,0.3298575282096863,0.14018943905830383,0.0584886260330677
1772651056001110000,4.968110107421875,0.30374380946159363,0.05100574716925621,-0.020310672000050545
1772651056010987500,4.977987548828125,0.28098973631858826,-0.05344913527369499,-0.08521319180727005
1772651056020864800,4.98786474609375,0.25716668367385864,-0.15943112969398499,-0.14049486815929413
1772651056030742000,4.997741943359375,0.2357870489358902,-0.25441789627075195,-0.19394400715827942
1772651056040619500,5.00761962890625,0.21654535830020905,-0.3483356535434723,-0.2626643180847168
1772651056050496800,5.017496826171875,0.1985253542661667,-0.4492781460285187,-0.3545968234539032
1772651056060374300,5.027374267578125,0.17775654792785645,-0.5560237169265747,-0.4662291705608368
1772651056070251500,5.03725146484375,0.14629791676998138,-0.6849125027656555,-0.5972558856010437
1772651056080129000,5.04712890625,0.09590301662683487,-0.846023440361023,-0.7441646456718445
1772651056089992700,5.05699267578125,0.03649812191724777,-1.0043855905532837,-0.8780929446220398
1772651056099883800,5.0668837890625,-0.019394399598240852,-1.1134217977523804,-0.9620844125747681
1772651056109761000,5.076760986328125,-0.06978929787874222,-1.1293038129806519,-0.9587247967720032
1772651056119624700,5.086624755859375,-0.09681928902864456,-1.0221002101898193,-0.8515210747718811
1772651056129515800,5.096515869140625,-0.08612946420907974,-0.8226585388183594,-0.6630746722221375
1772651056139393300,5.106393310546875,-0.03802524134516716,-0.5949652194976807,-0.47294849157333374
1772651056149270500,5.1162705078125,0.029320668429136276,-0.3984251320362091,-0.38101598620414734
1772651056159148000,5.12614794921875,0.09437590092420578,-0.2608317732810974,-0.4608842432498932
1772651056169025300,5.136025390625,0.13148486614227295,-0.17348061501979828,-0.7116370797157288
1772651056178902800,5.14590283203125,0.10979979485273361,-0.14461809396743774,-1.0668447017669678
1772651056188780000,5.155780029296875,0.04077405482530594,-0.15286453068256378,-1.413042426109314
1772651056198657500,5.165657470703125,-0.05741964280605316,-0.1951656937599182,-1.6561596393585205
1772651056208521200,5.175521240234375,-0.15439164638519287,-0.21410197019577026,-1.745954155921936
1772651056218412300,5.185412353515625,-0.21440738439559937,-0.19256959855556488,-1.6822733879089355
1772651056228289500,5.19528955078125,-0.22662433981895447,-0.15179555118083954,-1.4831371307373047
1772651056238153200,5.2051533203125,-0.16553960740566254,-0.041232191026210785,-1.1589299440383911
1772651056248044300,5.215044189453125,-0.0261137206107378,0.09666658192873001,-0.7459971904754639
1772651056257921800,5.224921875,0.17286977171897888,0.1325538605451584,-0.3104631304740906
1772651056267785500,5.234785400390625,0.434617817401886,0.08231166750192642,0.1247655525803566
1772651056277676500,5.244676513671875,0.7470661997795105,-0.033291175961494446,0.5259394645690918
1772651056287553800,5.2545537109375,1.0685245990753174,-0.22036315500736237,0.8423583507537842
1772651056297417500,5.26441748046875,1.3371446132659912,-0.4283566474914551,1.0430216789245605
1772651056307308500,5.27430859375,1.515970230102539,-0.5894675850868225,1.1251806020736694
1772651056317186000,5.28418603515625,1.5813308954238892,-0.6586460471153259,1.110825777053833
1772651056327049500,5.294049560546875,1.5309358835220337,-0.6537593007087708,1.009577751159668
1772651056336940800,5.30394091796875,1.3904410600662231,-0.6172611713409424,0.8495358228683472
1772651056346818000,5.313818115234375,1.204743504524231,-0.5699204802513123,0.6742226481437683
1772651056356695600,5.323695556640625,1.0320264101028442,-0.49264830350875854,0.5477772951126099
1772651056366572800,5.33357275390625,0.9373451471328735,-0.3984251320362091,0.5050179958343506
1772651056376450300,5.3434501953125,0.9364288449287415,-0.3205420970916748,0.5580089688301086
1772651056386313700,5.353313720703125,1.0198094844818115,-0.2435753494501114,0.6948387622833252
1772651056396205000,5.363205078125,1.167176365852356,-0.17928366363048553,0.8770239353179932
1772651056406082300,5.373082275390625,1.3412678241729736,-0.14736689627170563,1.0691354274749756
1772651056415946000,5.382946044921875,1.5123051404953003,-0.1328592747449875,1.2386455535888672
1772651056425837000,5.392837158203125,1.6553961038589478,-0.12583453953266144,1.351194143295288
1772651056435714600,5.402714599609375,1.7673338651657104,-0.11117420345544815,1.3908991813659668
1772651056445578000,5.412577880859375,1.8395664691925049,-0.10109522193670273,1.3521103858947754
1772651056455469300,5.42246923828125,1.8766754865646362,-0.11743538826704025,1.2571237087249756
1772651056465346600,5.4323466796875,1.8809514045715332,-0.17027367651462555,1.1273186206817627
1772651056475210200,5.442210205078125,1.8549903631210327,-0.25350162386894226,0.9868237376213074
1772651056485101300,5.452101318359375,1.8059699535369873,-0.35978904366493225,0.8525900840759277
1772651056494978800,5.461978759765625,1.7468703985214233,-0.4599680006504059,0.739736020565033
1772651056504856000,5.47185595703125,1.6980026960372925,-0.5320479869842529,0.6568135023117065
1772651056514733600,5.481733642578125,1.670361876487732,-0.5528167486190796,0.6073349118232727
1772651056524610800,5.49161083984375,1.6514256000518799,-0.5236487984657288,0.580763041973114
1772651056534488300,5.50148828125,1.637070655822754,-0.44484952092170715,0.5686988234519958
1772651056544365600,5.511365478515625,1.6353908777236938,-0.34573954343795776,0.555260181427002
1772651056554243000,5.5212431640625,1.6489821672439575,-0.2620534598827362,0.5322006940841675
1772651056564120300,5.531120361328125,1.6787610054016113,-0.21165858209133148,0.5018110275268555
1772651056573997800,5.540997802734375,1.7173970937728882,-0.21379654109477997,0.4587462842464447
1772651056583875000,5.550875,1.761988878250122,-0.2551814317703247,0.41675055027008057
1772651056593752600,5.560752685546875,1.809329628944397,-0.33291175961494446,0.3692571818828583
1772651056603629800,5.5706298828125,1.850256323814392,-0.4321744441986084,0.312142938375473
1772651056613507300,5.58050732421875,1.882936716079712,-0.5328115224838257,0.23777230083942413
1772651056623384600,5.590384521484375,1.9191293716430664,-0.6230642199516296,0.15546062588691711
1772651056633262000,5.600261962890625,1.952573299407959,-0.682774543762207,0.07727217674255371
1772651056643139300,5.610139404296875,1.9820466041564941,-0.695602297782898,0.014813045971095562
1772651056653016800,5.620016845703125,2.010145664215088,-0.6740699410438538,-0.03023693896830082
1772651056662894000,5.62989404296875,2.039466381072998,-0.6368082761764526,-0.047798797488212585
1772651056672771600,5.639771484375,2.067870616912842,-0.5975613594055176,-0.037567105144262314
1772651056682648800,5.64964892578125,2.0875704288482666,-0.5942016839981079,-0.021685076877474785
1772651056692526300,5.6595263671875,2.0955114364624023,-0.638640820980072,0.001985253533348441
1772651056702403600,5.669403564453125,2.100551128387451,-0.679872989654541,0.03833066672086716
1772651056712281000,5.679281005859375,2.0990238189697266,-0.6800256967544556,0.08124268800020218
1772651056722158300,5.689158447265625,2.082530975341797,-0.645207405090332,0.12278030067682266
1772651056732035800,5.699035888671875,2.0585553646087646,-0.5824428796768188,0.15988926589488983
1772651056741913000,5.7089130859375,2.042520523071289,-0.48516544699668884,0.19501298666000366
1772651056751790600,5.71879052734375,2.0358011722564697,-0.388651579618454,0.22754059731960297
1772651056761667800,5.728667724609375,2.0264856815338135,-0.38193225860595703,0.2244863659143448
1772651056771531500,5.738531494140625,2.0083131790161133,-0.5231906771659851,0.14614520967006683
1772651056781422600,5.748422607421875,1.9770071506500244,-0.7715001106262207,-0.021685076877474785
1772651056791300000,5.758300048828125,1.9487555027008057,-1.0582928657531738,-0.24449162185192108
1772651056801163500,5.76816357421875,1.9292083978652954,-1.3108782768249512,-0.46638187766075134
1772651056811054800,5.778054931640625,1.90645432472229,-1.5200934410095215,-0.6485670804977417
1772651056820932000,5.78793212890625,1.870566964149475,-1.672347068786621,-0.7389724850654602
1772651056830795800,5.797795654296875,1.8305565118789673,-1.7202986478805542,-0.6927008032798767
1772651056840686800,5.807686767578125,1.8047481775283813,-1.6514256000518799,-0.5024218559265137
1772651056850564400,5.817564453125,1.8068861961364746,-1.4243431091308594,-0.20005246996879578
1772651056860427800,5.827427734375,1.8490346670150757,-1.1187667846679688,0.1575985997915268
1772651056870319000,5.837319091796875,1.9519624710083008,-0.8568660020828247,0.4993676245212555
1772651056880196400,5.8471962890625,2.1243741512298584,-0.6951441764831543,0.7858549952507019
1772651056890060000,5.85706005859375,2.3555798530578613,-0.6114581227302551,1.0020949840545654
1772651056899951000,5.866951171875,2.5901451110839844,-0.5763344168663025,1.1499199867248535
1772651056909828600,5.87682861328125,2.782714605331421,-0.5030327439308167,1.2627739906311035
1772651056919705900,5.886705810546875,2.898164749145508,-0.3590254783630371,1.358066201210022
1772651056929583400,5.896583251953125,2.9342048168182373,-0.18905723094940186,1.4307570457458496
1772651056939460600,5.906460693359375,2.9007608890533447,-0.05329642444849014,1.4625210762023926
1772651056949324300,5.91632421875,2.8161585330963135,0.04581354558467865,1.460841178894043
1772651056959215400,5.92621533203125,2.7176594734191895,0.10353861004114151,1.4338111877441406
1772651056969092900,5.9360927734375,2.6339733600616455,0.13927318155765533,1.399909257888794
1772651056978956300,5.945956298828125,2.5712087154388428,0.16141638159751892,1.3673815727233887
1772651056988847600,5.95584765625,2.533641815185547,0.17256435751914978,1.3330214023590088
1772651056998724900,5.965724853515625,2.516996145248413,0.15439164638519287,1.297592282295227
1772651057008602400,5.975602294921875,2.502641201019287,0.09025268256664276,1.2673553228378296
1772651057018479600,5.985479736328125,2.4924094676971436,0.00992626789957285,1.2536113262176514
1772651057028357000,5.995357177734375,2.4884390830993652,-0.0716218426823616,1.2632321119308472
1772651057038234400,6.005234375,2.48523211479187,-0.15271180868148804,1.295607089996338
1772651057048111900,6.01511181640625,2.476222038269043,-0.18019993603229523,1.3498197793960571
1772651057057989000,6.024989013671875,2.450719118118286,-0.13805148005485535,1.404185175895691
1772651057067866600,6.03486669921875,2.412083148956299,-0.04474456235766411,1.4299933910369873
1772651057077743900,6.044743896484375,2.3674912452697754,0.07513421028852463,1.4171656370162964
1772651057087621000,6.05462109375,2.3207614421844482,0.1966928243637085,1.3834162950515747
1772651057097498600,6.06449853515625,2.2807509899139404,0.305118203163147,1.3400461673736572
1772651057107376000,6.074376220703125,2.2471542358398438,0.38910970091819763,1.2942326068878174
1772651057117253400,6.08425341796875,2.2094345092773438,0.448361873626709,1.2357439994812012
1772651057127117000,6.094116943359375,2.1651480197906494,0.4793623983860016,1.1603044271469116
1772651057137008000,6.104008056640625,2.1168911457061768,0.46897798776626587,1.0738694667816162
1772651057146885600,6.1138857421875,2.066038131713867,0.41415444016456604,0.9895725846290588
1772651057156763000,6.123762939453125,2.0203773975372314,0.3507790267467499,0.9237537384033203
1772651057166640400,6.133640380859375,1.9916675090789795,0.3011476993560791,0.8707627654075623
1772651057176517600,6.143517578125,1.971509575843811,0.25945737957954407,0.8096780180931091
1772651057186395000,6.153394775390625,1.9502825736999512,0.2276933193206787,0.7302678823471069
1772651057196272400,6.1632724609375,1.9301246404647827,0.21868331730365753,0.6371136903762817
1772651057206150000,6.17314990234375,1.9108829498291016,0.21822518110275269,0.5421269536018372
1772651057216027100,6.183027099609375,1.8942373991012573,0.21150586009025574,0.4477510452270508
1772651057225904600,6.192904541015625,1.876064658164978,0.1829487532377243,0.35948359966278076
1772651057235782000,6.202781982421875,1.851478099822998,0.12003148347139359,0.2667875289916992
1772651057245659400,6.212659423828125,1.822157382965088,0.013133215717971325,0.14110571146011353
1772651057255536600,6.22253662109375,1.7882553339004517,-0.14813046157360077,-0.0261137206107378
1772651057265414000,6.232413818359375,1.761988878250122,-0.3689517378807068,-0.20081603527069092
1772651057275291400,6.24229150390625,1.747481346130371,-0.6317687630653381,-0.36253786087036133
1772651057285168600,6.252168701171875,1.7451906204223633,-0.9011524319648743,-0.5021164417266846
1772651057295046100,6.262046142578125,1.7340426445007324,-1.1609152555465698,-0.6140542030334473
1772651057304909800,6.271909912109375,1.6987662315368652,-1.3536375761032104,-0.6858287453651428
1772651057314801000,6.28180078125,1.6396667957305908,-1.434574842453003,-0.6928535103797913
1772651057324678400,6.291678466796875,1.5659070014953613,-1.3992983102798462,-0.6412369012832642
1772651057334541800,6.301541748046875,1.4845114946365356,-1.281252145767212,-0.5444176197052002
1772651057344433000,6.311432861328125,1.4157912731170654,-1.078908920288086,-0.41232189536094666
1772651057354310400,6.321310302734375,1.377002477645874,-0.8017370104789734,-0.2727433145046234
1772651057364187600,6.331187744140625,1.3576080799102783,-0.5630484819412231,-0.18753011524677277
1772651057374065200,6.341065185546875,1.3449329137802124,-0.4095730781555176,-0.20555010437965393
1772651057383942400,6.3509423828125,1.3331741094589233,-0.3071034550666809,-0.30664533376693726
1772651057393820000,6.36081982421875,1.2902621030807495,-0.2843494117259979,-0.4434750974178314
1772651057403697200,6.370697265625,1.211920976638794,-0.3504736125469208,-0.5404471158981323
1772651057413574700,6.38057470703125,1.1276240348815918,-0.45172154903411865,-0.5447230339050293
1772651057423438300,6.390438232421875,1.0662338733673096,-0.536629319190979,-0.45889899134635925
1772651057433329400,6.400329345703125,1.0337063074111938,-0.5688515305519104,-0.32008397579193115
1772651057443206700,6.41020654296875,1.043174386024475,-0.5222744345664978,-0.16279079020023346
1772651057453070300,6.4200703125,1.1001359224319458,-0.4088095426559448,-0.0022906772792339325
1772651057462961400,6.42996142578125,1.1902358531951904,-0.26495498418807983,0.1360662281513214
1772651057472839000,6.4398388671875,1.2788087129592896,-0.14874130487442017,0.2095206081867218
1772651057482716200,6.449716064453125,1.3281346559524536,-0.08139539510011673,0.20661908388137817
1772651057492593700,6.45959375,1.3183610439300537,-0.06795676052570343,0.14400723576545715
1772651057502471000,6.469470947265625,1.2545275688171387,-0.11315945535898209,0.05726693198084831
1772651057512348400,6.479348388671875,1.1619842052459717,-0.19867807626724243,-0.009620844386518002
1772651057522225700,6.4892255859375,1.0708152055740356,-0.30740886926651,-0.02244863659143448
1772651057532103200,6.499103271484375,1.0198094844818115,-0.38132140040397644,0.05360184609889984
1772651057541966600,6.508966552734375,1.0195040702819824,-0.3936910629272461,0.2038702666759491
1772651057551858000,6.51885791015625,1.0639432668685913,-0.3295520842075348,0.4039227366447449
1772651057561735200,6.528735107421875,1.1491564512252808,-0.19027891755104065,0.6171084642410278
1772651057571612700,6.53861279296875,1.2522368431091309,-0.017714571207761765,0.8060129284858704
1772651057581490000,6.548489990234375,1.3585243225097656,0.15087927877902985,0.9484930634498596
1772651057591367400,6.558367431640625,1.456259846687317,0.29381752014160156,1.054322361946106
1772651057601230800,6.56823095703125,1.5408622026443481,0.38666632771492004,1.1271659135818481
1772651057611122200,6.5781220703125,1.6062228679656982,0.41415444016456604,1.1668709516525269
1772651057620999400,6.58799951171875,1.6469969749450684,0.38193225860595703,1.1780189275741577
1772651057630863000,6.597863037109375,1.666391372680664,0.3142809271812439,1.1624423265457153
1772651057640754200,6.607754150390625,1.6625735759735107,0.2367033064365387,1.127929449081421
1772651057650631700,6.617631591796875,1.6324893236160278,0.15271180868148804,1.0738694667816162
1772651057660495000,6.6274951171875,1.5857595205307007,0.05070032179355621,0.9923213720321655
1772651057670386200,6.63738623046875,1.535975456237793,-0.05543438717722893,0.8922951221466064
1772651057680263700,6.647263671875,1.4881765842437744,-0.12216944992542267,0.7947123050689697
1772651057690141000,6.657140869140625,1.4411413669586182,-0.14660334587097168,0.7047650218009949
1772651057700018400,6.667018310546875,1.3847907781600952,-0.1366770714521408,0.6164975762367249
1772651057709895700,6.676895751953125,1.316528558731079,-0.09544488787651062,0.5286883115768433
1772651057719773200,6.686773193359375,1.249793529510498,-0.029167955741286278,0.4437805414199829
1772651057729650400,6.696650390625,1.1896250247955322,0.04886778071522713,0.3668137788772583
1772651057739528000,6.70652783203125,1.1476292610168457,0.11499200016260147,0.30695074796676636
1772651057749405200,6.7164052734375,1.1289983987808228,0.1585148572921753,0.261442631483078
1772651057759282700,6.72628271484375,1.1323580741882324,0.1710372269153595,0.22631891071796417
1772651057769160000,6.736159912109375,1.1488510370254517,0.13392825424671173,0.19226416945457458
1772651057779037400,6.746037353515625,1.1616787910461426,0.04214845970273018,0.15652960538864136
1772651057788914700,6.755914794921875,1.161220669746399,-0.06368082761764526,0.11911521852016449
1772651057798792200,6.765792236328125,1.1372449398040771,-0.1629435122013092,0.06933116167783737
1772651057808669400,6.77566943359375,1.1005940437316895,-0.2510582208633423,0.023975754156708717
1772651057818547000,6.785546875,1.0534061193466187,-0.30603447556495667,-0.003359660040587187
1772651057828424200,6.795424072265625,0.9979717135429382,-0.32512345910072327,-0.006261184345930815
1772651057838301700,6.8053017578125,0.9316948056221008,-0.3306210935115814,0.0068720318377017975
1772651057848179000,6.815178955078125,0.8467870354652405,-0.3151971995830536,0.025808297097682953
1772651057858056400,6.825056396484375,0.7398887276649475,-0.29503923654556274,0.03573456406593323
1772651057867933700,6.83493359375,0.624896764755249,-0.2843494117259979,0.027182703837752342
1772651057877811200,6.844811279296875,0.527161180973053,-0.28282228112220764,0.01572931744158268
1772651057887688400,6.8546884765625,0.4566083252429962,-0.32161107659339905,-0.0006108472589403391
1772651057897566000,6.86456591796875,0.41201648116111755,-0.3962871730327606,-0.033291175961494446
1772651057907443200,6.874443115234375,0.3859027624130249,-0.47355934977531433,-0.09834641218185425
1772651057917320400,6.884320556640625,0.36757734417915344,-0.5506787896156311,-0.19424942135810852
1772651057927198000,6.894197998046875,0.353985995054245,-0.6322268843650818,-0.2973299026489258
1772651057937075200,6.9040751953125,0.34222719073295593,-0.6920899152755737,-0.39140036702156067
1772651057946952700,6.91395263671875,0.32161107659339905,-0.71942538022995,-0.4778352677822113
1772651057956830000,6.923829833984375,0.28877803683280945,-0.7369872331619263,-0.5560237169265747
1772651057966707500,6.93370751953125,0.24510246515274048,-0.7708892226219177,-0.6264238357543945
1772651057976584700,6.943584716796875,0.197609081864357,-0.8112051486968994,-0.6696413159370422
1772651057986448400,6.953448486328125,0.14018943905830383,-0.8713735938072205,-0.6722373962402344
1772651057996339500,6.96333935546875,0.08246438205242157,-0.9219212532043457,-0.6259657144546509
1772651058006217000,6.973217041015625,0.03634541109204292,-0.9232956171035767,-0.5283828973770142
1772651058016080400,6.983080322265625,0.007177455350756645,-0.8962656259536743,-0.40712970495224
1772651058025971700,6.9929716796875,0.0004581354442052543,-0.8651124238967896,-0.3054236173629761
1772651058035849000,7.002848876953125,0.0038177953101694584,-0.8541171550750732,-0.2551814317703247
1772651058045712600,7.012712646484375,0.024433890357613564,-0.8356390595436096,-0.2591519355773926
1772651058055603700,7.022603759765625,0.06398624926805496,-0.7919634580612183,-0.2985515892505646
1772651058065481200,7.032481201171875,0.11377029865980148,-0.7612683773040771,-0.3527642786502838
1772651058075344600,7.0423447265625,0.16767756640911102,-0.7487460374832153,-0.3915531039237976
1772651058085235700,7.052235595703125,0.2110477238893509,-0.6675033569335938,-0.37002071738243103
1772651058095113200,7.06211328125,0.25258535146713257,-0.43919917941093445,-0.23212195932865143
1772651058104977000,7.071976806640625,0.31382277607917786,-0.0922379344701767,0.04810422286391258
1772651058114868000,7.081867919921875,0.4340069890022278,0.2910687327384949,0.4265241026878357
1772651058124745200,7.0917451171875,0.5798467397689819,0.6276455521583557,0.804791271686554
1772651058134609000,7.10160888671875,0.6791094541549683,0.8412894010543823,1.1056334972381592
1772651058144500000,7.1115,0.7531746625900269,0.9093988537788391,1.2670499086380005
1772651058154377500,7.12137744140625,0.8261709213256836,0.8783983588218689,1.2745327949523926
1772651058164241000,7.131240966796875,0.8748859763145447,0.7858549952507019,1.157250165939331
1772651058174132200,7.14113232421875,0.8794673681259155,0.6438329815864563,0.9568922519683838
1772651058184009500,7.151009521484375,0.8322793841362,0.45615020394325256,0.7212579250335693
1772651058193873200,7.160873046875,0.7415685653686523,0.2292204350233078,0.4957025647163391
1772651058203764200,7.17076416015625,0.6203153729438782,0.01817270554602146,0.32542887330055237
1772651058213641500,7.180641357421875,0.48898324370384216,-0.11667182296514511,0.23868857324123383
1772651058223519000,7.19051904296875,0.37567105889320374,-0.14034216105937958,0.22845686972141266
1772651058233396200,7.200396240234375,0.30939415097236633,-0.06826218217611313,0.2748812735080719
1772651058243273700,7.210273681640625,0.2996205687522888,0.05772506445646286,0.35505497455596924
1772651058253151000,7.22015087890625,0.3393256664276123,0.2017323076725006,0.4486673176288605
1772651058263028500,7.230028564453125,0.41384902596473694,0.32634514570236206,0.5263976454734802
1772651058272905700,7.23990576171875,0.5100574493408203,0.3970507085323334,0.5865660905838013
1772651058282769400,7.249769287109375,0.615428626537323,0.41201648116111755,0.6433748602867126
1772651058292660500,7.259660400390625,0.7038487792015076,0.40789327025413513,0.7058340311050415
1772651058302538000,7.2695380859375,0.7571451663970947,0.3811686933040619,0.763559103012085
1772651058312401400,7.2794013671875,0.7718055248260498,0.35536038875579834,0.8054021000862122
1772651058322292500,7.28929248046875,0.7591304183006287,0.3504736125469208,0.818840742111206
1772651058332170000,7.299169921875,0.7290462255477905,0.3439069986343384,0.7809682488441467
1772651058342033700,7.30903369140625,0.6943806409835815,0.31657159328460693,0.6952968835830688
1772651058351924700,7.3189248046875,0.6560499668121338,0.25808295607566833,0.5729747414588928
1772651058361802000,7.328802001953125,0.6108472347259521,0.19455485045909882,0.43858832120895386
1772651058371679500,7.338679443359375,0.5511369109153748,0.14660334587097168,0.31504446268081665
1772651058381556700,7.348556640625,0.46897798776626587,0.08826743066310883,0.20692451298236847
1772651058391434200,7.358434326171875,0.38544461131095886,0.012369656935334206,0.12522368133068085
1772651058401311500,7.3683115234375,0.3171824514865875,-0.049020491540431976,0.07543963938951492
1772651058411188700,7.378188720703125,0.270452618598938,-0.09116895496845245,0.04749337583780289
1772651058421066200,7.388066162109375,0.2283041626214981,-0.12323843687772751,0.02076880633831024
1772651058430943500,7.397943603515625,0.18554484844207764,-0.14583978056907654,-0.01832541823387146
1772651058440821000,7.407821044921875,0.13392825424671173,-0.1638597846031189,-0.08139539510011673
1772651058450698200,7.4176982421875,0.07925742864608765,-0.19363857805728912,-0.1632489264011383
1772651058460575700,7.42757568359375,0.023823043331503868,-0.22662433981895447,-0.24510246515274048
1772651058470453000,7.437452880859375,-0.02764083817601204,-0.25808295607566833,-0.3106158375740051
1772651058480330500,7.44733056640625,-0.07360709458589554,-0.2904578745365143,-0.35566580295562744
1772651058490207700,7.457207763671875,-0.10842538625001907,-0.3092414140701294,-0.38009971380233765
1772651058500085200,7.467085205078125,-0.13713520765304565,-0.30817243456840515,-0.39231663942337036
1772651058509962500,7.47696240234375,-0.16004198789596558,-0.28938889503479004,-0.4065188467502594
1772651058519839700,7.48683984375,-0.17943638563156128,-0.2677038013935089,-0.4372139275074005
1772651058529717200,7.49671728515625,-0.20020519196987152,-0.25655585527420044,-0.4844018816947937
1772651058539594500,7.506594482421875,-0.22601348161697388,-0.28312769532203674,-0.538919985294342
1772651058549472000,7.516471923828125,-0.2635805904865265,-0.37322768568992615,-0.6033644080162048
1772651058559349200,7.526349365234375,-0.31412819027900696,-0.5505260825157166,-0.6635328531265259
1772651058569226800,7.536226806640625,-0.3668137788772583,-0.8009734749794006,-0.705070436000824
1772651058579090200,7.546090087890625,-0.4149180054664612,-1.078908920288086,-0.7275190949440002
1772651058588981500,7.5559814453125,-0.46073153614997864,-1.3285927772521973,-0.7560762166976929
1772651058598858800,7.565858642578125,-0.5225798487663269,-1.4817627668380737,-0.8060129284858704
1772651058608722400,7.575722412109375,-0.6018372774124146,-1.4802355766296387,-0.867250382900238
1772651058618613500,7.585613525390625,-0.6916317939758301,-1.3598986864089966,-0.9419264793395996
1772651058628490800,7.59549072265625,-0.7892146706581116,-1.2000094652175903,-1.0364550352096558
1772651058638354400,7.6053544921875,-0.876413106918335,-1.0178242921829224,-1.151447057723999
1772651058648245500,7.61524560546875,-0.9239065051078796,-0.7728744745254517,-1.2667444944381714
1772651058658123000,7.625123046875,-0.913369357585907,-0.4431696832180023,-1.3592878580093384
1772651058667986400,7.634986328125,-0.8506048321723938,-0.10094250738620758,-1.3967022895812988
1772651058677877800,7.644877685546875,-0.7456917762756348,0.13896775245666504,-1.3337849378585815
1772651058687755000,7.654755126953125,-0.6012263894081116,0.27442312240600586,-1.1306782960891724
1772651058697632300,7.66463232421875,-0.41415444016456604,0.3558185398578644,-0.7941014170646667
1772651058707509800,7.674509765625,-0.21211670339107513,0.41858309507369995,-0.37414395809173584
1772651058717387000,7.684386962890625,-0.03771981969475746,0.5592306852340698,0.12048961967229843
1772651058727250700,7.694250732421875,0.05787777900695801,0.7171346545219421,0.6161921620368958
1772651058737141800,7.704141845703125,0.07513421028852463,0.8316685557365417,1.0398147106170654
1772651058747019300,7.714019287109375,0.06398624926805496,0.8667922616004944,1.3345485925674438
1772651058756882700,7.723882568359375,0.01969982497394085,0.8487722873687744,1.4817627668380737
1772651058766773800,7.733773681640625,-0.0781884491443634,0.80280601978302,1.488329291343689
1772651058776651300,7.7436513671875,-0.22662433981895447,0.6992673873901367,1.3499724864959717
1772651058786515000,7.753514892578125,-0.41537612676620483,0.5415160655975342,1.0824213027954102
1772651058796406000,7.763406005859375,-0.6274928450584412,0.3924693763256073,0.7322531342506409
1772651058806283300,7.773283203125,-0.848314106464386,0.3127537965774536,0.3736858069896698
1772651058816160800,7.783160888671875,-1.051726222038269,0.31443363428115845,0.0791047215461731
1772651058826038000,7.7930380859375,-1.1865707635879517,0.38071054220199585,-0.11682453751564026
1772651058835915500,7.80291552734375,-1.233758807182312,0.4946335554122925,-0.21181128919124603
1772651058845779000,7.812779052734375,-1.2016892433166504,0.6404733657836914,-0.21394924819469452
1772651058855670000,7.822669921875,-1.116476058959961,0.7896727919578552,-0.13942588865756989
1772651058865547500,7.832547607421875,-1.0048437118530273,0.8942803740501404,-0.014965757727622986
1772651058875411000,7.842410888671875,-0.8909206986427307,0.9384140968322754,0.13423368334770203
1772651058885302300,7.85230224609375,-0.7997517585754395,0.9144383668899536,0.27533939480781555
1772651058895179500,7.862179443359375,-0.7408050298690796,0.8434273600578308,0.376740038394928
1772651058905056800,7.872056884765625,-0.7140804529190063,0.7661551833152771,0.4164451062679291
1772651058914934300,7.881934326171875,-0.719730794429779,0.7009472250938416,0.3965925872325897
1772651058924811500,7.8918115234375,-0.7598940134048462,0.6456655263900757,0.3306210935115814
1772651058934689000,7.90168896484375,-0.8232693672180176,0.6090146899223328,0.23960483074188232
1772651058944566300,7.911566162109375,-0.8916842937469482,0.5998520255088806,0.1453816443681717
1772651058954443800,7.92144384765625,-0.9487984776496887,0.6140542030334473,0.06139015033841133
1772651058964321000,7.931321044921875,-0.9839222431182861,0.6456655263900757,-0.004581354558467865
1772651058974198300,7.9411982421875,-0.9863656163215637,0.6641436815261841,-0.056808795779943466
1772651058984075800,7.95107568359375,-0.9565867781639099,0.6502469182014465,-0.10017894953489304
1772651058993953000,7.960953125,-0.897334635257721,0.603975236415863,-0.12827792763710022
1772651059003830500,7.97083056640625,-0.8220477104187012,0.5268557667732239,-0.13896775245666504
1772651059013707800,7.980707763671875,-0.7547017931938171,0.4369085133075714,-0.13927318155765533
1772651059023585300,7.990585205078125,-0.7178982496261597,0.3561239540576935,-0.14125843346118927
1772651059033462500,8.000462646484374,-0.7015580534934998,0.2939702570438385,-0.15744587779045105
1772651059043339800,8.01033984375,-0.6916317939758301,0.24449162185192108,-0.2020377367734909
1772651059053217300,8.02021728515625,-0.6823163628578186,0.21288026869297028,-0.284654825925827
1772651059063094500,8.030094482421875,-0.6610894203186035,0.20249587297439575,-0.3912476599216461
1772651059072972000,8.039971923828125,-0.6274928450584412,0.21288026869297028,-0.5097520351409912
1772651059082849300,8.049849365234374,-0.5896202921867371,0.24052110314369202,-0.6227588057518005
1772651059092726800,8.059726806640626,-0.5515950918197632,0.2498365342617035,-0.7252284288406372
1772651059102604000,8.06960400390625,-0.5137225389480591,0.22998400032520294,-0.8000571727752686
1772651059112467700,8.0794677734375,-0.474017471075058,0.2145601063966751,-0.8147175312042236
1772651059122358800,8.08935888671875,-0.41675055027008057,0.21089501678943634,-0.7650861740112305
1772651059132236000,8.099236083984374,-0.34573954343795776,0.21837788820266724,-0.6584933400154114
1772651059142113500,8.109113525390624,-0.2786990702152252,0.23105297982692719,-0.5268557667732239
1772651059151990800,8.11899072265625,-0.222042977809906,0.22509720921516418,-0.40667155385017395
1772651059161868000,8.128867919921875,-0.17775654792785645,0.2017323076725006,-0.31657159328460693
1772651059171745500,8.13874560546875,-0.14080029726028442,0.16630317270755768,-0.26067906618118286
1772651059181622800,8.148622802734375,-0.10170606523752213,0.1325538605451584,-0.2292204350233078
1772651059191500300,8.158500244140624,-0.05543438717722893,0.08796200156211853,-0.2211267054080963
1772651059201377500,8.16837744140625,-0.00259610079228878,0.03405473381280899,-0.22754059731960297
1772651059211255000,8.178255126953125,0.05650337040424347,-0.004123218823224306,-0.23838314414024353
1772651059221132300,8.18813232421875,0.11010521650314331,-0.025655584409832954,-0.2586938142776489
1772651059231009500,8.198009521484375,0.14309096336364746,-0.042453885078430176,-0.28129515051841736
1772651059240887000,8.207886962890624,0.14003673195838928,-0.12247487902641296,-0.312142938375473
1772651059250764300,8.217764404296876,0.07024743407964706,-0.33031564950942993,-0.37597647309303284
1772651059260641800,8.227641845703126,-0.07040014863014221,-0.6545228362083435,-0.4781406819820404
1772651059270519000,8.23751904296875,-0.21975229680538177,-0.985602080821991,-0.5786250829696655
1772651059280396300,8.247396240234375,-0.3333698809146881,-1.1995513439178467,-0.6325323581695557
1772651059290260000,8.257260009765625,-0.4127800464630127,-1.2676607370376587,-0.6351284384727478
1772651059300151000,8.267151123046874,-0.44011545181274414,-1.2259705066680908,-0.5806103348731995
1772651059310028500,8.277028564453126,-0.4193466305732727,-1.068982720375061,-0.45828816294670105
1772651059319892000,8.28689208984375,-0.3446705639362335,-0.7915053367614746,-0.2515163719654083
1772651059329783300,8.296783203125,-0.2079934924840927,-0.41797223687171936,0.032069481909275055
1772651059339660500,8.30666064453125,-0.036039989441633224,0.0015271181473508477,0.3552076816558838
1772651059349524200,8.316524169921875,0.13576079905033112,0.34757208824157715,0.6485670804977417
1772651059359415300,8.326415283203126,0.28098973631858826,0.5184566378593445,0.8406785130500793
1772651059369292500,8.33629248046875,0.37231141328811646,0.5519005060195923,0.9145910739898682
1772651059379156200,8.34615625,0.40972578525543213,0.5025745630264282,0.8822161555290222
1772651059389047300,8.35604736328125,0.3993414044380188,0.39643988013267517,0.7626428008079529
1772651059398924500,8.365924560546874,0.35948359966278076,0.2441861927509308,0.5772506594657898
1772651059408788200,8.375788330078125,0.305118203163147,0.07116370648145676,0.35505497455596924
1772651059418679300,8.38567919921875,0.23028941452503204,-0.08948912471532822,0.13591352105140686
1772651059428556500,8.395556640625,0.13545538485050201,-0.22463907301425934,-0.04062134400010109
1772651059438434000,8.40543408203125,0.031000498682260513,-0.29656633734703064,-0.1498102843761444
1772651059448311300,8.415311279296875,-0.06413896381855011,-0.2892361879348755,-0.19501298666000366
1772651059458188800,8.425188720703124,-0.13087402284145355,-0.2208212912082672,-0.20020519196987152
1772651059468066000,8.435066162109376,-0.1560714691877365,-0.12629267573356628,-0.1841704547405243
1772651059477943600,8.444943603515625,-0.14706148207187653,-0.034665580838918686,-0.15469707548618317
1772651059487820800,8.45482080078125,-0.10766182839870453,0.04199574887752533,-0.10552386194467545
1772651059497698000,8.464697998046875,-0.04550812020897865,0.11086877435445786,-0.02993151545524597
1772651059507575600,8.474575439453124,0.03161134570837021,0.17653486132621765,0.0647498071193695
1772651059517452800,8.484452880859376,0.11254860460758209,0.24525517225265503,0.17286977171897888
1772651059527330300,8.494330322265625,0.1847812980413437,0.3139754831790924,0.27656111121177673
1772651059537207600,8.50420751953125,0.24708771705627441,0.3775036036968231,0.35887277126312256
1772651059547084800,8.514084716796875,0.29030516743659973,0.4387410581111908,0.4106420576572418
1772651059556962300,8.52396240234375,0.31825143098831177,0.5236487984657288,0.42789849638938904
1772651059566839600,8.533839599609376,0.337340384721756,0.610541820526123,0.42011019587516785
1772651059576716800,8.543716796875,0.3507790267467499,0.6730009913444519,0.4143071472644806
1772651059586580500,8.55358056640625,0.3578037917613983,0.7012526392936707,0.42133188247680664
1772651059596471600,8.563471435546875,0.3512371778488159,0.6994200944900513,0.42759308218955994
1772651059606349000,8.57334912109375,0.33001023530960083,0.6668924689292908,0.41858309507369995
1772651059616212500,8.58321240234375,0.2779355049133301,0.5928272604942322,0.4306473135948181
1772651059626103800,8.593103759765626,0.16248537600040436,0.4065188467502594,0.4906630516052246
1772651059635981000,8.60298095703125,0.019088976085186005,0.034665580838918686,0.4083513915538788
1772651059645858300,8.6128583984375,-0.14095300436019897,-0.19944162666797638,0.2742704153060913
1772651059655735800,8.62273583984375,-0.28786176443099976,-0.2870981991291046,0.12904147803783417
1772651059665613000,8.632613037109374,-0.44072631001472473,-0.35108447074890137,0.018630841746926308
1772651059675476700,8.642476806640625,-0.576487123966217,-0.33001023530960083,0.01252236869186163
1772651059685367800,8.652367919921875,-0.689341127872467,-0.2716743052005768,0.09025268256664276
