time,seconds_elapsed,z,y,x
1772651051167281400,0.134281494140625,10.052248001098633,-2.0691933631896973,2.149951219558716
1772651051187036000,0.154035888671875,8.373682975769043,-1.5822539329528809,2.3509483337402344
1772651051206790400,0.173790283203125,8.322834968566895,-1.2819547653198242,2.5908286571502686
1772651051216668000,0.18366796875,8.37009334564209,-1.1623135805130005,2.6183462142944336
1772651051226545200,0.193545166015625,8.402995109558105,-1.0498509407043457,2.6219353675842285
1772651051236422400,0.20342236328125,8.416753768920898,-0.9547362327575684,2.606382131576538
1772651051246299600,0.213299560546875,8.48853874206543,-0.8709874153137207,2.586043119430542
1772651051256177000,0.223177001953125,8.569295883178711,-0.8207381963729858,2.5405795574188232
1772651051266054100,0.23305419921875,8.628518104553223,-0.802193820476532,2.480160713195801
1772651051275931600,0.242931640625,8.666803359985352,-0.7956135272979736,2.4227328300476074
1772651051285809000,0.252808837890625,8.707481384277344,-0.7890332937240601,2.3443679809570312
1772651051295686100,0.26268603515625,8.783453941345215,-0.8207381963729858,2.2157537937164307
1772651051305563400,0.2725634765625,8.867202758789062,-0.867398202419281,2.084746837615967
1772651051315440600,0.282440673828125,8.950352668762207,-0.9254241585731506,1.9489539861679077
1772651051325318100,0.292318115234375,9.026923179626465,-0.9547362327575684,1.8346967697143555
1772651051335195400,0.3021953125,9.074779510498047,-0.9505487680435181,1.7413766384124756
1772651051345072600,0.31207275390625,9.055039405822754,-0.9134600162506104,1.6552350521087646
1772651051354950000,0.321949951171875,8.877969741821289,-0.867398202419281,1.5696916580200195
1772651051364827100,0.3318271484375,8.59621524810791,-0.7950153350830078,1.4530415534973145
1772651051374704400,0.341704345703125,8.244470596313477,-0.7334001660346985,1.3040883541107178
1772651051384582000,0.351581787109375,7.896913051605225,-0.6430711150169373,1.1539387702941895
1772651051394459100,0.361459228515625,7.536194801330566,-0.5694918036460876,1.0067801475524902
1772651051404336400,0.37133642578125,7.258627414703369,-0.5000999569892883,0.9122636318206787
1772651051414213600,0.381213623046875,7.060023307800293,-0.4085744619369507,0.7950153350830078
1772651051424091000,0.3910908203125,6.86381196975708,-0.32961133122444153,0.6759724020957947
1772651051433968000,0.400968017578125,6.712465763092041,-0.27397820353507996,0.5712863802909851
1772651051443845600,0.410845703125,6.671787738800049,-0.24586252868175507,0.5042873620986938
1772651051453723000,0.420722900390625,6.835696220397949,-0.10707881301641464,0.4737788736820221
1772651051463600000,0.43060009765625,7.157530784606934,0.04426721855998039,0.4899304509162903
1772651051473477400,0.440477294921875,7.2676005363464355,0.08315058797597885,0.503689169883728
1772651051483354600,0.450354736328125,7.148557662963867,0.04187439754605293,0.5234299302101135
1772651051493231900,0.46023193359375,6.940980434417725,0.04546362906694412,0.666999340057373
1772651051503109400,0.470109375,6.876972198486328,0.058624155819416046,0.9002995491027832
1772651051512986600,0.479986572265625,6.989434719085693,0.07896314561367035,1.205384373664856
1772651051522863900,0.48986376953125,7.3052873611450195,0.02273181453347206,1.4213366508483887
1772651051532741000,0.4997412109375,7.8556365966796875,-0.11724831163883209,1.5302101373672485
1772651051542604800,0.509604736328125,8.730812072753906,-0.3565305769443512,1.6199408769607544
1772651051552495600,0.51949560546875,9.843474388122559,-0.6819544434547424,1.831107497215271
1772651051562373000,0.529373046875,10.957931518554688,-1.0187442302703857,2.1020946502685547
1772651051572236500,0.539236572265625,12.108879089355469,-1.3495519161224365,2.2301106452941895
1772651051582127600,0.549127685546875,13.1635160446167,-1.8508483171463013,2.0787646770477295
1772651051592004900,0.5590048828125,14.24267864227295,-2.4460630416870117,1.7617156505584717
1772651051601868500,0.56886865234375,15.43908977508545,-2.981456995010376,1.3980066776275635
1772651051611759400,0.57875927734375,16.453048706054688,-3.4648072719573975,1.079761266708374
1772651051621636900,0.588636962890625,17.04646873474121,-3.8297126293182373,0.8476574420928955
1772651051631500300,0.598500244140625,17.116458892822266,-4.103092670440674,0.6741777658462524
1772651051641391400,0.608391357421875,16.773088455200195,-4.2933220863342285,0.6059823632240295
1772651051651268600,0.6182685546875,16.04985809326172,-4.393222332000732,0.6687939167022705
1772651051661145900,0.628145751953125,15.116059303283691,-4.296911239624023,0.916451096534729
1772651051671023000,0.638023193359375,14.133207321166992,-3.9361932277679443,1.3573286533355713
1772651051680900600,0.647900634765625,13.243675231933594,-3.3684961795806885,1.929213285446167
1772651051690764000,0.657763916015625,12.54975700378418,-2.785843849182129,2.5429723262786865
1772651051700655000,0.667655029296875,11.94197940826416,-2.338984251022339,3.1028928756713867
1772651051710532400,0.677532470703125,11.3778715133667,-2.0416758060455322,3.5359935760498047
1772651051720396000,0.68739599609375,10.873584747314453,-1.8215361833572388,3.7734813690185547
1772651051730287000,0.697287109375,10.375877380371094,-1.6342978477478027,3.845266103744507
1772651051740164400,0.707164306640625,9.821340560913086,-1.4985052347183228,3.8225340843200684
1772651051750027800,0.71702783203125,9.239884376525879,-1.3657035827636719,3.7226338386535645
1772651051759918800,0.7269189453125,8.636893272399902,-1.211964726448059,3.5641093254089355
1772651051769796000,0.736796142578125,8.034500122070312,-1.0528420209884644,3.476173162460327
1772651051779659800,0.74665966796875,7.500900745391846,-0.865005373954773,3.3930225372314453
1772651051789550800,0.75655078125,7.005586624145508,-0.6598208546638489,3.3003005981445312
1772651051799428000,0.766427978515625,6.62213659286499,-0.4713860750198364,3.2207393646240234
1772651051809291500,0.77629150390625,6.356533527374268,-0.31345975399017334,3.119642496109009
1772651051819182600,0.7861826171875,6.193222999572754,-0.2027917206287384,3.0143582820892334
1772651051829059800,0.796059814453125,6.083153247833252,-0.11545369029045105,2.933002471923828
1772651051838937000,0.80593701171875,6.063412666320801,-0.04007977992296219,2.8348965644836426
1772651051848814600,0.815814697265625,6.03948450088501,-0.010767702013254166,2.7038896083831787
1772651051858691800,0.82569189453125,6.015556335449219,-0.04366901144385338,2.5298118591308594
1772651051868569000,0.835569091796875,5.953342914581299,-0.09810572862625122,2.3258235454559326
1772651051878446300,0.8454462890625,5.826523303985596,-0.12921242415905,2.129014015197754
1772651051888323600,0.855323486328125,5.675177097320557,-0.12861421704292297,1.9770697355270386
1772651051898200800,0.865200927734375,5.55314302444458,-0.10169496387243271,1.8317056894302368
1772651051908078300,0.875078369140625,5.569892883300781,-0.0933200865983963,1.6839489936828613
1772651051917955600,0.88495556640625,5.799005508422852,-0.13459627330303192,1.5667005777359009
1772651051927832800,0.894832763671875,6.057430744171143,-0.24945175647735596,1.4213366508483887
1772651051937710000,0.9047099609375,6.165107727050781,-0.44446679949760437,1.2161520719528198
1772651051947587300,0.91458740234375,6.248856544494629,-0.5982056856155396,1.0289137363433838
1772651051957464600,0.924464599609375,6.488138675689697,-0.6963114142417908,0.8883354067802429
1772651051967342000,0.934342041015625,7.0067830085754395,-0.7782655358314514,0.8703892230987549
1772651051977219300,0.94421923828125,7.788637638092041,-0.9044869542121887,1.0791629552841187
1772651051987082800,0.954082763671875,8.492127418518066,-1.23589289188385,1.3010972738265991
1772651051996973800,0.963973876953125,8.869595527648926,-1.7593228816986084,1.3076776266098022
1772651052006851000,0.97385107421875,9.072386741638184,-2.2719850540161133,1.2502498626708984
1772651052016714800,0.98371484375,9.277571678161621,-2.7637102603912354,1.3872389793395996
1772651052026605800,0.993605712890625,9.888937950134277,-3.2315070629119873,1.6522440910339355
1772651052036483000,1.003483154296875,11.082956314086914,-3.6323046684265137,1.8664016723632812
1772651052046346500,1.013346435546875,12.707682609558105,-3.7220356464385986,1.8921245336532593
1772651052056237600,1.023237548828125,14.304891586303711,-3.6508491039276123,1.7114664316177368
1772651052066114800,1.03311474609375,15.451053619384766,-3.635295867919922,1.3519448041915894
1772651052075978500,1.042978515625,16.307086944580078,-3.658625841140747,0.8512466549873352
1772651052085869600,1.05286962890625,16.46261978149414,-3.8213376998901367,0.48035913705825806
1772651052095746800,1.062746826171875,15.199807167053223,-4.106681823730469,-0.014955141581594944
1772651052105610200,1.0726103515625,13.401002883911133,-4.350749969482422,-0.5772684812545776
1772651052115501300,1.082501220703125,11.995220184326172,-4.515256404876709,-0.5252245664596558
1772651052125378600,1.092378662109375,10.97587776184082,-4.479962348937988,0.08374879509210587
1772651052135242200,1.1022421875,10.49372386932373,-4.18564510345459,0.8727820515632629
1772651052145133300,1.11213330078125,10.482955932617188,-3.7094733715057373,1.5810575485229492
1772651052155010600,1.122010498046875,10.852646827697754,-3.2368907928466797,2.1756739616394043
1772651052164874000,1.1318740234375,11.606386184692383,-2.853440999984741,2.6141586303710938
1772651052174765000,1.14176513671875,12.377472877502441,-2.6835505962371826,2.8289146423339844
1772651052184642300,1.151642333984375,12.833904266357422,-2.7637102603912354,2.7397818565368652
1772651052194519800,1.161519775390625,12.977473258972168,-2.9653055667877197,2.345564365386963
1772651052204397000,1.17139697265625,12.776476860046387,-3.1136605739593506,1.8143577575683594
1772651052214274300,1.1812744140625,12.252448081970215,-3.115455150604248,1.339382529258728
1772651052224151600,1.191151611328125,11.523235321044922,-2.9904301166534424,0.973878800868988
1772651052234028800,1.20102880859375,10.661819458007812,-2.7864420413970947,0.7345965504646301
1772651052243906000,1.210906005859375,9.736394882202148,-2.5399811267852783,0.6376872062683105
1772651052253769700,1.220769775390625,8.765507698059082,-2.252842426300049,0.6221339106559753
1772651052263660800,1.230660888671875,7.895118236541748,-1.9722840785980225,0.6269195079803467
1772651052273538000,1.2405380859375,7.203592777252197,-1.6977076530456543,0.6436693072319031
1772651052283401500,1.2504013671875,6.653243541717529,-1.4757733345031738,0.666999340057373
1772651052293292500,1.26029248046875,6.260820388793945,-1.3214362859725952,0.6927221417427063
1772651052303169800,1.270169677734375,6.0197434425354,-1.217348575592041,0.6640082597732544
1772651052313033500,1.280033447265625,5.9647088050842285,-1.2167502641677856,0.5742774605751038
1772651052322924500,1.289924560546875,6.0197434425354,-1.3100703954696655,0.4654040038585663
1772651052332801800,1.2998017578125,6.141777515411377,-1.4518451690673828,0.3678964674472809
1772651052342679000,1.309678955078125,6.3116679191589355,-1.597209095954895,0.3044866919517517
1772651052352556300,1.319556396484375,6.507879257202148,-1.7443677186965942,0.28654050827026367
1772651052362433500,1.32943359375,6.673582553863525,-1.8789639472961426,0.349352091550827
1772651052372311000,1.33931103515625,6.809973239898682,-1.9489539861679077,0.45942193269729614
1772651052382188300,1.349188232421875,6.98704195022583,-1.9226330518722534,0.649053156375885
1772651052392065500,1.3590654296875,7.1850481033325195,-1.8149559497833252,0.8422735929489136
1772651052401942800,1.36894287109375,7.395018577575684,-1.7270197868347168,1.0121639966964722
1772651052411820000,1.378820068359375,7.562515735626221,-1.7138592004776,1.1018948554992676
1772651052421697500,1.388697509765625,7.691728591918945,-1.755733609199524,1.1665010452270508
1772651052431574800,1.39857470703125,7.77607536315918,-1.8305093050003052,1.2598211765289307
1772651052441452000,1.4084521484375,7.864609718322754,-1.8861424922943115,1.4003994464874268
1772651052451329300,1.418329345703125,8.02074146270752,-1.8789639472961426,1.5595221519470215
1772651052461206500,1.42820654296875,8.170890808105469,-1.8562321662902832,1.7018951177597046
1772651052471084000,1.438083984375,8.292924880981445,-1.8113667964935303,1.817348837852478
1772651052480961300,1.447961181640625,8.388039588928223,-1.7437695264816284,1.8999011516571045
1772651052490838500,1.457838623046875,8.444869041442871,-1.6450655460357666,1.9746768474578857
1772651052500715800,1.4677158203125,8.428119659423828,-1.5439687967300415,2.0859432220458984
1772651052510593000,1.477593017578125,8.346763610839844,-1.4051851034164429,2.1822543144226074
1772651052520470300,1.48747021484375,8.267202377319336,-1.2233306169509888,2.20737886428833
1772651052530347800,1.49734765625,8.146963119506836,-1.0689935684204102,2.2301106452941895
1772651052540225000,1.50722509765625,7.776673793792725,-1.0600204467773438,2.2791635990142822
1772651052550102300,1.517102294921875,7.307082176208496,-1.1994023323059082,2.36291241645813
1772651052559979500,1.5269794921875,7.073781967163086,-1.3818551301956177,2.596810817718506
1772651052569856800,1.536856689453125,7.156334400177002,-1.5224334001541138,2.857628345489502
1772651052579734000,1.546734130859375,7.764111042022705,-1.6618152856826782,3.0143582820892334
1772651052589611500,1.556611572265625,9.001798629760742,-1.8987047672271729,2.9216363430023193
1772651052599488800,1.56648876953125,10.650453567504883,-2.2241287231445312,2.406581401824951
1772651052609352200,1.576352294921875,12.55693531036377,-2.6847469806671143,1.6151553392410278
1772651052619243300,1.5862431640625,14.259428024291992,-3.3643085956573486,0.6981059908866882
1772651052629120500,1.59612060546875,15.362519264221191,-4.270590305328369,-0.1950150430202484
1772651052638984200,1.605984130859375,15.651453018188477,-5.213960647583008,-0.989432156085968
1772651052648875300,1.615875244140625,15.071791648864746,-6.156134605407715,-1.4973087310791016
1772651052658752500,1.62575244140625,14.136198043823242,-6.930810928344727,-1.6002001762390137
1772651052668616000,1.635615966796875,13.513465881347656,-7.435098171234131,-1.1802598237991333
1772651052678507000,1.645507080078125,13.076177597045898,-7.621738433837891,-0.2667997181415558
1772651052688384300,1.65538427734375,12.816555976867676,-7.316653251647949,0.8201399445533752
1772651052698248000,1.665248046875,12.80578899383545,-6.604788780212402,1.9351953268051147
1772651052708139000,1.675138916015625,13.039687156677246,-5.698507308959961,2.837887763977051
1772651052718016300,1.685016357421875,13.28554916381836,-4.8915276527404785,3.3553354740142822
1772651052727879700,1.694879638671875,13.378870010375977,-4.392624378204346,3.3714871406555176
1772651052737770800,1.704770751953125,13.336995124816895,-4.216153621673584,2.867199659347534
1772651052747648000,1.71464794921875,13.296915054321289,-4.205984115600586,1.9471594095230103
1772651052757511700,1.72451171875,13.257433891296387,-4.241876125335693,0.875174880027771
1772651052767402800,1.73440283203125,13.074382781982422,-4.175475597381592,-0.09690931439399719
1772651052777280000,1.744280029296875,12.598809242248535,-3.988237142562866,-0.8476574420928955
1772651052787143400,1.754143310546875,11.720643043518066,-3.738187074661255,-1.292722463607788
1772651052797034800,1.76403466796875,10.488938331604004,-3.4025938510894775,-1.357926845550537
1772651052806912000,1.773912109375,9.073583602905273,-2.9856443405151367,-1.1234302520751953
1772651052816775400,1.783775390625,7.6875410079956055,-2.578864574432373,-0.6867401003837585
1772651052826666500,1.79366650390625,6.468397617340088,-2.2067806720733643,-0.19980068504810333
1772651052836543700,1.803543701171875,5.5722856521606445,-1.8454644680023193,0.2907279431819916
1772651052846407400,1.813407470703125,5.00997257232666,-1.4925230741500854,0.7758727669715881
1772651052856298500,1.823298583984375,4.716253280639648,-1.1772687435150146,1.1665010452270508
1772651052866175700,1.83317578125,4.596014022827148,-1.0223335027694702,1.4536397457122803
1772651052876039200,1.8430390625,4.589433670043945,-1.0211371183395386,1.597209095954895
1772651052885930200,1.85293017578125,4.728217601776123,-1.0773683786392212,1.6372889280319214
1772651052895807500,1.862807373046875,4.967499732971191,-1.1288141012191772,1.6612170934677124
1772651052905685000,1.87268505859375,5.251647472381592,-1.189831018447876,1.6271194219589233
1772651052915562200,1.882562255859375,5.478965759277344,-1.2664014101028442,1.5720844268798828
1772651052925439500,1.892439453125,5.643472194671631,-1.2903295755386353,1.4859428405761719
1772651052935316700,1.902316650390625,5.722435474395752,-1.2693923711776733,1.4021940231323242
1772651052945194000,1.912194091796875,5.798407554626465,-1.2263215780258179,1.3417752981185913
1772651052955071500,1.922071533203125,5.863013744354248,-1.179661512374878,1.2532408237457275
1772651052964948700,1.93194873046875,5.891129493713379,-1.1204391717910767,1.2143574953079224
1772651052974826000,1.941825927734375,5.843272686004639,-1.036690354347229,1.2705888748168945
1772651052984703200,1.951703125,5.78345251083374,-0.9158528447151184,1.4321043491363525
1772651052994580500,1.96158056640625,5.790032386779785,-0.7627122402191162,1.7018951177597046
1772651053004458000,1.9714580078125,5.849853038787842,-0.600000262260437,1.9956140518188477
1772651053014335200,1.981335205078125,5.947360515594482,-0.4163511395454407,2.2360928058624268
1772651053024212500,1.99121240234375,6.254838466644287,-0.2991028428077698,2.3742783069610596
1772651053034089700,2.00108984375,6.890132904052734,-0.3086741268634796,2.3700907230377197
1772651053043967000,2.010967041015625,7.679165840148926,-0.47617170214653015,2.3162522315979004
1772651053053830700,2.02083056640625,8.437092781066895,-0.7890332937240601,2.190629243850708
1772651053063721700,2.0307216796875,9.153144836425781,-1.2197413444519043,2.022533416748047
1772651053073599000,2.040598876953125,9.938589096069336,-1.674975872039795,1.9914265871047974
1772651053083462700,2.050462646484375,10.865209579467773,-2.1409780979156494,2.073380708694458
1772651053093353500,2.060353515625,11.781660079956055,-2.536990165710449,2.222334146499634
1772651053103231000,2.07023095703125,12.378071784973145,-2.9114668369293213,2.428116798400879
1772651053113094400,2.080094482421875,12.43250846862793,-3.2303106784820557,2.7984061241149902
1772651053122985500,2.0899853515625,11.892328262329102,-3.407379388809204,3.4265220165252686
1772651053132862700,2.09986279296875,11.108080863952637,-3.492922782897949,4.071387767791748
1772651053142726400,2.109726318359375,10.649855613708496,-3.5132617950439453,4.578067779541016
1772651053152617500,2.119617431640625,10.825129508972168,-3.455834150314331,4.8059844970703125
1772651053162494700,2.12949462890625,11.645867347717285,-3.3996028900146484,4.628317356109619
1772651053172358400,2.1393583984375,12.979268074035645,-3.3194432258605957,4.019941806793213
1772651053182249200,2.149249267578125,14.606986045837402,-3.2787652015686035,3.1148569583892822
1772651053192126700,2.159126708984375,15.950555801391602,-3.379862070083618,2.179263114929199
1772651053201990100,2.168990234375,16.318452835083008,-3.7537405490875244,1.3908281326293945
1772651053211881200,2.178881103515625,15.347564697265625,-4.278964996337891,0.7082754969596863
1772651053221758500,2.188758544921875,13.396815299987793,-4.638486862182617,0.2548356056213379
1772651053231622100,2.1986220703125,11.206186294555664,-4.635495662689209,0.18424734473228455
1772651053241513200,2.20851318359375,9.266803741455078,-4.4721856117248535,0.5784648656845093
1772651053251390500,2.218390380859375,7.913064479827881,-4.267599105834961,1.3124631643295288
1772651053261254000,2.22825390625,7.251449108123779,-3.9972102642059326,2.1607189178466797
1772651053271145000,2.23814501953125,7.2681989669799805,-3.6711881160736084,2.874976396560669
1772651053281022500,2.2480224609375,7.914859294891357,-3.294916868209839,3.5330026149749756
1772651053290886000,2.257885986328125,9.041878700256348,-3.016152858734131,4.040879249572754
1772651053300777000,2.26777685546875,10.42492961883545,-2.9048867225646973,4.201198577880859
1772651053310654200,2.277654296875,11.898908615112305,-3.0131618976593018,4.046861171722412
1772651053320518000,2.287517822265625,13.024731636047363,-3.3589248657226562,3.593421459197998
1772651053330409000,2.297408935546875,13.655838966369629,-3.7902309894561768,2.9042885303497314
1772651053340286200,2.3072861328125,13.99502182006836,-4.152743816375732,2.2085752487182617
1772651053350149600,2.317149658203125,13.954941749572754,-4.440480709075928,1.5852450132369995
1772651053360040700,2.327040771484375,13.515260696411133,-4.652843475341797,1.00259268283844
1772651053369918200,2.336918212890625,12.731013298034668,-4.731806755065918,0.46061834692955017
1772651053379781600,2.34678173828125,11.858230590820312,-4.607978343963623,0.07178468257188797
1772651053389672700,2.356672607421875,10.870593070983887,-4.314857482910156,-0.1136590763926506
1772651053399550000,2.366550048828125,9.789037704467773,-3.9278182983398438,-0.09391828626394272
1772651053409413600,2.37641357421875,8.691329956054688,-3.538984775543213,0.08255238085985184
1772651053419304700,2.3863046875,7.610970497131348,-3.132802963256836,0.33020952343940735
1772651053429182000,2.396181884765625,6.613163471221924,-2.688336133956909,0.5533402562141418
1772651053439045600,2.406045654296875,5.80199670791626,-2.2773690223693848,0.6927221417427063
1772651053448936400,2.4159365234375,5.230112075805664,-1.97407865524292,0.7537391185760498
1772651053458814000,2.42581396484375,4.866403102874756,-1.7527425289154053,0.7884350419044495
1772651053468677400,2.435677490234375,4.71744966506958,-1.6109678745269775,0.7639086246490479
1772651053478568400,2.445568359375,4.7096734046936035,-1.5326029062271118,0.7322037220001221
1772651053488446000,2.455446044921875,4.779065132141113,-1.511067509651184,0.7076773047447205
1772651053498323200,2.4653232421875,4.855635166168213,-1.5553346872329712,0.7746763229370117
1772651053508200400,2.475200439453125,4.872983455657959,-1.6061822175979614,0.9391828775405884
1772651053518077700,2.48507763671875,4.883152961730957,-1.6402798891067505,1.085145115852356
1772651053527955000,2.494954833984375,4.9262237548828125,-1.649253010749817,1.1545369625091553
1772651053537832400,2.50483251953125,5.005186557769775,-1.7078771591186523,1.195214867591858
1772651053547709700,2.514709716796875,5.096114158630371,-1.7766708135604858,1.2287144660949707
1772651053557587000,2.5245869140625,5.313860893249512,-1.8197416067123413,1.332802176475525
1772651053567464400,2.53446435546875,5.687141418457031,-1.8915263414382935,1.439282774925232
1772651053577341700,2.544341796875,6.08614444732666,-1.9854445457458496,1.4847464561462402
1772651053587219000,2.554218994140625,6.416353702545166,-2.0985054969787598,1.4937195777893066
1772651053597096200,2.56409619140625,6.636493682861328,-2.2187447547912598,1.5134602785110474
1772651053606973400,2.573973388671875,6.74656343460083,-2.2995026111602783,1.537388563156128
1772651053616851000,2.583850830078125,6.716054916381836,-2.3306093215942383,1.5667005777359009
1772651053626728200,2.593728271484375,6.692126750946045,-2.2995026111602783,1.5858432054519653
1772651053636605400,2.60360546875,6.799205780029297,-2.287538528442383,1.5565310716629028
1772651053646482700,2.613482666015625,6.964310169219971,-2.304288148880005,1.4799607992172241
1772651053656360200,2.623360107421875,7.2676005363464355,-2.334796667098999,1.3764712810516357
1772651053666237400,2.633237548828125,7.654639720916748,-2.430509567260742,1.1808580160140991
1772651053676114700,2.64311474609375,8.151150703430176,-2.5459632873535156,0.9200403094291687
1772651053685992200,2.6529921875,8.765507698059082,-2.699103832244873,0.5934200286865234
1772651053695869400,2.662869384765625,9.41755199432373,-2.947359323501587,0.3044866919517517
1772651053705732900,2.67273291015625,10.020543098449707,-3.2297122478485107,0.2315055876970291
1772651053715624000,2.6826240234375,10.39501953125,-3.542573928833008,0.5000999569892883
1772651053725501400,2.69250146484375,10.380064964294434,-3.775275945663452,0.9505487680435181
1772651053735378700,2.702378662109375,10.216156005859375,-3.724428415298462,1.3387842178344727
1772651053745256000,2.712255859375,10.37767219543457,-3.47019100189209,1.6432709693908691
1772651053755133200,2.72213330078125,11.151151657104492,-3.2177481651306152,1.8023936748504639
1772651053764996900,2.731996826171875,12.633505821228027,-3.077768087387085,1.7072789669036865
1772651053774888000,2.741887939453125,14.43889045715332,-3.1896326541900635,1.2634103298187256
1772651053784765200,2.75176513671875,16.052249908447266,-3.7022948265075684,0.5856433510780334
1772651053794628900,2.76162890625,17.324634552001953,-4.457828521728516,-0.0975075215101242
1772651053804520000,2.77152001953125,17.784055709838867,-5.325825214385986,-0.4977070987224579
1772651053814397200,2.781397216796875,17.257036209106445,-6.121438503265381,-0.4139583110809326
1772651053824260600,2.791260498046875,15.963716506958008,-6.6939215660095215,0.34695929288864136
1772651053834152000,2.80115185546875,14.561522483825684,-6.775277137756348,1.6546368598937988
1772651053844029200,2.811029296875,13.585848808288574,-6.375676155090332,3.1764719486236572
1772651053853892600,2.820892578125,13.036097526550293,-5.629115104675293,4.691128730773926
1772651053863783700,2.83078369140625,13.010375022888184,-4.907679080963135,5.817550182342529
1772651053873661200,2.8406611328125,13.250853538513184,-4.450650215148926,6.375077724456787
1772651053883524600,2.850524658203125,13.735400199890137,-4.302295207977295,6.245266914367676
1772651053893415700,2.860415771484375,14.403595924377441,-4.557130813598633,5.49930477142334
1772651053903293200,2.870293212890625,14.972489356994629,-5.0566325187683105,4.43031120300293
1772651053913156600,2.880156494140625,15.206387519836426,-5.546562671661377,3.226123094558716
1772651053923047700,2.890047607421875,14.959927558898926,-5.894120216369629,2.091326951980591
1772651053932925000,2.899925048828125,14.161920547485352,-6.0466628074646,1.1527422666549683
1772651053942788600,2.90978857421875,12.939188003540039,-5.934798240661621,0.6317051649093628
1772651053952679700,2.9196796875,11.497512817382812,-5.531009674072266,0.5162515044212341
1772651053962557000,2.929556884765625,9.923633575439453,-4.960321426391602,0.6711867451667786
1772651053972420600,2.939420654296875,8.419146537780762,-4.323830604553223,0.9678967595100403
1772651053982311700,2.949311767578125,7.103692054748535,-3.7154552936553955,1.2765709161758423
1772651053992189000,2.95918896484375,6.086742401123047,-3.1800613403320312,1.5086746215820312
1772651054002052600,2.969052490234375,5.416153907775879,-2.761317253112793,1.6498512029647827
1772651054011943700,2.978943603515625,5.130809783935547,-2.5160529613494873,1.7413766384124756
1772651054021821000,2.988821044921875,5.115854740142822,-2.38265323638916,1.7353945970535278
1772651054031684400,2.998684326171875,5.2043890953063965,-2.3018953800201416,1.6175481081008911
1772651054041575700,3.00857568359375,5.353940486907959,-2.252842426300049,1.4518451690673828
1772651054051453000,3.018452880859375,5.50648307800293,-2.2085752487182617,1.3244273662567139
1772651054061330200,3.028330078125,5.61116886138916,-2.2474586963653564,1.1838489770889282
1772651054071207400,3.03820751953125,5.6685967445373535,-2.2959132194519043,1.0390832424163818
1772651054081085000,3.0480849609375,5.675775527954102,-2.242074728012085,0.9427721500396729
1772651054090962200,3.057962158203125,5.557928562164307,-2.142772674560547,0.8967102766036987
1772651054100839400,3.06783935546875,5.32821798324585,-2.0506489276885986,0.9014959335327148
1772651054110717000,3.077717041015625,5.143970489501953,-1.9561325311660767,0.908674418926239
1772651054120594200,3.08759423828125,4.972285270690918,-1.8921245336532593,0.9230313301086426
1772651054130471400,3.097471435546875,4.831109046936035,-1.8801604509353638,0.9349954724311829
1772651054140349000,3.107348876953125,4.809573650360107,-1.8783657550811768,0.882951557636261
1772651054150226200,3.11722607421875,4.921437740325928,-1.8741782903671265,0.8087740540504456
1772651054160103400,3.127103515625,5.093122959136963,-1.8448662757873535,0.7651050686836243
1772651054169981000,3.13698095703125,5.358128070831299,-1.7730815410614014,0.7393822073936462
1772651054179858200,3.146858154296875,5.651846885681152,-1.6977076530456543,0.7872386574745178
1772651054189735400,3.1567353515625,5.983851432800293,-1.6450655460357666,0.8901300430297852
1772651054199613000,3.166613037109375,6.394818305969238,-1.5810575485229492,0.9834501147270203
1772651054209490200,3.176490234375,6.831508636474609,-1.5649060010910034,0.9912267923355103
1772651054219367400,3.186367431640625,7.304090976715088,-1.6019947528839111,0.9326026439666748
1772651054229244700,3.19624462890625,7.7461652755737305,-1.6319050788879395,0.836291491985321
1772651054239108400,3.2061083984375,8.292924880981445,-1.597209095954895,0.7573283910751343
1772651054248999400,3.21599951171875,8.987442016601562,-1.5092729330062866,0.7016952633857727
1772651054258876700,3.225876708984375,9.730413436889648,-1.459621787071228,0.6317051649093628
1772651054268740400,3.235740234375,10.362716674804688,-1.4602199792861938,0.5605186820030212
1772651054278631400,3.24563134765625,10.869397163391113,-1.454237937927246,0.47976094484329224
1772651054288509000,3.255509033203125,11.272587776184082,-1.4608181715011597,0.4139583110809326
1772651054298372400,3.265372314453125,11.499905586242676,-1.5128620862960815,0.389431893825531
1772651054308263400,3.275263427734375,11.59561824798584,-1.583450436592102,0.4468596279621124
1772651054318140700,3.285140625,11.641680717468262,-1.6277176141738892,0.5000999569892883
1772651054328018200,3.29501806640625,11.82712459564209,-1.5984054803848267,0.5419743061065674
1772651054337895400,3.3048955078125,11.95872974395752,-1.571486234664917,0.5318048596382141
1772651054347773000,3.31477294921875,11.874980926513672,-1.6121642589569092,0.5108676552772522
1772651054357650200,3.324650146484375,11.770294189453125,-1.7252250909805298,0.49351966381073
1772651054367527400,3.33452734375,11.819347381591797,-1.9465612173080444,0.48574298620224
1772651054377404700,3.34440478515625,12.004791259765625,-2.306680917739868,0.4336991012096405
1772651054387282200,3.3542822265625,12.159128189086914,-2.785245656967163,0.2476571500301361
1772651054397159400,3.364159423828125,12.27817153930664,-3.305086374282837,-0.02392822690308094
1772651054407036700,3.37403662109375,12.575479507446289,-3.73459792137146,-0.18065811693668365
1772651054416914200,3.3839140625,12.99960708618164,-4.067200183868408,-0.19740787148475647
1772651054426791400,3.39379150390625,13.438092231750488,-4.350151538848877,-0.03170489892363548
1772651054436669000,3.4036689453125,13.805390357971191,-4.594817638397217,0.21236300468444824
1772651054446546200,3.413546142578125,14.016556739807129,-4.7503509521484375,0.5659025311470032
1772651054456423400,3.42342333984375,13.938790321350098,-4.83051061630249,0.9505487680435181
1772651054466301000,3.433301025390625,13.566706657409668,-4.848456859588623,1.2424731254577637
1772651054476178200,3.44317822265625,13.031909942626953,-4.856233596801758,1.4117653369903564
1772651054486055400,3.453055419921875,12.444472312927246,-4.926821708679199,1.4763715267181396
1772651054495933000,3.462932861328125,11.981461524963379,-4.942973613739014,1.461416482925415
1772651054505810200,3.47281005859375,11.666206359863281,-4.928018093109131,1.3794622421264648
1772651054515687400,3.4826875,11.477173805236816,-4.884349346160889,1.2652050256729126
1772651054525565000,3.49256494140625,11.426924705505371,-4.8502516746521,1.1150553226470947
1772651054535442200,3.502442138671875,11.347363471984863,-4.855037212371826,0.898504912853241
1772651054545319400,3.5123193359375,11.124232292175293,-4.825126647949219,0.617946445941925
1772651054555197000,3.522197021484375,10.820343971252441,-4.747958183288574,0.3128615617752075
1772651054565074200,3.53207421875,10.480563163757324,-4.620540618896484,0.013160524889826775
1772651054574951700,3.54195166015625,10.084550857543945,-4.453042984008789,-0.268594354391098
1772651054584829000,3.551828857421875,9.658628463745117,-4.218546390533447,-0.4863412082195282
1772651054594692400,3.5616923828125,9.241679191589355,-3.954139471054077,-0.6418746709823608
1772651054604583400,3.57158349609375,8.839086532592773,-3.689732551574707,-0.7603194117546082
1772651054614461000,3.5814609375,8.383852005004883,-3.4271202087402344,-0.8350951075553894
1772651054624324400,3.591324462890625,7.8454670906066895,-3.1579277515411377,-0.8715856671333313
1772651054634215700,3.601215576171875,7.331010341644287,-2.8869404792785645,-0.8201399445533752
1772651054644093000,3.611093017578125,6.904489517211914,-2.5633113384246826,-0.6909275650978088
1772651054653956600,3.62095654296875,6.513861656188965,-2.1607189178466797,-0.6071787476539612
1772651054663847700,3.63084765625,5.967101573944092,-1.7796618938446045,-0.7429714202880859
1772651054673725000,3.640724853515625,5.325825214385986,-1.4835500717163086,-0.9505487680435181
1772651054683588600,3.650588623046875,4.765904426574707,-1.374078392982483,-0.9996016621589661
1772651054693479700,3.660479736328125,4.47697114944458,-1.3052847385406494,-0.9206385016441345
1772651054703357000,3.67035693359375,4.360321044921875,-1.3106685876846313,-0.6963114142417908
1772651054713234400,3.680234375,4.470390796661377,-1.2861422300338745,-0.43489551544189453
1772651054723111700,3.690111572265625,4.697110652923584,-1.0839486122131348,-0.3044866919517517
1772651054732989000,3.699989013671875,4.898108005523682,-0.6275177597999573,-0.3068794906139374
1772651054742866400,3.709866455078125,4.9531426429748535,-0.20937198400497437,-0.2805584669113159
1772651054752743700,3.71974365234375,4.965106964111328,-0.14476576447486877,-0.243469700217247
1772651054762621200,3.72962109375,5.052444934844971,-0.48873403668403625,-0.2997010350227356
1772651054772498400,3.73949853515625,5.291129112243652,-1.0007981061935425,-0.5455635786056519
1772651054782375700,3.749375732421875,5.4658050537109375,-1.2532408237457275,-0.877567708492279
1772651054792253200,3.759253173828125,5.458028316497803,-1.1210373640060425,-0.9786644577980042
1772651054802130400,3.76913037109375,5.387440204620361,-0.908674418926239,-0.9212366938591003
1772651054812008000,3.779008056640625,5.2731828689575195,-0.8093722462654114,-0.7836494445800781
1772651054821885200,3.78888525390625,5.117649555206299,-0.7776673436164856,-0.6329016089439392
1772651054831762400,3.798762451171875,5.1080780029296875,-0.6610172390937805,-0.4265206456184387
1772651054841640000,3.808639892578125,5.291727066040039,-0.5000999569892883,-0.07657032459974289
1772651054851517200,3.81851708984375,5.497509956359863,-0.3930211067199707,0.3194418251514435
1772651054861394400,3.82839453125,5.710471153259277,-0.3655036687850952,0.6448656916618347
1772651054871272000,3.83827197265625,5.959922790527344,-0.4223332107067108,0.8087740540504456
1772651054881149200,3.848149169921875,6.251249313354492,-0.5330012440681458,0.8566305041313171
1772651054891026700,3.858026611328125,6.725028038024902,-0.7028916478157043,0.8925228714942932
1772651054900904000,3.867904052734375,7.557730197906494,-0.9092726111412048,0.9439685344696045
1772651054910781200,3.87778125,8.48734188079834,-1.1509476900100708,0.9810572862625122
1772651054920644900,3.887644775390625,9.364909172058105,-1.3878371715545654,0.9966106414794922
1772651054930536000,3.897535888671875,10.240084648132324,-1.5996019840240479,1.0049854516983032
1772651054940413400,3.907413330078125,11.129616737365723,-1.7982062101364136,1.0995019674301147
1772651054950276900,3.91727685546875,11.852249145507812,-1.9992033243179321,1.2747762203216553
1772651054960168200,3.927168212890625,12.40977668762207,-2.2749760150909424,1.4135600328445435
1772651054970045400,3.93704541015625,12.784253120422363,-2.715853691101074,1.526620864868164
1772651054979909000,3.9469091796875,13.219148635864258,-3.166900873184204,1.618146300315857
1772651054989800200,3.95680029296875,13.75334644317627,-3.5228331089019775,1.8335003852844238
1772651054999677400,3.966677490234375,14.281561851501465,-3.8668015003204346,2.3264217376708984
1772651055009541000,3.976541015625,14.794822692871094,-4.1036906242370605,3.0628130435943604
1772651055019432200,3.98643212890625,15.478571891784668,-4.058825492858887,3.796213150024414
1772651055029309400,3.996309326171875,16.4913330078125,-3.81655216217041,4.2831525802612305
1772651055039173000,4.006173095703125,17.635103225708008,-3.675375461578369,4.387240409851074
1772651055049064200,4.016064208984375,18.731016159057617,-3.7423746585845947,3.9361932277679443
1772651055058941700,4.025941650390625,19.508682250976562,-4.027718544006348,2.937189817428589
1772651055068805000,4.03580517578125,19.606189727783203,-4.440480709075928,1.6402798891067505
1772651055078696200,4.0456962890625,18.92363739013672,-4.9501519203186035,0.47557350993156433
1772651055088573700,4.05557373046875,17.307884216308594,-5.554339408874512,-0.2386840581893921
1772651055098437000,4.06543701171875,14.889937400817871,-6.076572895050049,-0.5389832854270935
1772651055108328400,4.075328369140625,12.30389404296875,-6.226722717285156,-0.50907301902771
1772651055118205700,4.085205810546875,10.077970504760742,-6.0610198974609375,-0.030508488416671753
1772651055128069400,4.0950693359375,8.46042251586914,-5.6207404136657715,0.776470959186554
1772651055137960400,4.10496044921875,7.417750358581543,-4.957330226898193,1.7670994997024536
1772651055147837700,4.114837646484375,6.818946361541748,-4.182055950164795,2.726621389389038
1772651055157701400,4.124701416015625,6.611967086791992,-3.462414264678955,3.518645763397217
1772651055167592400,4.134592529296875,6.708278179168701,-2.892324447631836,3.996013879776001
1772651055177470000,4.144469970703125,7.084549427032471,-2.5322046279907227,4.102494239807129
1772651055187347200,4.15434716796875,7.621140003204346,-2.4227328300476074,3.844667673110962
1772651055197224700,4.164224609375,8.196015357971191,-2.5764718055725098,3.219542980194092
1772651055207102000,4.17410205078125,8.757730484008789,-2.8630123138427734,2.4197418689727783
1772651055216965600,4.183965576171875,9.21834945678711,-3.1513473987579346,1.5780665874481201
1772651055226856700,4.193856689453125,9.504291534423828,-3.391227960586548,0.7543373107910156
1772651055236734000,4.20373388671875,9.518050193786621,-3.5545380115509033,0.09152546525001526
1772651055246597600,4.21359765625,9.240483283996582,-3.570091485977173,-0.4055834412574768
1772651055256488700,4.22348876953125,8.778069496154785,-3.3954153060913086,-0.6699903607368469
1772651055266366200,4.2333662109375,8.137392044067383,-3.1214370727539062,-0.6753742098808289
1772651055276229600,4.243229736328125,7.431509017944336,-2.7667012214660645,-0.4666004180908203
1772651055286120700,4.25312060546875,6.763911247253418,-2.3599212169647217,-0.08195417374372482
1772651055295998200,4.262998291015625,6.220740795135498,-1.9746768474578857,0.3068794906139374
1772651055305862000,4.27286181640625,5.766702651977539,-1.638485312461853,0.6484549641609192
1772651055315753000,4.2827529296875,5.357530117034912,-1.3824533224105835,0.9493523836135864
1772651055325630200,4.292630126953125,4.979464054107666,-1.1928220987319946,1.194616675376892
1772651055335494000,4.302493896484375,4.611567497253418,-1.0755738019943237,1.4021940231323242
1772651055345385000,4.312385009765625,4.274777889251709,-1.0253244638442993,1.5625132322311401
1772651055355262500,4.322262451171875,4.000201225280762,-1.0277173519134521,1.6636099815368652
1772651055365139700,4.3321396484375,3.8285162448883057,-1.0660024881362915,1.7240287065505981
1772651055375017000,4.342016845703125,3.8261234760284424,-1.0636097192764282,1.7455641031265259
1772651055384894500,4.35189453125,4.074378967285156,-0.973878800868988,1.810768485069275
1772651055394771700,4.361771728515625,4.5445685386657715,-0.8237292170524597,1.8502501249313354
1772651055404649200,4.371649169921875,5.100301265716553,-0.7208378314971924,1.8664016723632812
1772651055414526500,4.3815263671875,5.66620397567749,-0.6789634227752686,1.8448662757873535
1772651055424404000,4.391404052734375,6.036493301391602,-0.7280163168907166,1.7676976919174194
1772651055434281200,4.40128125,6.321238994598389,-0.849452018737793,1.6701902151107788
1772651055444158700,4.41115869140625,6.619743824005127,-0.8943174481391907,1.633699655532837
1772651055454036000,4.421035888671875,6.815357208251953,-0.8644071817398071,1.654038667678833
1772651055463913500,4.43091357421875,7.04925537109375,-0.7836494445800781,1.7593228816986084
1772651055473790700,4.440790771484375,7.311867713928223,-0.672383189201355,1.8239290714263916
1772651055483668200,4.450668212890625,7.46201753616333,-0.6340979933738708,1.7754744291305542
1772651055493545500,4.46054541015625,7.691728591918945,-0.6945167779922485,1.6444673538208008
1772651055503422700,4.470422607421875,7.930412292480469,-0.8213363885879517,1.475175142288208
1772651055513300200,4.48030029296875,8.065009117126465,-1.0139585733413696,1.2717852592468262
1772651055523177500,4.490177490234375,8.106285095214844,-1.2299108505249023,1.0977073907852173
1772651055533055000,4.500054931640625,8.102097511291504,-1.4189438819885254,1.0707881450653076
1772651055542932200,4.50993212890625,8.231907844543457,-1.4859428405761719,1.2664014101028442
1772651055552809700,4.519809814453125,8.652446746826172,-1.4333007335662842,1.5738791227340698
1772651055562687000,4.52968701171875,9.29731273651123,-1.4279168844223022,1.9148563146591187
1772651055572550700,4.539550537109375,10.203594207763672,-1.4111671447753906,2.335394859313965
1772651055582441700,4.549441650390625,11.2576322555542,-1.3513466119766235,2.909672260284424
1772651055592319200,4.5593193359375,12.089735984802246,-1.3782658576965332,3.559921979904175
1772651055602182700,4.5691826171875,12.796815872192383,-1.6432709693908691,4.269991874694824
1772651055612073700,4.57907373046875,13.791033744812012,-2.121237277984619,4.800002098083496
1772651055621951200,4.588951171875,15.201004028320312,-2.772084951400757,5.0015974044799805
1772651055631815000,4.59881494140625,16.618152618408203,-3.685544967651367,4.76530647277832
1772651055641706000,4.6087060546875,17.760128021240234,-4.531407833099365,4.1521453857421875
1772651055651583200,4.618583251953125,18.870996475219727,-4.953741073608398,3.3613176345825195
1772651055661447000,4.628447021484375,19.98006820678711,-4.926821708679199,2.5328028202056885
1772651055671338000,4.638337890625,20.679969787597656,-4.625326156616211,1.8454644680023193
1772651055681215500,4.648215576171875,20.221744537353516,-4.348955154418945,1.4584254026412964
1772651055691079200,4.6580791015625,18.214763641357422,-4.309473514556885,1.1389836072921753
1772651055700970200,4.66797021484375,15.520445823669434,-4.394418716430664,0.7974081635475159
1772651055710847500,4.677847412109375,13.27238941192627,-4.329812526702881,0.7046862840652466
1772651055720711200,4.687711181640625,11.550154685974121,-4.247260093688965,0.8057830333709717
1772651055730602200,4.697602294921875,10.320243835449219,-4.101896286010742,0.9684949517250061
1772651055740479700,4.707479736328125,9.573683738708496,-3.8673996925354004,1.0809576511383057
1772651055750343200,4.71734326171875,9.305088996887207,-3.586242914199829,1.1240284442901611
1772651055760234500,4.727234375,9.392427444458008,-3.297309637069702,1.1850453615188599
1772651055770111700,4.73711181640625,9.738189697265625,-3.0544381141662598,1.2221341133117676
1772651055779989000,4.746989013671875,10.195816993713379,-2.9216363430023193,1.2239288091659546
1772651055789866500,4.756866455078125,10.454241752624512,-2.988635540008545,1.083350419998169
1772651055799743700,4.76674365234375,10.39920711517334,-3.1680972576141357,0.8584251403808594
1772651055809621200,4.776621337890625,10.143773078918457,-3.273381471633911,0.6221339106559753
1772651055819498800,4.786498779296875,9.815957069396973,-3.235694408416748,0.4301098585128784
1772651055829376000,4.7963759765625,9.397810935974121,-3.129213809967041,0.2949153780937195
1772651055839253500,4.80625341796875,8.919246673583984,-3.0245277881622314,0.18364913761615753
1772651055849130800,4.816130859375,8.4502534866333,-2.8929226398468018,0.11006984114646912
1772651055859008000,4.826008056640625,8.056035995483398,-2.744567632675171,0.0933200865983963
1772651055868871700,4.83587158203125,7.685148239135742,-2.609971284866333,0.14356936514377594
1772651055878762800,4.8457626953125,7.309474945068359,-2.4526431560516357,0.21714866161346436
1772651055888640300,4.85564013671875,6.8859453201293945,-2.2654049396514893,0.30209386348724365
1772651055898504000,4.86550390625,6.448058605194092,-2.063211441040039,0.4019941985607147
1772651055908395000,4.87539501953125,5.995815277099609,-1.8448662757873535,0.4468596279621124
1772651055918272300,4.885272216796875,5.522036552429199,-1.6510475873947144,0.48035913705825806
1772651055928136000,4.895135986328125,5.112864017486572,-1.4638092517852783,0.5156532526016235
1772651055938027000,4.905027099609375,4.816751956939697,-1.3022937774658203,0.5174478888511658
1772651055947904500,4.914904541015625,4.591228485107422,-1.217348575592041,0.5389832854270935
1772651055957781800,4.92478173828125,4.440480709075928,-1.1778669357299805,0.48394837975502014
1772651055967659300,4.9346591796875,4.383052825927734,-1.1838489770889282,0.3720839321613312
1772651055977536500,4.94453662109375,4.48115873336792,-1.2275179624557495,0.2602194547653198
1772651055987414000,4.9544140625,4.670191764831543,-1.3010972738265991,0.18424734473228455
1772651055997291300,4.964291259765625,4.849653244018555,-1.4111671447753906,0.13698910176753998
1772651056007168800,4.974168701171875,5.000401020050049,-1.4793626070022583,0.16091732680797577
1772651056017046000,4.9840458984375,5.2109694480896,-1.5379867553710938,0.19680966436862946
1772651056026923500,4.993923583984375,5.461617469787598,-1.5990036725997925,0.21296121180057526
1772651056036800800,5.00380078125,5.660222053527832,-1.6576279401779175,0.22971096634864807
1772651056046678300,5.01367822265625,5.890531063079834,-1.7491533756256104,0.29371899366378784
1772651056056555500,5.023555419921875,6.196812629699707,-1.8346967697143555,0.4408775866031647
1772651056066433000,5.03343310546875,6.555736064910889,-1.9453648328781128,0.7202396392822266
1772651056076310300,5.043310302734375,7.024729251861572,-2.0584256649017334,0.97148597240448
1772651056086187800,5.053187744140625,7.813762187957764,-2.1774685382843018,1.1371889114379883
1772651056096065000,5.06306494140625,8.913264274597168,-2.2749760150909424,1.2765709161758423
1772651056105928700,5.0729287109375,10.220343589782715,-2.3712873458862305,1.3561322689056396
1772651056115819800,5.08281982421875,11.522637367248535,-2.5292134284973145,1.3698909282684326
1772651056125697300,5.092697265625,12.242877006530762,-2.8342983722686768,1.3489537239074707
1772651056135560700,5.102560791015625,12.125628471374512,-3.280559778213501,1.358525037765503
1772651056145452000,5.1124521484375,11.216954231262207,-3.724428415298462,1.4901303052902222
1772651056155329300,5.122329345703125,9.993025779724121,-3.927220106124878,1.6689938306808472
1772651056165206800,5.132206787109375,9.049654960632324,-3.7639100551605225,1.963310956954956
1772651056175084000,5.142083984375,8.685347557067871,-3.315854072570801,2.2773690223693848
1772651056184961300,5.151961181640625,9.08973503112793,-2.8803603649139404,2.538186550140381
1772651056194838800,5.1618388671875,10.067801475524902,-2.568695068359375,2.5597219467163086
1772651056204716000,5.171716064453125,11.554940223693848,-2.416750907897949,2.362314224243164
1772651056214593500,5.181593505859375,12.985250473022461,-2.5160529613494873,1.9692929983139038
1772651056224457200,5.191457275390625,14.223535537719727,-2.846860647201538,1.4895321130752563
1772651056234348300,5.201348388671875,15.275779724121094,-3.3403804302215576,1.0827522277832031
1772651056244225800,5.211225830078125,15.738192558288574,-3.850649833679199,0.6981059908866882
1772651056254089200,5.221089111328125,15.421143531799316,-4.299902439117432,0.20578274130821228
1772651056263980300,5.230980224609375,14.767903327941895,-4.735395908355713,-0.21176479756832123
1772651056273857800,5.24085791015625,13.814961433410645,-5.230710506439209,-0.25782662630081177
1772651056283721500,5.250721435546875,12.644272804260254,-5.545366287231445,0.2787638306617737
1772651056293612500,5.260612548828125,11.584851264953613,-5.456831932067871,1.2329018115997314
1772651056303489800,5.27048974609375,10.909476280212402,-5.057230472564697,2.4364917278289795
1772651056313353500,5.280353515625,10.591231346130371,-4.473979949951172,3.689732551574707
1772651056323244800,5.290244873046875,10.394421577453613,-3.835096597671509,4.728217601776123
1772651056333122000,5.3001220703125,10.299904823303223,-3.273979663848877,5.373083114624023
1772651056342985700,5.30998583984375,10.423135757446289,-2.9042885303497314,5.531009674072266
1772651056352876800,5.319876708984375,10.75394344329834,-2.830709218978882,5.149952411651611
1772651056362754000,5.329754150390625,11.114063262939453,-3.1064820289611816,4.322035789489746
1772651056372631600,5.339631591796875,11.262417793273926,-3.5300116539001465,3.3708889484405518
1772651056382508800,5.3495087890625,11.260025024414062,-3.8458642959594727,2.4562325477600098
1772651056392386300,5.35938623046875,10.939387321472168,-4.016352653503418,1.7234305143356323
1772651056402250000,5.36925,10.329814910888672,-4.001397609710693,1.2580264806747437
1772651056412141000,5.37914111328125,9.58325481414795,-3.8530426025390625,1.1186445951461792
1772651056422018600,5.3890185546875,8.742177963256836,-3.638286828994751,1.215553879737854
1772651056431882000,5.398882080078125,7.953144073486328,-3.431307554244995,1.4733805656433105
1772651056441773000,5.40877294921875,7.222136974334717,-3.2159535884857178,1.7934205532073975
1772651056451650600,5.418650634765625,6.597609996795654,-2.9204399585723877,2.0207388401031494
1772651056461514200,5.42851416015625,6.162116527557373,-2.6009981632232666,2.2031915187835693
1772651056471405300,5.4384052734375,5.91505765914917,-2.290529489517212,2.3605196475982666
1772651056481282600,5.448282470703125,5.861817359924316,-2.076970100402832,2.4777679443359375
1772651056491160000,5.45816015625,5.995217323303223,-1.9286150932312012,2.480160713195801
1772651056501037300,5.468037353515625,6.296114444732666,-1.8831514120101929,2.3736801147460938
1772651056510914800,5.477914794921875,6.670591354370117,-1.8849459886550903,2.2677977085113525
1772651056520792000,5.4877919921875,6.992425918579102,-1.8197416067123413,2.196611166000366
1772651056530669600,5.497669677734375,7.204789161682129,-1.7796618938446045,2.0955145359039307
1772651056540546800,5.507546875,7.1856465339660645,-1.7976080179214478,1.9692929983139038
1772651056550424300,5.51742431640625,7.023532867431641,-1.8855443000793457,1.8137595653533936
1772651056560301600,5.527301513671875,6.760322093963623,-1.9669002294540405,1.6965112686157227
1772651056570179000,5.537178955078125,6.492924213409424,-2.0141584873199463,1.5858432054519653
1772651056580056300,5.547056396484375,6.328417778015137,-2.0057835578918457,1.5002998113632202
1772651056589933800,5.556933837890625,6.193821430206299,-1.9519450664520264,1.4506487846374512
1772651056599811000,5.56681103515625,6.157928943634033,-1.913659930229187,1.4787644147872925
1772651056609688600,5.5766884765625,6.205785751342773,-1.898106575012207,1.5906288623809814
1772651056619565800,5.58656591796875,6.357131481170654,-1.9298114776611328,1.7024933099746704
1772651056629443300,5.596443359375,6.636493682861328,-1.9316060543060303,1.8681962490081787
1772651056639320600,5.606320556640625,6.976274490356445,-1.922034740447998,2.0380866527557373
1772651056649198000,5.616197998046875,7.260422229766846,-1.92741858959198,2.11824631690979
1772651056659075300,5.626075439453125,7.430312633514404,-1.9310078620910645,2.1678972244262695
1772651056668952800,5.635952880859375,7.482356548309326,-1.9471594095230103,2.172683000564575
1772651056678830000,5.645830078125,7.312466144561768,-1.9244276285171509,2.122433662414551
1772651056688707600,5.65570751953125,7.176673412322998,-1.9040886163711548,2.0512471199035645
1772651056698584800,5.665584716796875,7.2197442054748535,-1.9573289155960083,1.9968105554580688
1772651056708462300,5.67546240234375,7.41834831237793,-2.0297117233276367,2.0542383193969727
1772651056718339600,5.685339599609375,7.618747234344482,-2.083550214767456,2.09431791305542
1772651056728217000,5.695217041015625,7.767102241516113,-2.1744775772094727,2.0374884605407715
1772651056738094300,5.70509423828125,7.861020565032959,-2.3635106086730957,1.8771693706512451
1772651056747971800,5.714971923828125,7.737790107727051,-2.647658348083496,1.7018951177597046
1772651056757849000,5.72484912109375,7.223333358764648,-3.105883836746216,1.6013965606689453
1772651056767726600,5.7347265625,6.669992923736572,-3.7734813690185547,1.5984054803848267
1772651056777603800,5.744603759765625,6.479165554046631,-4.487140655517578,1.6396816968917847
1772651056787467500,5.754467529296875,6.884150981903076,-5.246861934661865,1.7982062101364136
1772651056797358600,5.764358642578125,7.88076114654541,-5.897709846496582,2.039283037185669
1772651056807236000,5.774236083984375,9.230313301086426,-6.269793510437012,2.252842426300049
1772651056817099800,5.784099853515625,11.124232292175293,-6.424130439758301,2.307279348373413
1772651056826990800,5.793990966796875,13.286148071289062,-6.553941249847412,2.121237277984619
1772651056836868000,5.8038681640625,15.30748462677002,-6.80458927154541,1.74496591091156
1772651056846731800,5.813731689453125,16.929819107055664,-7.152146816253662,1.2179467678070068
1772651056856622800,5.823622802734375,17.614166259765625,-7.649255752563477,0.5988038778305054
1772651056866500400,5.833500244140625,17.36650848388672,-8.157731056213379,-0.14117653667926788
1772651056876364000,5.843364013671875,16.578672409057617,-8.563314437866211,-0.8656035661697388
1772651056886255000,5.853255126953125,15.66401481628418,-8.790034294128418,-1.2508480548858643
1772651056896132400,5.86313232421875,14.864213943481445,-8.674580574035645,-1.1365907192230225
1772651056906009900,5.873009765625,14.435300827026367,-8.151748657226562,-0.589830756187439
1772651056915887000,5.88288720703125,14.112868309020996,-7.359126091003418,0.09870393574237823
1772651056925764600,5.8927646484375,13.597214698791504,-6.533003807067871,0.6544370055198669
1772651056935628300,5.902628173828125,12.865609169006348,-5.767300605773926,0.9397810697555542
1772651056945519400,5.912519287109375,12.122637748718262,-5.127220630645752,1.043868899345398
1772651056955396600,5.922396728515625,11.48076343536377,-4.66779899597168,0.9439685344696045
1772651056965260300,5.93226025390625,11.044671058654785,-4.380660057067871,0.7184450030326843
1772651056975151400,5.9421513671875,10.704292297363281,-4.212564468383789,0.45104706287384033
1772651056985028900,5.95202880859375,10.417153358459473,-4.120440483093262,0.22492532432079315
1772651056994892500,5.961892578125,10.136594772338867,-4.027718544006348,0.02512463741004467
1772651057004783600,5.97178369140625,9.944570541381836,-3.9086756706237793,-0.13519448041915894
1772651057014660900,5.981660888671875,9.924830436706543,-3.799802303314209,-0.20518454909324646
1772651057024538400,5.991538330078125,9.91286563873291,-3.7184464931488037,-0.22073788940906525
1772651057034415600,6.00141552734375,9.926624298095703,-3.6227335929870605,-0.15972091257572174
1772651057044293000,6.011293212890625,10.01456069946289,-3.4444682598114014,-0.03529413416981697
1772651057054170400,6.02117041015625,9.978070259094238,-3.257229804992676,0.13698910176753998
1772651057064047900,6.0310478515625,9.712467193603516,-3.087937593460083,0.25722843408584595
1772651057073925000,6.040925048828125,9.33440113067627,-2.9048867225646973,0.3188436031341553
1772651057083802600,6.050802734375,8.920442581176758,-2.7487549781799316,0.3116651475429535
1772651057093679900,6.060679931640625,8.49033260345459,-2.6297121047973633,0.2309073805809021
1772651057103557400,6.070557373046875,8.042875289916992,-2.5082762241363525,0.13160525262355804
1772651057113421000,6.080421142578125,7.6474609375,-2.317448616027832,0.05503492057323456
1772651057123312000,6.09031201171875,7.22452974319458,-2.1828525066375732,0.03349951654672623
1772651057133189400,6.100189453125,6.847062110900879,-2.09431791305542,-0.02751746028661728
1772651057143067000,6.11006689453125,6.609574317932129,-1.9818553924560547,-0.11425728350877762
1772651057152944000,6.119944091796875,6.515655994415283,-1.8759729862213135,-0.2626122832298279
1772651057162821600,6.129821533203125,6.4319071769714355,-1.8681962490081787,-0.43609192967414856
1772651057172699000,6.139698974609375,6.2500529289245605,-1.836491346359253,-0.5473581552505493
1772651057182576400,6.149576416015625,6.065805435180664,-1.740180253982544,-0.6167500615119934
1772651057192453600,6.15945361328125,5.91924524307251,-1.6456637382507324,-0.672383189201355
1772651057202331100,6.1693310546875,5.766104221343994,-1.5708880424499512,-0.7154539823532104
1772651057212208400,6.17920849609375,5.591428279876709,-1.5122638940811157,-0.7465606927871704
1772651057222086000,6.1890859375,5.397609710693359,-1.4608181715011597,-0.7962117195129395
1772651057231963100,6.198963134765625,5.146363258361816,-1.404586911201477,-0.8458628058433533
1772651057241840600,6.208840576171875,4.869394302368164,-1.322034478187561,-0.8739784955978394
1772651057251718000,6.2187177734375,4.649254322052002,-1.316650629043579,-0.8973084688186646
1772651057261595400,6.228595458984375,4.626522541046143,-1.4949159622192383,-0.8386843204498291
1772651057271472600,6.23847265625,4.871188640594482,-1.7479569911956787,-0.6939185857772827
1772651057281350100,6.24835009765625,5.352146148681641,-1.9639091491699219,-0.4905286431312561
1772651057291227400,6.258227294921875,6.03110933303833,-2.0039889812469482,-0.2069791555404663
1772651057301105000,6.26810498046875,7.046862602233887,-1.9728822708129883,0.16091732680797577
1772651057310982100,6.277982177734375,8.22293472290039,-1.9974087476730347,0.5928218364715576
1772651057320845800,6.287845703125,9.308079719543457,-2.0237298011779785,0.9080761671066284
1772651057330737000,6.29773681640625,10.15872859954834,-2.0817556381225586,1.0319048166275024
1772651057340614400,6.307614501953125,10.856236457824707,-2.132603168487549,0.9056833982467651
1772651057350477800,6.317477783203125,11.176276206970215,-2.2618155479431152,0.7585247755050659
1772651057360369200,6.327369140625,10.789237022399902,-2.6638097763061523,0.7878368496894836
1772651057370246400,6.337246337890625,10.140782356262207,-3.1064820289611816,0.9110672473907471
1772651057380124000,6.3471240234375,9.726823806762695,-3.2542388439178467,1.0671988725662231
1772651057390001200,6.357001220703125,9.592825889587402,-3.174079179763794,1.2717852592468262
1772651057399878700,6.366878662109375,9.893125534057617,-2.9934210777282715,1.3495519161224365
1772651057409756000,6.376755859375,10.608579635620117,-2.8319056034088135,1.1880364418029785
1772651057419633400,6.38663330078125,11.417951583862305,-2.8103702068328857,0.9176474809646606
1772651057429510700,6.3965107421875,12.146566390991211,-2.950350284576416,0.6831508874893188
1772651057439374300,6.406374267578125,12.67298698425293,-3.245863914489746,0.5174478888511658
1772651057449265400,6.416265380859375,12.955938339233398,-3.648456335067749,0.45104706287384033
1772651057459143000,6.426142822265625,12.896117210388184,-3.981656789779663,0.5670989751815796
1772651057469020200,6.436020263671875,12.457633018493652,-4.144967079162598,0.875174880027771
1772651057478897700,6.445897705078125,12.004791259765625,-4.118047714233398,1.3651052713394165
1772651057488775000,6.45577490234375,11.723036766052246,-4.046861171722412,1.9561325311660767
1772651057498652400,6.46565234375,11.760125160217285,-4.009174346923828,2.3988046646118164
1772651057508529700,6.47552978515625,12.123235702514648,-4.036691665649414,2.662015199661255
1772651057518407000,6.485406982421875,12.79741382598877,-4.220340728759766,2.6428725719451904
1772651057528270600,6.4952705078125,13.579866409301758,-4.581058979034424,2.5052852630615234
1772651057538161700,6.50516162109375,14.206786155700684,-4.907679080963135,2.294118642807007
1772651057548039200,6.5150390625,14.57228946685791,-5.099703311920166,2.035095691680908
1772651057557916400,6.52491650390625,14.56511116027832,-5.187041282653809,1.8167506456375122
1772651057567794000,6.5347939453125,14.101502418518066,-5.173282623291016,1.7138592004776
1772651057577671200,6.544671142578125,13.291531562805176,-5.002793788909912,1.669592022895813
1772651057587534800,6.554534912109375,12.351750373840332,-4.727619171142578,1.6348960399627686
1772651057597426000,6.564426025390625,11.32522964477539,-4.416552543640137,1.6444673538208008
1772651057607303400,6.574303466796875,10.296914100646973,-4.066003799438477,1.7258232831954956
1772651057617167000,6.5841669921875,9.376275062561035,-3.697509288787842,1.7880367040634155
1772651057627058200,6.59405810546875,8.644071578979492,-3.339184045791626,1.8652052879333496
1772651057636935400,6.603935302734375,8.088936805725098,-2.974876642227173,1.9896320104599
1772651057646799000,6.613799072265625,7.573882102966309,-2.6967110633850098,2.1415762901306152
1772651057656690200,6.623690185546875,7.148557662963867,-2.510669231414795,2.2845473289489746
1772651057666567700,6.633567626953125,6.861418724060059,-2.3700907230377197,2.347957134246826
1772651057676431400,6.643431396484375,6.809973239898682,-2.172683000564575,2.310868501663208
1772651057686322400,6.653322509765625,6.842874526977539,-1.960319995880127,2.3132612705230713
1772651057696199700,6.66319970703125,6.8967132568359375,-1.7288143634796143,2.3300111293792725
1772651057706077200,6.6730771484375,6.969694137573242,-1.4835500717163086,2.262413740158081
1772651057715954400,6.682954345703125,7.018746852874756,-1.3124631643295288,2.1511476039886475
1772651057725832000,6.69283203125,6.990033149719238,-1.2281162738800049,1.978864312171936
1772651057735709200,6.702709228515625,6.903891563415527,-1.2903295755386353,1.7724833488464355
1772651057745586700,6.712586669921875,6.772286415100098,-1.3932210206985474,1.5355939865112305
1772651057755464000,6.7224638671875,6.55992317199707,-1.5122638940811157,1.3824533224105835
1772651057765341200,6.732341064453125,6.266204357147217,-1.6139588356018066,1.3465609550476074
1772651057775218700,6.74221875,6.029912948608398,-1.578664779663086,1.3782658576965332
1772651057785096200,6.75209619140625,5.953342914581299,-1.4273186922073364,1.5056836605072021
1772651057794973400,6.761973388671875,5.979065418243408,-1.2418749332427979,1.6612170934677124
1772651057804850700,6.7718505859375,6.117250919342041,-1.1186445951461792,1.7736797332763672
1772651057814728200,6.781728271484375,6.4319071769714355,-0.9762716293334961,1.8999011516571045
1772651057824605700,6.791605712890625,6.749554634094238,-0.8470591902732849,2.011167526245117
1772651057834483000,6.80148291015625,7.013961315155029,-0.6975077986717224,2.111067771911621
1772651057844360200,6.811360107421875,7.225726127624512,-0.4713860750198364,2.225325107574463
1772651057854237700,6.82123779296875,7.289734363555908,-0.2841476798057556,2.286940336227417
1772651057864115000,6.831114990234375,7.284350395202637,-0.20757736265659332,2.3437697887420654
1772651057873992400,6.840992431640625,7.2125654220581055,-0.18544375896453857,2.193620204925537
1772651057883869700,6.85086962890625,7.004390239715576,-0.2153540402650833,1.8442680835723877
1772651057893747200,6.860747314453125,6.8171515464782715,-0.2721835672855377,1.4811571836471558
1772651057903624400,6.87062451171875,6.738188743591309,-0.31106695532798767,1.210170030593872
1772651057913502000,6.880501953125,6.809973239898682,-0.36191442608833313,1.0701899528503418
1772651057923379200,6.890379150390625,7.0301127433776855,-0.3858426511287689,0.9906286001205444
1772651057933256700,6.900256591796875,7.409973621368408,-0.4175475537776947,1.0492527484893799
1772651057943134000,6.910134033203125,7.861618995666504,-0.4492524564266205,1.2717852592468262
1772651057953011500,6.920011474609375,8.342576026916504,-0.48514479398727417,1.5415760278701782
1772651057962888700,6.929888671875,8.909076690673828,-0.5258227586746216,1.8735800981521606
1772651057972752400,6.93975244140625,9.623932838439941,-0.6346961855888367,2.179861545562744
1772651057982643500,6.9496435546875,10.456036567687988,-0.6963114142417908,2.372483730316162
1772651057992520700,6.959520751953125,11.388639450073242,-0.7968099117279053,2.4819552898406982
1772651058002384400,6.96938427734375,12.256037712097168,-0.97926265001297,2.523829698562622
1772651058012275500,6.979275390625,12.835699081420898,-1.3525429964065552,2.6464617252349854
1772651058022153000,6.989153076171875,13.103096961975098,-1.8245272636413574,2.851048231124878
1772651058032016400,6.999016357421875,13.205987930297852,-2.3120648860931396,2.991028308868408
1772651058041907700,7.00890771484375,13.389039039611816,-2.6638097763061523,3.0514471530914307
1772651058051785000,7.018784912109375,13.693525314331055,-2.9383862018585205,3.1435706615448
1772651058061648600,7.028648681640625,13.995619773864746,-3.1800613403320312,3.211168050765991
1772651058071539700,7.038539794921875,14.542379379272461,-3.2470602989196777,3.2171499729156494
1772651058081417200,7.048417236328125,15.523436546325684,-3.0340991020202637,3.156731367111206
1772651058091280600,7.05828076171875,16.606786727905273,-2.8103702068328857,2.9072794914245605
1772651058101172000,7.068171875,17.231313705444336,-2.7529425621032715,2.4562325477600098
1772651058111049200,7.07804931640625,16.927425384521484,-2.8217360973358154,1.8460626602172852
1772651058120926700,7.0879267578125,15.606587409973145,-3.0867412090301514,1.3076776266098022
1772651058130804000,7.097803955078125,13.819149017333984,-3.4259238243103027,1.2131611108779907
1772651058140681500,7.107681396484375,12.003594398498535,-3.397209882736206,1.1958130598068237
1772651058150545000,7.117544921875,10.429117202758789,-3.242872953414917,1.2047861814498901
1772651058160436000,7.12743603515625,9.175278663635254,-3.2165517807006836,1.51166570186615
1772651058170313500,7.1373134765625,8.332406997680664,-3.11246395111084,1.9591234922409058
1772651058180177200,7.14717724609375,7.918448448181152,-2.7912275791168213,2.3198416233062744
1772651058190068200,7.157068115234375,7.945965766906738,-2.462214469909668,2.554936408996582
1772651058199945500,7.166945556640625,8.437690734863281,-2.221137523651123,2.6500511169433594
1772651058209823000,7.176822998046875,9.21117115020752,-2.1517457962036133,2.5776681900024414
1772651058219700200,7.1867001953125,10.049257278442383,-2.2205393314361572,2.3060827255249023
1772651058229577700,7.19657763671875,10.634302139282227,-2.4299113750457764,1.8867406845092773
1772651058239455000,7.206455078125,10.823334693908691,-2.648256540298462,1.3830515146255493
1772651058249332200,7.216332275390625,10.60558795928955,-2.83669114112854,0.9780662655830383
1772651058259209700,7.226209716796875,10.080363273620605,-2.984447956085205,0.6885347366333008
1772651058269087000,7.2360869140625,9.411569595336914,-3.0101709365844727,0.48454657196998596
1772651058278964500,7.245964599609375,8.763712882995605,-2.884547710418701,0.4211367964744568
1772651058288841700,7.255841796875,8.194221496582031,-2.620738983154297,0.5443671345710754
1772651058298705400,7.265705322265625,7.651050567626953,-2.263011932373047,0.7190431952476501
1772651058308596500,7.275596435546875,7.181458950042725,-1.8747764825820923,0.8979067206382751
1772651058318474000,7.285473876953125,6.700501441955566,-1.5667005777359009,1.077966570854187
1772651058328337400,7.29533740234375,6.145366668701172,-1.3202399015426636,1.1276177167892456
1772651058338228700,7.305228759765625,5.616552829742432,-1.160519003868103,1.1156535148620605
1772651058348106000,7.31510595703125,5.217549800872803,-1.0193424224853516,1.077966570854187
1772651058357969700,7.3249697265625,5.051846981048584,-0.867398202419281,1.0959128141403198
1772651058367860700,7.33486083984375,5.089533805847168,-0.7082754969596863,1.1820544004440308
1772651058377738000,7.344738037109375,5.1774702072143555,-0.605384111404419,1.195214867591858
1772651058387615500,7.354615478515625,5.351547718048096,-0.5862415432929993,1.1515458822250366
1772651058397492700,7.36449267578125,5.578866004943848,-0.6927221417427063,1.1204391717910767
1772651058407370200,7.374370361328125,5.768496990203857,-0.8261220455169678,1.0929217338562012
1772651058417247500,7.38424755859375,5.880959987640381,-0.916451096534729,1.1126625537872314
1772651058427125000,7.394125,5.952744483947754,-0.9200403094291687,1.1599208116531372
1772651058437002200,7.404002197265625,5.991029739379883,-0.9284151792526245,1.262213945388794
1772651058446879700,7.413879638671875,6.03948450088501,-0.9822536706924438,1.3627125024795532
1772651058456757000,7.423757080078125,6.221338748931885,-1.057029366493225,1.445863127708435
1772651058466634500,7.433634521484375,6.463014125823975,-1.1515458822250366,1.4626128673553467
1772651058476511700,7.44351171875,6.763911247253418,-1.2550355195999146,1.4793626070022583
1772651058486389000,7.453388916015625,7.077371120452881,-1.3543375730514526,1.4530415534973145
1772651058496266500,7.4632666015625,7.354340553283691,-1.389631748199463,1.4213366508483887
1772651058506143700,7.473143798828125,7.564908981323242,-1.4177473783493042,1.394417405128479
1772651058516021200,7.483021240234375,7.701299667358398,-1.4404792785644531,1.4632110595703125
1772651058525898500,7.4928984375,7.828119277954102,-1.4715858697891235,1.622931957244873
1772651058535776000,7.50277587890625,7.9866437911987305,-1.5194423198699951,1.8113667964935303
1772651058545653200,7.5126533203125,8.159524917602539,-1.6049858331680298,2.042274236679077
1772651058555530500,7.522530517578125,8.405985832214355,-1.7377874851226807,2.2671995162963867
1772651058565408000,7.532407958984375,8.787641525268555,-2.0201404094696045,2.544766902923584
1772651058575285200,7.54228515625,9.358329772949219,-2.416750907897949,2.9802606105804443
1772651058585162800,7.552162841796875,10.022337913513184,-2.7523441314697266,3.562912940979004
1772651058595026200,7.562026123046875,10.872387886047363,-2.967698335647583,4.19282341003418
1772651058604917500,7.57191748046875,11.816356658935547,-3.0215368270874023,4.697709083557129
1772651058614794800,7.581794677734375,12.550354957580566,-2.9970104694366455,4.961517810821533
1772651058624658400,7.591658447265625,13.077972412109375,-2.94975209236145,5.006981372833252
1772651058634549500,7.601549560546875,13.64148235321045,-2.906083106994629,4.806582450866699
1772651058644426800,7.6114267578125,14.319249153137207,-2.999403238296509,4.4955153465271
1772651058654290400,7.62129052734375,15.000605583190918,-3.2141590118408203,4.244867324829102
1772651058664181500,7.631181396484375,15.468999862670898,-3.4582269191741943,3.978665828704834
1772651058674059000,7.64105908203125,15.756138801574707,-3.6442689895629883,3.5982069969177246
1772651058683922400,7.65092236328125,16.102500915527344,-3.772883176803589,3.2452657222747803
1772651058693813800,7.660813720703125,16.228721618652344,-3.8596229553222656,3.0933215618133545
1772651058703691000,7.67069091796875,15.812968254089355,-3.796213150024414,3.1752755641937256
1772651058713568300,7.680568359375,15.236896514892578,-3.5048868656158447,3.446262836456299
1772651058723445800,7.69044580078125,14.126028060913086,-3.273979663848877,4.091128349304199
1772651058733323000,7.700322998046875,12.719647407531738,-3.139981508255005,4.669593334197998
1772651058743186700,7.710186767578125,11.11466121673584,-2.9563324451446533,5.045266628265381
1772651058753077800,7.720077880859375,9.628120422363281,-2.6536402702331543,5.3832526206970215
1772651058762955300,7.729955322265625,8.421539306640625,-2.3030917644500732,5.846862316131592
1772651058772818700,7.739818603515625,7.419544696807861,-1.8999011516571045,6.236892223358154
1772651058782710000,7.7497099609375,6.698707103729248,-1.4799607992172241,6.33798885345459
1772651058792587300,7.759587158203125,6.370890140533447,-1.2005987167358398,6.226722717285156
1772651058802451000,7.769450927734375,6.496513366699219,-1.1730812788009644,6.006583213806152
1772651058812342000,7.779342041015625,6.981658458709717,-1.350150227546692,5.554339408874512
1772651058822219300,7.78921923828125,7.614559650421143,-1.6408780813217163,4.83051061630249
1772651058832083000,7.7990830078125,8.146963119506836,-1.9513468742370605,3.9906299114227295
1772651058841974000,7.80897412109375,8.480761528015137,-2.2085752487182617,3.1645078659057617
1772651058851851500,7.8188515625,8.563912391662598,-2.3120648860931396,2.5292134284973145
1772651058861715000,7.82871484375,8.36710262298584,-2.266601324081421,2.117648124694824
1772651058871606300,7.838606201171875,7.998608112335205,-2.1026928424835205,1.950150489807129
1772651058881483500,7.8484833984375,7.5080790519714355,-1.867598056793213,1.9806588888168335
1772651058891360800,7.85836083984375,7.045666217803955,-1.537388563156128,2.0931215286254883
1772651058901238300,7.86823828125,6.662216663360596,-1.2005987167358398,2.270190477371216
1772651058911115500,7.878115478515625,6.387042045593262,-0.8895317912101746,2.472982168197632
1772651058920993000,7.887992919921875,6.1944193840026855,-0.6029912829399109,2.606382131576538
1772651058930870300,7.897870361328125,6.153143405914307,-0.39541393518447876,2.623729944229126
1772651058940747800,7.907747802734375,6.233901023864746,-0.32961133122444153,2.5010979175567627
1772651058950625000,7.917625,6.389434814453125,-0.357128769159317,2.30069899559021
1772651058960502300,7.927502197265625,6.508477687835693,-0.4899304509162903,2.0344974994659424
1772651058970379800,7.9373798828125,6.540182590484619,-0.6981059908866882,1.731805443763733
1772651058980257000,7.947257080078125,6.526423931121826,-0.9032905697822571,1.459621787071228
1772651058990134500,7.957134521484375,6.535995006561279,-1.0336993932724,1.2562319040298462
1772651059000011800,7.96701171875,6.567101955413818,-1.046859860420227,1.1539387702941895
1772651059009889300,7.97688916015625,6.656832695007324,-0.8769695162773132,1.2041879892349243
1772651059019766500,7.9867666015625,6.79741096496582,-0.6460621356964111,1.2987045049667358
1772651059029643800,7.996643798828125,6.930212497711182,-0.4426721930503845,1.3417752981185913
1772651059039521300,8.006521240234376,7.018148899078369,-0.32602208852767944,1.2759727239608765
1772651059049398500,8.0163984375,7.134799003601074,-0.26141586899757385,1.2131611108779907
1772651059059276000,8.026276123046875,7.2921271324157715,-0.28594231605529785,1.1222338676452637
1772651059069153300,8.0361533203125,7.536194801330566,-0.35473597049713135,1.069591760635376
1772651059079030500,8.046030517578124,7.832306861877441,-0.35413774847984314,1.0133603811264038
1772651059088908000,8.055907958984376,8.161917686462402,-0.37447673082351685,0.9768698215484619
1772651059098785300,8.065785400390626,8.589634895324707,-0.3762713670730591,0.9032905697822571
1772651059108662800,8.075662841796875,9.17886734008789,-0.35114672780036926,0.784247636795044
1772651059118540000,8.0855400390625,9.776474952697754,-0.39481574296951294,0.6897311210632324
1772651059128403700,8.09540380859375,10.220343589782715,-0.4486542344093323,0.6197410821914673
1772651059138294800,8.105294677734374,10.476375579833984,-0.4504488706588745,0.5970092415809631
1772651059148172000,8.115172119140626,10.495518684387207,-0.4331009089946747,0.649053156375885
1772651059158049500,8.125049560546875,10.397412300109863,-0.39481574296951294,0.6825526356697083
1772651059167926800,8.1349267578125,10.25623607635498,-0.381655216217041,0.6616154313087463
1772651059177804300,8.14480419921875,10.107880592346191,-0.4127618968486786,0.6604190468788147
1772651059187681500,8.154681640625,9.957731246948242,-0.4905286431312561,0.625723123550415
1772651059197558800,8.164558837890626,9.905089378356934,-0.519242525100708,0.600000262260437
1772651059207436300,8.174436279296875,9.988838195800781,-0.511465847492218,0.6472585201263428
1772651059217313500,8.1843134765625,10.189835548400879,-0.46899324655532837,0.7674978375434875
1772651059227191000,8.19419091796875,10.386046409606934,-0.3924229145050049,0.9780662655830383
1772651059237068300,8.204068359375,10.389636039733887,-0.5174478888511658,1.3986048698425293
1772651059246945800,8.21394580078125,10.279565811157227,-0.8554341197013855,2.0554347038269043
1772651059256823000,8.223822998046876,10.342377662658691,-1.394417405128479,2.5298118591308594
1772651059266700300,8.2337001953125,10.934600830078125,-1.923829436302185,2.5567309856414795
1772651059276564000,8.24356396484375,12.015559196472168,-2.331207513809204,2.4287149906158447
1772651059286455000,8.253455078125,13.194622039794922,-2.778067111968994,2.352144718170166
1772651059296332500,8.26333251953125,14.188241958618164,-3.390031576156616,2.3647069931030273
1772651059306196000,8.273196044921875,15.137594223022461,-3.817748546600342,2.172683000564575
1772651059316087000,8.283087158203125,15.850057601928711,-4.049253940582275,1.8029918670654297
1772651059325964500,8.292964599609375,16.046268463134766,-4.244867324829102,1.2490534782409668
1772651059335841800,8.302841796875,15.605989456176758,-4.337589263916016,0.7106683254241943
1772651059345719000,8.312718994140624,14.330016136169434,-4.397409915924072,0.38703906536102295
1772651059355596500,8.322596435546876,12.614362716674805,-4.276572227478027,0.24646073579788208
1772651059365460200,8.332460205078124,11.01296615600586,-3.950550079345703,0.31106695532798767
1772651059375351300,8.342351318359375,9.736394882202148,-3.6335012912750244,0.503689169883728
1772651059385228500,8.352228515625,8.751749038696289,-3.4307093620300293,0.7052844762802124
1772651059395092200,8.36209228515625,8.094919204711914,-3.297907829284668,0.8943174481391907
1772651059404983300,8.3719833984375,7.886743545532227,-3.16749906539917,1.109073281288147
1772651059414860500,8.381860595703126,8.061419486999512,-3.0693931579589844,1.342971682548523
1772651059424738000,8.391738037109375,8.586644172668457,-2.9659037590026855,1.4877375364303589
1772651059434615300,8.401615234375,9.369695663452148,-2.848057270050049,1.51166570186615
1772651059444492800,8.411492919921875,10.133604049682617,-2.8630123138427734,1.4117653369903564
1772651059454370000,8.4213701171875,10.647462844848633,-3.029313564300537,1.2185449600219727
1772651059464247300,8.431247314453126,10.89153003692627,-3.2273194789886475,0.9308080077171326
1772651059474124800,8.441124755859375,10.969895362854004,-3.339782238006592,0.5814558863639832
1772651059484002000,8.451001953125,10.938788414001465,-3.4235310554504395,0.2967100143432617
1772651059493879600,8.460879638671875,10.822138786315918,-3.4642090797424316,0.09511470049619675
1772651059503756800,8.4707568359375,10.651650428771973,-3.4157543182373047,-0.0023928226437419653
1772651059513634000,8.480634033203126,10.347761154174805,-3.2141590118408203,-0.0029910283628851175
1772651059523511600,8.490511474609375,9.885947227478027,-2.954537868499756,0.09571290761232376
1772651059533388800,8.500388916015625,9.32602596282959,-2.7008986473083496,0.20937198400497437
1772651059543266300,8.510266357421875,8.82114028930664,-2.4221346378326416,0.33499518036842346
1772651059553143600,8.5201435546875,8.45743179321289,-2.1714866161346436,0.5246263742446899
1772651059563020800,8.530020751953124,8.103293418884277,-1.9782661199569702,0.6478567123413086
1772651059572884500,8.539884521484375,7.767700672149658,-1.781456470489502,0.625723123550415
1772651059582775600,8.549775634765625,7.396812915802002,-1.5984054803848267,0.4989035129547119
1772651059592653000,8.559653076171875,6.9756760597229,-1.378864049911499,0.3978067636489868
1772651059602516500,8.5695166015625,6.4701924324035645,-1.164108157157898,0.3403790295124054
1772651059612407600,8.579407470703124,6.0466628074646,-0.875174880027771,0.3320041298866272
1772651059622285000,8.58928515625,5.6099724769592285,-0.35054850578308105,0.47617170214653015
1772651059632148500,8.5991484375,4.895116806030273,-0.12203395366668701,0.6861419081687927
1772651059642039800,8.609039794921875,5.231906890869141,-0.02273181453347206,1.00259268283844
1772651059651917000,8.6189169921875,5.752943992614746,-0.03529413416981697,1.2490534782409668
1772651059661794300,8.628794189453124,6.308078765869141,-0.16390834748744965,1.2693923711776733
1772651059671671800,8.638671875,7.2197442054748535,-0.13100704550743103,1.0827522277832031
1772651059681549000,8.648549072265626,7.800003528594971,-0.14297115802764893,0.8949156403541565
