time,seconds_elapsed,z,y,x
1772650706033221600,0.1972216796875,0.007635590620338917,0.4643966257572174,-0.4679090082645416
1772650706043099000,0.207098876953125,-0.02764083817601204,0.4756973087787628,-0.4990622103214264
1772650706052976000,0.21697607421875,-0.04810422286391258,0.49448084831237793,-0.5138752460479736
1772650706062853400,0.226853271484375,-0.06688777357339859,0.522885262966156,-0.5471664071083069
1772650706072730600,0.236730712890625,-0.1044548824429512,0.5013529062271118,-0.5984776020050049
1772650706082607900,0.24660791015625,-0.14904673397541046,0.45508119463920593,-0.6705575585365295
1772650706092485000,0.256485107421875,-0.18371231853961945,0.4903576374053955,-0.7478297352790833
1772650706102362400,0.2663623046875,-0.19088977575302124,0.5943543910980225,-0.8141067028045654
1772650706112239400,0.2762392578125,-0.1710372269153595,0.6719319820404053,-0.8255600929260254
1772650706122116600,0.28611669921875,-0.18065807223320007,0.6227588057518005,-0.7394306063652039
1772650706131993900,0.295993896484375,-0.2492256760597229,0.48608171939849854,-0.5656445622444153
1772650706141871000,0.30587109375,-0.35261157155036926,0.3384093940258026,-0.3432961702346802
1772650706151748400,0.315748291015625,-0.45798271894454956,0.1850867122411728,-0.08124268800020218
1772650706161625600,0.32562548828125,-0.4999784827232361,0.12827792763710022,0.20493926107883453
1772650706171502800,0.3355029296875,-0.4605788290500641,0.24159009754657745,0.5244123935699463
1772650706181380000,0.345380126953125,-0.462564080953598,0.28999972343444824,0.9023740887641907
1772650706191257300,0.35525732421875,-0.5242596864700317,0.19379130005836487,1.3285927772521973
1772650706201134300,0.36513427734375,-0.5825955867767334,0.08521319180727005,1.6468442678451538
1772650706211011600,0.375011474609375,-0.5885513424873352,0.05360184609889984,1.7801616191864014
1772650706220888800,0.384888916015625,-0.5445703268051147,-0.0032069480512291193,1.8476603031158447
1772650706230752300,0.394752197265625,-0.465007483959198,-0.21272756159305573,1.9855589866638184
1772650706240643300,0.404643310546875,-0.6514685750007629,-0.4844018816947937,2.047407388687134
1772650706250520600,0.4145205078125,-0.8388460278511047,-0.4543176591396332,2.0842108726501465
1772650706260384000,0.424384033203125,-0.8243383765220642,-0.258999228477478,2.074589967727661
1772650706270274800,0.43427490234375,-0.6713211536407471,-0.009773556143045425,2.143463134765625
1772650706280152000,0.444152099609375,-0.5549547076225281,0.1820324808359146,2.1251375675201416
1772650706290015500,0.454015380859375,-0.48760882019996643,0.16630317270755768,1.9215728044509888
1772650706299906600,0.463906494140625,-0.3874298632144928,0.15026842057704926,1.5787347555160522
1772650706309783800,0.47378369140625,-0.25319617986679077,0.2958027720451355,1.0498937368392944
1772650706319647200,0.483647216796875,-0.03237490355968475,0.5770979523658752,0.39384377002716064
1772650706329538300,0.493538330078125,0.4027010500431061,1.1219737529754639,-0.45049986243247986
1772650706339415600,0.50341552734375,0.9193251132965088,1.7031948566436768,-1.3403515815734863
1772650706349279000,0.513279052734375,1.4223577976226807,2.0577917098999023,-2.01930832862854
1772650706359169800,0.523169677734375,1.6337109804153442,2.03885555267334,-2.3708510398864746
1772650706369047000,0.533047119140625,1.508792757987976,1.7984870672225952,-2.4110140800476074
1772650706378910500,0.542910400390625,1.4733636379241943,1.5927842855453491,-2.241809368133545
1772650706388801500,0.552801513671875,1.5811781883239746,1.693574070930481,-2.0752007961273193
1772650706398678800,0.5626787109375,1.755727767944336,1.826738715171814,-1.916685938835144
1772650706408542200,0.572542236328125,1.8061226606369019,1.8966807126998901,-1.800624966621399
1772650706418433300,0.582433349609375,1.7251853942871094,1.9403563737869263,-1.7290031909942627
1772650706428310500,0.592310546875,1.6385977268218994,1.9421888589859009,-1.709303379058838
1772650706438174000,0.602174072265625,1.531394124031067,1.8669019937515259,-1.8504090309143066
1772650706448064800,0.612064697265625,1.515970230102539,1.7569494247436523,-1.926459550857544
1772650706457942000,0.62194189453125,1.3965495824813843,1.5126105546951294,-1.9046217203140259
1772650706467805400,0.631805419921875,1.207950472831726,1.2754490375518799,-1.7737476825714111
1772650706477696500,0.641696533203125,1.0810469388961792,1.178629755973816,-1.6068336963653564
1772650706487573800,0.65157373046875,0.9492566585540771,1.0317209959030151,-1.3521103858947754
1772650706497450800,0.66145068359375,0.6387935280799866,0.681858241558075,-1.0450069904327393
1772650706507328000,0.671327880859375,0.23151111602783203,0.20936790108680725,-0.7855495810508728
1772650706517205200,0.681205322265625,0.029473381116986275,-0.07666133344173431,-0.6960604786872864
1772650706527068700,0.691068603515625,0.006719320081174374,-0.13805148005485535,-0.6416950225830078
1772650706536959700,0.700959716796875,0.08185353130102158,-0.08780929446220398,-0.6537593007087708
1772650706546837000,0.7108369140625,0.2586938142776489,-0.03130592033267021,-0.6708629727363586
1772650706556700400,0.720700439453125,0.4283566474914551,0.06673506647348404,-0.6943806409835815
1772650706566591200,0.73059130859375,0.6369609832763672,0.42041563987731934,-0.7149966955184937
1772650706576468500,0.740468505859375,1.1341906785964966,1.4127370119094849,-0.6332958936691284
1772650706586332000,0.750331787109375,1.596754789352417,2.354205369949341,-0.23991025984287262
1772650706596223000,0.760222900390625,1.0570712089538574,1.6951011419296265,0.2279987335205078
1772650706606100200,0.770100341796875,-0.021685076877474785,0.4975350797176361,0.60825115442276
1772650706615963600,0.779963623046875,-0.7296570539474487,-0.3558185398578644,1.1467130184173584
1772650706625854700,0.789854736328125,-1.19191575050354,-1.203369140625,1.3965495824813843
1772650706635732000,0.79973193359375,-1.3617312908172607,-1.5685030221939087,1.1503781080245972
1772650706645595400,0.809595458984375,-1.3134742975234985,-1.7051801681518555,0.8776348233222961
1772650706655486500,0.819486572265625,-1.34080970287323,-1.8459804058074951,0.7220214605331421
1772650706665363500,0.829363525390625,-1.4194563627243042,-1.813910961151123,0.4957025647163391
1772650706675227100,0.83922705078125,-1.4467917680740356,-1.5297142267227173,0.27839362621307373
1772650706685118000,0.849117919921875,-1.4255647659301758,-0.9779664874076843,0.1447708010673523
1772650706694995200,0.8589951171875,-1.401283621788025,-0.5241069197654724,0.03436015918850899
1772650706704858600,0.868858642578125,-1.2533059120178223,-0.1325538605451584,-0.04337015375494957
1772650706714749700,0.878749755859375,-1.1262496709823608,0.053143709897994995,-0.10720369219779968
1772650706724627000,0.888626953125,-0.954601526260376,-0.029320668429136276,-0.10705098509788513
1772650706734490400,0.898490478515625,-0.8556442856788635,-0.1113269105553627,-0.1122431829571724
1772650706744381200,0.908381103515625,-0.6649072170257568,-0.0584886260330677,-0.23655059933662415
1772650706754258400,0.918258544921875,-0.39414918422698975,0.11285403370857239,-0.40102121233940125
1772650706764121900,0.928121826171875,-0.15546062588691711,0.2782409191131592,-0.543806791305542
1772650706774013000,0.938012939453125,0.010231691412627697,0.38941511511802673,-0.6022953987121582
1772650706783890200,0.94789013671875,0.10185877978801727,0.478751540184021,-0.5642701387405396
1772650706793753600,0.957753662109375,0.14339639246463776,0.5888567566871643,-0.43736663460731506
1772650706803644700,0.967644775390625,0.1516428291797638,0.7189671993255615,-0.24067382514476776
1772650706813522000,0.97752197265625,0.1620272397994995,0.8619054555892944,-0.013438640162348747
1772650706823385300,0.98738525390625,0.23838314414024353,0.9710944294929504,0.1901262104511261
1772650706833276400,0.9972763671875,0.3434488773345947,1.0453124046325684,0.288930743932724
1772650706843153400,1.0071533203125,0.45141613483428955,1.035691499710083,0.19379130005836487
1772650706853017000,1.01701708984375,0.5241069197654724,0.894738495349884,-0.08582404255867004
1772650706862908000,1.026907958984375,0.4947862923145294,0.6160394549369812,-0.41415444016456604
1772650706872785200,1.03678515625,0.3449759781360626,0.2915268540382385,-0.6850652098655701
1772650706882648600,1.046648681640625,0.13484452664852142,0.05604523420333862,-0.8454126119613647
1772650706892539600,1.05653955078125,-0.06520794332027435,-0.07177454978227615,-0.8909206986427307
1772650706902417000,1.0664169921875,-0.2754921019077301,-0.18814095854759216,-0.8629744648933411
1772650706912294000,1.0762939453125,-0.4665345847606659,-0.3071034550666809,-0.7928797602653503
1772650706922171100,1.086171142578125,-0.5844281315803528,-0.44515493512153625,-0.6894938349723816
1772650706932048400,1.09604833984375,-0.647192656993866,-0.5749599933624268,-0.6164975762367249
1772650706941911800,1.105911865234375,-0.6598677635192871,-0.6267293095588684,-0.5897729992866516
1772650706951803000,1.115802978515625,-0.6392516493797302,-0.5564818382263184,-0.5993938446044922
1772650706961680100,1.12568017578125,-0.5845808386802673,-0.367730051279068,-0.6163448691368103
1772650706971543600,1.13554345703125,-0.5109737515449524,-0.1501157134771347,-0.6016845703125
1772650706981434600,1.1454345703125,-0.44362783432006836,0.042606595903635025,-0.48638713359832764
1772650706991312000,1.155311767578125,-0.4262186884880066,0.2295258641242981,-0.3837648034095764
1772650707001188900,1.16518896484375,-0.3509317636489868,0.4262186884880066,-0.3345915973186493
1772650707011066000,1.175066162109375,-0.275186687707901,0.6294780969619751,-0.3020639717578888
1772650707020943400,1.184943359375,-0.3058817684650421,0.7018635272979736,-0.23502348363399506
1772650707030806800,1.194806884765625,-0.2970244884490967,0.6843016147613525,-0.15958385169506073
1772650707040697900,1.20469775390625,-0.17363333702087402,0.7047650218009949,-0.045202698558568954
1772650707050575000,1.2145751953125,0.009009997360408306,0.8376243114471436,0.17714570462703705
1772650707060438500,1.2244384765625,0.1901262104511261,0.9984298348426819,0.5567872524261475
1772650707070329600,1.23432958984375,0.3211529552936554,1.1494618654251099,0.9972081780433655
1772650707080206600,1.24420654296875,0.16706672310829163,0.9791881442070007,1.446639060974121
1772650707090070300,1.2540703125,-0.22616620361804962,0.5015056133270264,1.7807724475860596
1772650707099961000,1.263961181640625,-0.5743491649627686,0.16050012409687042,1.6384450197219849
1772650707109838300,1.27383837890625,-0.7160657048225403,-0.0015271181473508477,0.9454388618469238
1772650707119701800,1.28370166015625,-0.6774296164512634,-0.2289150059223175,0.07834116369485855
1772650707129592800,1.2935927734375,-0.43858832120895386,-0.4819584786891937,-0.5969504714012146
1772650707139470000,1.303469970703125,-0.33199548721313477,-0.6048914790153503,-0.978424608707428
1772650707149333500,1.31333349609375,-0.3052709102630615,-0.5951179265975952,-1.0318737030029297
1772650707159224600,1.323224609375,-0.19944162666797638,-0.4318690001964569,-0.7527165412902832
1772650707169101600,1.3331015625,-0.021837789565324783,-0.31351736187934875,-0.34405970573425293
1772650707178965200,1.34296533203125,0.13484452664852142,-0.3348970115184784,-0.038788799196481705
1772650707188856000,1.35285595703125,0.16340164840221405,-0.5234960913658142,0.12965233623981476
1772650707198733300,1.3627333984375,0.11025793105363846,-0.7371399402618408,0.3002314269542694
1772650707208596700,1.3725966796875,0.05726693198084831,-0.8846595287322998,0.4868452548980713
1772650707218487800,1.38248779296875,-0.0006108472589403391,-1.032789945602417,0.6091674566268921
1772650707228365000,1.392364990234375,-0.18340688943862915,-1.1019684076309204,0.7017107605934143
1772650707238228500,1.402228515625,-0.2817533016204834,-1.0506572723388672,0.7536327838897705
1772650707248119300,1.412119384765625,-0.2101314514875412,-0.6765133142471313,0.7203416228294373
1772650707257996500,1.42199658203125,-0.21532365679740906,-0.24754585325717926,0.6377245187759399
1772650707267860000,1.43185986328125,-0.23227466642856598,0.0656660795211792,0.5274665951728821
1772650707277751000,1.4417509765625,-0.26938363909721375,0.28312769532203674,0.3749074935913086
1772650707287628300,1.451628173828125,-0.337340384721756,0.30099499225616455,0.2411319613456726
1772650707297491700,1.46149169921875,-0.38422292470932007,0.2851129472255707,0.08628217875957489
1772650707307382800,1.4713828125,-0.35887277126312256,0.3561239540576935,-0.07482878863811493
1772650707317260000,1.481260009765625,-0.26159533858299255,0.5198310017585754,-0.1960819661617279
1772650707327123500,1.49112353515625,-0.08261708915233612,0.7779139876365662,-0.30633988976478577
1772650707337014300,1.50101416015625,0.033291175961494446,0.9326110482215881,-0.3993414044380188
1772650707346891500,1.5108916015625,0.02901524491608143,0.9119949340820312,-0.5027272701263428
1772650707356755000,1.5207548828125,0.047646086663007736,0.7828007340431213,-0.48669254779815674
1772650707366646000,1.53064599609375,0.08933641016483307,0.5563291311264038,-0.36849361658096313
1772650707376523300,1.540523193359375,0.1041494607925415,0.32344362139701843,-0.2151709496974945
1772650707386386700,1.55038671875,0.03497100621461868,0.15866757929325104,0.06001574173569679
1772650707396277800,1.56027783203125,-0.13316470384597778,-0.0331384651362896,0.30221667885780334
1772650707406154800,1.57015478515625,-0.22998400032520294,-0.12110047042369843,0.43645036220550537
1772650707416032000,1.580031982421875,-0.22906772792339325,-0.12858334183692932,0.5885513424873352
1772650707425909200,1.5899091796875,-0.2101314514875412,-0.14843589067459106,0.7247702479362488
1772650707435786500,1.599786376953125,-0.1960819661617279,-0.18249061703681946,0.7470661997795105
1772650707445650000,1.60964990234375,-0.14767232537269592,-0.21898874640464783,0.647803544998169
1772650707455541000,1.619541015625,-0.0713164210319519,-0.21364383399486542,0.4637857675552368
1772650707465418200,1.629418212890625,0.020310672000050545,-0.1569877415895462,0.2585411071777344
1772650707475281700,1.63928173828125,0.10262233763933182,-0.08994726091623306,0.1169772520661354
1772650707485172500,1.64917236328125,0.1892099380493164,-0.021379653364419937,0.049020491540431976
1772650707495049700,1.6590498046875,0.20967331528663635,-0.009468132629990578,0.02076880633831024
1772650707504913200,1.6689130859375,0.24876753985881805,0.0841442123055458,-0.06872031837701797
1772650707514804200,1.67880419921875,0.3245126008987427,0.2786990702152252,-0.25502872467041016
1772650707524681500,1.688681396484375,0.5212054252624512,0.6986565589904785,-0.5801522135734558
1772650707534545000,1.698544921875,0.8541171550750732,1.4299933910369873,-1.015075445175171
1772650707544435700,1.708435791015625,1.3182083368301392,2.3849003314971924,-1.4102935791015625
1772650707554313000,1.71831298828125,1.8157434463500977,3.465947389602661,-1.4057122468948364
1772650707564176400,1.72817626953125,1.7364860773086548,2.5647950172424316,-0.9089407324790955
1772650707574067500,1.7380673828125,0.8134958148002625,0.7559235095977783,-0.1713426560163498
1772650707583944700,1.74794482421875,0.18157434463500977,0.00015271181473508477,0.04214845970273018
1772650707593808100,1.75780810546875,-0.12308572232723236,-0.27503398060798645,0.4034646153450012
1772650707603699000,1.767698974609375,-0.6300889253616333,-0.8040276765823364,0.7148439884185791
1772650707613576200,1.777576171875,-0.8753440976142883,-0.8551861643791199,0.522885262966156
1772650707623439600,1.787439697265625,-0.8461761474609375,-0.6998782753944397,0.21303297579288483
1772650707633330700,1.79733056640625,-0.8309049606323242,-0.6340594291687012,0.07834116369485855
1772650707643208000,1.8072080078125,-0.7986828088760376,-0.5115845799446106,0.0647498071193695
1772650707653071400,1.8170712890625,-0.8232693672180176,-0.4671454429626465,0.09834641218185425
1772650707662962400,1.82696240234375,-0.781884491443634,-0.3309265077114105,0.23120568692684174
1772650707672839400,1.83683935546875,-0.6400152444839478,-0.10078980028629303,0.40193748474121094
1772650707682702800,1.846702880859375,-0.478751540184021,0.09147437661886215,0.5723638534545898
1772650707692594000,1.856593994140625,-0.34665581583976746,0.25502872467041016,0.7160657048225403
1772650707702471200,1.86647119140625,-0.27442312240600586,0.4431696832180023,0.8160919547080994
1772650707712334600,1.87633447265625,-0.2585411071777344,0.6864396333694458,0.816550076007843
1772650707722225700,1.8862255859375,-0.24052110314369202,0.9000834226608276,0.7553126215934753
1772650707732103000,1.89610302734375,-0.2313583940267563,0.9000834226608276,0.6933116316795349
1772650707741966300,1.90596630859375,-0.22509720921516418,0.7488987445831299,0.603975236415863
1772650707751857200,1.915857177734375,-0.15408621728420258,0.638029932975769,0.43538138270378113
1772650707761734400,1.925734375,-0.01695101149380207,0.6980457305908203,0.19623468816280365
1772650707771597800,1.935597900390625,0.04810422286391258,0.7846332788467407,-0.010995250195264816
1772650707781489000,1.945489013671875,-0.00259610079228878,0.8151756525039673,-0.10918894410133362
1772650707791366100,1.9553662109375,-0.06322269141674042,0.8383878469467163,-0.1122431829571724
1772650707801229600,1.9652294921875,-0.15301723778247833,0.7785248160362244,-0.04077405482530594
1772650707811120400,1.975120361328125,-0.3002314269542694,0.5418215394020081,0.07360709458589554
1772650707820997600,1.98499755859375,-0.4634803533554077,0.2996205687522888,0.18249061703681946
1772650707830861300,1.994861328125,-0.5277720093727112,0.17286977171897888,0.1525591015815735
1772650707840752000,2.004752197265625,-0.5189147591590881,0.13377554714679718,0.0032069480512291193
1772650707850629400,2.01462939453125,-0.49051034450531006,0.08338065445423126,-0.22967857122421265
1772650707860492800,2.024492919921875,-0.4414898455142975,0.009315420873463154,-0.5008947253227234
1772650707870383900,2.0343837890625,-0.3524588644504547,0.011300674639642239,-0.7647807598114014
1772650707880261000,2.04426123046875,-0.3255815804004669,-0.007177455350756645,-0.9393303990364075
1772650707890124500,2.05412451171875,-0.41445985436439514,-0.12705622613430023,-0.9686510562896729
1772650707900015400,2.064015380859375,-0.5639647245407104,-0.25777754187583923,-0.8548807501792908
1772650707909892600,2.073892578125,-0.7423321604728699,-0.4161396920681,-0.6368082761764526
1772650707919756000,2.083756103515625,-0.9556705355644226,-0.6519267559051514,-0.39231663942337036
1772650707929647000,2.093647216796875,-1.1334271430969238,-0.8616000413894653,-0.16111096739768982
1772650707939524400,2.1035244140625,-1.222305417060852,-0.987892746925354,0.05207473039627075
1772650707949387800,2.1133876953125,-1.2009257078170776,-0.9451334476470947,0.2557922899723053
1772650707959278600,2.123278564453125,-1.1479346752166748,-0.7430956959724426,0.3405473530292511
1772650707969155800,2.13315576171875,-1.1184613704681396,-0.576487123966217,0.39598172903060913
1772650707979019300,2.143019287109375,-1.1338852643966675,-0.567018985748291,0.4634803533554077
1772650707988910300,2.152910400390625,-1.1578609943389893,-0.7149966955184937,0.5476245880126953
1772650707998787600,2.16278759765625,-1.1054807901382446,-0.8305995464324951,0.6218425035476685
1772650708008651000,2.172651123046875,-0.9506310224533081,-0.6879667043685913,0.6907155513763428
1772650708018542000,2.1825419921875,-0.7730271816253662,-0.31534990668296814,0.7829535007476807
1772650708028419300,2.19241943359375,-0.6571189165115356,0.15439164638519287,0.9028322696685791
1772650708038282800,2.20228271484375,-0.5589252710342407,0.6293253898620605,1.0178242921829224
1772650708048173600,2.212173583984375,-0.48486000299453735,0.9304730892181396,1.1859599351882935
1772650708058050800,2.22205078125,-0.5966450572013855,0.8014315962791443,1.4406832456588745
1772650708067914200,2.231914306640625,-0.7527165412902832,0.41140562295913696,1.64165198802948
1772650708077805300,2.241805419921875,-0.615428626537323,0.2298312783241272,1.4897037744522095
1772650708087682600,2.2516826171875,-0.48363831639289856,0.07681404054164886,1.1697725057601929
1772650708097546000,2.2615458984375,-0.39888325333595276,-0.020005248486995697,0.8426637649536133
1772650708107436800,2.271436767578125,-0.26128992438316345,-0.03649812191724777,0.4955498278141022
1772650708117314000,2.28131396484375,-0.12278030067682266,0.016187451779842377,0.15530791878700256
1772650708127177500,2.291177490234375,0.11911521852016449,0.30099499225616455,-0.19974705576896667
1772650708137068500,2.301068603515625,0.16737215220928192,0.430341899394989,-0.5248705148696899
1772650708146945800,2.31094580078125,0.16019469499588013,0.4205683469772339,-0.7921161651611328
1772650708156809200,2.320809326171875,0.23593975603580475,0.5178457498550415,-1.0251544713974
1772650708166700300,2.3307001953125,0.3927747905254364,0.6977402567863464,-1.2329951524734497
1772650708176577300,2.340577392578125,0.5564818382263184,0.8153283596038818,-1.4232741594314575
1772650708186441000,2.35044091796875,0.682163655757904,0.8008207678794861,-1.5252856016159058
1772650708196331800,2.360331787109375,0.7267554998397827,0.6575770974159241,-1.4657280445098877
1772650708206209000,2.370208984375,0.7163711190223694,0.43828290700912476,-1.3050751686096191
1772650708216072400,2.380072509765625,0.7284353375434875,0.2351761907339096,-1.0709679126739502
1772650708225963500,2.389963623046875,0.7995990514755249,0.09712471067905426,-0.7814263701438904
1772650708235840800,2.3998408203125,0.855491578578949,-0.03802524134516716,-0.487761527299881
1772650708245704200,2.4097041015625,0.8542698621749878,-0.16721943020820618,-0.22463907301425934
1772650708255595000,2.419594970703125,0.7869240045547485,-0.2573194205760956,0.009009997360408306
1772650708265472300,2.42947216796875,0.6519267559051514,-0.2829749882221222,0.23991025984287262
1772650708275335700,2.439335693359375,0.49264830350875854,-0.27885177731513977,0.46393850445747375
1772650708285226800,2.449226806640625,0.31412819027900696,-0.2617480456829071,0.648108959197998
1772650708295104000,2.45910400390625,0.13942588865756989,-0.19883078336715698,0.7675296068191528
1772650708304967400,2.468967529296875,0.005803049076348543,-0.06139015033841133,0.856407880783081
1772650708314858500,2.4788583984375,-0.1316375881433487,0.05482354015111923,0.9148964881896973
1772650708324735500,2.488735595703125,-0.27091076970100403,0.10918894410133362,0.9723161458969116
1772650708334599200,2.49859912109375,-0.3436015844345093,0.15500248968601227,1.0219475030899048
1772650708344490000,2.508489990234375,-0.3327590525150299,0.13927318155765533,1.0447015762329102
1772650708354367200,2.5183671875,-0.22433365881443024,0.11209046840667725,0.9981244206428528
1772650708364230700,2.528230712890625,-0.012216945178806782,0.16615045070648193,0.8785510659217834
1772650708374121700,2.538121826171875,0.20127417147159576,0.251974493265152,0.6901046633720398
1772650708383998700,2.547998779296875,0.37170055508613586,0.15958385169506073,0.45981526374816895
1772650708393862400,2.5578623046875,0.43263256549835205,-0.11209046840667725,0.2742704153060913
1772650708403753200,2.567753173828125,0.37536564469337463,-0.39506545662879944,0.23471805453300476
1772650708413630500,2.57763037109375,0.34161633253097534,-0.5126535892486572,0.29626092314720154
1772650708423507700,2.5875078125,0.30725616216659546,-0.5868715047836304,0.39231663942337036
1772650708433385000,2.597385009765625,0.2683146595954895,-0.6641436815261841,0.4405735731124878
1772650708443262200,2.60726220703125,0.27625566720962524,-0.6920899152755737,0.42423340678215027
1772650708453125600,2.617125732421875,0.3570402264595032,-0.6534538269042969,0.3509317636489868
1772650708463016400,2.627016357421875,0.47768256068229675,-0.6128324866294861,0.2438807636499405
1772650708472893700,2.636893798828125,0.6178719997406006,-0.5259394645690918,0.10705098509788513
1772650708482757000,2.646757080078125,0.7226322889328003,-0.48730340600013733,-0.005497625097632408
1772650708492648200,2.656648193359375,0.7782194018363953,-0.4694361090660095,-0.11743538826704025
1772650708502525400,2.666525390625,0.8095253109931946,-0.3903313875198364,-0.27915719151496887
1772650708512388900,2.676388916015625,0.8568660020828247,-0.305118203163147,-0.48806697130203247
1772650708522279700,2.68627978515625,0.856407880783081,-0.35352784395217896,-0.6000047326087952
1772650708532157000,2.696156982421875,0.9020686745643616,-0.09804098308086395,-0.8075400590896606
1772650708542020400,2.706020263671875,1.3027844429016113,0.7913526296615601,-1.318819284439087
1772650708551911400,2.715911376953125,1.8323891162872314,1.9435632228851318,-1.8285713195800781
1772650708561788700,2.72578857421875,1.9679971933364868,2.6767327785491943,-1.7186187505722046
1772650708571652000,2.735652099609375,1.576902151107788,1.3939534425735474,-0.904817521572113
1772650708581543200,2.745543212890625,0.8871029615402222,0.2764083743095398,-0.4784461259841919
1772650708591420200,2.755420166015625,0.5242596864700317,0.08796200156211853,-0.25121092796325684
1772650708601283600,2.76528369140625,0.08185353130102158,-0.6881194114685059,0.25212720036506653
1772650708611174700,2.775174560546875,-0.2620534598827362,-1.4258701801300049,0.6171084642410278
1772650708621052000,2.785052001953125,-0.38162681460380554,-1.7436635494232178,0.5355603098869324
1772650708630915300,2.794915283203125,-0.2654131352901459,-1.419150948524475,0.1817270666360855
1772650708640806400,2.804806396484375,-0.11575555801391602,-0.8710681796073914,-0.01710372418165207
1772650708650683400,2.814683349609375,-0.14400723576545715,-0.45080527663230896,0.043981000781059265
1772650708660547000,2.824547119140625,-0.3208475112915039,-0.3187095522880554,0.20096874237060547
1772650708670438000,2.83443798828125,-0.5729747414588928,-0.4246915578842163,0.3509317636489868
1772650708680315100,2.844315185546875,-0.7044596076011658,-0.48486000299453735,0.5230379700660706
1772650708690178600,2.854178466796875,-0.6401679515838623,-0.3280249834060669,0.6736118197441101
1772650708700069600,2.864069580078125,-0.4847072958946228,0.037414394319057465,0.7247702479362488
1772650708709947000,2.87394677734375,-0.19501298666000366,0.645207405090332,0.5812211632728577
1772650708719810300,2.883810302734375,0.11667182296514511,1.3313416242599487,0.16141638159751892
1772650708729701000,2.893701171875,0.22937314212322235,1.5460543632507324,-0.3139754831790924
1772650708739578400,2.903578369140625,0.1916533261537552,1.0515735149383545,-0.5841227173805237
1772650708749441800,2.91344189453125,0.1495048701763153,0.705681324005127,-0.718814492225647
1772650708759332900,2.923332763671875,0.12995775043964386,0.5022691488265991,-0.6632274389266968
1772650708769210000,2.933210205078125,0.15408621728420258,0.45615020394325256,-0.40972578525543213
1772650708779073500,2.943073486328125,0.07375980913639069,0.4115583300590515,-0.019394399598240852
1772650708788964600,2.952964599609375,-0.021226942539215088,0.3834593594074249,0.33352261781692505
1772650708798841900,2.962841796875,-0.030542362481355667,0.3880407214164734,0.5230379700660706
1772650708808705300,2.972705322265625,-0.07207997888326645,0.3436015844345093,0.5428904891014099
1772650708818596000,2.98259619140625,-0.16156910359859467,0.23853585124015808,0.37506023049354553
1772650708828473300,2.992473388671875,-0.254265159368515,0.1435490995645523,0.06047387793660164
1772650708838336800,3.002336669921875,-0.3703261613845825,0.055739812552928925,-0.26403874158859253
1772650708848227800,3.012227783203125,-0.5108210444450378,-0.07406523078680038,-0.49234288930892944
1772650708858105000,3.02210498046875,-0.6705575585365295,-0.19715094566345215,-0.6270347237586975
1772650708867968500,3.031968505859375,-0.8101361989974976,-0.24876753985881805,-0.724006712436676
1772650708877859600,3.041859619140625,-0.9423846006393433,-0.2551814317703247,-0.7771504521369934
1772650708887736800,3.05173681640625,-1.0222529172897339,-0.1901262104511261,-0.7553126215934753
1772650708897600300,3.061600341796875,-1.0164498090744019,-0.02367033064365387,-0.666128933429718
1772650708907491000,3.071490966796875,-0.9292513728141785,0.19898349046707153,-0.5037962794303894
1772650708917368300,3.081368408203125,-0.7293516397476196,0.5112791657447815,-0.3874298632144928
1772650708927231700,3.091231689453125,-0.3903313875198364,0.8822161555290222,-0.4677563011646271
1772650708937122800,3.101122802734375,-0.10430216789245605,1.0094250440597534,-0.6325323581695557
1772650708947000000,3.111,-0.07803573459386826,0.8640434741973877,-0.6520794630050659
1772650708956863500,3.120863525390625,-0.22524993121623993,0.6096255779266357,-0.5430431962013245
1772650708966754300,3.13075439453125,-0.4178195297718048,0.3035911023616791,-0.3787252902984619
1772650708976631600,3.140631591796875,-0.6139014959335327,0.01695101149380207,-0.23945212364196777
1772650708986508800,3.1505087890625,-0.7734853625297546,-0.27320143580436707,-0.1328592747449875
1772650708996386000,3.160385986328125,-0.9119949340820312,-0.5349494814872742,-0.07727217674255371
1772650709006263300,3.17026318359375,-1.0112576484680176,-0.7504258751869202,-0.09437590092420578
1772650709016126700,3.180126708984375,-0.9843803644180298,-0.9158127307891846,-0.21303297579288483
1772650709026017800,3.190017822265625,-0.8292251825332642,-1.015380859375,-0.3733803927898407
1772650709035894800,3.199894775390625,-0.5740436911582947,-0.9857547879219055,-0.5419742465019226
1772650709045758500,3.209758544921875,-0.26495498418807983,-0.8255600929260254,-0.6780404448509216
1772650709055649300,3.219649169921875,0.018783552572131157,-0.6601731777191162,-0.7756233215332031
1772650709065526500,3.229526611328125,0.22433365881443024,-0.5709894895553589,-0.8298360109329224
1772650709075390000,3.239389892578125,0.37353309988975525,-0.4815003573894501,-0.8353336453437805
1772650709085281000,3.249281005859375,0.5233433842658997,-0.282364159822464,-0.7061394453048706
1772650709095158300,3.259158203125,0.7237012982368469,0.11942064017057419,-0.36879903078079224
1772650709105021700,3.269021728515625,0.9927794933319092,0.8194515705108643,0.15805672109127045
1772650709114912800,3.278912841796875,1.2216944694519043,1.5430002212524414,0.7841751575469971
1772650709124789800,3.288789794921875,1.1517524719238281,1.6384450197219849,1.4092246294021606
1772650709134653400,3.2986533203125,0.8008207678794861,0.9972081780433655,1.9122573137283325
1772650709144544300,3.308544189453125,0.5100574493408203,0.3324536085128784,2.37237811088562
1772650709154421500,3.31842138671875,0.32756683230400085,0.07269082218408585,2.6199238300323486
1772650709164285000,3.328284912109375,0.3946073353290558,0.35474956035614014,2.033968687057495
1772650709174176000,3.338176025390625,0.5494571328163147,0.7765395641326904,0.7064448595046997
1772650709184053200,3.34805322265625,0.7404996156692505,1.310725450515747,-0.5464028716087341
1772650709193916700,3.357916748046875,0.7600467205047607,1.790393352508545,-1.0960127115249634
1772650709203807700,3.367807861328125,0.25945737957954407,1.4487769603729248,-0.9492566585540771
1772650709213684700,3.377684814453125,-0.29839888215065,0.6116108298301697,-0.46699273586273193
1772650709223548400,3.38754833984375,-0.652384877204895,0.00015271181473508477,0.005955760832875967
1772650709233439200,3.397439208984375,-0.7484406232833862,-0.1960819661617279,0.1763821393251419
1772650709243316500,3.40731640625,-0.7226322889328003,-0.1757712960243225,0.07391251623630524
1772650709253180000,3.417179931640625,-0.5638120174407959,-0.0462716780602932,-0.09330692142248154
1772650709263071000,3.427071044921875,-0.43049460649490356,-0.07956285774707794,-0.18401773273944855
1772650709272948200,3.4369482421875,-0.2151709496974945,-0.09177979826927185,-0.20753535628318787
1772650709282811600,3.446811767578125,0.03268032893538475,-0.10002623498439789,-0.21471281349658966
1772650709292702500,3.456702392578125,0.1782146841287613,-0.11315945535898209,-0.20677179098129272
1772650709302579700,3.466579833984375,0.2304421216249466,-0.2289150059223175,-0.16080553829669952
1772650709312443400,3.476443359375,0.23838314414024353,-0.27503398060798645,-0.07360709458589554
1772650709322334200,3.486334228515625,0.10491301864385605,-0.41262730956077576,0.06963659077882767
1772650709332211500,3.49621142578125,-0.032222192734479904,-0.4656183123588562,0.17439688742160797
1772650709342075000,3.506074951171875,-0.10979979485273361,-0.4297310411930084,0.2154763638973236
1772650709351966000,3.515966064453125,-0.19348587095737457,-0.3101576864719391,0.19470755755901337
1772650709361843200,3.52584326171875,-0.20692451298236847,-0.23105297982692719,0.1519482582807541
1772650709371706600,3.53570654296875,-0.16630317270755768,-0.1447708010673523,0.07605048269033432
1772650709381597700,3.54559765625,-0.11086877435445786,-0.04046862944960594,-0.07803573459386826
1772650709391475000,3.555474853515625,-0.0331384651362896,0.05650337040424347,-0.2907632887363434
1772650709401338400,3.56533837890625,0.014965757727622986,0.06642963737249374,-0.44484952092170715
1772650709411229200,3.575229248046875,0.04963133856654167,0.016187451779842377,-0.5059342384338379
1772650709421106400,3.5851064453125,0.1044548824429512,-0.05375456064939499,-0.46760356426239014
1772650709430983700,3.594983642578125,0.18462859094142914,-0.10384403169155121,-0.3643703758716583
1772650709440861000,3.60486083984375,0.2782409191131592,-0.10262233763933182,-0.2670929729938507
1772650709450738200,3.61473828125,0.33169007301330566,-0.0975828468799591,-0.1513374149799347
1772650709460601600,3.6246015625,0.3984251320362091,-0.03817795217037201,-0.06032116711139679
1772650709470492400,3.634492431640625,0.4647020399570465,-0.009620844386518002,0.07559234648942947
1772650709480369700,3.64436962890625,0.49707695841789246,-0.02504473738372326,0.2718270421028137
1772650709490247000,3.654246826171875,0.5010474920272827,-0.07803573459386826,0.4543176591396332
1772650709500124200,3.664124267578125,0.4524851143360138,-0.17088451981544495,0.5989357233047485
1772650709510001400,3.67400146484375,0.35138988494873047,-0.2907632887363434,0.6806365847587585
1772650709519878700,3.683878662109375,0.24586601555347443,-0.3880407214164734,0.7064448595046997
1772650709529756000,3.693755859375,0.1779092699289322,-0.48669254779815674,0.7101099491119385
1772650709539633200,3.703633056640625,0.1560714691877365,-0.5662553906440735,0.7162184119224548
1772650709549496600,3.71349658203125,0.17439688742160797,-0.583053708076477,0.6948387622833252
1772650709559387400,3.723387451171875,0.2011214643716812,-0.5748072862625122,0.6100836992263794
1772650709569264600,3.7332646484375,0.20600824058055878,-0.5839699506759644,0.45920443534851074
1772650709579128000,3.743128173828125,0.1951656937599182,-0.6027535200119019,0.2582356929779053
1772650709589019100,3.75301904296875,0.18019993603229523,-0.6743753552436829,0.0004581354442052543
1772650709598896400,3.762896484375,0.291374146938324,-0.7226322889328003,-0.32374903559684753
1772650709608759800,3.772759765625,0.5396835803985596,-0.6247440576553345,-0.6459710001945496
1772650709618651000,3.78265087890625,0.8603783845901489,-0.38941511511802673,-0.9475768208503723
1772650709628528000,3.792528076171875,1.3078240156173706,0.24556060135364532,-1.3120999336242676
1772650709638391600,3.8023916015625,1.8736212253570557,1.3253858089447021,-1.7314465045928955
1772650709648282400,3.812282470703125,2.444152593612671,2.7089548110961914,-1.8029156923294067
1772650709658159600,3.82215966796875,2.6487865447998047,3.002619743347168,-1.1769499778747559
1772650709668023000,3.83202294921875,2.1972177028656006,2.1947741508483887,-0.014813045971095562
1772650709677914000,3.8419140625,1.5529264211654663,1.2241379022598267,1.2342169284820557
1772650709687791400,3.851791259765625,1.0938746929168701,0.28786176443099976,1.8739266395568848
1772650709697654800,3.86165478515625,0.5822901725769043,-1.0288194417953491,1.938218355178833
1772650709707545900,3.8715458984375,0.2564031481742859,-1.8032211065292358,1.3971604108810425
1772650709717422800,3.8814228515625,0.4480564594268799,-1.2690352201461792,0.34008920192718506
1772650709727286500,3.89128662109375,1.0195040702819824,-0.09422318637371063,-0.7702783942222595
1772650709737177300,3.90117724609375,1.037218689918518,0.24403348565101624,-1.2001621723175049
1772650709747054600,3.9110546875,0.5815265774726868,-0.10262233763933182,-0.8965710401535034
1772650709756918000,3.92091796875,-0.004428642801940441,-0.4695888161659241,-0.28190600872039795
1772650709766809000,3.93080908203125,-0.5975613594055176,-0.7574505805969238,0.23929941654205322
1772650709776686300,3.940686279296875,-1.0970816612243652,-1.0888352394104004,0.5803049206733704
1772650709786549800,3.9505498046875,-1.3951750993728638,-1.21650230884552,0.6678087711334229
1772650709796440800,3.96044091796875,-1.4897037744522095,-1.1822948455810547,0.5095993280410767
1772650709806318000,3.970318115234375,-1.4357964992523193,-1.0250016450881958,0.16905197501182556
1772650709816181500,3.980181396484375,-1.3163758516311646,-0.8353336453437805,-0.25533416867256165
1772650709826072300,3.990072265625,-1.1409099102020264,-0.6143596172332764,-0.6682668924331665
1772650709835949600,3.999949462890625,-0.8965710401535034,-0.32130566239356995,-0.9981244206428528
1772650709845813000,4.00981298828125,-0.6139014959335327,0.0050394898280501366,-1.1659547090530396
1772650709855704000,4.0197041015625,-0.5178457498550415,0.34039464592933655,-1.223679780960083
1772650709865581300,4.029581298828125,-0.4747810363769531,0.5525113344192505,-1.1531269550323486
1772650709875444700,4.03944482421875,-0.4819584786891937,0.7339329719543457,-0.9929322004318237
1772650709885335800,4.049335693359375,-0.5355603098869324,0.8754968047142029,-0.7598940134048462
1772650709895212800,4.059212890625,-0.6053496599197388,1.0178242921829224,-0.4718795120716095
1772650709905076500,4.069076416015625,-0.6552863717079163,1.1665655374526978,-0.15927842259407043
1772650709914967300,4.07896728515625,-0.4981459379196167,1.4802355766296387,0.03695625811815262
1772650709924844500,4.088844482421875,-0.18004722893238068,1.7569494247436523,0.09391776472330093
1772650709934708000,4.0987080078125,-0.055587101727724075,1.7393875122070312,0.14171656966209412
1772650709944599000,4.10859912109375,-0.10078980028629303,1.5307831764221191,0.16248537600040436
1772650709954476300,4.118476318359375,-0.27320143580436707,1.186112642288208,0.1620272397994995
1772650709964339700,4.128339599609375,-0.509141206741333,0.8148702383041382,0.09147437661886215
1772650709974230800,4.138230712890625,-0.6511631608009338,0.5496098399162292,-0.04856235533952713
1772650709984107800,4.148107666015625,-0.6839962005615234,0.36971530318260193,-0.18065807223320007
1772650709993985000,4.157985107421875,-0.6505523324012756,0.16905197501182556,-0.27885177731513977
1772650710003862300,4.1678623046875,-0.5914528369903564,-0.13576079905033112,-0.3674246370792389
1772650710013739500,4.177739501953125,-0.6100836992263794,-0.43538138270378113,-0.4100312292575836
1772650710023603000,4.18760302734375,-0.5967977643013,-0.6872031688690186,-0.4227063059806824
1772650710033494000,4.197493896484375,-0.5361711978912354,-0.7835643291473389,-0.4468347728252411
1772650710043371300,4.207371337890625,-0.4682144224643707,-0.8061656951904297,-0.45477578043937683
1772650710053248300,4.217248291015625,-0.3968980014324188,-0.8018897175788879,-0.4524851143360138
1772650710063125500,4.22712548828125,-0.3220692276954651,-0.7475243210792542,-0.483485609292984
1772650710073002800,4.237002685546875,-0.2670929729938507,-0.672695517539978,-0.5974085927009583
1772650710082880000,4.2468798828125,-0.2667875289916992,-0.5880932211875916,-0.744928240776062
1772650710092757200,4.25675732421875,-0.3180987238883972,-0.4796678125858307,-0.9049702286720276
1772650710102634500,4.266634521484375,-0.36513394117355347,-0.3298575282096863,-1.0798252820968628
1772650710112498000,4.276497802734375,-0.3849864900112152,-0.04107947647571564,-1.2145171165466309
1772650710122389000,4.286388916015625,-0.39140036702156067,0.3381039500236511,-1.2219998836517334
1772650710132266200,4.296266357421875,-0.425607830286026,0.6919372081756592,-1.0234745740890503
1772650710142129700,4.306129638671875,-0.4947862923145294,0.8315158486366272,-0.6027535200119019
1772650710152020500,4.3160205078125,-0.5891621708869934,0.7438592314720154,0.0006108472589403391
1772650710161897700,4.325897705078125,-0.5612159371376038,0.7864658236503601,0.6687250137329102
1772650710171761200,4.33576123046875,-0.19806721806526184,1.3704358339309692,1.2745327949523926
1772650710181652200,4.34565234375,0.39949411153793335,2.027554750442505,1.75450599193573
1772650710191529500,4.355529541015625,0.4405735731124878,1.654479742050171,2.1678969860076904
1772650710201393000,4.365392822265625,0.08872556686401367,0.5952706336975098,2.38077712059021
1772650710211284000,4.375283935546875,-0.05375456064939499,-0.14828316867351532,2.3181653022766113
1772650710221161200,4.3851611328125,-0.009009997360408306,-0.5578562617301941,1.8604880571365356
1772650710231024600,4.395024658203125,-0.012675080448389053,-0.4614951014518738,1.0132428407669067
1772650710240915500,4.40491552734375,-0.2301367074251175,-0.28847262263298035,0.15591876208782196
1772650710250792700,4.414792724609375,-0.3558185398578644,0.15546062588691711,-0.4337015450000763
1772650710260656000,4.42465625,-0.5065450668334961,0.5405998229980469,-0.5441122055053711
1772650710270547200,4.434547119140625,-0.9495620727539062,0.29687178134918213,-0.19150061905384064
1772650710280424400,4.444424560546875,-1.10532808303833,0.013896775431931019,0.15301723778247833
1772650710290287900,4.454287841796875,-0.7846332788467407,-0.026571854948997498,0.26816195249557495
1772650710300179000,4.464178955078125,-0.4769189953804016,-0.11270131915807724,0.1957765519618988
1772650710310056200,4.47405615234375,-0.10720369219779968,-0.34665581583976746,-0.014507622458040714
1772650710319919600,4.483919677734375,0.12720894813537598,-0.3564293682575226,-0.31565532088279724
1772650710329810400,4.493810546875,0.43385425209999084,-0.0650552362203598,-0.6421532034873962
1772650710339687700,4.503687744140625,0.5723638534545898,0.17684027552604675,-0.8434273600578308
1772650710349551400,4.51355126953125,0.522885262966156,0.14202198386192322,-0.8272398710250854
1772650710359442200,4.523442138671875,0.3555130958557129,0.058183200657367706,-0.5887040495872498
1772650710369319400,4.5333193359375,0.1175880953669548,-0.06719319522380829,-0.2492256760597229
1772650710379182800,4.543182861328125,-0.11636640131473541,-0.19562382996082306,0.0719272643327713
1772650710389074000,4.553073974609375,-0.3005368411540985,-0.34405970573425293,0.3414636254310608
1772650710398951200,4.562951171875,-0.4217900335788727,-0.4593571424484253,0.5183038711547852
1772650710408814600,4.572814697265625,-0.5033381581306458,-0.5612159371376038,0.6207735538482666
1772650710418705700,4.58270556640625,-0.5025745630264282,-0.5566345453262329,0.6445965766906738
1772650710428583000,4.5925830078125,-0.4750864505767822,-0.44958359003067017,0.5685460567474365
1772650710438446300,4.6024462890625,-0.4688252806663513,-0.3396310806274414,0.4337015450000763
1772650710448337200,4.612337158203125,-0.4840964674949646,-0.2032594233751297,0.30786702036857605
1772650710458214400,4.62221435546875,-0.49707695841789246,-0.04825693368911743,0.2599155008792877
1772650710468077800,4.632077880859375,-0.4324798583984375,0.19211146235466003,0.3179459869861603
1772650710477969000,4.641968994140625,-0.3184041380882263,0.46668729186058044,0.4193466305732727
1772650710487846100,4.65184619140625,-0.2292204350233078,0.62627112865448,0.5390726923942566
1772650710497709600,4.66170947265625,-0.09269607067108154,0.752105712890625,0.596492350101471
1772650710507600400,4.671600341796875,0.08903098851442337,0.8828269839286804,0.5286883115768433
1772650710517477600,4.6814775390625,0.2945810854434967,0.9512419104576111,0.3784198760986328
1772650710527341300,4.69134130859375,0.5074613690376282,1.0123265981674194,0.2244863659143448
1772650710537232100,4.701232177734375,0.7266027927398682,1.0842539072036743,0.10735640674829483
1772650710547109400,4.711109375,0.8634325861930847,1.0734113454818726,0.04459185153245926
1772650710556972800,4.720972900390625,0.8803836107254028,0.9823951125144958,0.0647498071193695
1772650710566864000,4.73086376953125,0.8173136115074158,0.8254073858261108,0.12522368133068085
1772650710576740900,4.740740966796875,0.6806365847587585,0.6137487888336182,0.17317520081996918
1772650710586618000,4.7506181640625,0.5106683373451233,0.3662029206752777,0.18997350335121155
1772650710596495400,4.760495361328125,0.3584146201610565,0.16935740411281586,0.14400723576545715
1772650710606372600,4.77037255859375,0.2722851634025574,0.03008422814309597,0.03390202298760414
1772650710616236000,4.780236083984375,0.2551814317703247,-0.029626091942191124,-0.09697200357913971
1772650710626127000,4.790127197265625,0.3080197274684906,0.016340164467692375,-0.21868331730365753
1772650710636004400,4.80000439453125,0.40575528144836426,0.12766708433628082,-0.34940463304519653
1772650710645867800,4.80986767578125,0.4489727318286896,0.1322484314441681,-0.49921491742134094
1772650710655758600,4.819758544921875,0.3820849657058716,0.03527642786502838,-0.6597150564193726
1772650710665635800,4.8296357421875,0.1575985997915268,-0.1682884246110916,-0.7374453544616699
1772650710675499300,4.839499267578125,-0.014813045971095562,-0.24494975805282593,-0.7736380696296692
1772650710685390300,4.849390380859375,-0.03802524134516716,-0.17928366363048553,-0.7666133046150208
1772650710695267600,4.859267578125,-0.14003673195838928,-0.11911521852016449,-0.5729747414588928
1772650710705131000,4.869131103515625,-0.18187977373600006,-0.06490252166986465,-0.27946263551712036
1772650710715022000,4.87902197265625,-0.16034740209579468,-0.049020491540431976,0.036192700266838074
1772650710724899000,4.888899169921875,0.0397050715982914,0.0975828468799591,0.5980194807052612
1772650710734762800,4.8987626953125,0.7478297352790833,-0.22433365881443024,1.2794195413589478
1772650710744653600,4.908653564453125,1.2504043579101562,-0.5126535892486572,1.609582543373108
1772650710754530800,4.91853076171875,0.8961129188537598,-1.0567657947540283,1.4327422380447388
1772650710764394200,4.928394287109375,0.4796678125858307,-1.6709727048873901,1.2429214715957642
1772650710774285300,4.938285400390625,0.33688226342201233,-1.5425420999526978,0.9848384857177734
1772650710784162600,4.94816259765625,0.38544461131095886,-1.3818892240524292,0.6644490957260132
1772650710794026000,4.95802587890625,0.36039987206459045,-1.0361496210098267,0.16050012409687042
1772650710803916800,4.967916748046875,0.1772984117269516,-0.7261446714401245,-0.3990359604358673
1772650710813794000,4.9777939453125,0.038636088371276855,-0.36543938517570496,-0.760657548904419
1772650710823657500,4.987657470703125,-0.08780929446220398,0.02107422985136509,-0.9275715351104736
1772650710833548500,4.997548583984375,-0.16859383881092072,0.3764346241950989,-0.8956547975540161
1772650710843425800,5.00742578125,-0.24479703605175018,0.6862868666648865,-0.7893673777580261
1772650710853289200,5.017289306640625,-0.32787227630615234,0.9387195110321045,-0.735460102558136
1772650710863180000,5.027179931640625,-0.3967452943325043,0.9854493141174316,-0.6552863717079163
1772650710873057300,5.037057373046875,-0.42728766798973083,0.7673768401145935,-0.43202173709869385
1772650710882920700,5.046920654296875,-0.4659237563610077,0.4900522232055664,-0.08658760040998459
1772650710892811800,5.056811767578125,-0.5331169366836548,0.3665083646774292,0.2576248347759247
1772650710902689000,5.06668896484375,-0.6839962005615234,0.1566823273897171,0.6281036734580994
1772650710912552400,5.076552490234375,-0.9709417223930359,-0.05238015204668045,0.9828532338142395
1772650710922443500,5.086443603515625,-1.0535588264465332,-0.2373141646385193,1.159998893737793
1772650710932320500,5.096320556640625,-1.0845593214035034,-0.40102121233940125,1.20504891872406
1772650710942184200,5.10618408203125,-1.0520316362380981,-0.5633538961410522,1.0937219858169556
1772650710952075000,5.116074951171875,-0.9831586480140686,-0.6229115128517151,0.813648521900177
1772650710961952300,5.1259521484375,-0.9237537384033203,-0.6389462351799011,0.46851983666419983
1772650710971815700,5.135815673828125,-0.8443436026573181,-0.5899257659912109,0.13331741094589233
1772650710981706800,5.145706787109375,-0.7065975666046143,-0.43919917941093445,-0.14309096336364746
1772650710991584000,5.155583984375,-0.5512896776199341,-0.29351210594177246,-0.34757208824157715
1772650711001447400,5.165447509765625,-0.4140017330646515,-0.22998400032520294,-0.42606595158576965
1772650711011338500,5.17533837890625,-0.3574983477592468,-0.241742804646492,-0.39414918422698975
1772650711021215500,5.185215576171875,-0.3646758198738098,-0.27060532569885254,-0.3382566571235657
1772650711031079200,5.1950791015625,-0.3568875193595886,-0.24601873755455017,-0.33596599102020264
1772650711040970000,5.204969970703125,-0.34314343333244324,-0.18707197904586792,-0.3761292099952698
1772650711050847200,5.21484716796875,-0.32161107659339905,-0.1107160672545433,-0.4611896872520447
1772650711060724500,5.224724365234375,-0.29717719554901123,-0.06276455521583557,-0.6079457402229309
1772650711070601700,5.234601806640625,-0.30786702036857605,-0.055587101727724075,-0.776692271232605
1772650711080478700,5.244478759765625,-0.2996205687522888,-0.014202198944985867,-0.971247136592865
1772650711090356000,5.25435595703125,-0.2292204350233078,0.04581354558467865,-1.1512943506240845
1772650711100233200,5.264233154296875,-0.14782503247261047,0.008551862090826035,-1.2536113262176514
1772650711110110500,5.2741103515625,-0.12293300777673721,-0.029320668429136276,-1.2369656562805176
1772650711119974000,5.283973876953125,-0.12659808993339539,-0.04428642615675926,-1.1013575792312622
1772650711129865000,5.293864990234375,-0.2032594233751297,-0.07406523078680038,-0.9145910739898682
1772650711139742200,5.3037421875,-0.28312769532203674,-0.1913478970527649,-0.7655443549156189
1772650711149605600,5.313605712890625,-0.3292466700077057,-0.3533751368522644,-0.6308525204658508
1772650711159496400,5.323496337890625,-0.37536564469337463,-0.4637857675552368,-0.47019967436790466
1772650711169373700,5.333373779296875,-0.4011739492416382,-0.5190674662590027,-0.26877278089523315
1772650711179251000,5.3432509765625,-0.44393324851989746,-0.5810684561729431,-0.05864133685827255
1772650711189128200,5.353128173828125,-0.5160132050514221,-0.6632274389266968,0.16523417830467224
1772650711199005400,5.36300537109375,-0.6375718116760254,-0.80280601978302,0.3518480062484741
1772650711208882700,5.372882568359375,-0.7264500856399536,-0.9225320816040039,0.44576579332351685
1772650711218760000,5.382760009765625,-0.6995728015899658,-0.9750649333000183,0.45706647634506226
1772650711228637000,5.392636962890625,-0.5520532131195068,-0.8686248064041138,0.42072105407714844
1772650711238500600,5.40250048828125,-0.28602921962738037,-0.6239804625511169,0.3449759781360626
1772650711248391400,5.412391357421875,0.04169032722711563,-0.33886751532554626,0.3214583694934845
1772650711258268700,5.4222685546875,0.3996468186378479,0.01710372418165207,0.41949936747550964
1772650711268132000,5.432132080078125,0.8267817497253418,0.5158604979515076,0.6412369012832642
1772650711278023200,5.442023193359375,1.187639832496643,0.8391514420509338,0.8861866593360901
1772650711287900400,5.451900390625,1.2850699424743652,0.8457180261611938,1.2893458604812622
1772650711297763800,5.461763916015625,1.0752438306808472,0.4811949133872986,1.644248127937317
1772650711307654700,5.471654541015625,0.7857022881507874,-0.049173206090927124,1.7045692205429077
1772650711317532000,5.481531982421875,0.42362257838249207,-0.4355340898036957,1.3000357151031494
1772650711327395300,5.491395263671875,0.12491826713085175,-0.7493568658828735,0.6306998133659363
1772650711337286400,5.501286376953125,0.22463907301425934,-0.633448600769043,-0.18249061703681946
1772650711347163600,5.51116357421875,0.25686126947402954,-0.19974705576896667,-0.9316948056221008
1772650711357027000,5.521027099609375,0.16813570261001587,0.09834641218185425,-1.3722683191299438
1772650711366918000,5.53091796875,0.11606097966432571,0.2360924631357193,-1.3785295486450195
1772650711376795100,5.540795166015625,0.07482878863811493,0.24449162185192108,-1.0651649236679077
1772650711386658600,5.550658447265625,-0.07269082218408585,0.047798797488212585,-0.5661026835441589
1772650711396549600,5.560549560546875,-0.2438807636499405,-0.2796153426170349,-0.14034216105937958
1772650711406427000,5.570427001953125,-0.3258870244026184,-0.5086830258369446,0.04932591691613197
1772650711416290300,5.580290283203125,-0.23807771503925323,-0.5066977739334106,0.037567105144262314
1772650711426181400,5.590181396484375,-0.09177979826927185,-0.38254308700561523,-0.04978405311703682
1772650711436058400,5.600058349609375,0.009468132629990578,-0.282364159822464,-0.0922379344701767
1772650711445922000,5.609922119140625,0.0988045409321785,-0.25976279377937317,-0.10582929104566574
1772650711455812900,5.619812744140625,0.1247655525803566,-0.30068957805633545,-0.04688252881169319
1772650711465690000,5.629690185546875,0.12369657307863235,-0.3892624080181122,0.07757759839296341
1772650711475553500,5.639553466796875,0.10766182839870453,-0.5361711978912354,0.30099499225616455
1772650711485444600,5.649444580078125,0.08047912269830704,-0.7110261917114258,0.6097782850265503
1772650711495321900,5.65932177734375,0.04337015375494957,-0.7997517585754395,0.9468132257461548
1772650711505185300,5.669185302734375,-0.008857285603880882,-0.8414421081542969,1.1551121473312378
1772650711515076400,5.679076416015625,-0.08215895295143127,-0.8557969927787781,1.2024527788162231
1772650711524953600,5.68895361328125,-0.16095824539661407,-0.8693883419036865,1.1027320623397827
1772650711534817000,5.698817138671875,-0.22998400032520294,-0.9417737722396851,0.9339854717254639
1772650711544707800,5.708707763671875,-0.31290650367736816,-1.0723423957824707,0.7287407517433167
1772650711554585000,5.718585205078125,-0.3524588644504547,-1.1868761777877808,0.534338653087616
1772650711564448500,5.728448486328125,-0.3570402264595032,-1.236812949180603,0.4421007037162781
1772650711574339600,5.738339599609375,-0.36666107177734375,-1.287513256072998,0.40010493993759155
1772650711584216800,5.748216796875,-0.3721587061882019,-1.2919420003890991,0.39949411153793335
1772650711594093800,5.75809375,-0.3205420970916748,-1.2386455535888672,0.4384356141090393
1772650711603971000,5.76797119140625,-0.18096350133419037,-1.2131426334381104,0.504865288734436
1772650711613848300,5.777848388671875,-0.04550812020897865,-1.2053543329238892,0.5793886184692383
1772650711623725600,5.7877255859375,-0.020616095513105392,-1.1270132064819336,0.7348492741584778
1772650711633602800,5.797602783203125,-0.0525328628718853,-1.103342890739441,0.8756495714187622
1772650711643480000,5.80747998046875,-0.11865708231925964,-1.115407109260559,0.9034430980682373
1772650711653357000,5.817357177734375,-0.10796725004911423,-1.0625687837600708,0.797613799571991
1772650711663234300,5.827234375,-0.055587101727724075,-0.9009997248649597,0.6293253898620605
1772650711673111600,5.837111572265625,0.041232191026210785,-0.6881194114685059,0.4140017330646515
1772650711682975000,5.84697509765625,0.14874130487442017,-0.430341899394989,0.17393875122070312
1772650711692866000,5.856865966796875,0.23746687173843384,-0.13927318155765533,-0.0847550556063652
1772650711702743300,5.866743408203125,0.3286358118057251,0.18783552944660187,-0.3790307343006134
1772650711712620500,5.87662060546875,0.4294256269931793,0.3749074935913086,-0.6401679515838623
1772650711722497500,5.88649755859375,0.37322768568992615,0.2515163719654083,-0.709346354007721
1772650711732374800,5.896374755859375,0.26999449729919434,0.01252236869186163,-0.6520794630050659
1772650711742238200,5.90623828125,0.27686652541160583,-0.13927318155765533,-0.5305208563804626
1772650711752129300,5.91612939453125,0.20722992718219757,-0.3573456406593323,-0.3054236173629761
1772650711762006500,5.926006591796875,0.1301104724407196,-0.5086830258369446,-0.016340164467692375
1772650711771870000,5.935869873046875,0.2101314514875412,-0.33627140522003174,-0.017409147694706917
1772650711781761000,5.945760986328125,0.5331169366836548,0.07360709458589554,-0.22616620361804962
1772650711791638000,5.955637939453125,1.0983033180236816,0.7594358325004578,-0.5445703268051147
1772650711801501400,5.96550146484375,1.676317572593689,1.5352119207382202,-0.8861866593360901
1772650711811392500,5.975392578125,1.9912093877792358,2.1367437839508057,-0.673306405544281
1772650711821269800,5.985269775390625,1.748550295829773,1.8797297477722168,0.29839888215065
1772650711831133200,5.99513330078125,1.5782766342163086,1.896069884300232,1.2803359031677246
1772650711841024300,6.005024169921875,1.5750696659088135,1.2232216596603394,1.952878713607788
1772650711850901500,6.014901611328125,1.0408837795257568,-0.7215633392333984,2.175685167312622
1772650711860765000,6.024764892578125,0.4784461259841919,-1.7882553339004517,1.8180341720581055
1772650711870655700,6.03465576171875,0.3295520842075348,-1.248266339302063,1.320499062538147
1772650711880533000,6.044532958984375,0.9035958051681519,-0.2313583940267563,0.5998520255088806
1772650711890410200,6.05441015625,1.087613582611084,-0.37475478649139404,-0.08032641559839249
1772650711900287500,6.06428759765625,0.9385668039321899,-0.9452861547470093,-0.12659808993339539
1772650711910164700,6.074164794921875,0.8182299137115479,-1.0883771181106567,0.2360924631357193
1772650711920041700,6.084041748046875,0.7507312893867493,-1.0605835914611816,0.36971530318260193
1772650711929919000,6.0939189453125,0.6896465420722961,-0.9458969831466675,0.2820587158203125
1772650711939796200,6.103796142578125,0.5044071078300476,-0.9297095537185669,0.28160059452056885
1772650711949673500,6.113673583984375,0.254265159368515,-0.9744541049003601,0.3110739588737488
1772650711959550700,6.12355078125,0.02886253222823143,-1.009577751159668,0.38391751050949097
1772650711969428000,6.133427978515625,-0.1582094430923462,-0.9666658043861389,0.5262449383735657
1772650711979305200,6.14330517578125,-0.26281702518463135,-0.8527427911758423,0.6372663974761963
1772650711989182200,6.15318212890625,-0.27381229400634766,-0.6206207871437073,0.6937697529792786
1772650711999059500,6.1630595703125,-0.24876753985881805,-0.3658975064754486,0.786771297454834
1772650712008923000,6.1729228515625,-0.26785650849342346,-0.2086043357849121,0.9391776323318481
1772650712018814000,6.18281396484375,-0.284654825925827,-0.0916270911693573,1.0453124046325684
1772650712028691200,6.192691162109375,-0.2954973578453064,-0.005344913341104984,1.0306520462036133
1772650712038554600,6.2025546875,-0.31290650367736816,0.09300149232149124,0.8941276669502258
1772650712048445400,6.212445556640625,-0.2848075330257416,0.24708771705627441,0.6601731777191162
1772650712058322700,6.22232275390625,-0.19333316385746002,0.4575245976448059,0.349251925945282
1772650712068186000,6.23218603515625,-0.07116370648145676,0.6572716236114502,0.019394399598240852
1772650712078077200,6.2420771484375,0.05635065957903862,0.8214368224143982,-0.27915719151496887
1772650712087954400,6.251954345703125,0.14125843346118927,0.8773293495178223,-0.48669254779815674
1772650712097817900,6.26181787109375,0.17958909273147583,0.8419002294540405,-0.5951179265975952
1772650712107709000,6.271708984375,0.1847812980413437,0.7682931423187256,-0.6635328531265259
1772650712117586000,6.2815859375,0.1847812980413437,0.7594358325004578,-0.7327113151550293
1772650712127449300,6.291449462890625,0.22066856920719147,0.8408312797546387,-0.8570187091827393
1772650712137340400,6.30134033203125,0.22692975401878357,0.92711341381073,-1.0256125926971436
1772650712147217700,6.3112177734375,0.13682979345321655,0.9416210651397705,-1.1867234706878662
1772650712157081000,6.3210810546875,-0.004275931045413017,0.890157163143158,-1.320499062538147
1772650712166972200,6.33097216796875,-0.16019469499588013,0.7786775231361389,-1.40617036819458
1772650712176849400,6.340849365234375,-0.3127537965774536,0.6135960817337036,-1.4634373188018799
1772650712186726400,6.350726318359375,-0.41705596446990967,0.4581354558467865,-1.4930634498596191
1772650712196603600,6.360603759765625,-0.4969242513179779,0.3304683566093445,-1.497033953666687
1772650712206481000,6.37048095703125,-0.5758762359619141,0.23624517023563385,-1.482373595237732
1772650712216358100,6.380358154296875,-0.6558972597122192,0.17485502362251282,-1.426175594329834
1772650712226235400,6.3902353515625,-0.7363763451576233,0.1385096162557602,-1.3296617269515991
1772650712236112600,6.400112548828125,-0.812274158000946,0.11606097966432571,-1.2398672103881836
1772650712245976000,6.40997607421875,-0.8727480173110962,0.06719319522380829,-1.1635112762451172
1772650712255867000,6.419866943359375,-0.9268079996109009,-0.0331384651362896,-1.037218689918518
1772650712265744100,6.429744140625,-0.9863656163215637,-0.2238755226135254,-0.8238802552223206
1772650712275607600,6.439607666015625,-1.0448542833328247,-0.44515493512153625,-0.5086830258369446
1772650712285498600,6.44949853515625,-1.073564052581787,-0.591605544090271,-0.18722468614578247
1772650712295376000,6.4593759765625,-1.0312628746032715,-0.633448600769043,0.06016845628619194
1772650712305239300,6.4692392578125,-0.9361234307289124,-0.5612159371376038,0.1969982385635376
1772650712315130400,6.47913037109375,-0.7963921427726746,-0.44454410672187805,0.19745637476444244
1772650712325007400,6.48900732421875,-0.6531484127044678,-0.3173351585865021,0.10644013434648514
1772650712334871000,6.49887109375,-0.5257867574691772,-0.20967331528663635,0.07620319724082947
1772650712344761900,6.508761962890625,-0.3361186981201172,-0.04352286830544472,0.11926792562007904
1772650712354639000,6.51863916015625,-0.01252236869186163,0.30756160616874695,0.11438114941120148
1772650712364502500,6.52850244140625,0.41919392347335815,0.8571714162826538,0.008399149402976036
1772650712374393600,6.5383935546875,0.6998782753944397,1.2836954593658447,-0.13056860864162445
1772650712384270600,6.5482705078125,0.6980457305908203,1.1749646663665771,-0.045202698558568954
1772650712394134300,6.55813427734375,0.3674246370792389,0.4450022280216217,0.24372805655002594
1772650712404025000,6.568025146484375,-0.22433365881443024,-0.38422292470932007,0.5673243999481201
1772650712413902300,6.57790234375,-0.737750768661499,-0.7484406232833862,0.6736118197441101
1772650712423765800,6.587765869140625,-1.110520362854004,-0.7730271816253662,0.6687250137329102
1772650712433656800,6.59765673828125,-1.4183872938156128,-0.8394568562507629,0.6940752267837524
1772650712443534000,6.6075341796875,-1.5077236890792847,-0.8087617754936218,0.6994200944900513
1772650712453397500,6.6173974609375,-1.2934690713882446,-0.4640912115573883,0.5514423847198486
1772650712463288300,6.627288330078125,-0.896723747253418,0.08429691940546036,0.22051586210727692
1772650712473165600,6.63716552734375,-0.4978405237197876,0.5169295072555542,-0.14797775447368622
1772650712483029000,6.647029052734375,-0.20157960057258606,0.6887302994728088,-0.324054479598999
1772650712492920000,6.656920166015625,-0.02229592576622963,0.695907711982727,-0.20600824058055878
1772650712502797300,6.66679736328125,0.07314895838499069,0.636350154876709,0.09284878522157669
1772650712512660700,6.67666064453125,0.09361234307289124,0.580763041973114,0.4793623983860016
1772650712522551600,6.686551513671875,0.02748812735080719,0.4909684956073761,0.7725690603256226
1772650712532428800,6.6964287109375,-0.10857810080051422,0.3139754831790924,0.856407880783081
1772650712542292200,6.706292236328125,-0.2867927849292755,0.12461283802986145,0.7166765332221985
1772650712552183300,6.716183349609375,-0.3900259733200073,-0.002748812548816204,0.47585001587867737
1772650712562060500,6.726060546875,-0.4100312292575836,-0.042759306728839874,0.2510582208633423
1772650712571924000,6.735924072265625,-0.38910970091819763,-0.034818295389413834,0.1388150453567505
1772650712581815000,6.74581494140625,-0.3578037917613983,-0.02473931387066841,0.1050657257437706
