time,seconds_elapsed,z,y,x
1772650706033221600,0.1972216796875,0.02092151902616024,0.46760356426239014,-0.4679090082645416
1772650706043099000,0.207098876953125,-0.014202198944985867,0.478751540184021,-0.4990622103214264
1772650706052976000,0.21697607421875,-0.034665580838918686,0.4975350797176361,-0.5138752460479736
1772650706062853400,0.226853271484375,-0.05360184609889984,0.5259394645690918,-0.5471664071083069
1772650706072730600,0.236730712890625,-0.0910162404179573,0.5044071078300476,-0.5984776020050049
1772650706082607900,0.24660791015625,-0.13576079905033112,0.45828816294670105,-0.6705575585365295
1772650706092485000,0.256485107421875,-0.1704263836145401,0.4934118688106537,-0.7478297352790833
1772650706102362400,0.2663623046875,-0.17745113372802734,0.5974085927009583,-0.8141067028045654
1772650706112239400,0.2762392578125,-0.1575985997915268,0.6751389503479004,-0.8255600929260254
1772650706122116600,0.28611669921875,-0.16737215220928192,0.6258130073547363,-0.7394306063652039
1772650706131993900,0.295993896484375,-0.2357870489358902,0.48928865790367126,-0.5656445622444153
1772650706141871000,0.30587109375,-0.33917292952537537,0.34161633253097534,-0.3432961702346802
1772650706151748400,0.315748291015625,-0.44454410672187805,0.18814095854759216,-0.08124268800020218
1772650706161625600,0.32562548828125,-0.48669254779815674,0.1313321590423584,0.2047865390777588
1772650706171502800,0.3355029296875,-0.4471401870250702,0.24479703605175018,0.5242596864700317
1772650706181380000,0.345380126953125,-0.4491254389286041,0.29320669174194336,0.9023740887641907
1772650706191257300,0.35525732421875,-0.5109737515449524,0.19684553146362305,1.3284400701522827
1772650706201134300,0.36513427734375,-0.569309651851654,0.08826743066310883,1.6468442678451538
1772650706211011600,0.375011474609375,-0.5751127004623413,0.056808795779943466,1.7800089120864868
1772650706220888800,0.384888916015625,-0.5312843918800354,0,1.8476603031158447
1772650706230752300,0.394752197265625,-0.4515688419342041,-0.2095206081867218,1.9855589866638184
1772650706240643300,0.404643310546875,-0.638029932975769,-0.4811949133872986,2.047407388687134
1772650706250520600,0.4145205078125,-0.8254073858261108,-0.45111069083213806,2.0842108726501465
1772650706260384000,0.424384033203125,-0.8110524415969849,-0.2557922899723053,2.074589967727661
1772650706270274800,0.43427490234375,-0.6578825116157532,-0.0065666078589856625,2.143463134765625
1772650706280152000,0.444152099609375,-0.5416688323020935,0.1850867122411728,2.1251375675201416
1772650706290015500,0.454015380859375,-0.4743228852748871,0.1695101112127304,1.9215728044509888
1772650706299906600,0.463906494140625,-0.3739912211894989,0.15347537398338318,1.5787347555160522
1772650706309783800,0.47378369140625,-0.23975755274295807,0.29885703325271606,1.0497410297393799
1772650706319647200,0.483647216796875,-0.018936265259981155,0.5803049206733704,0.3936910629272461
1772650706329538300,0.493538330078125,0.4159869849681854,1.1251806020736694,-0.45049986243247986
1772650706339415600,0.50341552734375,0.9326110482215881,1.7064018249511719,-1.3405042886734009
1772650706349279000,0.513279052734375,1.4357964992523193,2.0609986782073975,-2.01930832862854
1772650706359169800,0.523169677734375,1.647149682044983,2.042062282562256,-2.3708510398864746
1772650706369047000,0.533047119140625,1.5222313404083252,1.8016940355300903,-2.4110140800476074
1772650706378910500,0.542910400390625,1.486649513244629,1.5959911346435547,-2.241962194442749
1772650706388801500,0.552801513671875,1.5946167707443237,1.696628212928772,-2.0752007961273193
1772650706398678800,0.5626787109375,1.769166350364685,1.8297929763793945,-1.9168386459350586
1772650706408542200,0.572542236328125,1.819561243057251,1.8998876810073853,-1.8007776737213135
1772650706418433300,0.582433349609375,1.738471269607544,1.9435632228851318,-1.7291558980941772
1772650706428310500,0.592310546875,1.652036428451538,1.945395827293396,-1.7094560861587524
1772650706438174000,0.602174072265625,1.5446799993515015,1.8701088428497314,-1.8505617380142212
1772650706448064800,0.612064697265625,1.5292561054229736,1.7601563930511475,-1.926459550857544
1772650706457942000,0.62194189453125,1.4099881649017334,1.51566481590271,-1.9047744274139404
1772650706467805400,0.631805419921875,1.2212363481521606,1.2785032987594604,-1.7737476825714111
1772650706477696500,0.641696533203125,1.0943328142166138,1.1816840171813965,-1.606986403465271
1772650706487573800,0.65157373046875,0.9625425934791565,1.0349279642105103,-1.3521103858947754
1772650706497450800,0.66145068359375,0.6520794630050659,0.6850652098655701,-1.0451596975326538
1772650706507328000,0.671327880859375,0.24479703605175018,0.21257483959197998,-0.7855495810508728
1772650706517205200,0.681205322265625,0.042759306728839874,-0.07345438003540039,-0.6960604786872864
1772650706527068700,0.691068603515625,0.020005248486995697,-0.13484452664852142,-0.6416950225830078
1772650706536959700,0.700959716796875,0.09513945877552032,-0.08460234850645065,-0.6537593007087708
1772650706546837000,0.7108369140625,0.27197974920272827,-0.028098974376916885,-0.6708629727363586
1772650706556700400,0.720700439453125,0.4416425824165344,0.06994201242923737,-0.6943806409835815
1772650706566591200,0.73059130859375,0.6502469182014465,0.4234698712825775,-0.7149966955184937
1772650706576468500,0.740468505859375,1.1474765539169312,1.41594398021698,-0.6332958936691284
1772650706586332000,0.750331787109375,1.6100406646728516,2.357412338256836,-0.23991025984287262
1772650706596223000,0.760222900390625,1.070357084274292,1.698155403137207,0.2279987335205078
1772650706606100200,0.770100341796875,-0.008399149402976036,0.5007420182228088,0.6080984473228455
1772650706615963600,0.779963623046875,-0.7163711190223694,-0.35261157155036926,1.1465603113174438
1772650706625854700,0.789854736328125,-1.178629755973816,-1.2003148794174194,1.3963968753814697
1772650706635732000,0.79973193359375,-1.3484452962875366,-1.5654487609863281,1.1503781080245972
1772650706645595400,0.809595458984375,-1.300188422203064,-1.702125906944275,0.8774821162223816
1772650706655486500,0.819486572265625,-1.3275238275527954,-1.8429261445999146,0.7220214605331421
1772650706665363500,0.829363525390625,-1.40617036819458,-1.810703992843628,0.4957025647163391
1772650706675227100,0.83922705078125,-1.4335057735443115,-1.5266599655151367,0.27839362621307373
1772650706685118000,0.849117919921875,-1.4122788906097412,-0.9749122262001038,0.1447708010673523
1772650706694995200,0.8589951171875,-1.3879976272583008,-0.5209000110626221,0.03420744836330414
1772650706704858600,0.868858642578125,-1.2398672103881836,-0.12934690713882446,-0.04337015375494957
1772650706714749700,0.878749755859375,-1.1129636764526367,0.05635065957903862,-0.10720369219779968
1772650706724627000,0.888626953125,-0.9413156509399414,-0.0261137206107378,-0.10705098509788513
1772650706734490400,0.898490478515625,-0.8422056436538696,-0.10811996459960938,-0.1122431829571724
1772650706744381200,0.908381103515625,-0.6516213417053223,-0.05528167635202408,-0.23655059933662415
1772650706754258400,0.918258544921875,-0.38071054220199585,0.11606097966432571,-0.40102121233940125
1772650706764121900,0.928121826171875,-0.14202198386192322,0.2814478874206543,-0.543806791305542
1772650706774013000,0.938012939453125,0.02351761981844902,0.3924693763256073,-0.6022953987121582
1772650706783890200,0.94789013671875,0.11514470726251602,0.4819584786891937,-0.5642701387405396
1772650706793753600,0.957753662109375,0.1566823273897171,0.5919110178947449,-0.43736663460731506
1772650706803644700,0.967644775390625,0.16492876410484314,0.7221741676330566,-0.24067382514476776
1772650706813522000,0.97752197265625,0.17531315982341766,0.8651124238967896,-0.013438640162348747
1772650706823385300,0.98738525390625,0.2516690790653229,0.974148690700531,0.1901262104511261
1772650706833276400,0.9972763671875,0.3567348122596741,1.048366665840149,0.28877803683280945
1772650706843153400,1.0071533203125,0.4647020399570465,1.0388984680175781,0.19379130005836487
1772650706853017000,1.01701708984375,0.5373928546905518,0.8979454636573792,-0.08582404255867004
1772650706862908000,1.026907958984375,0.5080721974372864,0.6190937161445618,-0.41415444016456604
1772650706872785200,1.03678515625,0.35826191306114197,0.29473379254341125,-0.6850652098655701
1772650706882648600,1.046648681640625,0.14813046157360077,0.0590994730591774,-0.8454126119613647
1772650706892539600,1.05653955078125,-0.051769305020570755,-0.06856760382652283,-0.8909206986427307
1772650706902417000,1.0664169921875,-0.26220619678497314,-0.18493400514125824,-0.8629744648933411
1772650706912294000,1.0762939453125,-0.45324867963790894,-0.3038965165615082,-0.7928797602653503
1772650706922171100,1.086171142578125,-0.5711421966552734,-0.4419479966163635,-0.6894938349723816
1772650706932048400,1.09604833984375,-0.6337540149688721,-0.5717530250549316,-0.6164975762367249
1772650706941911800,1.105911865234375,-0.6465818285942078,-0.6235223412513733,-0.5897729992866516
1772650706951803000,1.115802978515625,-0.6259657144546509,-0.553274929523468,-0.5993938446044922
1772650706961680100,1.12568017578125,-0.571294903755188,-0.36452311277389526,-0.6163448691368103
1772650706971543600,1.13554345703125,-0.49768781661987305,-0.14690876007080078,-0.6016845703125
1772650706981434600,1.1454345703125,-0.43018919229507446,0.04581354558467865,-0.48638713359832764
1772650706991312000,1.155311767578125,-0.41293275356292725,0.23258009552955627,-0.3837648034095764
1772650707001188900,1.16518896484375,-0.33764582872390747,0.42927291989326477,-0.3345915973186493
1772650707011066000,1.175066162109375,-0.26190075278282166,0.6325323581695557,-0.3020639717578888
1772650707020943400,1.184943359375,-0.2924431264400482,0.7049177289009094,-0.23502348363399506
1772650707030806800,1.194806884765625,-0.28373855352401733,0.6873558759689331,-0.15958385169506073
1772650707040697900,1.20469775390625,-0.16034740209579468,0.70797199010849,-0.045202698558568954
1772650707050575000,1.2145751953125,0.02229592576622963,0.8406785130500793,0.1769929975271225
1772650707060438500,1.2244384765625,0.20341213047504425,1.0016367435455322,0.5566345453262329
1772650707070329600,1.23432958984375,0.33443886041641235,1.152668833732605,0.9970554113388062
1772650707080206600,1.24420654296875,0.18035265803337097,0.9822424054145813,1.4464863538742065
1772650707090070300,1.2540703125,-0.21288026869297028,0.5045598149299622,1.7807724475860596
1772650707099961000,1.263961181640625,-0.5610632300376892,0.1635543555021286,1.6384450197219849
1772650707109838300,1.27383837890625,-0.7027797698974609,0.0016798300202935934,0.9452861547470093
1772650707119701800,1.28370166015625,-0.6641436815261841,-0.22570806741714478,0.07834116369485855
1772650707129592800,1.2935927734375,-0.42514967918395996,-0.478751540184021,-0.5969504714012146
1772650707139470000,1.303469970703125,-0.3187095522880554,-0.6018372774124146,-0.978424608707428
1772650707149333500,1.31333349609375,-0.2918322682380676,-0.5919110178947449,-1.0318737030029297
1772650707159224600,1.323224609375,-0.18600298464298248,-0.4286620616912842,-0.7527165412902832
1772650707169101600,1.3331015625,-0.008551862090826035,-0.31031039357185364,-0.34405970573425293
1772650707178965200,1.34296533203125,0.14813046157360077,-0.33169007301330566,-0.038788799196481705
1772650707188856000,1.35285595703125,0.1766875684261322,-0.5202891230583191,0.12965233623981476
1772650707198733300,1.3627333984375,0.12354385852813721,-0.7340856790542603,0.30007871985435486
1772650707208596700,1.3725966796875,0.07055285573005676,-0.8814526200294495,0.48669254779815674
1772650707218487800,1.38248779296875,0.012827792204916477,-1.0295830965042114,0.6090146899223328
1772650707228365000,1.392364990234375,-0.1701209545135498,-1.0987615585327148,0.7017107605934143
1772650707238228500,1.402228515625,-0.2683146595954895,-1.047450304031372,0.7536327838897705
1772650707248119300,1.412119384765625,-0.19684553146362305,-0.6734591126441956,0.7201889157295227
1772650707257996500,1.42199658203125,-0.20188501477241516,-0.24433889985084534,0.6375718116760254
1772650707267860000,1.43185986328125,-0.21898874640464783,0.06872031837701797,0.5274665951728821
1772650707277751000,1.4417509765625,-0.2560977041721344,0.2861819267272949,0.37475478649139404
1772650707287628300,1.451628173828125,-0.3239017724990845,0.3042019307613373,0.2411319613456726
1772650707297491700,1.46149169921875,-0.3709369897842407,0.2883199155330658,0.08612946420907974
1772650707307382800,1.4713828125,-0.3455868363380432,0.3593308925628662,-0.07482878863811493
1772650707317260000,1.481260009765625,-0.24815669655799866,0.522885262966156,-0.1960819661617279
1772650707327123500,1.49112353515625,-0.06933116167783737,0.7811209559440613,-0.30633988976478577
1772650707337014300,1.50101416015625,0.046577103435993195,0.9358180165290833,-0.3993414044380188
1772650707346891500,1.5108916015625,0.04230117425322533,0.9150491952896118,-0.5027272701263428
1772650707356755000,1.5207548828125,0.060932014137506485,0.7860077023506165,-0.48669254779815674
1772650707366646000,1.53064599609375,0.10262233763933182,0.5595360994338989,-0.36849361658096313
1772650707376523300,1.540523193359375,0.11743538826704025,0.32665055990219116,-0.2151709496974945
1772650707386386700,1.55038671875,0.04825693368911743,0.16187451779842377,0.05986303091049194
1772650707396277800,1.56027783203125,-0.11987877637147903,-0.02993151545524597,0.30221667885780334
1772650707406154800,1.57015478515625,-0.21654535830020905,-0.1178935244679451,0.43645036220550537
1772650707416032000,1.580031982421875,-0.2157817929983139,-0.1253764033317566,0.5885513424873352
1772650707425909200,1.5899091796875,-0.1966928243637085,-0.14522893726825714,0.7247702479362488
1772650707435786500,1.599786376953125,-0.18279604613780975,-0.17928366363048553,0.7470661997795105
1772650707445650000,1.60964990234375,-0.13438639044761658,-0.2157817929983139,0.647803544998169
1772650707455541000,1.619541015625,-0.05803048983216286,-0.2104368805885315,0.46363306045532227
1772650707465418200,1.629418212890625,0.033596597611904144,-0.15378080308437347,0.2585411071777344
1772650707475281700,1.63928173828125,0.11590826511383057,-0.08674030750989914,0.1169772520661354
1772650707485172500,1.64917236328125,0.20249587297439575,-0.01817270554602146,0.049020491540431976
1772650707495049700,1.6590498046875,0.2229592502117157,-0.006261184345930815,0.020616095513105392
1772650707504913200,1.6689130859375,0.2620534598827362,0.08719844371080399,-0.06872031837701797
1772650707514804200,1.67880419921875,0.337798535823822,0.28190600872039795,-0.25502872467041016
1772650707524681500,1.688681396484375,0.5344913601875305,0.7017107605934143,-0.5801522135734558
1772650707534545000,1.698544921875,0.8674030900001526,1.4330476522445679,-1.015075445175171
1772650707544435700,1.708435791015625,1.3314943313598633,2.3881072998046875,-1.4102935791015625
1772650707554313000,1.71831298828125,1.8290294408798218,3.4691543579101562,-1.405864953994751
1772650707564176400,1.72817626953125,1.7497719526290894,2.5680019855499268,-0.9089407324790955
1772650707574067500,1.7380673828125,0.8267817497253418,0.7589777112007141,-0.1713426560163498
1772650707583944700,1.74794482421875,0.1948602795600891,0.0032069480512291193,0.04214845970273018
1772650707593808100,1.75780810546875,-0.10979979485273361,-0.2718270421028137,0.4034646153450012
1772650707603699000,1.767698974609375,-0.6166502833366394,-0.8009734749794006,0.7146912813186646
1772650707613576200,1.777576171875,-0.8620582222938538,-0.8519791960716248,0.522885262966156
1772650707623439600,1.787439697265625,-0.8327375054359436,-0.6968240141868591,0.21288026869297028
1772650707633330700,1.79733056640625,-0.8174663186073303,-0.6308525204658508,0.07834116369485855
1772650707643208000,1.8072080078125,-0.7853968739509583,-0.5083776116371155,0.0647498071193695
1772650707653071400,1.8170712890625,-0.8098307251930237,-0.46393850445747375,0.0981936976313591
1772650707662962400,1.82696240234375,-0.7685985565185547,-0.3277195692062378,0.23105297982692719
1772650707672839400,1.83683935546875,-0.6265766024589539,-0.0975828468799591,0.40193748474121094
1772650707682702800,1.846702880859375,-0.4653128981590271,0.09452861547470093,0.5723638534545898
1772650707692594000,1.856593994140625,-0.33321717381477356,0.25808295607566833,0.7160657048225403
1772650707702471200,1.86647119140625,-0.26098448038101196,0.44637662172317505,0.8159392476081848
1772650707712334600,1.87633447265625,-0.24525517225265503,0.6894938349723816,0.816550076007843
1772650707722225700,1.8862255859375,-0.22723518311977386,0.9032903909683228,0.7553126215934753
1772650707732103000,1.89610302734375,-0.21791976690292358,0.9031376838684082,0.6933116316795349
1772650707741966300,1.90596630859375,-0.21181128919124603,0.752105712890625,0.603975236415863
1772650707751857200,1.915857177734375,-0.14064757525920868,0.6412369012832642,0.4352286756038666
1772650707761734400,1.925734375,-0.0036650835536420345,0.7012526392936707,0.19623468816280365
1772650707771597800,1.935597900390625,0.06139015033841133,0.7876875400543213,-0.010995250195264816
1772650707781489000,1.945489013671875,0.010689826682209969,0.8183826208114624,-0.10918894410133362
1772650707791366100,1.9553662109375,-0.04993676394224167,0.8415948152542114,-0.1122431829571724
1772650707801229600,1.9652294921875,-0.13957859575748444,0.7815790772438049,-0.04077405482530594
1772650707811120400,1.975120361328125,-0.28694549202919006,0.5448757410049438,0.07360709458589554
1772650707820997600,1.98499755859375,-0.45019441843032837,0.3026748299598694,0.18249061703681946
1772650707830861300,1.994861328125,-0.5144860744476318,0.1760767251253128,0.1525591015815735
1772650707840752000,2.004752197265625,-0.5054761171340942,0.1369825005531311,0.0032069480512291193
1772650707850629400,2.01462939453125,-0.4772244095802307,0.08658760040998459,-0.22967857122421265
1772650707860492800,2.024492919921875,-0.4282039403915405,0.01252236869186163,-0.5008947253227234
1772650707870383900,2.0343837890625,-0.3390202224254608,0.014507622458040714,-0.7647807598114014
1772650707880261000,2.04426123046875,-0.31229567527770996,-0.003970507066696882,-0.939483106136322
1772650707890124500,2.05412451171875,-0.40102121233940125,-0.1238492801785469,-0.9688037633895874
1772650707900015400,2.064015380859375,-0.5506787896156311,-0.2545706033706665,-0.8548807501792908
1772650707909892600,2.073892578125,-0.7290462255477905,-0.41293275356292725,-0.6368082761764526
1772650707919756000,2.083756103515625,-0.9423846006393433,-0.6487197875976562,-0.39231663942337036
1772650707929647000,2.093647216796875,-1.1199884414672852,-0.858393132686615,-0.16111096739768982
1772650707939524400,2.1035244140625,-1.209019422531128,-0.9848384857177734,0.051922015845775604
1772650707949387800,2.1133876953125,-1.1874871253967285,-0.9419264793395996,0.2557922899723053
1772650707959278600,2.123278564453125,-1.1344960927963257,-0.7400414347648621,0.34039464592933655
1772650707969155800,2.13315576171875,-1.1051753759384155,-0.5732801556587219,0.39598172903060913
1772650707979019300,2.143019287109375,-1.1205992698669434,-0.5638120174407959,0.46332764625549316
1772650707988910300,2.152910400390625,-1.1445749998092651,-0.7117897868156433,0.5476245880126953
1772650707998787600,2.16278759765625,-1.0920422077178955,-0.8273926377296448,0.6216897964477539
1772650708008651000,2.172651123046875,-0.9373451471328735,-0.684759795665741,0.6905628442764282
1772650708018542000,2.1825419921875,-0.7595885396003723,-0.312142938375473,0.7828007340431213
1772650708028419300,2.19241943359375,-0.6436802744865417,0.15744587779045105,0.9026795625686646
1772650708038282800,2.20228271484375,-0.5456393361091614,0.6325323581695557,1.0176715850830078
1772650708048173600,2.212173583984375,-0.47142136096954346,0.9335273504257202,1.185807228088379
1772650708058050800,2.22205078125,-0.5833591222763062,0.8044858574867249,1.44053053855896
1772650708067914200,2.231914306640625,-0.7392778992652893,0.41445985436439514,1.6414992809295654
1772650708077805300,2.241805419921875,-0.6019899845123291,0.23288552463054657,1.4897037744522095
1772650708087682600,2.2516826171875,-0.47019967436790466,0.07986827939748764,1.1696197986602783
1772650708097546000,2.2615458984375,-0.38544461131095886,-0.016798298805952072,0.8425110578536987
1772650708107436800,2.271436767578125,-0.2480039894580841,-0.033291175961494446,0.4953971207141876
1772650708117314000,2.28131396484375,-0.10934165865182877,0.019394399598240852,0.15530791878700256
1772650708127177500,2.291177490234375,0.13240113854408264,0.3042019307613373,-0.19974705576896667
1772650708137068500,2.301068603515625,0.18065807223320007,0.4333961308002472,-0.5248705148696899
1772650708146945800,2.31094580078125,0.17348061501979828,0.42362257838249207,-0.7921161651611328
1772650708156809200,2.320809326171875,0.2492256760597229,0.5210527181625366,-1.0253071784973145
1772650708166700300,2.3307001953125,0.40606072545051575,0.700794517993927,-1.2331478595733643
1772650708176577300,2.340577392578125,0.5697677731513977,0.8183826208114624,-1.423426866531372
1772650708186441000,2.35044091796875,0.6954495906829834,0.8038749694824219,-1.5252856016159058
1772650708196331800,2.360331787109375,0.7400414347648621,0.6607840061187744,-1.4657280445098877
1772650708206209000,2.370208984375,0.7296570539474487,0.44133713841438293,-1.3050751686096191
1772650708216072400,2.380072509765625,0.7417212724685669,0.23823043704032898,-1.0709679126739502
1772650708225963500,2.389963623046875,0.8128849864006042,0.10017894953489304,-0.7814263701438904
1772650708235840800,2.3998408203125,0.8687775135040283,-0.034818295389413834,-0.487761527299881
1772650708245704200,2.4097041015625,0.8675557971000671,-0.16401249170303345,-0.22463907301425934
1772650708255595000,2.419594970703125,0.8002098798751831,-0.25411245226860046,0.009009997360408306
1772650708265472300,2.42947216796875,0.6652126908302307,-0.27976804971694946,0.23991025984287262
1772650708275335700,2.439335693359375,0.5059342384338379,-0.27564483880996704,0.4637857675552368
1772650708285226800,2.449226806640625,0.3274141252040863,-0.2585411071777344,0.6479562520980835
1772650708295104000,2.45910400390625,0.15271180868148804,-0.19562382996082306,0.7675296068191528
1772650708304967400,2.468967529296875,0.019088976085186005,-0.058183200657367706,0.856407880783081
1772650708314858500,2.4788583984375,-0.11835165321826935,0.05803048983216286,0.9147437810897827
1772650708324735500,2.488735595703125,-0.25747212767601013,0.11239589750766754,0.9723161458969116
1772650708334599200,2.49859912109375,-0.3301629424095154,0.1582094430923462,1.0217947959899902
1772650708344490000,2.508489990234375,-0.31947311758995056,0.14248012006282806,1.0445488691329956
1772650708354367200,2.5183671875,-0.21089501678943634,0.11514470726251602,0.9979717135429382
1772650708364230700,2.528230712890625,0.0010689827613532543,0.1692046970129013,0.8785510659217834
1772650708374121700,2.538121826171875,0.2145601063966751,0.25502872467041016,0.6901046633720398
1772650708383998700,2.547998779296875,0.3849864900112152,0.16279079020023346,0.45981526374816895
1772650708393862400,2.5578623046875,0.4459185004234314,-0.10888352245092392,0.27411770820617676
1772650708403753200,2.567753173828125,0.388651579618454,-0.3918585181236267,0.23471805453300476
1772650708413630500,2.57763037109375,0.3549022674560547,-0.5094466209411621,0.296108216047287
1772650708423507700,2.5875078125,0.3205420970916748,-0.5836645364761353,0.3921639323234558
1772650708433385000,2.597385009765625,0.28160059452056885,-0.660936713218689,0.4405735731124878
1772650708443262200,2.60726220703125,0.2895416021347046,-0.6888830065727234,0.4240806996822357
1772650708453125600,2.617125732421875,0.3703261613845825,-0.6502469182014465,0.3507790267467499
1772650708463016400,2.627016357421875,0.4909684956073761,-0.6096255779266357,0.24372805655002594
1772650708472893700,2.636893798828125,0.6311579346656799,-0.5227325558662415,0.10689827054738998
1772650708482757000,2.646757080078125,0.7359182238578796,-0.4840964674949646,-0.005497625097632408
1772650708492648200,2.656648193359375,0.7915053367614746,-0.4662291705608368,-0.11743538826704025
1772650708502525400,2.666525390625,0.8228112459182739,-0.3871244490146637,-0.27915719151496887
1772650708512388900,2.676388916015625,0.870151937007904,-0.30191126465797424,-0.48806697130203247
1772650708522279700,2.68627978515625,0.8696937561035156,-0.3503209054470062,-0.6000047326087952
1772650708532157000,2.696156982421875,0.9153546094894409,-0.09483403712511063,-0.8075400590896606
1772650708542020400,2.706020263671875,1.3160704374313354,0.7944068312644958,-1.318819284439087
1772650708551911400,2.715911376953125,1.845674991607666,1.946770191192627,-1.8285713195800781
1772650708561788700,2.72578857421875,1.981435775756836,2.6797869205474854,-1.7187714576721191
1772650708571652000,2.735652099609375,1.5901881456375122,1.397007703781128,-0.9049702286720276
1772650708581543200,2.745543212890625,0.9003888368606567,0.2796153426170349,-0.4784461259841919
1772650708591420200,2.755420166015625,0.5375455617904663,0.09116895496845245,-0.25121092796325684
1772650708601283600,2.76528369140625,0.09513945877552032,-0.6849125027656555,0.251974493265152
1772650708611174700,2.775174560546875,-0.24876753985881805,-1.4226632118225098,0.6171084642410278
1772650708621052000,2.785052001953125,-0.3683409094810486,-1.7406092882156372,0.5355603098869324
1772650708630915300,2.794915283203125,-0.251974493265152,-1.4160966873168945,0.1817270666360855
1772650708640806400,2.804806396484375,-0.10246963053941727,-0.867861270904541,-0.01710372418165207
1772650708650683400,2.814683349609375,-0.13056860864162445,-0.44759833812713623,0.043828289955854416
1772650708660547000,2.824547119140625,-0.30756160616874695,-0.3155026137828827,0.20096874237060547
1772650708670438000,2.83443798828125,-0.5596888065338135,-0.4214846193790436,0.3507790267467499
1772650708680315100,2.844315185546875,-0.6911736726760864,-0.4816530644893646,0.5230379700660706
1772650708690178600,2.854178466796875,-0.626882016658783,-0.3248180150985718,0.6736118197441101
1772650708700069600,2.864069580078125,-0.47142136096954346,0.04046862944960594,0.7246175408363342
1772650708709947000,2.87394677734375,-0.18157434463500977,0.6484143733978271,0.5812211632728577
1772650708719810300,2.883810302734375,0.12995775043964386,1.3343958854675293,0.16141638159751892
1772650708729701000,2.893701171875,0.2426590770483017,1.549108624458313,-0.3139754831790924
1772650708739578400,2.903578369140625,0.20493926107883453,1.054627776145935,-0.5841227173805237
1772650708749441800,2.91344189453125,0.16279079020023346,0.7087355256080627,-0.718814492225647
1772650708759332900,2.923332763671875,0.1432436853647232,0.5053234100341797,-0.6632274389266968
1772650708769210000,2.933210205078125,0.16737215220928192,0.45920443534851074,-0.40972578525543213
1772650708779073500,2.943073486328125,0.08704573661088943,0.4146125912666321,-0.019394399598240852
1772650708788964600,2.952964599609375,-0.007788302376866341,0.38666632771492004,0.3333698809146881
1772650708798841900,2.962841796875,-0.01710372418165207,0.3912476599216461,0.522885262966156
1772650708808705300,2.972705322265625,-0.05864133685827255,0.34665581583976746,0.5427377820014954
1772650708818596000,2.98259619140625,-0.14813046157360077,0.241742804646492,0.3749074935913086
1772650708828473300,2.992473388671875,-0.2408265322446823,0.14675605297088623,0.06032116711139679
1772650708838336800,3.002336669921875,-0.3570402264595032,0.0587940476834774,-0.26403874158859253
1772650708848227800,3.012227783203125,-0.49738237261772156,-0.07085828483104706,-0.49234288930892944
1772650708858105000,3.02210498046875,-0.6572716236114502,-0.19394400715827942,-0.6270347237586975
1772650708867968500,3.031968505859375,-0.7968502640724182,-0.24556060135364532,-0.724006712436676
1772650708877859600,3.041859619140625,-0.9290986657142639,-0.251974493265152,-0.7771504521369934
1772650708887736800,3.05173681640625,-1.0088142156600952,-0.18691925704479218,-0.7553126215934753
1772650708897600300,3.061600341796875,-1.0030112266540527,-0.020463382825255394,-0.666128933429718
1772650708907491000,3.071490966796875,-0.9159654378890991,0.20219044387340546,-0.5037962794303894
1772650708917368300,3.081368408203125,-0.7160657048225403,0.5144860744476318,-0.3874298632144928
1772650708927231700,3.091231689453125,-0.37704548239707947,0.8854231238365173,-0.4677563011646271
1772650708937122800,3.101122802734375,-0.0910162404179573,1.0126320123672485,-0.6325323581695557
1772650708947000000,3.111,-0.0647498071193695,0.867250382900238,-0.6520794630050659
1772650708956863500,3.120863525390625,-0.21196399629116058,0.6126797795295715,-0.5430431962013245
1772650708966754300,3.13075439453125,-0.40453359484672546,0.3067980408668518,-0.3787252902984619
1772650708976631600,3.140631591796875,-0.6004628539085388,0.020005248486995697,-0.23945212364196777
1772650708986508800,3.1505087890625,-0.7601994276046753,-0.26999449729919434,-0.1328592747449875
1772650708996386000,3.160385986328125,-0.8985562920570374,-0.531742513179779,-0.07727217674255371
1772650709006263300,3.17026318359375,-0.9978190064430237,-0.747218906879425,-0.09437590092420578
1772650709016126700,3.180126708984375,-0.9710944294929504,-0.9127585291862488,-0.21303297579288483
1772650709026017800,3.190017822265625,-0.8157865405082703,-1.0123265981674194,-0.3733803927898407
1772650709035894800,3.199894775390625,-0.5606050491333008,-0.9825478196144104,-0.5419742465019226
1772650709045758500,3.209758544921875,-0.2515163719654083,-0.8225058317184448,-0.6780404448509216
1772650709055649300,3.219649169921875,0.032069481909275055,-0.6569662094116211,-0.7756233215332031
1772650709065526500,3.229526611328125,0.2376195788383484,-0.5677825212478638,-0.8298360109329224
1772650709075390000,3.239389892578125,0.3868190348148346,-0.47829338908195496,-0.8353336453437805
1772650709085281000,3.249281005859375,0.536629319190979,-0.27915719151496887,-0.7061394453048706
1772650709095158300,3.259158203125,0.7369872331619263,0.12262758612632751,-0.36879903078079224
1772650709105021700,3.269021728515625,1.0060654878616333,0.8225058317184448,0.15805672109127045
1772650709114912800,3.278912841796875,1.2349804639816284,1.546207070350647,0.7841751575469971
1772650709124789800,3.288789794921875,1.1650384664535522,1.6414992809295654,1.409071922302246
1772650709134653400,3.2986533203125,0.8141067028045654,1.0004150867462158,1.9122573137283325
1772650709144544300,3.308544189453125,0.5233433842658997,0.33566057682037354,2.37237811088562
1772650709154421500,3.31842138671875,0.3408527672290802,0.07589777559041977,2.6199238300323486
1772650709164285000,3.328284912109375,0.40789327025413513,0.3578037917613983,2.033968687057495
1772650709174176000,3.338176025390625,0.5627430081367493,0.779593825340271,0.7064448595046997
1772650709184053200,3.34805322265625,0.7537854909896851,1.3139324188232422,-0.5464028716087341
1772650709193916700,3.357916748046875,0.7733326554298401,1.793447494506836,-1.0960127115249634
1772650709203807700,3.367807861328125,0.2727433145046234,1.4518312215805054,-0.9494093656539917
1772650709213684700,3.377684814453125,-0.2851129472255707,0.6146650314331055,-0.46699273586273193
1772650709223548400,3.38754833984375,-0.6390989422798157,0.0032069480512291193,0.005955760832875967
1772650709233439200,3.397439208984375,-0.7350019812583923,-0.19287502765655518,0.1763821393251419
1772650709243316500,3.40731640625,-0.709346354007721,-0.17256435751914978,0.07375980913639069
1772650709253180000,3.417179931640625,-0.550373375415802,-0.04306473210453987,-0.09330692142248154
1772650709263071000,3.427071044921875,-0.4172086715698242,-0.07635590434074402,-0.18401773273944855
1772650709272948200,3.4369482421875,-0.2017323076725006,-0.08857285231351852,-0.20753535628318787
1772650709282811600,3.446811767578125,0.0459662564098835,-0.09681928902864456,-0.21471281349658966
1772650709292702500,3.456702392578125,0.19150061905384064,-0.10995250940322876,-0.20677179098129272
1772650709302579700,3.466579833984375,0.24372805655002594,-0.22570806741714478,-0.16080553829669952
1772650709312443400,3.476443359375,0.2516690790653229,-0.2718270421028137,-0.07360709458589554
1772650709322334200,3.486334228515625,0.1181989461183548,-0.409420371055603,0.06963659077882767
1772650709332211500,3.49621142578125,-0.018936265259981155,-0.46241137385368347,0.17439688742160797
1772650709342075000,3.506074951171875,-0.09636115282773972,-0.4265241026878357,0.21532365679740906
1772650709351966000,3.515966064453125,-0.18019993603229523,-0.30695074796676636,0.19455485045909882
1772650709361843200,3.52584326171875,-0.19363857805728912,-0.22784602642059326,0.1519482582807541
1772650709371706600,3.53570654296875,-0.15301723778247833,-0.14156384766101837,0.07589777559041977
1772650709381597700,3.54559765625,-0.09743013978004456,-0.037261683493852615,-0.07803573459386826
1772650709391475000,3.555474853515625,-0.01969982497394085,0.059710320085287094,-0.2907632887363434
1772650709401338400,3.56533837890625,0.028251685202121735,0.06963659077882767,-0.44484952092170715
1772650709411229200,3.575229248046875,0.06291726976633072,0.019394399598240852,-0.5059342384338379
1772650709421106400,3.5851064453125,0.11774080991744995,-0.050547610968351364,-0.46760356426239014
1772650709430983700,3.594983642578125,0.1979145109653473,-0.10063708573579788,-0.3643703758716583
1772650709440861000,3.60486083984375,0.2915268540382385,-0.09941539168357849,-0.2670929729938507
1772650709450738200,3.61473828125,0.3449759781360626,-0.09437590092420578,-0.1513374149799347
1772650709460601600,3.6246015625,0.41171106696128845,-0.03497100621461868,-0.06032116711139679
1772650709470492400,3.634492431640625,0.47798797488212585,-0.006413896102458239,0.07559234648942947
1772650709480369700,3.64436962890625,0.5103628635406494,-0.021837789565324783,0.2718270421028137
1772650709490247000,3.654246826171875,0.5143333673477173,-0.07482878863811493,0.45416492223739624
1772650709500124200,3.664124267578125,0.46577104926109314,-0.16767756640911102,0.5989357233047485
1772650709510001400,3.67400146484375,0.3646758198738098,-0.28755635023117065,0.6804838180541992
1772650709519878700,3.683878662109375,0.2591519355773926,-0.38483378291130066,0.7064448595046997
1772650709529756000,3.693755859375,0.19119518995285034,-0.483485609292984,0.7101099491119385
1772650709539633200,3.703633056640625,0.16935740411281586,-0.5630484819412231,0.7160657048225403
1772650709549496600,3.71349658203125,0.18768282234668732,-0.5798467397689819,0.6946860551834106
1772650709559387400,3.723387451171875,0.21440738439559937,-0.5716003179550171,0.6099309921264648
1772650709569264600,3.7332646484375,0.21929416060447693,-0.580763041973114,0.45920443534851074
1772650709579128000,3.743128173828125,0.20845162868499756,-0.5995466113090515,0.2582356929779053
1772650709589019100,3.75301904296875,0.19348587095737457,-0.6711684465408325,0.0004581354442052543
1772650709598896400,3.762896484375,0.3046600818634033,-0.71942538022995,-0.32374903559684753
1772650709608759800,3.772759765625,0.5529694557189941,-0.6215370893478394,-0.6459710001945496
1772650709618651000,3.78265087890625,0.8736643195152283,-0.386208176612854,-0.9475768208503723
1772650709628528000,3.792528076171875,1.3212625980377197,0.24876753985881805,-1.3120999336242676
1772650709638391600,3.8023916015625,1.8869072198867798,1.3285927772521973,-1.7314465045928955
1772650709648282400,3.812282470703125,2.4575912952423096,2.7121617794036865,-1.8029156923294067
1772650709658159600,3.82215966796875,2.6620724201202393,3.005673885345459,-1.1769499778747559
1772650709668023000,3.83202294921875,2.21065616607666,2.197981119155884,-0.014813045971095562
1772650709677914000,3.8419140625,1.5662124156951904,1.2273448705673218,1.2342169284820557
1772650709687791400,3.851791259765625,1.1071606874465942,0.2910687327384949,1.8739266395568848
1772650709697654800,3.86165478515625,0.5955760478973389,-1.025765299797058,1.938218355178833
1772650709707545900,3.8715458984375,0.26968905329704285,-1.8000141382217407,1.3971604108810425
1772650709717422800,3.8814228515625,0.46134239435195923,-1.2659809589385986,0.3399364948272705
1772650709727286500,3.89128662109375,1.032789945602417,-0.0910162404179573,-0.7702783942222595
1772650709737177300,3.90117724609375,1.0505045652389526,0.24708771705627441,-1.2001621723175049
1772650709747054600,3.9110546875,0.5948125123977661,-0.09941539168357849,-0.896723747253418
1772650709756918000,3.92091796875,0.008857285603880882,-0.46638187766075134,-0.28190600872039795
1772650709766809000,3.93080908203125,-0.5841227173805237,-0.754396378993988,0.23929941654205322
1772650709776686300,3.940686279296875,-1.0836430788040161,-1.0857809782028198,0.5801522135734558
1772650709786549800,3.9505498046875,-1.3818892240524292,-1.213295340538025,0.6678087711334229
1772650709796440800,3.96044091796875,-1.4764177799224854,-1.1790878772735596,0.5095993280410767
1772650709806318000,3.970318115234375,-1.4225105047225952,-1.0217947959899902,0.168899267911911
1772650709816181500,3.980181396484375,-1.3029371500015259,-0.8322793841362,-0.25533416867256165
1772650709826072300,3.990072265625,-1.1276240348815918,-0.611152708530426,-0.6682668924331665
1772650709835949600,3.999949462890625,-0.8832851648330688,-0.3180987238883972,-0.9982771277427673
1772650709845813000,4.00981298828125,-0.6006155610084534,0.008246437646448612,-1.1659547090530396
1772650709855704000,4.0197041015625,-0.5044071078300476,0.3434488773345947,-1.223679780960083
1772650709865581300,4.029581298828125,-0.46134239435195923,0.5557183027267456,-1.1531269550323486
1772650709875444700,4.03944482421875,-0.46851983666419983,0.7369872331619263,-0.9929322004318237
1772650709885335800,4.049335693359375,-0.5222744345664978,0.878703773021698,-0.7598940134048462
1772650709895212800,4.059212890625,-0.5920637249946594,1.0208784341812134,-0.4718795120716095
1772650709905076500,4.069076416015625,-0.6420004963874817,1.1696197986602783,-0.15927842259407043
1772650709914967300,4.07896728515625,-0.48486000299453735,1.4832898378372192,0.03695625811815262
1772650709924844500,4.088844482421875,-0.16660858690738678,1.7601563930511475,0.09376505762338638
1772650709934708000,4.0987080078125,-0.04214845970273018,1.7425944805145264,0.14156384766101837
1772650709944599000,4.10859912109375,-0.08750387281179428,1.5338374376296997,0.1623326539993286
1772650709954476300,4.118476318359375,-0.25976279377937317,1.1893196105957031,0.1620272397994995
1772650709964339700,4.128339599609375,-0.49585527181625366,0.8180772066116333,0.09147437661886215
1772650709974230800,4.138230712890625,-0.6377245187759399,0.5528167486190796,-0.04856235533952713
1772650709984107800,4.148107666015625,-0.6707102656364441,0.37292224168777466,-0.18065807223320007
1772650709993985000,4.157985107421875,-0.6372663974761963,0.17210622131824493,-0.27885177731513977
1772650710003862300,4.1678623046875,-0.5781669020652771,-0.1325538605451584,-0.3674246370792389
1772650710013739500,4.177739501953125,-0.5967977643013,-0.4321744441986084,-0.4100312292575836
1772650710023603000,4.18760302734375,-0.5833591222763062,-0.6839962005615234,-0.4227063059806824
1772650710033494000,4.197493896484375,-0.5227325558662415,-0.7803573608398438,-0.4468347728252411
1772650710043371300,4.207371337890625,-0.4549284875392914,-0.8031114339828491,-0.45477578043937683
1772650710053248300,4.217248291015625,-0.3834593594074249,-0.7986828088760376,-0.4524851143360138
1772650710063125500,4.22712548828125,-0.3086305856704712,-0.7443174123764038,-0.483485609292984
1772650710073002800,4.237002685546875,-0.2536543309688568,-0.6694886088371277,-0.5974085927009583
1772650710082880000,4.2468798828125,-0.2533488869667053,-0.5848862528800964,-0.744928240776062
1772650710092757200,4.25675732421875,-0.3046600818634033,-0.47646087408065796,-0.9049702286720276
1772650710102634500,4.266634521484375,-0.35169529914855957,-0.32665055990219116,-1.0799779891967773
1772650710112498000,4.276497802734375,-0.37170055508613586,-0.03787253051996231,-1.2145171165466309
1772650710122389000,4.286388916015625,-0.3781144618988037,0.3411581814289093,-1.2221527099609375
1772650710132266200,4.296266357421875,-0.41232189536094666,0.6951441764831543,-1.0234745740890503
1772650710142129700,4.306129638671875,-0.4813476502895355,0.834570050239563,-0.6027535200119019
1772650710152020500,4.3160205078125,-0.5758762359619141,0.746913492679596,0.0006108472589403391
1772650710161897700,4.325897705078125,-0.5477772951126099,0.7896727919578552,0.6685723066329956
1772650710171761200,4.33576123046875,-0.18462859094142914,1.3736428022384644,1.274380087852478
1772650710181652200,4.34565234375,0.4127800464630127,2.03076171875,1.7543532848358154
1772650710191529500,4.355529541015625,0.45385950803756714,1.6575340032577515,2.1678969860076904
1772650710201393000,4.365392822265625,0.10201149433851242,0.5984776020050049,2.38077712059021
1772650710211284000,4.375283935546875,-0.04031591862440109,-0.1450762301683426,2.3181653022766113
1772650710221161200,4.3851611328125,0.004275931045413017,-0.554649293422699,1.8604880571365356
1772650710231024600,4.395024658203125,0.0007635590736754239,-0.45828816294670105,1.0130901336669922
1772650710240915500,4.40491552734375,-0.2166980654001236,-0.2852656841278076,0.15591876208782196
1772650710250792700,4.414792724609375,-0.3423798978328705,0.15866757929325104,-0.4337015450000763
1772650710260656000,4.42465625,-0.4931064546108246,0.5436540842056274,-0.5441122055053711
1772650710270547200,4.434547119140625,-0.9361234307289124,0.30007871985435486,-0.19150061905384064
1772650710280424400,4.444424560546875,-1.091889500617981,0.01695101149380207,0.15301723778247833
1772650710290287900,4.454287841796875,-0.7713474035263062,-0.023364907130599022,0.2680092453956604
1772650710300179000,4.464178955078125,-0.4634803533554077,-0.10949437320232391,0.1957765519618988
1772650710310056200,4.47405615234375,-0.09376505762338638,-0.3434488773345947,-0.014507622458040714
1772650710319919600,4.483919677734375,0.14049486815929413,-0.35322242975234985,-0.31565532088279724
1772650710329810400,4.493810546875,0.4471401870250702,-0.06184828653931618,-0.6421532034873962
1772650710339687700,4.503687744140625,0.5856497883796692,0.18004722893238068,-0.8434273600578308
1772650710349551400,4.51355126953125,0.5361711978912354,0.14522893726825714,-0.8272398710250854
1772650710359442200,4.523442138671875,0.36879903078079224,0.06123743951320648,-0.5887040495872498
1772650710369319400,4.5333193359375,0.13087402284145355,-0.06398624926805496,-0.2492256760597229
1772650710379182800,4.543182861328125,-0.10308047384023666,-0.19241689145565033,0.07177454978227615
1772650710389074000,4.553073974609375,-0.2870981991291046,-0.3408527672290802,0.3414636254310608
1772650710398951200,4.562951171875,-0.4083513915538788,-0.45615020394325256,0.5183038711547852
1772650710408814600,4.572814697265625,-0.48989951610565186,-0.5580089688301086,0.6206207871437073
1772650710418705700,4.58270556640625,-0.48928865790367126,-0.5534276366233826,0.6445965766906738
1772650710428583000,4.5925830078125,-0.46164780855178833,-0.44637662172317505,0.5685460567474365
1772650710438446300,4.6024462890625,-0.4553866386413574,-0.3364241421222687,0.4337015450000763
1772650710448337200,4.612337158203125,-0.47081053256988525,-0.20005246996879578,0.30786702036857605
1772650710458214400,4.62221435546875,-0.4837910234928131,-0.04504998400807381,0.25976279377937317
1772650710468077800,4.632077880859375,-0.41919392347335815,0.1951656937599182,0.3179459869861603
1772650710477969000,4.641968994140625,-0.305118203163147,0.469741553068161,0.41919392347335815
1772650710487846100,4.65184619140625,-0.21593450009822845,0.6293253898620605,0.5390726923942566
1772650710497709600,4.66170947265625,-0.0794101431965828,0.7553126215934753,0.596492350101471
1772650710507600400,4.671600341796875,0.10231691598892212,0.885881245136261,0.5286883115768433
1772650710517477600,4.6814775390625,0.30786702036857605,0.9542961120605469,0.3784198760986328
1772650710527341300,4.69134130859375,0.5207473039627075,1.015380859375,0.2244863659143448
1772650710537232100,4.701232177734375,0.7398887276649475,1.0874608755111694,0.10720369219779968
1772650710547109400,4.711109375,0.8767185211181641,1.0764656066894531,0.04459185153245926
1772650710556972800,4.720972900390625,0.8936695456504822,0.9854493141174316,0.06459710001945496
1772650710566864000,4.73086376953125,0.8305995464324951,0.8286142945289612,0.1250709742307663
1772650710576740900,4.740740966796875,0.6939224600791931,0.6169557571411133,0.17302247881889343
1772650710586618000,4.7506181640625,0.5239542126655579,0.3692571818828583,0.18997350335121155
1772650710596495400,4.760495361328125,0.37170055508613586,0.17256435751914978,0.14400723576545715
1772650710606372600,4.77037255859375,0.2855710983276367,0.033291175961494446,0.03390202298760414
1772650710616236000,4.780236083984375,0.26846736669540405,-0.02641914412379265,-0.09697200357913971
1772650710626127000,4.790127197265625,0.32130566239356995,0.019394399598240852,-0.21868331730365753
1772650710636004400,4.80000439453125,0.4190412163734436,0.13087402284145355,-0.34940463304519653
1772650710645867800,4.80986767578125,0.4622586667537689,0.13530266284942627,-0.49921491742134094
1772650710655758600,4.819758544921875,0.3953709006309509,0.03833066672086716,-0.6597150564193726
1772650710665635800,4.8296357421875,0.17088451981544495,-0.1650814712047577,-0.7374453544616699
1772650710675499300,4.839499267578125,-0.001374406274408102,-0.241742804646492,-0.7736380696296692
1772650710685390300,4.849390380859375,-0.024586603045463562,-0.1760767251253128,-0.7666133046150208
1772650710695267600,4.859267578125,-0.12659808993339539,-0.11590826511383057,-0.5729747414588928
1772650710705131000,4.869131103515625,-0.16844113171100616,-0.06169557198882103,-0.27946263551712036
1772650710715022000,4.87902197265625,-0.14690876007080078,-0.04581354558467865,0.036192700266838074
1772650710724899000,4.888899169921875,0.052990999072790146,0.10063708573579788,0.5978667736053467
1772650710734762800,4.8987626953125,0.7611156702041626,-0.2211267054080963,1.2792668342590332
1772650710744653600,4.908653564453125,1.2636902332305908,-0.5094466209411621,1.6094298362731934
1772650710754530800,4.91853076171875,0.9093988537788391,-1.0537115335464478,1.4325895309448242
1772650710764394200,4.928394287109375,0.49295374751091003,-1.6679184436798096,1.2427687644958496
1772650710774285300,4.938285400390625,0.3501681983470917,-1.5393351316452026,0.9846857786178589
1772650710784162600,4.94816259765625,0.3987305462360382,-1.3788349628448486,0.6642963886260986
1772650710794026000,4.95802587890625,0.3736858069896698,-1.032942771911621,0.16034740209579468
1772650710803916800,4.967916748046875,0.19058434665203094,-0.7229377031326294,-0.3990359604358673
1772650710813794000,4.9777939453125,0.051922015845775604,-0.36223241686820984,-0.760657548904419
1772650710823657500,4.987657470703125,-0.07437065243721008,0.024128466844558716,-0.9275715351104736
1772650710833548500,4.997548583984375,-0.15530791878700256,0.3796415627002716,-0.8956547975540161
1772650710843425800,5.00742578125,-0.2313583940267563,0.6894938349723816,-0.7893673777580261
1772650710853289200,5.017289306640625,-0.314586341381073,0.9417737722396851,-0.735460102558136
1772650710863180000,5.027179931640625,-0.3833066523075104,0.9885035753250122,-0.6552863717079163
1772650710873057300,5.037057373046875,-0.41384902596473694,0.7704311013221741,-0.43202173709869385
1772650710882920700,5.046920654296875,-0.45263782143592834,0.4931064546108246,-0.08658760040998459
1772650710892811800,5.056811767578125,-0.5196782946586609,0.3695625960826874,0.2576248347759247
1772650710902689000,5.06668896484375,-0.6705575585365295,0.15973655879497528,0.6281036734580994
1772650710912552400,5.076552490234375,-0.9576557874679565,-0.049173206090927124,0.982700526714325
1772650710922443500,5.086443603515625,-1.040272831916809,-0.23410721123218536,1.1598461866378784
1772650710932320500,5.096320556640625,-1.0712733268737793,-0.3978142738342285,1.2048962116241455
1772650710942184200,5.10618408203125,-1.0387457609176636,-0.5601469278335571,1.093569278717041
1772650710952075000,5.116074951171875,-0.9698727130889893,-0.61970454454422,0.813648521900177
1772650710961952300,5.1259521484375,-0.9104678630828857,-0.6358919739723206,0.4683671295642853
1772650710971815700,5.135815673828125,-0.8309049606323242,-0.5867187976837158,0.13316470384597778
1772650710981706800,5.145706787109375,-0.6933116316795349,-0.4359922409057617,-0.14309096336364746
1772650710991584000,5.155583984375,-0.5378510355949402,-0.29030516743659973,-0.34757208824157715
1772650711001447400,5.165447509765625,-0.40071579813957214,-0.22677704691886902,-0.42606595158576965
1772650711011338500,5.17533837890625,-0.34405970573425293,-0.23853585124015808,-0.39414918422698975
1772650711021215500,5.185215576171875,-0.3512371778488159,-0.2673983871936798,-0.3382566571235657
1772650711031079200,5.1950791015625,-0.3436015844345093,-0.24281178414821625,-0.33596599102020264
1772650711040970000,5.204969970703125,-0.3298575282096863,-0.183865025639534,-0.3761292099952698
1772650711050847200,5.21484716796875,-0.30817243456840515,-0.10750912129878998,-0.4611896872520447
1772650711060724500,5.224724365234375,-0.28373855352401733,-0.059557609260082245,-0.6079457402229309
1772650711070601700,5.234601806640625,-0.29442837834358215,-0.05238015204668045,-0.776692271232605
1772650711080478700,5.244478759765625,-0.2861819267272949,-0.010995250195264816,-0.9713998436927795
1772650711090356000,5.25435595703125,-0.2157817929983139,0.04886778071522713,-1.151447057723999
1772650711100233200,5.264233154296875,-0.13453911244869232,0.01175880990922451,-1.253764033317566
1772650711110110500,5.2741103515625,-0.10964708030223846,-0.0261137206107378,-1.2369656562805176
1772650711119974000,5.283973876953125,-0.11315945535898209,-0.04107947647571564,-1.1015102863311768
1772650711129865000,5.293864990234375,-0.18997350335121155,-0.07085828483104706,-0.9145910739898682
1772650711139742200,5.3037421875,-0.2698417901992798,-0.18814095854759216,-0.7655443549156189
1772650711149605600,5.313605712890625,-0.3158080279827118,-0.3501681983470917,-0.6308525204658508
1772650711159496400,5.323496337890625,-0.3620797097682953,-0.4605788290500641,-0.47019967436790466
1772650711169373700,5.333373779296875,-0.3877353072166443,-0.5158604979515076,-0.26877278089523315
1772650711179251000,5.3432509765625,-0.43049460649490356,-0.577861487865448,-0.05864133685827255
1772650711189128200,5.353128173828125,-0.5027272701263428,-0.6600204706192017,0.1650814712047577
1772650711199005400,5.36300537109375,-0.624285876750946,-0.7995990514755249,0.35169529914855957
1772650711208882700,5.372882568359375,-0.7130114436149597,-0.9194778203964233,0.44576579332351685
1772650711218760000,5.382760009765625,-0.6861341595649719,-0.9720106720924377,0.45706647634506226
1772650711228637000,5.392636962890625,-0.5386145710945129,-0.8655705451965332,0.42072105407714844
1772650711238500600,5.40250048828125,-0.2727433145046234,-0.6209262609481812,0.34482327103614807
1772650711248391400,5.412391357421875,0.05497625470161438,-0.33566057682037354,0.32130566239356995
1772650711258268700,5.4222685546875,0.41293275356292725,0.020157959312200546,0.41949936747550964
1772650711268132000,5.432132080078125,0.8400676846504211,0.5190674662590027,0.6412369012832642
1772650711278023200,5.442023193359375,1.2009257078170776,0.8422056436538696,0.8860339522361755
1772650711287900400,5.451900390625,1.2983558177947998,0.8487722873687744,1.2893458604812622
1772650711297763800,5.461763916015625,1.0885298252105713,0.4844018816947937,1.644248127937317
1772650711307654700,5.471654541015625,0.7989882230758667,-0.0459662564098835,1.7045692205429077
1772650711317532000,5.481531982421875,0.4369085133075714,-0.43232715129852295,1.2998830080032349
1772650711327395300,5.491395263671875,0.1382041871547699,-0.7461498975753784,0.6306998133659363
1772650711337286400,5.501286376953125,0.23792500793933868,-0.6303943991661072,-0.18249061703681946
1772650711347163600,5.51116357421875,0.2701472043991089,-0.19654010236263275,-0.9316948056221008
1772650711357027000,5.521027099609375,0.18142163753509521,0.10155335813760757,-1.3724210262298584
1772650711366918000,5.53091796875,0.12934690713882446,0.23914669454097748,-1.3785295486450195
1772650711376795100,5.540795166015625,0.08811471611261368,0.2476985603570938,-1.0651649236679077
1772650711386658600,5.550658447265625,-0.0594048947095871,0.05100574716925621,-0.5661026835441589
1772650711396549600,5.560549560546875,-0.2304421216249466,-0.2764083743095398,-0.14034216105937958
1772650711406427000,5.570427001953125,-0.3124483823776245,-0.5054761171340942,0.04932591691613197
1772650711416290300,5.580290283203125,-0.22479179501533508,-0.5034908652305603,0.037567105144262314
1772650711426181400,5.590181396484375,-0.0784938707947731,-0.3793361485004425,-0.04978405311703682
1772650711436058400,5.600058349609375,0.022754060104489326,-0.27915719151496887,-0.0922379344701767
1772650711445922000,5.609922119140625,0.11209046840667725,-0.25655585527420044,-0.10582929104566574
1772650711455812900,5.619812744140625,0.13805148005485535,-0.29748260974884033,-0.04688252881169319
1772650711465690000,5.629690185546875,0.1369825005531311,-0.38605546951293945,0.07742489129304886
1772650711475553500,5.639553466796875,0.12094775587320328,-0.5329642295837402,0.30084228515625
1772650711485444600,5.649444580078125,0.09376505762338638,-0.7078192830085754,0.6096255779266357
1772650711495321900,5.65932177734375,0.05665608495473862,-0.7966975569725037,0.9468132257461548
1772650711505185300,5.669185302734375,0.004581354558467865,-0.8383878469467163,1.1549594402313232
1772650711515076400,5.679076416015625,-0.06872031837701797,-0.8527427911758423,1.2023000717163086
1772650711524953600,5.68895361328125,-0.14751961827278137,-0.8661814332008362,1.1025793552398682
1772650711534817000,5.698817138671875,-0.2166980654001236,-0.9387195110321045,0.9338327646255493
1772650711544707800,5.708707763671875,-0.29946786165237427,-1.0692881345748901,0.7287407517433167
1772650711554585000,5.718585205078125,-0.33917292952537537,-1.1836693286895752,0.534338653087616
1772650711564448500,5.728448486328125,-0.34375429153442383,-1.233758807182312,0.4421007037162781
1772650711574339600,5.738339599609375,-0.3533751368522644,-1.284459114074707,0.399952232837677
1772650711584216800,5.748216796875,-0.35887277126312256,-1.288735032081604,0.39949411153793335
1772650711594093800,5.75809375,-0.3071034550666809,-1.2355912923812866,0.43828290700912476
1772650711603971000,5.76797119140625,-0.16767756640911102,-1.2100883722305298,0.504865288734436
1772650711613848300,5.777848388671875,-0.032222192734479904,-1.202147364616394,0.5793886184692383
1772650711623725600,5.7877255859375,-0.007177455350756645,-1.1238062381744385,0.7346965670585632
1772650711633602800,5.797602783203125,-0.0390942245721817,-1.1001359224319458,0.8756495714187622
1772650711643480000,5.80747998046875,-0.1053711548447609,-1.1123528480529785,0.9034430980682373
1772650711653357000,5.817357177734375,-0.09452861547470093,-1.0595145225524902,0.797613799571991
1772650711663234300,5.827234375,-0.04214845970273018,-0.8977927565574646,0.6293253898620605
1772650711673111600,5.837111572265625,0.054518118500709534,-0.6849125027656555,0.4140017330646515
1772650711682975000,5.84697509765625,0.1620272397994995,-0.4271349310874939,0.17393875122070312
1772650711692866000,5.856865966796875,0.2507528066635132,-0.1360662281513214,-0.0847550556063652
1772650711702743300,5.866743408203125,0.34192174673080444,0.1910424828529358,-0.3790307343006134
1772650711712620500,5.87662060546875,0.44271156191825867,0.3781144618988037,-0.6401679515838623
1772650711722497500,5.88649755859375,0.3865135908126831,0.25472331047058105,-0.709346354007721
1772650711732374800,5.896374755859375,0.2832804024219513,0.015576604753732681,-0.6520794630050659
1772650711742238200,5.90623828125,0.2901524603366852,-0.1360662281513214,-0.5305208563804626
1772650711752129300,5.91612939453125,0.22051586210727692,-0.35413870215415955,-0.3054236173629761
1772650711762006500,5.926006591796875,0.14339639246463776,-0.5054761171340942,-0.016340164467692375
1772650711771870000,5.935869873046875,0.22341738641262054,-0.333064466714859,-0.017409147694706917
1772650711781761000,5.945760986328125,0.5464028716087341,0.07666133344173431,-0.22616620361804962
1772650711791638000,5.955637939453125,1.1115893125534058,0.7626428008079529,-0.5445703268051147
1772650711801501400,5.96550146484375,1.6897562742233276,1.5382660627365112,-0.8861866593360901
1772650711811392500,5.975392578125,2.004647970199585,2.139950752258301,-0.673306405544281
1772650711821269800,5.985269775390625,1.761988878250122,1.8827840089797974,0.29839888215065
1772650711831133200,5.99513330078125,1.5915625095367432,1.899276852607727,1.28018319606781
1772650711841024300,6.005024169921875,1.5885082483291626,1.22627592086792,1.952878713607788
1772650711850901500,6.014901611328125,1.0541696548461914,-0.7183563709259033,2.175685167312622
1772650711860765000,6.024764892578125,0.49173203110694885,-1.7850483655929565,1.8180341720581055
1772650711870655700,6.03465576171875,0.34283801913261414,-1.2452120780944824,1.3203463554382324
1772650711880533000,6.044532958984375,0.9168817400932312,-0.22815145552158356,0.5996993184089661
1772650711890410200,6.05441015625,1.1008994579315186,-0.3715478479862213,-0.08032641559839249
1772650711900287500,6.06428759765625,0.9518527388572693,-0.9420791864395142,-0.12659808993339539
1772650711910164700,6.074164794921875,0.8315158486366272,-1.0851701498031616,0.23593975603580475
1772650711920041700,6.084041748046875,0.7640172243118286,-1.057529330253601,0.36971530318260193
1772650711929919000,6.0939189453125,0.7029324769973755,-0.9428427219390869,0.2820587158203125
1772650711939796200,6.103796142578125,0.517693042755127,-0.9265025854110718,0.28160059452056885
1772650711949673500,6.113673583984375,0.26755109429359436,-0.9713998436927795,0.31092125177383423
1772650711959550700,6.12355078125,0.04214845970273018,-1.0063709020614624,0.38391751050949097
1772650711969428000,6.133427978515625,-0.14492350816726685,-0.9634588360786438,0.5260922312736511
1772650711979305200,6.14330517578125,-0.24937839806079865,-0.8496885299682617,0.6372663974761963
1772650711989182200,6.15318212890625,-0.2605263590812683,-0.6174138784408569,0.693617045879364
1772650711999059500,6.1630595703125,-0.23532891273498535,-0.3626905679702759,0.7866185307502747
1772650712008923000,6.1729228515625,-0.2545706033706665,-0.20539739727973938,0.9391776323318481
1772650712018814000,6.18281396484375,-0.2713688910007477,-0.08842013776302338,1.0451596975326538
1772650712028691200,6.192691162109375,-0.2820587158203125,-0.0021379655227065086,1.0306520462036133
1772650712038554600,6.2025546875,-0.29946786165237427,0.09605573117733002,0.8939749598503113
1772650712048445400,6.212445556640625,-0.2713688910007477,0.25029465556144714,0.6601731777191162
1772650712058322700,6.22232275390625,-0.17989452183246613,0.46073153614997864,0.349251925945282
1772650712068186000,6.23218603515625,-0.05787777900695801,0.6604785919189453,0.019394399598240852
1772650712078077200,6.2420771484375,0.06963659077882767,0.8244910836219788,-0.27915719151496887
1772650712087954400,6.251954345703125,0.15454435348510742,0.8805363178253174,-0.48669254779815674
1772650712097817900,6.26181787109375,0.19287502765655518,0.8449544906616211,-0.5951179265975952
1772650712107709000,6.271708984375,0.19806721806526184,0.7713474035263062,-0.6635328531265259
1772650712117586000,6.2815859375,0.19806721806526184,0.7624900937080383,-0.7327113151550293
1772650712127449300,6.291449462890625,0.2339545041322708,0.8438854813575745,-0.8570187091827393
1772650712137340400,6.30134033203125,0.24021568894386292,0.9301676750183105,-1.0256125926971436
1772650712147217700,6.3112177734375,0.1501157134771347,0.9446752667427063,-1.1868761777877808
1772650712157081000,6.3210810546875,0.00916270911693573,0.8933641314506531,-1.3206517696380615
1772650712166972200,6.33097216796875,-0.14675605297088623,0.7817317843437195,-1.4063230752944946
1772650712176849400,6.340849365234375,-0.2993151545524597,0.616802990436554,-1.4634373188018799
1772650712186726400,6.350726318359375,-0.40361732244491577,0.4611896872520447,-1.4930634498596191
1772650712196603600,6.360603759765625,-0.48363831639289856,0.3336753249168396,-1.4971866607666016
1772650712206481000,6.37048095703125,-0.5624375939369202,0.23929941654205322,-1.4825263023376465
1772650712216358100,6.380358154296875,-0.6424586176872253,0.1779092699289322,-1.426175594329834
1772650712226235400,6.3902353515625,-0.7230904698371887,0.14156384766101837,-1.3296617269515991
1772650712236112600,6.400112548828125,-0.7989882230758667,0.11926792562007904,-1.2398672103881836
1772650712245976000,6.40997607421875,-0.8593093752861023,0.07040014863014221,-1.1635112762451172
1772650712255867000,6.419866943359375,-0.913369357585907,-0.02993151545524597,-1.037218689918518
1772650712265744100,6.429744140625,-0.9730796813964844,-0.22066856920719147,-0.8238802552223206
1772650712275607600,6.439607666015625,-1.0315682888031006,-0.4419479966163635,-0.5086830258369446
1772650712285498600,6.44949853515625,-1.0602781772613525,-0.5883986353874207,-0.18722468614578247
1772650712295376000,6.4593759765625,-1.017976999282837,-0.6303943991661072,0.06016845628619194
1772650712305239300,6.4692392578125,-0.922837495803833,-0.5580089688301086,0.1969982385635376
1772650712315130400,6.47913037109375,-0.7829535007476807,-0.44133713841438293,0.19745637476444244
1772650712325007400,6.48900732421875,-0.6398624777793884,-0.31412819027900696,0.10628741979598999
1772650712334871000,6.49887109375,-0.5123481154441833,-0.20646637678146362,0.07620319724082947
1772650712344761900,6.508761962890625,-0.3226800560951233,-0.04031591862440109,0.11911521852016449
1772650712354639000,6.51863916015625,0.0007635590736754239,0.3106158375740051,0.11438114941120148
1772650712364502500,6.52850244140625,0.4324798583984375,0.8602256774902344,0.008399149402976036
1772650712374393600,6.5383935546875,0.7131641507148743,1.2867497205734253,-0.13056860864162445
1772650712384270600,6.5482705078125,0.7113316059112549,1.1780189275741577,-0.045202698558568954
1772650712394134300,6.55813427734375,0.38071054220199585,0.4480564594268799,0.2435753494501114
1772650712404025000,6.568025146484375,-0.21089501678943634,-0.38101598620414734,0.5671716928482056
1772650712413902300,6.57790234375,-0.7244648337364197,-0.7452336549758911,0.6734591126441956
1772650712423765800,6.587765869140625,-1.0972343683242798,-0.7698202729225159,0.6687250137329102
1772650712433656800,6.59765673828125,-1.4051014184951782,-0.8362498879432678,0.6939224600791931
1772650712443534000,6.6075341796875,-1.49443781375885,-0.8057075142860413,0.6994200944900513
1772650712453397500,6.6173974609375,-1.28018319606781,-0.4608842432498932,0.5512896776199341
1772650712463288300,6.627288330078125,-0.8832851648330688,0.08735115826129913,0.22036315500736237
1772650712473165600,6.63716552734375,-0.48455458879470825,0.51998370885849,-0.14797775447368622
1772650712483029000,6.647029052734375,-0.18814095854759216,0.6917845010757446,-0.324054479598999
1772650712492920000,6.656920166015625,-0.009009997360408306,0.6989619731903076,-0.20600824058055878
1772650712502797300,6.66679736328125,0.08643488585948944,0.6395570635795593,0.09284878522157669
1772650712512660700,6.67666064453125,0.10689827054738998,0.5839699506759644,0.4793623983860016
1772650712522551600,6.686551513671875,0.04077405482530594,0.4940227270126343,0.772416353225708
1772650712532428800,6.6964287109375,-0.09529217332601547,0.3171824514865875,0.856407880783081
1772650712542292200,6.706292236328125,-0.2733541429042816,0.12781979143619537,0.7165238261222839
1772650712552183300,6.716183349609375,-0.376740038394928,0.0004581354442052543,0.47585001587867737
1772650712562060500,6.726060546875,-0.3965925872325897,-0.03955236077308655,0.2510582208633423
1772650712571924000,6.735924072265625,-0.37567105889320374,-0.03161134570837021,0.1388150453567505
1772650712581815000,6.74581494140625,-0.3443651497364044,-0.021532366052269936,0.10491301864385605
