time,seconds_elapsed,z,y,x
1772650705955324000,0.119323974609375,7.606184959411621,-4.874777793884277,-1.5493526458740234
1772650705975078400,0.139078369140625,7.303493022918701,-4.205984115600586,-1.0612168312072754
1772650705994833000,0.1588330078125,6.97268533706665,-4.287938117980957,-0.7334001660346985
1772650706004710100,0.168710205078125,7.258627414703369,-4.6887359619140625,-0.6705885529518127
1772650706014587400,0.17858740234375,7.143173694610596,-5.08355188369751,-0.46360939741134644
1772650706024464600,0.188464599609375,7.2921271324157715,-5.343173027038574,-0.4468596279621124
1772650706034341600,0.198341552734375,7.5326056480407715,-5.594419479370117,-0.4049852192401886
1772650706044219000,0.208218994140625,7.791628837585449,-5.793023586273193,-0.33738797903060913
1772650706054096100,0.21809619140625,8.093124389648438,-6.02811861038208,-0.28594231605529785
1772650706063973400,0.227973388671875,8.352147102355957,-6.235695838928223,-0.40378883481025696
1772650706073850600,0.2378505859375,8.481958389282227,-6.526423931121826,-0.4654040038585663
1772650706083728000,0.247727783203125,9.129216194152832,-7.037291526794434,-0.7417750358581543
1772650706093605000,0.257605224609375,10.328021049499512,-7.883154392242432,-1.1569297313690186
1772650706103482400,0.267482421875,11.805588722229004,-8.836095809936523,-1.3764712810516357
1772650706113359400,0.277359375,13.421341896057129,-9.734601020812988,-1.428515076637268
1772650706123236600,0.287236572265625,15.03290843963623,-10.065408706665039,-1.1736794710159302
1772650706133113900,0.29711376953125,16.847864151000977,-10.229914665222168,-1.6528422832489014
1772650706142991000,0.3069912109375,18.37986946105957,-10.323235511779785,-2.8109683990478516
1772650706152868400,0.316868408203125,20.132612228393555,-10.688738822937012,-4.083950042724609
1772650706162745600,0.32674560546875,21.53061866760254,-11.422737121582031,-5.589633464813232
1772650706172622800,0.336622802734375,22.744976043701172,-11.854641914367676,-5.888138294219971
1772650706182500000,0.3465,23.6578369140625,-12.028120994567871,-4.619344234466553
1772650706192377300,0.35637744140625,24.399612426757812,-11.783454895019531,-3.4474592208862305
1772650706202254300,0.36625439453125,23.891735076904297,-11.308480262756348,-2.9976086616516113
1772650706212131600,0.376131591796875,21.88056755065918,-10.530214309692383,-2.6428725719451904
1772650706222008800,0.3860087890625,18.70110511779785,-9.205188751220703,-2.2707886695861816
1772650706231872300,0.395872314453125,15.732211112976074,-6.69990348815918,-1.5176477432250977
1772650706241763300,0.405763427734375,12.482757568359375,-5.67039155960083,-2.836092948913574
1772650706251640600,0.415640625,9.116654396057129,-5.709873199462891,-3.4809587001800537
1772650706261504000,0.42550390625,5.624927997589111,-5.821737289428711,-3.321237802505493
1772650706271394800,0.435394775390625,2.7254250049591064,-5.154139995574951,-1.3992030620574951
1772650706281272000,0.44527197265625,-0.882951557636261,-4.252045631408691,-0.4301098585128784
1772650706291135500,0.455135498046875,-3.8536407947540283,-3.9631125926971436,-0.7082754969596863
1772650706301026600,0.465026611328125,-6.7794647216796875,-3.084348440170288,-1.4757733345031738
1772650706310903800,0.47490380859375,-8.545368194580078,-3.3122646808624268,-2.417349100112915
1772650706320767200,0.484767333984375,-10.576874732971191,-2.8977081775665283,-3.4672000408172607
1772650706330658300,0.494658203125,-10.980663299560547,-1.7168502807617188,-3.806382656097412
1772650706340535600,0.50453564453125,-10.1216402053833,-1.1264212131500244,-4.010969161987305
1772650706350399000,0.51439892578125,-7.812565803527832,0.07477571070194244,-2.730808734893799
1772650706360289800,0.524289794921875,-4.810770034790039,0.5676971673965454,-0.5048855543136597
1772650706370167000,0.5341669921875,-2.5220351219177246,0.8291130661964417,-0.9523434042930603
1772650706380030500,0.544030517578125,-1.8903298377990723,1.1389836072921753,-1.0007981061935425
1772650706389921500,0.553921630859375,-1.0372886657714844,0.6137589812278748,-0.36251261830329895
1772650706399798800,0.563798828125,-1.0139585733413696,0.8428717851638794,-0.6269195079803467
1772650706409662200,0.573662109375,-0.4061816334724426,0.755533754825592,-0.029910283163189888
1772650706419553300,0.58355322265625,0.026919255033135414,1.6576279401779175,-0.1339980661869049
1772650706429430500,0.593430419921875,0.11844471842050552,1.2023934125900269,0.6137589812278748
1772650706439294000,0.6032939453125,1.0558329820632935,0.7914260625839233,0.45224347710609436
1772650706449184800,0.613184814453125,1.9250258207321167,0.004785645287483931,0.8668000102043152
1772650706459062000,0.62306201171875,2.2953150272369385,-0.5718846321105957,1.057627558708191
1772650706468925400,0.632925537109375,3.6340994834899902,-2.224726915359497,0.7926225066184998
1772650706478816500,0.64281640625,4.7264227867126465,-3.6987056732177734,0.18903298676013947
1772650706488693800,0.65269384765625,4.71744966506958,-3.7567315101623535,0.31824541091918945
1772650706498570800,0.66257080078125,4.037888050079346,-2.3401806354522705,0.26141586899757385
1772650706508448000,0.672447998046875,3.0933215618133545,-1.4398809671401978,-1.0241280794143677
1772650706518325200,0.6823251953125,3.500699520111084,-2.466402053833008,-2.5591237545013428
1772650706528188700,0.692188720703125,4.650450706481934,-3.9744784832000732,-4.5684967041015625
1772650706538079700,0.702079833984375,5.6656060218811035,-5.475376605987549,-6.618547439575195
1772650706547957000,0.71195703125,6.927221775054932,-6.574878215789795,-7.814958572387695
1772650706557820400,0.7218203125,8.562117576599121,-8.515457153320312,-9.169296264648438
1772650706567711200,0.731711181640625,14.69073486328125,-14.718850135803223,-10.250852584838867
1772650706577588500,0.74158837890625,23.750558853149414,-24.476781845092773,-11.684152603149414
1772650706587452000,0.751451904296875,29.398218154907227,-24.11845588684082,-11.163115501403809
1772650706597343000,0.761343017578125,24.96312141418457,-9.178269386291504,-12.64726448059082
1772650706607220200,0.77122021484375,26.10749053955078,-7.221538543701172,-14.754742622375488
1772650706617083600,0.781083740234375,24.52703094482422,-10.265209197998047,-16.16411590576172
1772650706626974700,0.790974609375,20.828922271728516,-12.728620529174805,-16.928024291992188
1772650706636852000,0.80085205078125,20.377277374267578,-17.745771408081055,-18.0903377532959
1772650706646715400,0.81071533203125,20.698514938354492,-18.588045120239258,-16.689340591430664
1772650706656606500,0.8206064453125,19.81077766418457,-15.458232879638672,-14.003396034240723
1772650706666483500,0.8304833984375,17.34676742553711,-11.874980926513672,-13.00379467010498
1772650706676347100,0.84034716796875,15.512070655822754,-10.286744117736816,-12.324831008911133
1772650706686238000,0.850238037109375,13.254443168640137,-8.602795600891113,-11.401800155639648
1772650706696115200,0.860115234375,11.059626579284668,-7.6869425773620605,-10.552348136901855
1772650706705978600,0.869978515625,9.311071395874023,-7.285546779632568,-9.55633544921875
1772650706715869700,0.87986962890625,7.611568927764893,-6.267400741577148,-7.627720355987549
1772650706725747000,0.889746826171875,6.521637916564941,-6.518647193908691,-5.757729530334473
1772650706735610400,0.8996103515625,5.040481090545654,-6.50189733505249,-4.589433670043945
1772650706745501200,0.909501220703125,2.8666014671325684,-5.803193092346191,-4.548157691955566
1772650706755378400,0.91937841796875,0.8213363885879517,-4.989633560180664,-4.456034183502197
1772650706765241900,0.929241943359375,-0.7639086246490479,-2.8522446155548096,-4.362115859985352
1772650706775133000,0.9391328125,-1.9597218036651611,-0.6197410821914673,-3.896711587905884
1772650706785010200,0.94901025390625,-2.761317253112793,0.6376872062683105,-3.2679975032806396
1772650706794873600,0.95887353515625,-2.7726831436157227,0.7884350419044495,-2.1780667304992676
1772650706804764700,0.9687646484375,-2.696112871170044,0.877567708492279,-0.8973084688186646
1772650706814642000,0.978641845703125,-2.541177749633789,0.6789634227752686,0.038285162299871445
1772650706824505300,0.98850537109375,-2.104487419128418,0.059820566326379776,0.9888339638710022
1772650706834396400,0.998396484375,-1.3854442834854126,-0.9038887619972229,1.7443677186965942
1772650706844273400,1.0082734375,-0.7746763229370117,-1.7395820617675781,2.1505494117736816
1772650706854137000,1.01813720703125,-0.5778666734695435,-1.8245272636413574,2.462812662124634
1772650706864028000,1.02802783203125,-0.5144568681716919,-0.9218349456787109,2.5298118591308594
1772650706873905200,1.0379052734375,0.029312077909708023,-0.13998012244701385,2.53399920463562
1772650706883768600,1.0477685546875,0.8955138921737671,-0.15134602785110474,1.9567307233810425
1772650706893659600,1.05765966796875,1.4327025413513184,0.21655045449733734,1.5290136337280273
1772650706903537000,1.067536865234375,1.2819547653198242,0.8273184299468994,1.373480200767517
1772650706913414000,1.077413818359375,0.9684949517250061,0.9678967595100403,1.225723385810852
1772650706923291100,1.087291015625,0.11485548317432404,0.5312066078186035,0.7854440212249756
1772650706933168400,1.09716845703125,-0.6915257573127747,-0.13639089465141296,0.08733802288770676
1772650706943031800,1.10703173828125,-1.231107234954834,-0.48095735907554626,-0.5790630578994751
1772650706952923000,1.1169228515625,-1.374078392982483,-0.8267202377319336,-1.48055899143219
1772650706962800000,1.126800048828125,-1.357926845550537,-1.0839486122131348,-2.4765713214874268
1772650706972663600,1.13666357421875,-0.8147560954093933,-1.1078768968582153,-3.4815568923950195
1772650706982554600,1.1465546875,-0.7369893789291382,-1.3070793151855469,-3.1316065788269043
1772650706992431900,1.156431884765625,-0.6526423692703247,-1.4626128673553467,-2.9377880096435547
1772650707002308900,1.166308837890625,-0.6323033571243286,-1.9824535846710205,-3.1992039680480957
1772650707012186000,1.17618603515625,-0.0891326442360878,-2.451446771621704,-2.5698914527893066
1772650707022063400,1.1860634765625,0.8703892230987549,-3.373281717300415,-2.304288148880005
1772650707031926800,1.1959267578125,2.252244234085083,-4.9190449714660645,-2.5746772289276123
1772650707041817900,1.20581787109375,4.561318397521973,-6.9690961837768555,-3.6227335929870605
1772650707051695000,1.215695068359375,9.365508079528809,-9.44746208190918,-3.5461630821228027
1772650707061558500,1.22555859375,16.3106746673584,-13.765310287475586,-1.7198412418365479
1772650707071449600,1.23544970703125,22.477577209472656,-17.897714614868164,-0.4450650215148926
1772650707081326600,1.24532666015625,25.256242752075195,-19.33580207824707,-2.294118642807007
1772650707091190300,1.255190185546875,23.34258270263672,-17.64766502380371,-8.292326927185059
1772650707101081000,1.2650810546875,18.34577178955078,-17.079967498779297,-15.763916015625
1772650707110958300,1.274958251953125,17.173887252807617,-19.612173080444336,-18.683757781982422
1772650707120821800,1.28482177734375,18.951154708862305,-21.49711799621582,-18.73819351196289
1772650707130712800,1.294712890625,20.387447357177734,-20.03689956665039,-17.690736770629883
1772650707140590000,1.304590087890625,21.114267349243164,-17.337196350097656,-14.715859413146973
1772650707150453500,1.31445361328125,22.082761764526367,-15.872190475463867,-11.794222831726074
1772650707160344600,1.324344482421875,22.109682083129883,-15.695121765136719,-8.1553373336792
1772650707170221600,1.3342216796875,20.57767677307129,-15.364912033081055,-6.437291145324707
1772650707180085200,1.344085205078125,17.69851303100586,-14.91266918182373,-5.86421012878418
1772650707189976000,1.35397607421875,15.371492385864258,-14.499308586120605,-5.380859851837158
1772650707199853300,1.363853271484375,13.588241577148438,-13.804792404174805,-4.323232173919678
1772650707209716700,1.373716796875,11.10329532623291,-12.148360252380371,-3.4612178802490234
1772650707219607800,1.38360791015625,8.307880401611328,-9.953543663024902,-3.129812002182007
1772650707229485000,1.393485107421875,5.568098068237305,-8.660223007202148,-2.7846474647521973
1772650707239348500,1.403348388671875,3.222533941268921,-7.682157039642334,-3.0652058124542236
1772650707249239300,1.4132392578125,1.1431710720062256,-5.942574977874756,-3.9086756706237793
1772650707259116500,1.423116455078125,-1.5822539329528809,-4.429712772369385,-3.046661376953125
1772650707268980000,1.43297998046875,-3.521636724472046,-3.0729825496673584,-2.650649309158325
1772650707278871000,1.44287109375,-5.292923450469971,-1.960319995880127,-2.283350944519043
1772650707288748300,1.452748291015625,-6.21356201171875,-0.8129615187644958,-1.3986048698425293
1772650707298611700,1.46261181640625,-6.110072612762451,-0.2757728099822998,-1.1300104856491089
1772650707308502800,1.472502685546875,-5.255835056304932,0.008374879136681557,-0.9601200819015503
1772650707318380000,1.482380126953125,-4.110869407653809,0.01196411345154047,-0.48514479398727417
1772650707328243500,1.492243408203125,-3.153740167617798,0.5910272002220154,0.5587241053581238
1772650707338134300,1.50213427734375,-2.3682961463928223,1.594218134880066,1.181456208229065
1772650707348011500,1.512011474609375,-2.0027925968170166,2.2169501781463623,1.2903295755386353
1772650707357875000,1.521875,-0.7208378314971924,2.7086751461029053,2.3575284481048584
1772650707367766000,1.53176611328125,-0.26201409101486206,3.1800613403320312,2.0793628692626953
1772650707377643300,1.541643310546875,0.8733802437782288,2.376072883605957,2.114656925201416
1772650707387506700,1.551506591796875,1.7413766384124756,1.4506487846374512,0.4983053207397461
1772650707397397800,1.561397705078125,2.0099709033966064,1.5696916580200195,0.09571290761232376
1772650707407274800,1.571274658203125,1.9154545068740845,1.9507486820220947,0.09690931439399719
1772650707417152000,1.581152099609375,1.716252088546753,1.43389892578125,-0.27397820353507996
1772650707427029200,1.591029296875,1.2299108505249023,0.6287141442298889,-0.494716078042984
1772650707436906500,1.600906494140625,0.5724828243255615,-0.25064817070961,-1.1407781839370728
1772650707446770000,1.61077001953125,-0.24287149310112,-0.7471588850021362,-1.866999864578247
1772650707456661000,1.620660888671875,-0.4905286431312561,-1.3441680669784546,-2.8414769172668457
1772650707466538000,1.6305380859375,-0.42711883783340454,-1.5326029062271118,-3.924229145050049
1772650707476401700,1.640401611328125,-0.3978067636489868,-1.358525037765503,-4.409972190856934
1772650707486292500,1.65029248046875,0.13579268753528595,-0.7316055297851562,-3.9625144004821777
1772650707496169700,1.660169677734375,0.8703892230987549,-0.4331009089946747,-3.699902057647705
1772650707506033200,1.670033203125,2.1481566429138184,-1.6175481081008911,-3.8566319942474365
1772650707515924200,1.67992431640625,3.8494534492492676,-3.8949170112609863,-4.704887390136719
1772650707525801500,1.689801513671875,6.092126369476318,-7.568498134613037,-6.858428001403809
1772650707535665000,1.699664794921875,8.855836868286133,-11.827722549438477,-8.654839515686035
1772650707545555700,1.7095556640625,15.220146179199219,-17.691333770751953,-7.889734268188477
1772650707555433000,1.719432861328125,20.444276809692383,-20.694326400756836,-5.131408214569092
1772650707565296400,1.72929638671875,22.774288177490234,-11.181660652160645,-5.291727066040039
1772650707575187500,1.7391875,20.100906372070312,-6.777071952819824,-5.913262844085693
1772650707585064700,1.749064697265625,19.20718765258789,-9.808777809143066,-12.443276405334473
1772650707594928000,1.75892822265625,20.56092643737793,-14.538191795349121,-14.43051528930664
1772650707604819000,1.76881884765625,19.639690399169922,-17.733806610107422,-17.761323928833008
1772650707614696200,1.7786962890625,16.68874168395996,-17.85883140563965,-19.004993438720703
1772650707624559600,1.7885595703125,14.736198425292969,-16.39920997619629,-17.22054672241211
1772650707634450700,1.79845068359375,14.266606330871582,-15.481562614440918,-15.848860740661621
1772650707644328000,1.808327880859375,13.584651947021484,-13.691731452941895,-15.268601417541504
1772650707654191400,1.81819140625,13.213166236877441,-11.240283966064453,-14.162519454956055
1772650707664082400,1.82808251953125,13.83649730682373,-10.923833847045898,-13.236496925354004
1772650707673959400,1.83795947265625,14.168500900268555,-10.96451187133789,-12.046067237854004
1772650707683822800,1.84782275390625,13.850255966186523,-10.89392375946045,-10.804192543029785
1772650707693714000,1.8577138671875,13.205389976501465,-10.593624114990234,-9.990034103393555
1772650707703591200,1.867591064453125,12.037094116210938,-9.516255378723145,-8.895318031311035
1772650707713454600,1.87745458984375,10.372885704040527,-8.201399803161621,-8.123632431030273
1772650707723345700,1.887345703125,7.889734268188477,-6.736992359161377,-6.699305057525635
1772650707733223000,1.897222900390625,5.327021598815918,-5.38205623626709,-4.843072891235352
1772650707743086300,1.90708642578125,3.4480574131011963,-4.677968502044678,-3.851248025894165
1772650707752977200,1.91697705078125,2.3198416233062744,-4.453042984008789,-3.835096597671509
1772650707762854400,1.9268544921875,1.5206388235092163,-3.4809587001800537,-3.6424741744995117
1772650707772717800,1.9367177734375,0.6221339106559753,-1.3980066776275635,-2.9455647468566895
1772650707782609000,1.94660888671875,-0.3008974492549896,1.0414760112762451,-1.8849459886550903
1772650707792486100,1.956486083984375,-0.8871390223503113,2.4951157569885254,-0.48454657196998596
1772650707802349600,1.966349609375,-1.3704891204833984,3.4983067512512207,1.6301103830337524
1772650707812240400,1.976240478515625,-1.301695466041565,3.384049415588379,2.5674986839294434
1772650707822117600,1.98611767578125,-1.3226326704025269,2.0787646770477295,2.2995026111602783
1772650707831981300,1.995981201171875,-1.6671991348266602,0.7339983582496643,1.7928223609924316
1772650707841872100,2.0058720703125,-2.021935224533081,-0.11665010452270508,1.5170495510101318
1772650707851749400,2.015749267578125,-2.2193429470062256,-0.9457631707191467,1.4213366508483887
1772650707861612800,2.02561279296875,-2.017747640609741,-1.9262222051620483,1.0564311742782593
1772650707871504000,2.03550390625,-1.3351950645446777,-2.294118642807007,1.0169496536254883
1772650707881381000,2.045381103515625,-0.6119644045829773,-1.4673985242843628,1.3609179258346558
1772650707891244500,2.05524462890625,-0.13100704550743103,0.26620152592658997,1.8753747940063477
1772650707901135400,2.06513525390625,0.3170489966869354,1.7198412418365479,2.008774518966675
1772650707911012600,2.0750126953125,0.372682124376297,2.6949164867401123,2.1846470832824707
1772650707920876000,2.0848759765625,0.1579262912273407,2.5052852630615234,1.710868239402771
1772650707930767000,2.09476708984375,0.01615155301988125,1.6109678745269775,0.7052844762802124
1772650707940644400,2.104644287109375,-0.13579268753528595,0.6137589812278748,0.037088751792907715
1772650707950507800,2.1145078125,0.698704183101654,-0.49710890650749207,-0.7914260625839233
1772650707960398600,2.124398681640625,1.420140266418457,-1.3956137895584106,-1.6875381469726562
1772650707970275800,2.13427587890625,1.9824535846710205,-1.7623138427734375,-1.867598056793213
1772650707980139300,2.14413916015625,1.8699909448623657,-1.9698911905288696,-1.0235298871994019
1772650707990030300,2.1540302734375,1.703689694404602,-2.7846474647521973,-0.8883354067802429
1772650707999907600,2.163907470703125,1.908276081085205,-4.2209391593933105,-2.266003131866455
1772650708009771000,2.17377099609375,2.56510591506958,-5.5692949295043945,-4.411168575286865
1772650708019662000,2.183662109375,3.4785659313201904,-6.602396011352539,-6.310471534729004
1772650708029539300,2.193539306640625,4.649254322052002,-7.673183917999268,-7.5427751541137695
1772650708039402800,2.20340283203125,7.05763053894043,-9.306285858154297,-8.126026153564453
1772650708049293600,2.21329345703125,11.288739204406738,-11.815757751464844,-6.267400741577148
1772650708059170800,2.2231708984375,16.87179183959961,-15.87278938293457,-2.8079774379730225
1772650708069034200,2.2330341796875,21.045473098754883,-21.285951614379883,-2.778067111968994
1772650708078925300,2.24292529296875,22.135404586791992,-23.696123123168945,-6.911069869995117
1772650708088802600,2.252802490234375,21.0783748626709,-21.432512283325195,-9.315258979797363
1772650708098666000,2.262666015625,19.09831428527832,-19.92862319946289,-11.184053421020508
1772650708108556800,2.272556884765625,17.260028839111328,-18.999610900878906,-12.66879940032959
1772650708118434000,2.28243408203125,16.82573127746582,-19.192232131958008,-14.48315715789795
1772650708128297500,2.29229736328125,17.18644905090332,-19.374685287475586,-13.434502601623535
1772650708138188500,2.3021884765625,16.579269409179688,-18.46062660217285,-11.637493133544922
1772650708148065800,2.312065673828125,15.90987777709961,-19.10130500793457,-10.49252700805664
1772650708157929200,2.32192919921875,15.8632173538208,-20.246868133544922,-10.01575756072998
1772650708167820300,2.3318203125,15.578472137451172,-20.20020866394043,-8.718847274780273
1772650708177697300,2.341697265625,14.222339630126953,-18.163318634033203,-7.438089370727539
1772650708187561000,2.35156103515625,12.598211288452148,-15.469598770141602,-6.487540245056152
1772650708197451800,2.36145166015625,10.587641716003418,-12.966706275939941,-5.857629776000977
1772650708207329000,2.3713291015625,8.645866394042969,-11.175080299377441,-5.556134223937988
1772650708217192400,2.3811923828125,7.7353973388671875,-10.2747802734375,-4.849653244018555
1772650708227083500,2.39108349609375,7.225128173828125,-9.394221305847168,-3.5772697925567627
1772650708236960800,2.400960693359375,6.351747512817383,-7.901698589324951,-2.313859462738037
1772650708246824200,2.41082421875,5.000999450683594,-6.145366668701172,-1.6719847917556763
1772650708256715000,2.420715087890625,3.8087754249572754,-4.118047714233398,-1.0043872594833374
1772650708266592300,2.43059228515625,2.7834508419036865,-2.4646072387695312,0.0029910283628851175
1772650708276455700,2.44045556640625,1.8801604509353638,-0.833898663520813,0.737587571144104
1772650708286346800,2.4503466796875,0.9523434042930603,0.5958128571510315,0.9906286001205444
1772650708296224000,2.46022412109375,-0.18963119387626648,1.8753747940063477,1.046859860420227
1772650708306087400,2.47008740234375,-1.521835207939148,3.0005996227264404,0.9780662655830383
1772650708315978500,2.479978515625,-2.8109683990478516,3.8673996925354004,0.8356932997703552
1772650708325855500,2.48985546875,-3.814159393310547,4.557130813598633,1.0492527484893799
1772650708335719200,2.49971923828125,-4.439284324645996,4.501497745513916,1.4644074440002441
1772650708345610000,2.50960986328125,-4.8329033851623535,4.050450325012207,1.852044701576233
1772650708355487200,2.5194873046875,-4.422534465789795,2.737389087677002,1.5296118259429932
1772650708365350700,2.5293505859375,-3.0370900630950928,1.0845468044281006,1.5463616847991943
1772650708375241700,2.53924169921875,-1.7886348962783813,-0.04905286431312561,1.2388839721679688
1772650708385118700,2.54911865234375,-1.0295119285583496,0.12921242415905,1.3722838163375854
1772650708394982400,2.558982421875,-0.38225340843200684,1.378864049911499,1.638485312461853
1772650708404873200,2.568873291015625,0.21595224738121033,2.1104695796966553,1.2711870670318604
1772650708414750500,2.57875048828125,0.6323033571243286,2.2163519859313965,0.6873382925987244
1772650708424627700,2.588627685546875,0.6071787476539612,2.211566209793091,-0.08673982322216034
1772650708434505000,2.5985048828125,0.3475574851036072,1.8335003852844238,-0.8877372145652771
1772650708444382200,2.60838232421875,0.1986042857170105,1.2149556875228882,-1.6432709693908691
1772650708454245600,2.61824560546875,-0.24885354936122894,0.5491527915000916,-2.289931297302246
1772650708464136400,2.628136474609375,-0.31824541091918945,0.12861421704292297,-3.0622148513793945
1772650708474013700,2.638013671875,-0.20518454909324646,-0.32602208852767944,-3.7800614833831787
1772650708483877000,2.647877197265625,-0.07956135272979736,-0.6867401003837585,-3.90987229347229
1772650708493768200,2.657768310546875,0.16929219663143158,-1.4656038284301758,-4.122833251953125
1772650708503645400,2.6676455078125,0.5497509837150574,-2.4358935356140137,-4.502095699310303
1772650708513508900,2.6775087890625,0.9038887619972229,-3.147160053253174,-4.672584533691406
1772650708523399700,2.687399658203125,1.536790370941162,-2.700300455093384,-4.8227338790893555
1772650708533277000,2.69727685546875,4.453640937805176,-4.829314231872559,-5.879165172576904
1772650708543140400,2.707140380859375,9.65803050994873,-12.022737503051758,-7.8556365966796875
1772650708553031400,2.717031494140625,15.346965789794922,-16.942380905151367,-7.688138961791992
1772650708562908700,2.72690869140625,20.39522361755371,-16.925630569458008,-4.078566074371338
1772650708572772000,2.736772216796875,15.969099998474121,-6.537789821624756,-4.132404804229736
1772650708582663200,2.7466630859375,21.059232711791992,-11.185847282409668,-8.13798999786377
1772650708592540200,2.7565400390625,23.810977935791016,-14.7870454788208,-11.254042625427246
1772650708602403600,2.766403564453125,20.304296493530273,-11.47956657409668,-11.946764945983887
1772650708612294700,2.776294677734375,18.312271118164062,-15.133406639099121,-15.4360990524292
1772650708622172000,2.786171875,16.8999080657959,-16.470396041870117,-16.007984161376953
1772650708632035300,2.796035400390625,15.616158485412598,-16.750356674194336,-14.827723503112793
1772650708641926400,2.805926513671875,15.251851081848145,-15.616158485412598,-12.540783882141113
1772650708651803400,2.815803466796875,15.014364242553711,-13.868800163269043,-10.48953628540039
1772650708661667000,2.8256669921875,14.0656099319458,-12.153145790100098,-9.302696228027344
1772650708671558000,2.835557861328125,12.988839149475098,-11.275578498840332,-9.636494636535645
1772650708681435100,2.84543505859375,12.985848426818848,-11.72542953491211,-11.078170776367188
1772650708691298600,2.855298583984375,13.298709869384766,-12.257832527160645,-12.55155086517334
1772650708701189600,2.865189697265625,13.60319709777832,-12.935001373291016,-13.627124786376953
1772650708711067000,2.87506689453125,13.465011596679688,-13.931612014770508,-14.31745433807373
1772650708720930300,2.884930419921875,12.529417991638184,-12.823734283447266,-14.050654411315918
1772650708730821000,2.894821044921875,10.25324535369873,-10.26760196685791,-11.97188949584961
1772650708740698400,2.904698486328125,8.933005332946777,-7.850851058959961,-8.093124389648438
1772650708750561800,2.914561767578125,8.696115493774414,-5.812166213989258,-9.113663673400879
1772650708760452900,2.924452880859375,8.37428092956543,-5.337191104888916,-8.947959899902344
1772650708770330000,2.934330078125,8.305487632751465,-4.292125701904297,-7.593024253845215
1772650708780193500,2.944193603515625,7.8418779373168945,-3.678964853286743,-6.4085774421691895
1772650708790084600,2.954084716796875,6.612565517425537,-3.686741590499878,-5.994020938873291
1772650708799961900,2.9639619140625,4.871188640594482,-3.2763724327087402,-4.767100811004639
1772650708809825300,2.9738251953125,3.0586254596710205,-2.8002007007598877,-3.387638568878174
1772650708819716000,2.983716064453125,1.2191431522369385,-2.3976082801818848,-2.458625316619873
1772650708829593300,2.99359326171875,-0.29850462079048157,-1.6019947528839111,-1.4482558965682983
1772650708839456800,3.003456787109375,-1.2867404222488403,-0.7483552694320679,-0.3332005441188812
1772650708849347800,3.013347900390625,-1.989033818244934,0.2183450609445572,0.5437689423561096
1772650708859225000,3.02322509765625,-2.620738983154297,1.0689935684204102,0.6921239495277405
1772650708869088500,3.033088623046875,-3.311666488647461,1.673181176185608,0.5479564070701599
1772650708878979600,3.0429794921875,-3.809373617172241,1.887937068939209,0.2638086974620819
1772650708888856800,3.05285693359375,-3.995415687561035,1.8191434144973755,0.09391828626394272
1772650708898720300,3.06272021484375,-3.7507495880126953,1.4985052347183228,-0.06819544732570648
1772650708908611000,3.072611083984375,-2.978466033935547,0.7106683254241943,0.06340979784727097
1772650708918488300,3.08248828125,-1.7282161712646484,-0.576670229434967,0.3810569941997528
1772650708928351700,3.092351806640625,-0.25304099917411804,-1.8807586431503296,0.9014959335327148
1772650708938242800,3.102242919921875,1.1210373640060425,-1.6660027503967285,1.8855443000793457
1772650708948120000,3.1121201171875,2.352144718170166,-1.1030912399291992,2.3682961463928223
1772650708957983500,3.1219833984375,2.8666014671325684,-0.3068794906139374,1.903490424156189
1772650708967874300,3.131874267578125,2.7523441314697266,0.49651068449020386,1.3950155973434448
1772650708977751600,3.14175146484375,2.0620148181915283,1.0139585733413696,1.3399807214736938
1772650708987628800,3.15162890625,1.2813565731048584,0.890728235244751,1.2394821643829346
1772650708997506000,3.161506103515625,0.20159530639648438,0.9631111025810242,1.0163514614105225
1772650709007383300,3.17138330078125,-1.0450652837753296,0.46002015471458435,0.24945175647735596
1772650709017246700,3.181246826171875,-2.073979139328003,-0.5018945336341858,-0.6329016089439392
1772650709027137800,3.1911376953125,-2.5974090099334717,-1.4189438819885254,-1.8251254558563232
1772650709037014800,3.201014892578125,-2.612962245941162,-2.235494613647461,-2.950948476791382
1772650709046878500,3.21087841796875,-2.2995026111602783,-2.5328028202056885,-3.482753276824951
1772650709056769300,3.220769287109375,-1.6319050788879395,-2.3437697887420654,-3.4301111698150635
1772650709066646500,3.230646484375,-0.784247636795044,-2.142772674560547,-3.4372897148132324
1772650709076510000,3.240510009765625,0.07597211748361588,-2.3204398155212402,-3.662813186645508
1772650709086401000,3.250401123046875,1.7958134412765503,-3.321237802505493,-4.727021217346191
1772650709096278300,3.2602783203125,5.547161102294922,-5.380859851837158,-6.106483459472656
1772650709106141700,3.2701416015625,10.876575469970703,-8.482556343078613,-6.3116679191589355
1772650709116032800,3.28003271484375,15.438491821289062,-11.816954612731934,-4.476373195648193
1772650709125909800,3.28990966796875,17.749361038208008,-15.3218412399292,-0.8823533654212952
1772650709135773400,3.2997734375,20.14876365661621,-18.976879119873047,-0.6323033571243286
1772650709145664300,3.309664306640625,21.756141662597656,-21.381067276000977,-5.327021598815918
1772650709155541500,3.31954150390625,17.353946685791016,-20.56332015991211,-12.043076515197754
1772650709165405000,3.329405029296875,10.864012718200684,-19.458433151245117,-18.06820297241211
1772650709175296000,3.3392958984375,9.538389205932617,-19.10130500793457,-19.961524963378906
1772650709185173200,3.34917333984375,14.971891403198242,-17.358732223510742,-20.48076629638672
1772650709195036700,3.35903662109375,20.124237060546875,-13.531412124633789,-17.775083541870117
1772650709204927700,3.368927734375,22.680967330932617,-11.787642478942871,-14.21875
1772650709214804700,3.3788046875,23.987449645996094,-12.63589859008789,-10.528419494628906
1772650709224668400,3.38866845703125,23.19063949584961,-15.214164733886719,-10.7228364944458
1772650709234559200,3.398559326171875,20.024934768676758,-16.27657699584961,-11.048858642578125
1772650709244436500,3.4084365234375,16.521244049072266,-15.89133358001709,-11.33958625793457
1772650709254300000,3.4182998046875,13.925629615783691,-14.635699272155762,-10.411170959472656
1772650709264191000,3.42819091796875,11.629117965698242,-13.095319747924805,-8.843274116516113
1772650709274068200,3.438068115234375,10.153345108032227,-12.772887229919434,-7.9351983070373535
1772650709283931600,3.447931640625,9.436694145202637,-12.410374641418457,-7.116852760314941
1772650709293822500,3.457822509765625,8.476573944091797,-11.559127807617188,-6.238088607788086
1772650709303699700,3.46769970703125,7.426723480224609,-9.955936431884766,-4.8233323097229
1772650709313563400,3.4775634765625,6.251249313354492,-8.548358917236328,-4.058825492858887
1772650709323454200,3.4874541015625,4.048655986785889,-6.259026050567627,-3.218346357345581
1772650709333331500,3.49733154296875,1.9214365482330322,-4.019941806793213,-2.4993033409118652
1772650709343195000,3.50719482421875,-0.16031911969184875,-2.3575284481048584,-2.1655044555664062
1772650709353086000,3.5170859375,-2.1607189178466797,-0.8620143532752991,-1.877767562866211
1772650709362963200,3.526963134765625,-3.661616802215576,-0.3451646566390991,-1.389033555984497
1772650709372826600,3.53682666015625,-4.683351993560791,0.19920247793197632,-0.8949156403541565
1772650709382717700,3.5467177734375,-4.883152961730957,0.727418065071106,-0.7184450030326843
1772650709392595000,3.556594970703125,-4.497908592224121,1.2819547653198242,-0.23030917346477509
1772650709402458400,3.566458251953125,-3.6747772693634033,1.7976080179214478,0.2763710021972656
1772650709412349200,3.57634912109375,-2.785245656967163,2.1571295261383057,0.529412031173706
1772650709422226400,3.586226318359375,-2.0721843242645264,1.8699909448623657,0.44327038526535034
1772650709432103700,3.596103759765625,-1.3268201351165771,1.6061822175979614,0.24107688665390015
1772650709441981000,3.60598095703125,-0.9409775137901306,1.2616157531738281,-0.004785645287483931
1772650709451858200,3.615858154296875,-0.381655216217041,1.205384373664856,-0.13519448041915894
1772650709461721600,3.6257216796875,0.3116651475429535,0.9361918568611145,-0.13698910176753998
1772650709471612400,3.6356123046875,0.9290133714675903,0.794417142868042,0.05503492057323456
1772650709481489700,3.64548974609375,1.1910275220870972,0.5778666734695435,0.4731806814670563
1772650709491367000,3.655366943359375,1.2490534782409668,0.511465847492218,0.7429714202880859
1772650709501244200,3.665244140625,1.1617153882980347,0.20338992774486542,0.7776673436164856
1772650709511121400,3.675121337890625,1.0857433080673218,-0.012562318705022335,0.3936193287372589
1772650709520998700,3.68499853515625,0.9170492887496948,-0.32243284583091736,0.2638086974620819
1772650709530876000,3.6948759765625,0.6215356588363647,-0.6059823632240295,0.10408778488636017
1772650709540753200,3.704753173828125,0.32662028074264526,-0.9601200819015503,-0.34636107087135315
1772650709550616600,3.714616455078125,-0.2111666053533554,-1.2077772617340088,-1.1665010452270508
1772650709560507400,3.72450732421875,-0.9834501147270203,-1.277767300605774,-1.944766640663147
1772650709570384600,3.734384521484375,-1.4865410327911377,-1.4087743759155273,-2.963510751724243
1772650709580248000,3.744248046875,-1.7078771591186523,-1.500898003578186,-4.070191383361816
1772650709590139100,3.75413916015625,-1.6582261323928833,-1.7874385118484497,-5.139184951782227
1772650709600016400,3.764016357421875,-1.1647064685821533,-2.898306369781494,-5.806782245635986
1772650709609879800,3.7738798828125,-0.3900300860404968,-4.753940582275391,-6.879364967346191
1772650709619771000,3.78377099609375,1.4757733345031738,-7.149754047393799,-8.479565620422363
1772650709629648100,3.793648193359375,4.575675010681152,-10.17308521270752,-10.326226234436035
1772650709639511600,3.803511474609375,10.785648345947266,-13.204792022705078,-11.01416301727295
1772650709649402400,3.81340234375,20.112871170043945,-14.864213943481445,-9.035298347473145
1772650709659279600,3.823279541015625,23.436500549316406,-8.492127418518066,-6.973283290863037
1772650709669143000,3.83314306640625,25.184457778930664,-3.34576416015625,-5.800201892852783
1772650709679034000,3.8430341796875,22.72164535522461,-4.467400074005127,-11.70987606048584
1772650709688911400,3.852911376953125,16.057634353637695,-7.506882667541504,-15.009578704833984
1772650709698774800,3.86277490234375,9.388837814331055,-10.634900093078613,-18.538991928100586
1772650709708665900,3.872665771484375,8.408976554870605,-14.910276412963867,-20.774486541748047
1772650709718542800,3.88254296875,13.811970710754395,-23.149362564086914,-23.97010040283203
1772650709728406500,3.892406494140625,18.396020889282227,-22.520648956298828,-19.2927303314209
1772650709738297300,3.90229736328125,20.044675827026367,-15.003596305847168,-14.707484245300293
1772650709748174600,3.912174560546875,20.59442710876465,-10.097113609313965,-13.698909759521484
1772650709758038000,3.9220380859375,19.85923194885254,-8.200801849365234,-12.907483100891113
1772650709767929000,3.93192919921875,17.595022201538086,-8.511270523071289,-12.345767974853516
1772650709777806300,3.941806396484375,14.864812850952148,-10.17846965789795,-12.011371612548828
1772650709787669800,3.951669677734375,12.259028434753418,-11.496315956115723,-12.293126106262207
1772650709797560800,3.961560791015625,9.840482711791992,-12.404991149902344,-12.601202011108398
1772650709807438000,3.97143798828125,7.993224143981934,-12.020942687988281,-12.376874923706055
1772650709817301500,3.981301513671875,6.096313953399658,-11.375478744506836,-10.953743934631348
1772650709827192300,3.9911923828125,4.335196495056152,-9.605388641357422,-9.685547828674316
1772650709837069600,4.001069580078125,2.606382131576538,-7.804789066314697,-9.30449104309082
1772650709846933000,4.01093310546875,1.197009563446045,-4.983651161193848,-8.312665939331055
1772650709856824000,4.020823974609375,-0.08015955984592438,-2.799602508544922,-8.194221496582031
1772650709866701300,4.030701416015625,-0.8213363885879517,-1.057627558708191,-7.003791809082031
1772650709876564700,4.040564697265625,-0.9990034699440002,0.4295116662979126,-5.552545070648193
1772650709886455800,4.050455810546875,-1.046859860420227,0.9278169870376587,-4.325624942779541
1772650709896332800,4.060332763671875,-0.7232306599617004,0.7022934556007385,-2.5256242752075195
1772650709906196500,4.070196533203125,0.27038896083831787,-0.059820566326379776,-0.24586252868175507
1772650709916087300,4.08008740234375,1.7820546627044678,-1.8837496042251587,2.569293260574341
1772650709925964500,4.089964599609375,2.6949164867401123,-2.56510591506958,5.1320061683654785
1772650709935828000,4.099827880859375,2.8893332481384277,-2.142174482345581,5.605785369873047
1772650709945719000,4.109718994140625,1.9824535846710205,-1.0546365976333618,4.175475597381592
1772650709955596300,4.11959619140625,0.511465847492218,1.0043872594833374,2.5112674236297607
1772650709965459700,4.129459716796875,-0.4091726839542389,2.121237277984619,1.633699655532837
1772650709975350800,4.139350830078125,-0.2189432680606842,1.7976080179214478,1.6504493951797485
1772650709985227800,4.149227783203125,0.3367897868156433,0.8069794178009033,1.6301103830337524
1772650709995105000,4.15910498046875,-0.0077766734175384045,0.3320041298866272,1.435693621635437
1772650710004982300,4.168982177734375,-1.0875378847122192,0.4295116662979126,1.5720844268798828
1772650710014859500,4.178859619140625,-1.7288143634796143,-0.12921242415905,1.0516455173492432
1772650710024723000,4.188722900390625,-2.3030917644500732,-0.2847459018230438,-0.019740786403417587
1772650710034614000,4.198614013671875,-2.62313175201416,-0.2847459018230438,-0.17587246000766754
1772650710044491300,4.2084912109375,-2.68534517288208,-0.3128615617752075,-0.10348957777023315
1772650710054368300,4.2183681640625,-2.455634355545044,-0.364905446767807,0.1178465187549591
1772650710064245500,4.22824560546875,-2.2480568885803223,-0.2709871530532837,0.12083754688501358
1772650710074122800,4.238122802734375,-2.263011932373047,-0.1788634955883026,-0.006580262444913387
1772650710084000000,4.248,-2.6039891242980957,-0.4307080805301666,-0.4743770956993103
1772650710093877200,4.257877197265625,-3.2955150604248047,-0.4582255482673645,-1.1174482107162476
1772650710103754500,4.26775439453125,-3.5395829677581787,-0.20039889216423035,-1.9962122440338135
1772650710113618000,4.277617919921875,-3.049652576446533,-0.0849452018737793,-3.1310083866119385
1772650710123509000,4.287509033203125,-1.8185452222824097,-0.04247260093688965,-3.9601213932037354
1772650710133386200,4.29738623046875,-0.20039889216423035,-0.372682124376297,-4.153940200805664
1772650710143249700,4.307249755859375,1.5720844268798828,-1.2532408237457275,-3.37687087059021
1772650710153140500,4.317140380859375,4.328616142272949,-3.0801608562469482,-3.19441819190979
1772650710163017700,4.327017822265625,8.72064208984375,-6.548557281494141,-4.960321426391602
1772650710172881200,4.336881103515625,14.975480079650879,-14.264812469482422,-7.435696601867676
1772650710182772200,4.346772216796875,18.59821319580078,-22.46681022644043,-5.376074314117432
1772650710192649500,4.3566494140625,19.619949340820312,-26.858835220336914,-2.251646041870117
1772650710202513000,4.366512939453125,20.1350040435791,-25.889741897583008,-4.719842433929443
1772650710212404000,4.376404052734375,16.700706481933594,-21.743579864501953,-11.46939754486084
1772650710222281200,4.38628125,10.934002876281738,-17.834304809570312,-16.35075569152832
1772650710232144600,4.39614453125,9.597611427307129,-17.41316795349121,-20.304895401000977
1772650710242035500,4.406035400390625,10.313065528869629,-16.271791458129883,-21.212970733642578
1772650710251912700,4.41591259765625,13.736597061157227,-16.183258056640625,-20.50948143005371
1772650710261776100,4.425776123046875,16.75454330444336,-14.263615608215332,-14.676377296447754
1772650710271667200,4.435667236328125,18.472591400146484,-14.83370590209961,-9.963713645935059
1772650710281544400,4.44554443359375,19.529621124267578,-18.670597076416016,-8.72782039642334
1772650710291408000,4.455407958984375,18.8177547454834,-22.26102638244629,-7.737790107727051
1772650710301299000,4.465298828125,16.074981689453125,-23.301904678344727,-9.485149383544922
1772650710311176200,4.47517626953125,14.398212432861328,-22.596620559692383,-10.722238540649414
1772650710321039600,4.48503955078125,12.428918838500977,-21.06700897216797,-13.173087120056152
1772650710330930700,4.4949306640625,10.935797691345215,-18.859630584716797,-12.253644943237305
1772650710340807700,4.5048076171875,9.749555587768555,-15.816557884216309,-9.797411918640137
1772650710350671400,4.51467138671875,8.907880783081055,-12.669397354125977,-6.787839412689209
1772650710360562200,4.524562255859375,7.51286506652832,-9.8207426071167,-5.434698581695557
1772650710370439400,4.534439453125,5.940182209014893,-7.4877400398254395,-4.575675010681152
1772650710380302800,4.544302734375,4.1042890548706055,-6.20219612121582,-3.8075790405273438
1772650710390194000,4.55419384765625,2.4634108543395996,-5.403591632843018,-3.1830523014068604
1772650710400071200,4.5640712890625,0.8685946464538574,-4.7952165603637695,-2.5232315063476562
1772650710409934600,4.5739345703125,-0.39122650027275085,-4.0528435707092285,-1.506281852722168
1772650710419825700,4.58382568359375,-1.3525429964065552,-2.974278450012207,-1.0917253494262695
1772650710429703000,4.593702880859375,-2.672184705734253,-1.4590235948562622,-0.9619147181510925
1772650710439566300,4.60356640625,-3.8189449310302734,0.1621137410402298,-1.1168500185012817
1772650710449457200,4.61345703125,-5.117051124572754,2.14516544342041,-1.074975609779358
1772650710459334400,4.62333447265625,-5.508875846862793,3.0963125228881836,-1.7168502807617188
1772650710469197800,4.63319775390625,-5.489135265350342,3.5066816806793213,-1.7377874851226807
1772650710479089000,4.6430888671875,-5.258825778961182,4.064209461212158,-1.1132607460021973
1772650710488966100,4.652966064453125,-4.985445976257324,3.929612874984741,-0.8153542876243591
1772650710498829600,4.66282958984375,-4.690530776977539,3.5946178436279297,-0.8368897438049316
1772650710508720400,4.672720458984375,-4.329812526702881,3.1214370727539062,-1.0450652837753296
1772650710518597600,4.68259765625,-3.415156126022339,1.9399809837341309,-1.0007981061935425
1772650710528461300,4.69246142578125,-1.9070796966552734,0.5856433510780334,-0.7734799385070801
1772650710538352000,4.70235205078125,-0.7226324677467346,0.11066804826259613,-0.7447660565376282
1772650710548229400,4.7122294921875,0.2560320198535919,0.45942193269729614,-0.06281159073114395
1772650710558092800,4.7220927734375,1.2951152324676514,0.7471588850021362,0.7262216806411743
1772650710567983900,4.73198388671875,2.1158533096313477,0.8027920126914978,1.4919248819351196
1772650710577860900,4.74186083984375,2.1846470832824707,0.8847461938858032,1.5098711252212524
1772650710587738000,4.751738037109375,1.5702898502349854,0.7591229677200317,1.0917253494262695
1772650710597615400,4.761615478515625,0.6406782865524292,0.5784648656845093,0.29371899366378784
1772650710607492600,4.77149267578125,0.04247260093688965,0.04247260093688965,-0.43908295035362244
1772650710617356000,4.78135595703125,-0.12263216078281403,-0.8488538265228271,-1.277767300605774
1772650710627247000,4.7912470703125,0.11665010452270508,-1.6803597211837769,-1.7994025945663452
1772650710637124400,4.801124267578125,0.5144568681716919,-2.3718855381011963,-1.4243277311325073
1772650710646987800,4.81098779296875,1.0911271572113037,-2.878565549850464,-0.47976094484329224
1772650710656878600,4.820878662109375,2.0811574459075928,-3.019742250442505,0.09212367236614227
1772650710666755800,4.830755859375,2.9665019512176514,-1.8843477964401245,-0.544965386390686
1772650710676619300,4.840619384765625,4.8089752197265625,-2.441875457763672,-1.4943177700042725
1772650710686510300,4.85051025390625,6.76510763168335,-3.3589248657226562,-2.3599212169647217
1772650710696387600,4.8603876953125,9.042476654052734,-4.470989227294922,-3.0454649925231934
1772650710706251000,4.8702509765625,10.180862426757812,-6.836892604827881,-5.277370452880859
1772650710716142000,4.88014208984375,13.51286792755127,-11.126625061035156,-6.970890522003174
1772650710726019000,4.89001904296875,22.589441299438477,-20.41197395324707,-11.745169639587402
1772650710735882800,4.8998828125,20.628524780273438,-20.1350040435791,-18.081363677978516
1772650710745773600,4.909773681640625,11.285747528076172,-9.670592308044434,-14.11406421661377
1772650710755650800,4.91965087890625,6.773482799530029,-5.02133846282959,-11.562119483947754
1772650710765514200,4.92951416015625,7.910671710968018,-8.71226692199707,-13.58764362335205
1772650710775405300,4.9394052734375,10.031908988952637,-11.941381454467773,-15.649658203125
1772650710785282600,4.949282470703125,11.83430290222168,-14.019547462463379,-19.731216430664062
1772650710795146000,4.95914599609375,11.185847282409668,-12.586845397949219,-18.587446212768555
1772650710805036800,4.969036865234375,12.77348518371582,-12.046067237854004,-17.543577194213867
1772650710814914000,4.9789140625,14.375480651855469,-12.294920921325684,-15.926627159118652
1772650710824777500,4.988777587890625,15.461821556091309,-13.177274703979492,-15.314064979553223
1772650710834668500,4.99866845703125,15.764513969421387,-13.954941749572754,-13.379467964172363
1772650710844545500,5.008545654296875,15.26620864868164,-15.90987777709961,-13.331611633300781
1772650710854409200,5.0184091796875,14.148161888122559,-16.747365951538086,-14.138590812683105
1772650710864300000,5.028300048828125,13.789836883544922,-17.21516227722168,-15.316457748413086
1772650710874177300,5.03817724609375,14.35035514831543,-16.298112869262695,-14.927623748779297
1772650710884040700,5.048040771484375,14.563316345214844,-13.762319564819336,-12.674182891845703
1772650710893931800,5.057931884765625,13.908281326293945,-11.25464153289795,-11.12901782989502
1772650710903809000,5.06780908203125,12.613764762878418,-8.107481002807617,-8.961718559265137
1772650710913672400,5.07767236328125,10.217950820922852,-6.409773826599121,-7.595417499542236
1772650710923563500,5.0875634765625,8.394021987915039,-5.8719868659973145,-5.504090309143066
1772650710933440500,5.0974404296875,6.371488571166992,-5.784050464630127,-3.6580276489257812
1772650710943304200,5.10730419921875,4.07258415222168,-5.581857204437256,-2.4915266036987305
1772650710953195000,5.117195068359375,1.5176477432250977,-4.603790760040283,-2.534597396850586
1772650710963072300,5.127072265625,-0.5330012440681458,-3.3822548389434814,-3.1830523014068604
1772650710972935700,5.136935791015625,-1.7527425289154053,-2.0542383193969727,-3.551547050476074
1772650710982826800,5.14682666015625,-2.331207513809204,-1.0301101207733154,-2.94975209236145
1772650710992704000,5.1567041015625,-2.7661030292510986,-0.13160525262355804,-1.8640087842941284
1772650711002567400,5.1665673828125,-2.65842604637146,0.2350948303937912,-0.9768698215484619
1772650711012458500,5.17645849609375,-2.7284159660339355,0.5982056856155396,-0.5988038778305054
1772650711022335500,5.18633544921875,-2.8498518466949463,1.0606186389923096,-0.6029912829399109
1772650711032199200,5.19619921875,-2.9862427711486816,1.3615161180496216,-0.2386840581893921
1772650711042090000,5.206090087890625,-3.0933215618133545,1.3651052713394165,0.2189432680606842
1772650711051967200,5.21596728515625,-3.1824541091918945,1.089930772781372,0.35054850578308105
1772650711061844500,5.225844482421875,-3.4737801551818848,1.0582258701324463,0.388235479593277
1772650711071721700,5.2357216796875,-3.5126636028289795,1.1186445951461792,0.26560330390930176
1772650711081598700,5.2455986328125,-3.0239295959472656,0.7381857633590698,-0.0771685317158699
1772650711091476000,5.25547607421875,-2.2953150272369385,0.5407779216766357,-0.28534409403800964
1772650711101353200,5.265353271484375,-1.4267204999923706,0.7310073375701904,-0.4408775866031647
1772650711111230500,5.27523046875,-0.2386840581893921,0.4498506486415863,-0.6137589812278748
1772650711121094000,5.285093994140625,1.1012966632843018,-0.09272187948226929,-0.28654050827026367
1772650711130985000,5.29498486328125,1.643869161605835,-0.08015955984592438,0.0729810893535614
1772650711140862200,5.3048623046875,1.950150489807129,-0.08554340898990631,0.16271193325519562
1772650711150725600,5.3147255859375,1.9453648328781128,-0.014356935396790504,0.3810569941997528
1772650711160616400,5.324616455078125,1.825723648071289,-0.008374879136681557,0.28115665912628174
1772650711170493700,5.33449365234375,1.5930216312408447,0.04905286431312561,-0.12861421704292297
1772650711180371000,5.344370849609375,1.1204391717910767,0.42711883783340454,-0.2967100143432617
1772650711190248200,5.354248291015625,0.4570291340351105,0.8087740540504456,-0.5222335457801819
1772650711200125400,5.36412548828125,-0.4181457459926605,1.158724308013916,-0.5276173949241638
1772650711210002700,5.374002685546875,-0.6735795736312866,0.3487538993358612,-1.1018948554992676
1772650711219880000,5.3838798828125,-0.3774677813053131,-1.2789636850357056,-2.0398812294006348
1772650711229757000,5.3937568359375,0.5838487148284912,-3.290729284286499,-3.5503506660461426
1772650711239620600,5.40362060546875,2.1302103996276855,-5.276174068450928,-5.048855781555176
1772650711249511400,5.413511474609375,4.512265205383301,-7.565506935119629,-6.151947021484375
1772650711259388700,5.423388671875,8.117053031921387,-10.701300621032715,-7.779664516448975
1772650711269252000,5.433252197265625,12.131610870361328,-14.134403228759766,-8.143373489379883
1772650711279143200,5.44314306640625,16.0707950592041,-16.57388687133789,-6.570092678070068
1772650711289020400,5.4530205078125,18.785451889038086,-18.725631713867188,-4.113860130310059
1772650711298883800,5.4628837890625,18.753747940063477,-20.221744537353516,-5.3970112800598145
1772650711308774700,5.472774658203125,17.794824600219727,-21.053848266601562,-8.034500122070312
1772650711318652000,5.48265185546875,14.414961814880371,-19.375282287597656,-9.582656860351562
1772650711328515300,5.492515380859375,12.17527961730957,-20.633310317993164,-12.375679016113281
1772650711338406400,5.502406494140625,12.434901237487793,-21.329023361206055,-14.452649116516113
1772650711348283600,5.51228369140625,14.335400581359863,-20.080568313598633,-16.097116470336914
1772650711358147000,5.52214697265625,16.67438507080078,-17.742780685424805,-14.213964462280273
1772650711368038000,5.532037841796875,19.10968017578125,-15.938591957092285,-11.81336498260498
1772650711377915100,5.5419150390625,20.528623580932617,-14.757135391235352,-10.246665000915527
1772650711387778600,5.551778564453125,20.659032821655273,-14.794822692871094,-9.241081237792969
1772650711397669600,5.561669677734375,19.111474990844727,-16.049259185791016,-9.32004451751709
1772650711407547000,5.571546875,16.360326766967773,-17.093727111816406,-10.518848419189453
1772650711417410300,5.581410400390625,13.843077659606934,-17.16969871520996,-10.497312545776367
1772650711427301400,5.59130126953125,12.013764381408691,-16.10190200805664,-9.10229778289795
1772650711437178400,5.601178466796875,10.0073823928833,-14.488540649414062,-7.919644832611084
1772650711447042000,5.6110419921875,8.14397144317627,-12.108879089355469,-6.474380016326904
1772650711456932900,5.620932861328125,6.702296257019043,-9.999606132507324,-5.1080780029296875
1772650711466810000,5.63081005859375,5.526822090148926,-8.236095428466797,-3.7848472595214844
1772650711476673500,5.640673583984375,4.4410786628723145,-6.168696880340576,-2.4466612339019775
1772650711486564600,5.650564697265625,3.7022948265075684,-4.664209365844727,-1.700698733329773
1772650711496441900,5.66044189453125,2.7553353309631348,-3.5258240699768066,-1.0325030088424683
1772650711506305300,5.67030517578125,1.4135600328445435,-2.417349100112915,-0.8003991842269897
1772650711516196400,5.6801962890625,-0.10767702013254166,-1.2484551668167114,-0.4372883439064026
1772650711526073600,5.690073486328125,-1.781456470489502,0.02871387079358101,-0.12263216078281403
1772650711535937000,5.69993701171875,-3.0275187492370605,1.1575279235839844,0.1495514214038849
1772650711545827800,5.709827880859375,-4.06839656829834,2.2229323387145996,0.4833501875400543
1772650711555705000,5.719705078125,-3.8697924613952637,2.593221426010132,0.44027936458587646
1772650711565568500,5.729568603515625,-3.073580741882324,2.5322046279907227,0.5048855543136597
1772650711575459600,5.73945947265625,-2.3198416233062744,2.8283164501190186,0.7561319470405579
1772650711585336800,5.7493369140625,-1.740180253982544,3.04307222366333,0.7328019142150879
1772650711595213800,5.7592138671875,-1.2747762203216553,2.562114953994751,0.6478567123413086
1772650711605091000,5.769091064453125,-1.2095718383789062,2.3018953800201416,0.6101697683334351
1772650711614968300,5.77896826171875,-0.6969096064567566,1.5469598770141602,1.0516455173492432
1772650711624845600,5.788845458984375,-0.4737788736820221,0.5736792087554932,0.729810893535614
1772650711634722800,5.798722900390625,-0.9218349456787109,0.33499518036842346,0.5982056856155396
1772650711644600000,5.80860009765625,-1.555932879447937,0.3924229145050049,0.1136590763926506
1772650711654477000,5.81847705078125,-1.989033818244934,0.4833501875400543,-0.1860419660806656
1772650711664354300,5.828354248046875,-2.0506489276885986,0.3601198196411133,-0.35114672780036926
1772650711674231600,5.8382314453125,-1.9884356260299683,0.05742774158716202,-0.841675341129303
1772650711684095000,5.848094970703125,-1.937588095664978,-0.24107688665390015,-1.4249259233474731
1772650711693986000,5.857986083984375,-2.0883359909057617,-0.38763725757598877,-1.975873351097107
1772650711703863300,5.86786328125,-2.472982168197632,-0.22133609652519226,-2.9383862018585205
1772650711713740500,5.877740478515625,-1.7581263780593872,0.15314064919948578,-2.6709883213043213
1772650711723617500,5.887617431640625,-0.2967100143432617,-0.008374879136681557,-0.623330295085907
1772650711733494800,5.897494873046875,1.046859860420227,-0.2877369225025177,-0.4253242313861847
1772650711743358200,5.907358154296875,1.8478572368621826,-1.1443674564361572,-0.8123632669448853
1772650711753249300,5.917249267578125,2.0931215286254883,-1.1497513055801392,-1.4476577043533325
1772650711763126500,5.92712646484375,2.736790895462036,-1.3704891204833984,-2.3886351585388184
1772650711772990000,5.936989990234375,3.0454649925231934,-3.3954153060913086,-4.52781867980957
1772650711782881000,5.946881103515625,4.7264227867126465,-7.681559085845947,-6.677769660949707
1772650711792758000,5.956758056640625,6.805785655975342,-11.589037895202637,-6.988836765289307
1772650711802621400,5.966621337890625,11.723634719848633,-12.5742826461792,-5.434698581695557
1772650711812512500,5.976512451171875,19.727027893066406,-13.72642707824707,-0.989432156085968
1772650711822389800,5.9863896484375,25.178476333618164,-11.225329399108887,0.010767702013254166
1772650711832253200,5.996253173828125,29.900114059448242,-11.80618667602539,-0.735194742679596
1772650711842144300,6.006144287109375,21.086750030517578,-5.73978328704834,-5.562714576721191
1772650711852021500,6.016021484375,10.910075187683105,0.21595224738121033,-8.692526817321777
1772650711861885000,6.025885009765625,11.939586639404297,-6.754340171813965,-13.200604438781738
1772650711871775700,6.035775634765625,20.288145065307617,-20.411375045776367,-16.621143341064453
1772650711881653000,6.045653076171875,20.270797729492188,-19.914865493774414,-14.281561851501465
1772650711891530200,6.0555302734375,16.610376358032227,-11.945569038391113,-10.810772895812988
1772650711901407500,6.065407470703125,17.073387145996094,-11.474183082580566,-10.109675407409668
1772650711911284700,6.07528466796875,17.526826858520508,-11.127821922302246,-9.43310546875
1772650711921161700,6.08516162109375,17.385650634765625,-10.785648345947266,-9.810572624206543
1772650711931039000,6.0950390625,17.89950942993164,-11.234302520751953,-9.504889488220215
1772650711940916200,6.104916259765625,17.77388572692871,-10.689934730529785,-8.892925262451172
1772650711950793500,6.11479345703125,17.06680679321289,-10.05823040008545,-8.896514892578125
1772650711960670700,6.124670654296875,17.516658782958984,-10.113265037536621,-8.897710800170898
1772650711970548000,6.1345478515625,17.82712745666504,-10.134202003479004,-8.656036376953125
1772650711980425200,6.14442529296875,17.188840866088867,-9.509077072143555,-8.676374435424805
1772650711990302200,6.15430224609375,16.027725219726562,-8.834300994873047,-8.974281311035156
1772650712000179500,6.164179443359375,14.633306503295898,-7.691728591918945,-8.416155815124512
1772650712010043000,6.17404296875,12.572488784790039,-6.203392505645752,-7.599604606628418
1772650712019934000,6.183933837890625,10.109675407409668,-5.405984401702881,-7.088139057159424
1772650712029811200,6.193811279296875,7.6600236892700195,-4.806582450866699,-6.532405853271484
1772650712039674600,6.203674560546875,5.426323413848877,-4.449453830718994,-5.932405471801758
1772650712049565400,6.2135654296875,3.551547050476074,-4.35254430770874,-5.532804012298584
1772650712059442700,6.223442626953125,1.9423737525939941,-4.293920040130615,-5.00997257232666
1772650712069306000,6.23330615234375,0.9224331378936768,-4.622334957122803,-4.278964996337891
1772650712079197200,6.243197265625,0.4043870270252228,-4.682155609130859,-3.0544381141662598
1772650712089074400,6.253074462890625,-0.0077766734175384045,-4.322035789489746,-1.5858432054519653
1772650712098937900,6.262937744140625,-0.4342973232269287,-3.5120654106140137,-0.3128615617752075
1772650712108829000,6.272828857421875,-0.9206385016441345,-2.713460922241211,0.607776939868927
1772650712118706000,6.282705810546875,-1.0504491329193115,-1.947757601737976,0.9314061999320984
1772650712128569300,6.2925693359375,-1.3651052713394165,-1.1886346340179443,1.628315806388855
1772650712138460400,6.30246044921875,-1.1904292106628418,-0.4378865361213684,2.270190477371216
1772650712148337700,6.312337646484375,-0.9367900490760803,0.2721835672855377,2.881556749343872
1772650712158201000,6.322201171875,-0.4013960063457489,0.4205385744571686,3.4378879070281982
1772650712168092200,6.332092041015625,0.019740786403417587,0.35473597049713135,3.8470606803894043
1772650712177969400,6.341969482421875,0.5802595019340515,-0.04307080805301666,3.930211305618286
1772650712187846400,6.351846435546875,1.0785647630691528,-0.4701896607875824,3.786641836166382
1772650712197723600,6.3617236328125,1.4608181715011597,-0.5964110493659973,3.3481571674346924
1772650712207601000,6.371600830078125,1.7072789669036865,-0.41096729040145874,2.692523717880249
1772650712217478100,6.38147802734375,1.9226330518722534,-0.12861421704292297,2.200798511505127
1772650712227355400,6.39135546875,1.6977076530456543,0.4103690981864929,1.7694923877716064
1772650712237232600,6.401232666015625,1.4985052347183228,0.8566305041313171,1.069591760635376
1772650712247096000,6.411095947265625,1.3776676654815674,0.9978070259094238,0.43489551544189453
1772650712256987000,6.42098681640625,1.1252248287200928,0.7381857633590698,0.31465616822242737
1772650712266864000,6.430864013671875,1.012762188911438,0.14057832956314087,-0.03170489892363548
1772650712276727600,6.4407275390625,1.0887342691421509,-0.5479564070701599,-0.5132604837417603
1772650712286618600,6.45061865234375,0.6424728631973267,-1.155733346939087,-1.5637096166610718
1772650712296495900,6.460495849609375,0.28594231605529785,-2.108076810836792,-3.200998544692993
1772650712306359300,6.470359375,0.4043870270252228,-3.335594654083252,-5.233701229095459
1772650712316250400,6.48025048828125,1.1156535148620605,-4.836492538452148,-6.557530403137207
1772650712326127400,6.49012744140625,2.9593234062194824,-6.62931489944458,-6.942176818847656
1772650712335991000,6.499990966796875,5.9306111335754395,-8.842676162719727,-6.570691108703613
1772650712345881900,6.5098818359375,9.614959716796875,-11.786446571350098,-5.784648895263672
1772650712355759000,6.519759033203125,14.073386192321777,-15.656238555908203,-7.351349353790283
1772650712365622500,6.52962255859375,16.877775192260742,-17.69552230834961,-9.750154495239258
1772650712375513600,6.539513671875,17.69611930847168,-17.1344051361084,-8.751151084899902
1772650712385390600,6.549390625,18.06461524963379,-15.41635799407959,-3.7848472595214844
1772650712395254300,6.559254150390625,19.006189346313477,-14.319249153137207,0.4989035129547119
1772650712405145000,6.56914501953125,18.921245574951172,-13.49611759185791,0.259621262550354
1772650712415022300,6.579022216796875,16.128820419311523,-11.879167556762695,-3.256033420562744
1772650712424885800,6.5888857421875,12.591032981872559,-11.181061744689941,-4.246063709259033
1772650712434776800,6.59877685546875,9.629914283752441,-10.890932083129883,-4.662415027618408
1772650712444654000,6.608654052734375,7.677969455718994,-11.279766082763672,-6.197410583496094
1772650712454517500,6.618517578125,6.922435760498047,-12.471989631652832,-8.160123825073242
1772650712464408300,6.628408203125,6.813562393188477,-12.961919784545898,-8.717052459716797
1772650712474285600,6.63828564453125,7.191628456115723,-11.872588157653809,-7.171289443969727
1772650712484149000,6.64814892578125,8.617152214050293,-10.814361572265625,-4.792823791503906
1772650712494040000,6.6580400390625,10.131211280822754,-10.088140487670898,-2.923431158065796
1772650712503917300,6.667917236328125,10.958529472351074,-9.312865257263184,-2.011765718460083
1772650712513780700,6.67778076171875,10.894521713256836,-8.258827209472656,-1.7533408403396606
1772650712523671600,6.687671630859375,10.226325988769531,-7.27956485748291,-2.0967109203338623
1772650712533548800,6.697548828125,9.235696792602539,-6.409773826599121,-2.342573404312134
1772650712543412200,6.707412109375,8.094919204711914,-6.260820388793945,-2.785245656967163
1772650712553303300,6.71730322265625,7.368697166442871,-6.897311210632324,-2.9168508052825928
1772650712563180500,6.7271806640625,6.651448726654053,-7.301100254058838,-2.988635540008545
1772650712573044000,6.7370439453125,5.842076301574707,-7.467999458312988,-3.1890344619750977
1772650712582935000,6.74693505859375,5.36769962310791,-7.293323516845703,-3.43908429145813
