time,seconds_elapsed,z,y,x
1772556628827938800,0.066938720703125,-1.086639404296875,-0.489898681640625,-0.1577606201171875
1772556628837924000,0.076924072265625,-1.1230010986328125,-0.4663543701171875,-0.2002105712890625
1772556628847907800,0.086907958984375,-1.1579437255859375,-0.4496307373046875,-0.2339019775390625
1772556628857891800,0.096891845703125,-1.2385406494140625,-0.3373260498046875,-0.22015380859375
1772556628867877000,0.106877197265625,-1.3065948486328125,-0.210174560546875,-0.220672607421875
1772556628877860900,0.11686083984375,-1.3186187744140625,-0.1455535888671875,-0.2650146484375
1772556628887844900,0.126844970703125,-1.2439422607421875,-0.134246826171875,-0.3118743896484375
1772556628897830000,0.136829833984375,-1.088623046875,-0.1542205810546875,-0.343475341796875
1772556628907814000,0.14681396484375,-0.96063232421875,-0.1515045166015625,-0.3470611572265625
1772556628917798000,0.1567978515625,-0.88385009765625,-0.136871337890625,-0.329010009765625
1772556628927782000,0.166781982421875,-0.844818115234375,-0.1563568115234375,-0.3084259033203125
1772556628937767000,0.176766845703125,-0.8431854248046875,-0.2151031494140625,-0.292510986328125
1772556628947751000,0.1867509765625,-0.8749542236328125,-0.2691802978515625,-0.26519775390625
1772556628957735000,0.19673486328125,-0.9131011962890625,-0.3079681396484375,-0.2248077392578125
1772556628967719700,0.2067197265625,-0.940948486328125,-0.3340606689453125,-0.18389892578125
1772556628977704000,0.216703857421875,-0.956451416015625,-0.348388671875,-0.155120849609375
1772556628987688000,0.22668798828125,-0.9630126953125,-0.35308837890625,-0.1353912353515625
1772556628997672700,0.236672607421875,-0.9691619873046875,-0.3512115478515625,-0.1165313720703125
1772556629007656700,0.24665673828125,-0.9719390869140625,-0.3493499755859375,-0.1016693115234375
1772556629017640700,0.256640625,-0.9676361083984375,-0.3403778076171875,-0.099700927734375
1772556629027625700,0.266625732421875,-0.9564208984375,-0.3326416015625,-0.096160888671875
1772556629037609700,0.276609619140625,-0.936737060546875,-0.3284454345703125,-0.0913848876953125
1772556629047593700,0.28659375,-0.9152984619140625,-0.3261871337890625,-0.092620849609375
1772556629057577700,0.29657763671875,-0.8865814208984375,-0.32855224609375,-0.099822998046875
1772556629067562800,0.306562744140625,-0.8574066162109375,-0.3327789306640625,-0.113372802734375
1772556629077546800,0.316546630859375,-0.8369293212890625,-0.328643798828125,-0.1232147216796875
1772556629087530800,0.32653076171875,-0.8143310546875,-0.3191375732421875,-0.1406402587890625
1772556629097515800,0.336515869140625,-0.791595458984375,-0.30914306640625,-0.1605224609375
1772556629107499800,0.346499755859375,-0.779937744140625,-0.2985992431640625,-0.174468994140625
1772556629117483800,0.35648388671875,-0.7831878662109375,-0.2916412353515625,-0.180511474609375
1772556629127468800,0.36646875,-0.7887420654296875,-0.2904815673828125,-0.18341064453125
1772556629137452800,0.376452880859375,-0.7827301025390625,-0.2887725830078125,-0.186492919921875
1772556629147436800,0.386436767578125,-0.7822418212890625,-0.2833251953125,-0.1934661865234375
1772556629157421800,0.396421875,-0.787567138671875,-0.276947021484375,-0.2006378173828125
1772556629167405800,0.40640576171875,-0.796875,-0.2808380126953125,-0.20428466796875
1772556629177389800,0.416389892578125,-0.816131591796875,-0.2890777587890625,-0.1965789794921875
1772556629187373800,0.426373779296875,-0.829925537109375,-0.3090057373046875,-0.1898651123046875
1772556629197358800,0.43635888671875,-0.83349609375,-0.328125,-0.19049072265625
1772556629207342800,0.4463427734375,-0.837890625,-0.3419952392578125,-0.1929168701171875
1772556629217326800,0.456326904296875,-0.8437652587890625,-0.3557891845703125,-0.1958160400390625
1772556629227311900,0.466311767578125,-0.8519744873046875,-0.3669281005859375,-0.1976165771484375
1772556629237295900,0.4762958984375,-0.8669891357421875,-0.372100830078125,-0.1919403076171875
1772556629247279900,0.48627978515625,-0.884246826171875,-0.3714752197265625,-0.1845245361328125
1772556629257265000,0.496264892578125,-0.9038848876953125,-0.371826171875,-0.17169189453125
1772556629267249000,0.506248779296875,-0.922454833984375,-0.3792266845703125,-0.1499481201171875
1772556629277233000,0.51623291015625,-0.948333740234375,-0.4024200439453125,-0.134246826171875
1772556629287218000,0.526218017578125,-0.985931396484375,-0.4132232666015625,-0.1044921875
1772556629297202000,0.536201904296875,-1.0113372802734375,-0.4275360107421875,-0.0574493408203125
1772556629307186000,0.54618603515625,-1.0275726318359375,-0.4433746337890625,-0.0250091552734375
1772556629317170000,0.556169921875,-1.037353515625,-0.4549560546875,-0.0067291259765625
1772556629327155000,0.566155029296875,-1.0341949462890625,-0.46197509765625,-0.003143310546875
1772556629337139000,0.576138916015625,-1.0393829345703125,-0.4578399658203125,-0.0130767822265625
1772556629347123000,0.586123046875,-1.0532989501953125,-0.4504241943359375,-0.0231170654296875
1772556629357110800,0.59611083984375,-1.0710296630859375,-0.4519500732421875,-0.0375213623046875
1772556629367094800,0.6060947265625,-1.098358154296875,-0.4617462158203125,-0.045928955078125
1772556629377078500,0.61607861328125,-1.1392669677734375,-0.4628143310546875,-0.05279541015625
1772556629387063800,0.626063720703125,-1.19012451171875,-0.428009033203125,-0.050872802734375
1772556629397047800,0.6360478515625,-1.24322509765625,-0.3736572265625,-0.055084228515625
1772556629407031600,0.646031494140625,-1.2804718017578125,-0.317352294921875,-0.08447265625
1772556629417016800,0.656016845703125,-1.3002166748046875,-0.2511749267578125,-0.126617431640625
1772556629427000600,0.66600048828125,-1.3187255859375,-0.1915435791015625,-0.162506103515625
1772556629436984600,0.675984619140625,-1.35699462890625,-0.1593475341796875,-0.174285888671875
1772556629446968600,0.685968505859375,-1.3921966552734375,-0.15435791015625,-0.16046142578125
1772556629456953600,0.69595361328125,-1.4028167724609375,-0.1764068603515625,-0.130218505859375
1772556629466937600,0.7059375,-1.4101715087890625,-0.213226318359375,-0.08856201171875
1772556629476921600,0.715921630859375,-1.4290008544921875,-0.2661895751953125,-0.0516510009765625
1772556629486906600,0.72590673828125,-1.4284515380859375,-0.327484130859375,-0.026702880859375
1772556629496890600,0.735890625,-1.397125244140625,-0.3614044189453125,-0.0027008056640625
1772556629506874600,0.74587451171875,-1.346221923828125,-0.35443115234375,0.025726318359375
1772556629516859600,0.755859619140625,-1.294708251953125,-0.3203277587890625,0.042755126953125
1772556629526843600,0.76584375,-1.2480926513671875,-0.27777099609375,0.0529022216796875
1772556629536827600,0.77582763671875,-1.2071380615234375,-0.2322540283203125,0.0658111572265625
1772556629546812400,0.7858125,-1.1635589599609375,-0.1845245361328125,0.0858306884765625
1772556629556796700,0.795796630859375,-1.113739013671875,-0.138153076171875,0.1129608154296875
1772556629566780700,0.80578076171875,-1.06390380859375,-0.10516357421875,0.1407928466796875
1772556629576764700,0.8157646484375,-1.016632080078125,-0.089111328125,0.1658172607421875
1772556629586749400,0.82574951171875,-0.9763946533203125,-0.080322265625,0.1868438720703125
1772556629596733700,0.835733642578125,-0.9393310546875,-0.0767974853515625,0.1955108642578125
1772556629606717700,0.8457177734375,-0.9019317626953125,-0.0818634033203125,0.1917572021484375
1772556629616702500,0.855702392578125,-0.8649444580078125,-0.0955963134765625,0.1767730712890625
1772556629626686500,0.8656865234375,-0.8315277099609375,-0.108245849609375,0.153594970703125
1772556629636670500,0.87567041015625,-0.8020172119140625,-0.1220245361328125,0.1199951171875
1772556629646655500,0.885655517578125,-0.7721405029296875,-0.1375274658203125,0.0821075439453125
1772556629656639500,0.895639404296875,-0.7512359619140625,-0.149505615234375,0.0473785400390625
1772556629666623500,0.90562353515625,-0.7397918701171875,-0.1572265625,0.0191650390625
1772556629676608500,0.9156083984375,-0.7355194091796875,-0.1657257080078125,-0.0047760009765625
1772556629686592500,0.925592529296875,-0.73748779296875,-0.1764373779296875,-0.0230560302734375
1772556629696576500,0.935576416015625,-0.7400970458984375,-0.1911468505859375,-0.0319061279296875
1772556629706561500,0.9455615234375,-0.74017333984375,-0.21014404296875,-0.0330047607421875
1772556629716545500,0.955545654296875,-0.72918701171875,-0.233367919921875,-0.0364532470703125
1772556629726529500,0.965529541015625,-0.7121734619140625,-0.2554931640625,-0.032989501953125
1772556629736513500,0.975513427734375,-0.6981964111328125,-0.2826080322265625,-0.0278167724609375
1772556629746498600,0.98549853515625,-0.6924285888671875,-0.3135833740234375,-0.0243988037109375
1772556629756482600,0.995482666015625,-0.6913299560546875,-0.3418731689453125,-0.0210113525390625
1772556629766466600,1.005466552734375,-0.699310302734375,-0.3670806884765625,-0.018341064453125
1772556629776451600,1.01545166015625,-0.7142333984375,-0.3899993896484375,-0.019622802734375
1772556629786435600,1.025435546875,-0.73248291015625,-0.403411865234375,-0.019622802734375
1772556629796419600,1.035419677734375,-0.7531890869140625,-0.41375732421875,-0.020263671875
1772556629806404600,1.045404541015625,-0.7660064697265625,-0.427459716796875,-0.027252197265625
1772556629816388600,1.055388671875,-0.776397705078125,-0.4354095458984375,-0.0346221923828125
1772556629826372600,1.06537255859375,-0.7887115478515625,-0.433563232421875,-0.035919189453125
1772556629836357600,1.075357666015625,-0.7951507568359375,-0.4300537109375,-0.0402374267578125
1772556629846341600,1.085341552734375,-0.8007049560546875,-0.4273834228515625,-0.0448150634765625
1772556629856325600,1.09532568359375,-0.8090667724609375,-0.4253692626953125,-0.0451507568359375
1772556629866310700,1.105310546875,-0.8207855224609375,-0.4243316650390625,-0.0415496826171875
1772556629876294700,1.115294677734375,-0.8322296142578125,-0.4260711669921875,-0.036102294921875
1772556629886278700,1.125278564453125,-0.841827392578125,-0.4333953857421875,-0.0401458740234375
1772556629896262700,1.1352626953125,-0.851165771484375,-0.443389892578125,-0.049041748046875
1772556629906247700,1.14524755859375,-0.8564910888671875,-0.4582977294921875,-0.0532989501953125
1772556629916231700,1.155231689453125,-0.859100341796875,-0.4713592529296875,-0.057037353515625
1772556629926215700,1.165215576171875,-0.8569793701171875,-0.4835968017578125,-0.059844970703125
1772556629936200700,1.17520068359375,-0.8563079833984375,-0.4972076416015625,-0.0625
1772556629946184700,1.185184814453125,-0.861419677734375,-0.505859375,-0.0611419677734375
1772556629956168700,1.195168701171875,-0.870086669921875,-0.5089111328125,-0.057708740234375
1772556629966153700,1.20515380859375,-0.8745880126953125,-0.5126495361328125,-0.056549072265625
1772556629976137700,1.2151376953125,-0.8689727783203125,-0.513671875,-0.0535125732421875
1772556629986121700,1.225121826171875,-0.85968017578125,-0.5115203857421875,-0.0500640869140625
1772556629996106800,1.235106689453125,-0.8472900390625,-0.5084228515625,-0.047393798828125
1772556630006090800,1.2450908203125,-0.8349151611328125,-0.5028076171875,-0.0446929931640625
1772556630016074800,1.25507470703125,-0.8216552734375,-0.4945068359375,-0.048797607421875
1772556630026059500,1.2650595703125,-0.8172607421875,-0.4868927001953125,-0.0563201904296875
1772556630036043500,1.27504345703125,-0.8226776123046875,-0.4844818115234375,-0.0622100830078125
1772556630046027800,1.28502783203125,-0.8325958251953125,-0.48699951171875,-0.070220947265625
1772556630056012500,1.295012451171875,-0.8512115478515625,-0.4894256591796875,-0.0758514404296875
1772556630065996500,1.30499658203125,-0.868682861328125,-0.489593505859375,-0.077789306640625
1772556630075980500,1.31498046875,-0.87713623046875,-0.4885101318359375,-0.0783233642578125
1772556630085964800,1.32496484375,-0.8774871826171875,-0.4797210693359375,-0.0783233642578125
1772556630095949600,1.334949462890625,-0.8798828125,-0.4701690673828125,-0.078369140625
1772556630105933600,1.34493359375,-0.873992919921875,-0.4655303955078125,-0.0830078125
1772556630115917600,1.35491748046875,-0.858001708984375,-0.45745849609375,-0.0931396484375
1772556630125902600,1.364902587890625,-0.8358612060546875,-0.4511260986328125,-0.103973388671875
1772556630135886600,1.374886474609375,-0.808074951171875,-0.460052490234375,-0.1067657470703125
1772556630145870600,1.38487060546875,-0.7765960693359375,-0.4962158203125,-0.1022186279296875
1772556630155855600,1.394855712890625,-0.752288818359375,-0.5478363037109375,-0.087158203125
1772556630165839600,1.404839599609375,-0.7409515380859375,-0.5985260009765625,-0.071044921875
1772556630175823600,1.41482373046875,-0.7432098388671875,-0.654083251953125,-0.059967041015625
1772556630185808600,1.42480859375,-0.7630767822265625,-0.6984710693359375,-0.049285888671875
1772556630195792600,1.434792724609375,-0.7962799072265625,-0.734283447265625,-0.05279541015625
1772556630205776600,1.444776611328125,-0.8473663330078125,-0.7335205078125,-0.06976318359375
1772556630215761700,1.45476171875,-0.9463043212890625,-0.680450439453125,-0.1009368896484375
1772556630225745700,1.46474560546875,-1.06512451171875,-0.619598388671875,-0.1552734375
1772556630235729700,1.474729736328125,-1.1514892578125,-0.5826263427734375,-0.221038818359375
1772556630245713700,1.484713623046875,-1.1819000244140625,-0.54400634765625,-0.284210205078125
1772556630255698700,1.49469873046875,-1.1684722900390625,-0.4889678955078125,-0.322235107421875
1772556630265682700,1.5046826171875,-1.1037139892578125,-0.4273681640625,-0.32147216796875
1772556630275666700,1.514666748046875,-1.0037841796875,-0.3736419677734375,-0.2895050048828125
1772556630285651700,1.524651611328125,-0.9047393798828125,-0.33721923828125,-0.2404022216796875
1772556630295635700,1.5346357421875,-0.830474853515625,-0.3109588623046875,-0.194244384765625
1772556630305619700,1.54461962890625,-0.7727508544921875,-0.30169677734375,-0.1598052978515625
1772556630315604700,1.554604736328125,-0.7475128173828125,-0.3072357177734375,-0.1417388916015625
1772556630325588700,1.564588623046875,-0.7395782470703125,-0.3243255615234375,-0.1353912353515625
1772556630335572700,1.57457275390625,-0.7322845458984375,-0.35675048828125,-0.1400909423828125
1772556630345557800,1.584557861328125,-0.7250213623046875,-0.385528564453125,-0.136077880859375
1772556630355538200,1.5945380859375,-0.7198028564453125,-0.4078521728515625,-0.1383819580078125
1772556630365522200,1.604522216796875,-0.721038818359375,-0.42779541015625,-0.14886474609375
1772556630375507200,1.614507080078125,-0.728790283203125,-0.447265625,-0.1587371826171875
1772556630385491200,1.6244912109375,-0.7381744384765625,-0.467926025390625,-0.17474365234375
1772556630395475200,1.63447509765625,-0.752227783203125,-0.4852294921875,-0.188629150390625
1772556630405460200,1.644460205078125,-0.7679901123046875,-0.49652099609375,-0.1951904296875
1772556630415444200,1.6544443359375,-0.782928466796875,-0.500152587890625,-0.203399658203125
1772556630425428200,1.66442822265625,-0.79400634765625,-0.497222900390625,-0.2155914306640625
1772556630435412200,1.674412109375,-0.802215576171875,-0.4946136474609375,-0.2237091064453125
1772556630445397200,1.684397216796875,-0.8088836669921875,-0.48687744140625,-0.2281951904296875
1772556630455381200,1.69438134765625,-0.81182861328125,-0.4726715087890625,-0.2299652099609375
1772556630465365200,1.704365234375,-0.8077850341796875,-0.4635162353515625,-0.2299652099609375
1772556630475350000,1.71435009765625,-0.80047607421875,-0.4578094482421875,-0.2231292724609375
1772556630485334300,1.724334228515625,-0.7908782958984375,-0.454132080078125,-0.2080535888671875
1772556630495318300,1.734318359375,-0.788116455078125,-0.4578704833984375,-0.1880340576171875
1772556630505303000,1.744302978515625,-0.7931976318359375,-0.4658203125,-0.1662750244140625
1772556630515287000,1.754287109375,-0.7902069091796875,-0.4751434326171875,-0.1542510986328125
1772556630525271300,1.764271240234375,-0.7826080322265625,-0.485321044921875,-0.1478271484375
1772556630535256000,1.774256103515625,-0.783782958984375,-0.4958038330078125,-0.149658203125
1772556630545240000,1.784239990234375,-0.7799224853515625,-0.50054931640625,-0.154998779296875
1772556630555224000,1.79422412109375,-0.7724456787109375,-0.4992828369140625,-0.1633453369140625
1772556630565209000,1.804208984375,-0.75555419921875,-0.501495361328125,-0.17877197265625
1772556630575193000,1.814193115234375,-0.7356109619140625,-0.5015106201171875,-0.1934661865234375
1772556630585177000,1.824177001953125,-0.7237701416015625,-0.4957733154296875,-0.2029876708984375
1772556630595162000,1.834162109375,-0.7191009521484375,-0.491485595703125,-0.21002197265625
1772556630605146000,1.84414599609375,-0.7159576416015625,-0.4936065673828125,-0.215972900390625
1772556630615130000,1.854130126953125,-0.7169189453125,-0.498016357421875,-0.218597412109375
1772556630625115100,1.864115234375,-0.7218170166015625,-0.499420166015625,-0.2109222412109375
1772556630635099100,1.87409912109375,-0.7308349609375,-0.496185302734375,-0.196075439453125
1772556630645083100,1.884083251953125,-0.7418975830078125,-0.489471435546875,-0.1823883056640625
1772556630655067100,1.894067138671875,-0.753387451171875,-0.4845428466796875,-0.1773834228515625
1772556630665052200,1.90405224609375,-0.7732086181640625,-0.480987548828125,-0.1721954345703125
1772556630675036200,1.9140361328125,-0.80841064453125,-0.4814300537109375,-0.1604766845703125
1772556630685020200,1.924020263671875,-0.8498382568359375,-0.48883056640625,-0.147979736328125
1772556630695005200,1.934005126953125,-0.89056396484375,-0.4920501708984375,-0.151885986328125
1772556630704989200,1.9439892578125,-0.931793212890625,-0.4820404052734375,-0.1728668212890625
1772556630714973200,1.95397314453125,-0.9732513427734375,-0.4663543701171875,-0.199493408203125
1772556630724958200,1.963958251953125,-1.0086517333984375,-0.45574951171875,-0.2198638916015625
1772556630734942200,1.973942138671875,-1.03082275390625,-0.45361328125,-0.23687744140625
1772556630744926200,1.98392626953125,-1.054901123046875,-0.4622039794921875,-0.2439727783203125
1772556630754911200,1.9939111328125,-1.05169677734375,-0.4879302978515625,-0.2447052001953125
1772556630764895200,2.003895263671875,-1.0037841796875,-0.549041748046875,-0.266357421875
1772556630774879200,2.013879150390625,-0.95068359375,-0.6230316162109375,-0.2908935546875
1772556630784864300,2.0238642578125,-0.94287109375,-0.6792449951171875,-0.287811279296875
1772556630794848300,2.03384814453125,-0.973419189453125,-0.708160400390625,-0.269866943359375
1772556630804832300,2.043832275390625,-1.039886474609375,-0.7006988525390625,-0.261871337890625
1772556630814817300,2.0538173828125,-1.1110992431640625,-0.6710205078125,-0.2657318115234375
1772556630824801300,2.06380126953125,-1.17413330078125,-0.6285247802734375,-0.26324462890625
1772556630834785300,2.073785400390625,-1.21435546875,-0.56292724609375,-0.2333984375
1772556630844770300,2.083770263671875,-1.21807861328125,-0.4781646728515625,-0.1990203857421875
1772556630854754300,2.09375439453125,-1.1867828369140625,-0.3937225341796875,-0.1732940673828125
1772556630864738300,2.10373828125,-1.1240386962890625,-0.316314697265625,-0.1561126708984375
1772556630874723000,2.11372314453125,-1.053070068359375,-0.2516326904296875,-0.1285858154296875
1772556630884707300,2.123707275390625,-0.988372802734375,-0.2155609130859375,-0.0963897705078125
1772556630894691300,2.13369140625,-0.9275360107421875,-0.2109832763671875,-0.068115234375
1772556630904675300,2.14367529296875,-0.8809051513671875,-0.2292022705078125,-0.0425872802734375
1772556630914660000,2.15366015625,-0.84954833984375,-0.262176513671875,-0.024688720703125
1772556630924644400,2.163644287109375,-0.8243865966796875,-0.308837890625,-0.018890380859375
1772556630934628400,2.17362841796875,-0.8003997802734375,-0.3569793701171875,-0.0176239013671875
1772556630944613000,2.183613037109375,-0.7857666015625,-0.392852783203125,-0.010467529296875
1772556630954597000,2.19359716796875,-0.78631591796875,-0.41650390625,0.00274658203125
1772556630964581400,2.203581298828125,-0.80242919921875,-0.4366912841796875,0.0171661376953125
1772556630974566100,2.213566162109375,-0.820892333984375,-0.4647064208984375,0.0199737548828125
1772556630984550100,2.223550048828125,-0.847381591796875,-0.48419189453125,0.0113067626953125
1772556630994534100,2.2335341796875,-0.87335205078125,-0.48748779296875,-0.003509521484375
1772556631004519200,2.243519287109375,-0.8848419189453125,-0.4730377197265625,-0.0279083251953125
1772556631014503200,2.253503173828125,-0.8852386474609375,-0.4537353515625,-0.0559539794921875
1772556631024487200,2.263487060546875,-0.8798065185546875,-0.4408721923828125,-0.08563232421875
1772556631034472200,2.27347216796875,-0.8696441650390625,-0.4320526123046875,-0.1187591552734375
1772556631044456200,2.283456298828125,-0.8504638671875,-0.4217987060546875,-0.149322509765625
1772556631054440200,2.293440185546875,-0.822113037109375,-0.4145660400390625,-0.1751708984375
1772556631064425200,2.30342529296875,-0.7973785400390625,-0.411834716796875,-0.1900482177734375
1772556631074409200,2.3134091796875,-0.7803955078125,-0.40972900390625,-0.1928558349609375
1772556631084393000,2.32339306640625,-0.7760009765625,-0.411102294921875,-0.1796417236328125
1772556631094378200,2.333378173828125,-0.776275634765625,-0.4182891845703125,-0.16009521484375
1772556631104362200,2.3433623046875,-0.7709808349609375,-0.4216766357421875,-0.1365203857421875
1772556631114346000,2.353345947265625,-0.76336669921875,-0.4274749755859375,-0.11962890625
1772556631124331300,2.363331298828125,-0.758331298828125,-0.434234619140625,-0.1058197021484375
1772556631134315300,2.373315185546875,-0.7592926025390625,-0.43927001953125,-0.096038818359375
1772556631144299000,2.383299072265625,-0.75592041015625,-0.4422760009765625,-0.0919189453125
1772556631154284300,2.3932841796875,-0.7498016357421875,-0.4439239501953125,-0.0925445556640625
1772556631164268300,2.403268310546875,-0.749114990234375,-0.4411163330078125,-0.0983428955078125
1772556631174252000,2.413251953125,-0.75665283203125,-0.437255859375,-0.1061553955078125
1772556631184236000,2.423236083984375,-0.764617919921875,-0.439910888671875,-0.113006591796875
1772556631194221300,2.43322119140625,-0.7666473388671875,-0.44488525390625,-0.114288330078125
1772556631204205000,2.443205078125,-0.7666778564453125,-0.44549560546875,-0.1085968017578125
1772556631214189000,2.45318896484375,-0.76922607421875,-0.4525604248046875,-0.097412109375
1772556631224174000,2.463174072265625,-0.778167724609375,-0.4598236083984375,-0.0845489501953125
1772556631234158000,2.473157958984375,-0.7903289794921875,-0.464080810546875,-0.072296142578125
1772556631244142000,2.48314208984375,-0.8113250732421875,-0.467437744140625,-0.0680389404296875
1772556631254127000,2.493127197265625,-0.83294677734375,-0.4705657958984375,-0.0714263916015625
1772556631264111000,2.503111083984375,-0.8547821044921875,-0.4743804931640625,-0.0797119140625
1772556631274095000,2.51309521484375,-0.8703765869140625,-0.4860382080078125,-0.0872039794921875
1772556631284080000,2.523080078125,-0.8840789794921875,-0.5033416748046875,-0.0879364013671875
1772556631294064000,2.533064208984375,-0.8996734619140625,-0.5189971923828125,-0.0824737548828125
1772556631304048000,2.543048095703125,-0.910125732421875,-0.5313568115234375,-0.07611083984375
1772556631314033200,2.553033203125,-0.9273834228515625,-0.5440673828125,-0.075103759765625
1772556631324017200,2.56301708984375,-0.9533233642578125,-0.556396484375,-0.0726318359375
1772556631334001200,2.573001220703125,-0.963104248046875,-0.5799102783203125,-0.068695068359375
1772556631343986000,2.58298583984375,-0.9533538818359375,-0.6174774169921875,-0.0615386962890625
1772556631353969700,2.5929697265625,-0.9543914794921875,-0.629974365234375,-0.0388031005859375
1772556631363953700,2.60295361328125,-0.968719482421875,-0.6112060546875,-0.0162353515625
1772556631373938700,2.612938720703125,-1.0140380859375,-0.5646820068359375,-0.0157318115234375
1772556631383922700,2.622922607421875,-1.0622100830078125,-0.536865234375,-0.05352783203125
1772556631393906700,2.63290673828125,-1.1109161376953125,-0.5113525390625,-0.0943603515625
1772556631403891700,2.6428916015625,-1.1776885986328125,-0.451690673828125,-0.1083984375
1772556631413875500,2.65287548828125,-1.232147216796875,-0.39080810546875,-0.1295166015625
1772556631423859700,2.662859619140625,-1.2346649169921875,-0.34588623046875,-0.1743316650390625
1772556631433844500,2.672844482421875,-1.1933441162109375,-0.3209075927734375,-0.234100341796875
1772556631443828500,2.682828369140625,-1.1176605224609375,-0.311248779296875,-0.291107177734375
1772556631453812500,2.6928125,-1.0279693603515625,-0.3015289306640625,-0.32196044921875
1772556631463796700,2.702796630859375,-0.95037841796875,-0.2992401123046875,-0.3208160400390625
1772556631473781500,2.712781494140625,-0.90435791015625,-0.3047332763671875,-0.294647216796875
1772556631483765500,2.722765625,-0.91064453125,-0.32489013671875,-0.27130126953125
1772556631493749500,2.73274951171875,-0.9361114501953125,-0.3599853515625,-0.2518768310546875
1772556631503734500,2.742734619140625,-0.9587554931640625,-0.39337158203125,-0.232208251953125
1772556631513718500,2.752718505859375,-0.9633026123046875,-0.41766357421875,-0.210693359375
1772556631523702500,2.76270263671875,-0.9499664306640625,-0.437530517578125,-0.183258056640625
1772556631533687600,2.7726875,-0.9298248291015625,-0.4528656005859375,-0.1564178466796875
1772556631543671600,2.782671630859375,-0.91705322265625,-0.4654388427734375,-0.1259918212890625
1772556631553655600,2.792655517578125,-0.9134063720703125,-0.472503662109375,-0.095245361328125
1772556631563640600,2.802640625,-0.9150238037109375,-0.47552490234375,-0.06951904296875
1772556631573624600,2.81262451171875,-0.9194183349609375,-0.4799652099609375,-0.05291748046875
1772556631583608600,2.822608642578125,-0.9207000732421875,-0.48260498046875,-0.042694091796875
1772556631593593600,2.832593505859375,-0.9116363525390625,-0.4776611328125,-0.0401458740234375
1772556631603577600,2.84257763671875,-0.8985137939453125,-0.463958740234375,-0.0411834716796875
1772556631613561600,2.8525615234375,-0.878387451171875,-0.4466705322265625,-0.043060302734375
1772556631623546600,2.862546630859375,-0.857818603515625,-0.430908203125,-0.0494842529296875
1772556631633530600,2.872530517578125,-0.833984375,-0.418914794921875,-0.058441162109375
1772556631643514600,2.8825146484375,-0.8026885986328125,-0.40777587890625,-0.0687103271484375
1772556631653499600,2.892499755859375,-0.7794342041015625,-0.4008941650390625,-0.0788116455078125
1772556631663483600,2.902483642578125,-0.7627105712890625,-0.4078216552734375,-0.088409423828125
1772556631673467600,2.912467529296875,-0.749908447265625,-0.4267730712890625,-0.0991058349609375
1772556631683452700,2.92245263671875,-0.74090576171875,-0.447723388671875,-0.1005096435546875
1772556631693436700,2.932436767578125,-0.73193359375,-0.465118408203125,-0.101409912109375
1772556631703420700,2.942420654296875,-0.7241363525390625,-0.479034423828125,-0.09942626953125
1772556631713405700,2.95240576171875,-0.71795654296875,-0.4895172119140625,-0.1019744873046875
1772556631723389700,2.9623896484375,-0.7145538330078125,-0.49456787109375,-0.1035308837890625
1772556631733373700,2.972373779296875,-0.7071533203125,-0.4898681640625,-0.0972900390625
1772556631743357700,2.982357666015625,-0.69183349609375,-0.4741363525390625,-0.0887298583984375
1772556631753342700,2.9923427734375,-0.6757659912109375,-0.454376220703125,-0.087310791015625
1772556631763326700,3.00232666015625,-0.6589508056640625,-0.44287109375,-0.0884857177734375
1772556631773310700,3.012310791015625,-0.6437530517578125,-0.441650390625,-0.09271240234375
1772556631783295700,3.022295654296875,-0.6351165771484375,-0.4396514892578125,-0.0955810546875
1772556631793279700,3.03227978515625,-0.64166259765625,-0.4385223388671875,-0.0982513427734375
1772556631803263700,3.042263671875,-0.657745361328125,-0.4439849853515625,-0.0997314453125
1772556631813248500,3.05224853515625,-0.6884765625,-0.4544525146484375,-0.0997161865234375
1772556631823232800,3.062232666015625,-0.730560302734375,-0.4694976806640625,-0.0982513427734375
1772556631833216800,3.072216796875,-0.7671661376953125,-0.4896240234375,-0.110809326171875
1772556631843201500,3.082201416015625,-0.7981109619140625,-0.503814697265625,-0.1393280029296875
1772556631853185500,3.092185546875,-0.831268310546875,-0.5077972412109375,-0.1710968017578125
1772556631863169800,3.102169677734375,-0.8703765869140625,-0.5190887451171875,-0.2042083740234375
1772556631873154600,3.112154541015625,-0.9148712158203125,-0.525482177734375,-0.2290496826171875
1772556631883138600,3.122138671875,-0.9613037109375,-0.5284576416015625,-0.2506103515625
1772556631893122600,3.13212255859375,-0.9767608642578125,-0.529052734375,-0.265655517578125
1772556631903107600,3.142107666015625,-0.9655609130859375,-0.5230865478515625,-0.271820068359375
1772556631913091600,3.152091552734375,-0.9408721923828125,-0.520477294921875,-0.2601776123046875
1772556631923075600,3.16207568359375,-0.8959197998046875,-0.553466796875,-0.2451171875
1772556631933060600,3.172060546875,-0.8341217041015625,-0.6380615234375,-0.2370452880859375
1772556631943044600,3.182044677734375,-0.816375732421875,-0.704376220703125,-0.21026611328125
1772556631953028600,3.192028564453125,-0.827667236328125,-0.7471160888671875,-0.19268798828125
1772556631963013600,3.202013671875,-0.865142822265625,-0.78350830078125,-0.192718505859375
1772556631972997600,3.21199755859375,-0.9254913330078125,-0.791229248046875,-0.1949920654296875
1772556631982981600,3.221981689453125,-1.0072174072265625,-0.7362213134765625,-0.1869964599609375
1772556631992966700,3.231966552734375,-1.126861572265625,-0.611297607421875,-0.17279052734375
1772556632002950700,3.24195068359375,-1.2418212890625,-0.4822998046875,-0.163818359375
1772556632012934700,3.2519345703125,-1.3240966796875,-0.3784942626953125,-0.147979736328125
1772556632022919700,3.261919677734375,-1.345703125,-0.29296875,-0.1384735107421875
1772556632032903700,3.271903564453125,-1.2637786865234375,-0.2380523681640625,-0.13116455078125
1772556632042887700,3.2818876953125,-1.103179931640625,-0.2205963134765625,-0.1251983642578125
1772556632052872700,3.291872802734375,-0.95489501953125,-0.229248046875,-0.1083221435546875
1772556632062856700,3.301856689453125,-0.84368896484375,-0.260528564453125,-0.0770416259765625
1772556632072840700,3.3118408203125,-0.7823944091796875,-0.3174896240234375,-0.062103271484375
1772556632082824700,3.32182470703125,-0.7906951904296875,-0.3837738037109375,-0.0592193603515625
1772556632092809700,3.331809814453125,-0.8243255615234375,-0.434417724609375,-0.061859130859375
1772556632102793700,3.341793701171875,-0.8486785888671875,-0.46319580078125,-0.064727783203125
1772556632112777700,3.35177783203125,-0.86944580078125,-0.4731903076171875,-0.071624755859375
1772556632122762800,3.3617626953125,-0.8797607421875,-0.4755706787109375,-0.0788421630859375
1772556632132746800,3.371746826171875,-0.8860015869140625,-0.477386474609375,-0.0839385986328125
1772556632142730800,3.381730712890625,-0.8923797607421875,-0.47344970703125,-0.097747802734375
1772556632152715800,3.3917158203125,-0.897186279296875,-0.4562835693359375,-0.112548828125
1772556632162699800,3.40169970703125,-0.8977203369140625,-0.4389190673828125,-0.1410675048828125
1772556632172683800,3.411683837890625,-0.8787994384765625,-0.4349365234375,-0.1882781982421875
1772556632182668800,3.421668701171875,-0.85272216796875,-0.4367828369140625,-0.237396240234375
1772556632192652800,3.43165283203125,-0.830902099609375,-0.4388580322265625,-0.2720794677734375
1772556632202636800,3.44163671875,-0.81317138671875,-0.441314697265625,-0.2911376953125
1772556632212621600,3.45162158203125,-0.8006744384765625,-0.4460906982421875,-0.3039703369140625
1772556632222605800,3.461605712890625,-0.7879791259765625,-0.4463653564453125,-0.3038482666015625
1772556632232589800,3.47158984375,-0.78265380859375,-0.4358367919921875,-0.272857666015625
1772556632242574600,3.48157470703125,-0.7810821533203125,-0.4277191162109375,-0.22503662109375
1772556632252558600,3.49155859375,-0.783050537109375,-0.425201416015625,-0.1802215576171875
1772556632262542800,3.50154296875,-0.7856903076171875,-0.422088623046875,-0.1427154541015625
1772556632272527600,3.511527587890625,-0.790924072265625,-0.414581298828125,-0.1106109619140625
1772556632282511600,3.52151171875,-0.785186767578125,-0.4111785888671875,-0.0882415771484375
1772556632292495600,3.53149560546875,-0.773834228515625,-0.41094970703125,-0.083160400390625
1772556632302480600,3.541480712890625,-0.7576904296875,-0.4149169921875,-0.0880889892578125
1772556632312464600,3.551464599609375,-0.7366943359375,-0.418975830078125,-0.0998382568359375
1772556632322448600,3.56144873046875,-0.7192535400390625,-0.41546630859375,-0.109161376953125
1772556632332433700,3.57143359375,-0.707244873046875,-0.408447265625,-0.116424560546875
1772556632342417700,3.581417724609375,-0.69403076171875,-0.4067230224609375,-0.125762939453125
1772556632352401700,3.591401611328125,-0.6911163330078125,-0.4063568115234375,-0.13848876953125
1772556632362386400,3.601386474609375,-0.69671630859375,-0.410125732421875,-0.1401519775390625
1772556632372370400,3.611370361328125,-0.71258544921875,-0.421783447265625,-0.1401519775390625
1772556632382354400,3.6213544921875,-0.731964111328125,-0.436065673828125,-0.1507568359375
1772556632392338400,3.63133837890625,-0.7477264404296875,-0.44921875,-0.1672821044921875
1772556632402323500,3.641323486328125,-0.7592926025390625,-0.469451904296875,-0.1842803955078125
1772556632412307500,3.651307373046875,-0.7711029052734375,-0.4994354248046875,-0.20550537109375
1772556632422291500,3.66129150390625,-0.7948150634765625,-0.525848388671875,-0.2195892333984375
1772556632432276500,3.6712763671875,-0.83233642578125,-0.5500946044921875,-0.21673583984375
1772556632442260500,3.681260498046875,-0.8676910400390625,-0.5701141357421875,-0.2083282470703125
1772556632452244500,3.691244384765625,-0.9002838134765625,-0.5786590576171875,-0.200958251953125
1772556632462229500,3.7012294921875,-0.91802978515625,-0.5897064208984375,-0.192291259765625
1772556632472213500,3.711213623046875,-0.9145660400390625,-0.637176513671875,-0.1914215087890625
1772556632482197500,3.721197509765625,-0.9221038818359375,-0.688812255859375,-0.171875
1772556632492182500,3.7311826171875,-0.9579620361328125,-0.6851348876953125,-0.1329345703125
1772556632502166500,3.74116650390625,-1.0077056884765625,-0.6838531494140625,-0.124542236328125
1772556632512150500,3.751150634765625,-1.0872344970703125,-0.6629791259765625,-0.138671875
1772556632522135600,3.761135498046875,-1.2295379638671875,-0.5491943359375,-0.162841796875
1772556632532119600,3.77111962890625,-1.3417816162109375,-0.435211181640625,-0.2125244140625
1772556632542103600,3.781103515625,-1.352996826171875,-0.389373779296875,-0.290313720703125
1772556632552088600,3.791088623046875,-1.28643798828125,-0.365936279296875,-0.365264892578125
1772556632562072600,3.801072509765625,-1.1783294677734375,-0.3428802490234375,-0.4189910888671875
1772556632572056600,3.811056640625,-1.0537872314453125,-0.3269805908203125,-0.443267822265625
1772556632582041600,3.82104150390625,-0.9446258544921875,-0.319915771484375,-0.430572509765625
1772556632592025600,3.831025634765625,-0.8753662109375,-0.3118743896484375,-0.3776397705078125
1772556632602009600,3.841009521484375,-0.8582305908203125,-0.316558837890625,-0.3207550048828125
1772556632611994600,3.85099462890625,-0.87017822265625,-0.351470947265625,-0.2903900146484375
1772556632621978600,3.860978515625,-0.8688507080078125,-0.4024505615234375,-0.270111083984375
1772556632631962600,3.870962646484375,-0.85772705078125,-0.4485931396484375,-0.248443603515625
1772556632641947400,3.880947509765625,-0.8395538330078125,-0.4768829345703125,-0.2177886962890625
1772556632651931600,3.890931640625,-0.8163909912109375,-0.48602294921875,-0.1808013916015625
1772556632661915600,3.90091552734375,-0.7947845458984375,-0.4850311279296875,-0.1501617431640625
1772556632671900400,3.910900390625,-0.7840576171875,-0.477020263671875,-0.1267242431640625
1772556632681884400,3.920884521484375,-0.7943878173828125,-0.4608917236328125,-0.1090545654296875
1772556632691868400,3.930868408203125,-0.82073974609375,-0.4524993896484375,-0.1046905517578125
1772556632701853400,3.940853515625,-0.8448638916015625,-0.4511260986328125,-0.104644775390625
1772556632711837400,3.95083740234375,-0.8490447998046875,-0.44403076171875,-0.10003662109375
1772556632721821400,3.960821533203125,-0.838287353515625,-0.4298553466796875,-0.1016082763671875
1772556632731805400,3.970805419921875,-0.8111114501953125,-0.4145050048828125,-0.1100921630859375
1772556632741790500,3.98079052734375,-0.7818603515625,-0.4021453857421875,-0.1150970458984375
1772556632751774500,3.9907744140625,-0.7586822509765625,-0.3944244384765625,-0.124542236328125
1772556632761755400,4.00075537109375,-0.7365875244140625,-0.3933258056640625,-0.12890625
1772556632771740400,4.010740478515625,-0.723175048828125,-0.397247314453125,-0.13250732421875
1772556632781724400,4.020724365234375,-0.7250518798828125,-0.4089202880859375,-0.14202880859375
1772556632791708400,4.03070849609375,-0.735321044921875,-0.427032470703125,-0.1457977294921875
1772556632801693400,4.040693359375,-0.7447967529296875,-0.4387969970703125,-0.1446533203125
1772556632811677400,4.050677490234375,-0.7520599365234375,-0.445892333984375,-0.1444244384765625
1772556632821661400,4.060661376953125,-0.7565460205078125,-0.451446533203125,-0.1421661376953125
1772556632831646500,4.070646484375,-0.75762939453125,-0.453826904296875,-0.1415863037109375
1772556632841630500,4.08063037109375,-0.74847412109375,-0.4525146484375,-0.14398193359375
1772556632851614500,4.090614501953125,-0.7359161376953125,-0.45343017578125,-0.1433258056640625
1772556632861599500,4.100599609375,-0.7219390869140625,-0.4558868408203125,-0.148529052734375
1772556632871583500,4.11058349609375,-0.707183837890625,-0.4507598876953125,-0.1528778076171875
1772556632881567500,4.1205673828125,-0.6900482177734375,-0.446380615234375,-0.1576385498046875
1772556632891552500,4.130552490234375,-0.6715087890625,-0.4478607177734375,-0.1634368896484375
1772556632901536500,4.14053662109375,-0.66064453125,-0.455413818359375,-0.1622314453125
1772556632911520500,4.1505205078125,-0.657501220703125,-0.466552734375,-0.152496337890625
1772556632921504500,4.16050439453125,-0.67156982421875,-0.48291015625,-0.1387176513671875
1772556632931489500,4.170489501953125,-0.7061767578125,-0.5036163330078125,-0.122467041015625
1772556632941473500,4.1804736328125,-0.7430419921875,-0.521636962890625,-0.1076812744140625
1772556632951457500,4.19045751953125,-0.7855224609375,-0.5333404541015625,-0.09466552734375
1772556632961442600,4.200442626953125,-0.826690673828125,-0.536956787109375,-0.09564208984375
1772556632971426600,4.210426513671875,-0.8782958984375,-0.5347442626953125,-0.113525390625
1772556632981410600,4.22041064453125,-0.9340972900390625,-0.5213623046875,-0.13409423828125
1772556632991395600,4.2303955078125,-0.9853515625,-0.504791259765625,-0.160064697265625
1772556633001379600,4.240379638671875,-1.0223846435546875,-0.49017333984375,-0.191436767578125
1772556633011363600,4.250363525390625,-1.0423126220703125,-0.4743499755859375,-0.226898193359375
1772556633021348400,4.260348388671875,-1.0411376953125,-0.4645843505859375,-0.260589599609375
1772556633031332600,4.27033251953125,-1.017669677734375,-0.48284912109375,-0.29290771484375
1772556633041316600,4.280316650390625,-0.966583251953125,-0.549713134765625,-0.334808349609375
1772556633051301400,4.29030126953125,-0.935089111328125,-0.615692138671875,-0.3489227294921875
1772556633061285400,4.300285400390625,-0.9490966796875,-0.6442718505859375,-0.3245086669921875
1772556633071269600,4.31026953125,-0.9810791015625,-0.6849365234375,-0.300018310546875
1772556633081254400,4.32025439453125,-1.0324249267578125,-0.732177734375,-0.2807464599609375
1772556633091238400,4.33023828125,-1.1124267578125,-0.7512054443359375,-0.2475738525390625
1772556633101222400,4.340222412109375,-1.2140350341796875,-0.7094573974609375,-0.1796722412109375
1772556633111207400,4.35020751953125,-1.3266448974609375,-0.61700439453125,-0.100494384765625
1772556633121191400,4.36019140625,-1.3764801025390625,-0.5301513671875,-0.065765380859375
1772556633131175400,4.370175537109375,-1.360504150390625,-0.4539642333984375,-0.057220458984375
1772556633141160400,4.380160400390625,-1.2763671875,-0.3642730712890625,-0.04998779296875
1772556633151144400,4.39014453125,-1.150726318359375,-0.2877044677734375,-0.04632568359375
1772556633161128400,4.40012841796875,-1.020904541015625,-0.2531280517578125,-0.0223388671875
1772556633171113500,4.410113525390625,-0.899505615234375,-0.25732421875,0.0373992919921875
1772556633181097500,4.420097412109375,-0.8306884765625,-0.291046142578125,0.09869384765625
1772556633191082500,4.43008251953125,-0.8087158203125,-0.3339691162109375,0.1367034912109375
1772556633201067500,4.440067626953125,-0.818328857421875,-0.379791259765625,0.1645660400390625
1772556633211051500,4.450051513671875,-0.8194580078125,-0.412689208984375,0.1745758056640625
1772556633221035500,4.460035400390625,-0.8057708740234375,-0.4498138427734375,0.1665496826171875
1772556633231020500,4.4700205078125,-0.782318115234375,-0.486083984375,0.1513214111328125
1772556633241004500,4.480004638671875,-0.7729949951171875,-0.507476806640625,0.1415252685546875
1772556633250988500,4.489988525390625,-0.7657623291015625,-0.507049560546875,0.131927490234375
1772556633260973600,4.4999736328125,-0.768280029296875,-0.49139404296875,0.1209869384765625
1772556633270957600,4.50995751953125,-0.7845458984375,-0.469879150390625,0.104156494140625
1772556633280941600,4.519941650390625,-0.804168701171875,-0.4531097412109375,0.07470703125
1772556633290926300,4.52992626953125,-0.8170318603515625,-0.4398193359375,0.0284271240234375
1772556633300910600,4.53991064453125,-0.8135223388671875,-0.428253173828125,-0.02685546875
1772556633310894600,4.54989453125,-0.8070526123046875,-0.423065185546875,-0.0836029052734375
1772556633320879400,4.55987939453125,-0.80224609375,-0.4283905029296875,-0.12823486328125
1772556633330863400,4.56986328125,-0.786102294921875,-0.4400177001953125,-0.157073974609375
1772556633340847600,4.57984765625,-0.7652740478515625,-0.452911376953125,-0.1664276123046875
1772556633350832400,4.589832275390625,-0.7472076416015625,-0.46435546875,-0.161590576171875
1772556633360818200,4.599818115234375,-0.734619140625,-0.4748992919921875,-0.14306640625
1772556633370802200,4.60980224609375,-0.722442626953125,-0.4813995361328125,-0.121856689453125
1772556633380786200,4.6197861328125,-0.7141876220703125,-0.4828033447265625,-0.1004486083984375
1772556633390771200,4.629771240234375,-0.7143096923828125,-0.486419677734375,-0.075347900390625
1772556633400755200,4.639755126953125,-0.7188873291015625,-0.4928741455078125,-0.044525146484375
1772556633410739200,4.6497392578125,-0.72412109375,-0.5034332275390625,-0.0250701904296875
1772556633420724200,4.65972412109375,-0.7279510498046875,-0.512420654296875,-0.01177978515625
1772556633430708200,4.669708251953125,-0.7296142578125,-0.5169525146484375,-0.0113983154296875
1772556633440692200,4.679692138671875,-0.730987548828125,-0.5169677734375,-0.0213470458984375
1772556633450677200,4.68967724609375,-0.73162841796875,-0.5055694580078125,-0.032958984375
1772556633460661200,4.6996611328125,-0.7356109619140625,-0.4943389892578125,-0.047576904296875
1772556633470645200,4.709645263671875,-0.739471435546875,-0.4800262451171875,-0.0605621337890625
1772556633480630300,4.71963037109375,-0.7366943359375,-0.4719085693359375,-0.0644989013671875
1772556633490614300,4.7296142578125,-0.735260009765625,-0.4697265625,-0.065460205078125
1772556633500598300,4.739598388671875,-0.7438507080078125,-0.4691314697265625,-0.054901123046875
1772556633510583000,4.7495830078125,-0.763092041015625,-0.467010498046875,-0.02825927734375
1772556633520567300,4.7595673828125,-0.7778778076171875,-0.469818115234375,-0.002532958984375
1772556633530551300,4.76955126953125,-0.805267333984375,-0.4835357666015625,0.0291748046875
1772556633540536000,4.7795361328125,-0.841796875,-0.5120086669921875,0.0657958984375
1772556633550520000,4.78952001953125,-0.862762451171875,-0.5245819091796875,0.090728759765625
1772556633560504300,4.79950439453125,-0.882476806640625,-0.5179290771484375,0.0973968505859375
1772556633570489000,4.809489013671875,-0.90203857421875,-0.5222320556640625,0.0922088623046875
1772556633580473000,4.81947314453125,-0.9261016845703125,-0.535308837890625,0.0870513916015625
1772556633590457000,4.82945703125,-0.9543914794921875,-0.5428924560546875,0.0990753173828125
1772556633600442000,4.839442138671875,-0.983917236328125,-0.5458526611328125,0.108001708984375
1772556633610426000,4.849426025390625,-0.9936370849609375,-0.5590057373046875,0.108551025390625
1772556633620410000,4.85941015625,-0.976409912109375,-0.5921630859375,0.10791015625
1772556633630395100,4.86939501953125,-0.9816436767578125,-0.6224822998046875,0.11480712890625
1772556633640379100,4.879379150390625,-1.0060882568359375,-0.6156463623046875,0.1401824951171875
1772556633650363100,4.889363037109375,-1.0560455322265625,-0.5829010009765625,0.1543731689453125
1772556633660348200,4.89934814453125,-1.1411285400390625,-0.553131103515625,0.1390838623046875
1772556633670332200,4.909332275390625,-1.24188232421875,-0.507354736328125,0.114410400390625
1772556633680316200,4.919316162109375,-1.2994537353515625,-0.4375152587890625,0.0657958984375
1772556633690301200,4.92930126953125,-1.29876708984375,-0.37078857421875,-0.0041961669921875
1772556633700285200,4.93928515625,-1.2519378662109375,-0.3169097900390625,-0.0952606201171875
1772556633710269200,4.949269287109375,-1.165374755859375,-0.2861175537109375,-0.1869659423828125
1772556633720254200,4.959254150390625,-1.05609130859375,-0.2804718017578125,-0.25384521484375
1772556633730238200,4.96923828125,-0.9704742431640625,-0.285400390625,-0.27545166015625
1772556633740222200,4.97922216796875,-0.926300048828125,-0.29705810546875,-0.2500762939453125
1772556633750207200,4.989207275390625,-0.9362640380859375,-0.31988525390625,-0.1962432861328125
1772556633760191200,4.999191162109375,-0.957366943359375,-0.35845947265625,-0.1490020751953125
1772556633770175200,5.00917529296875,-0.9530792236328125,-0.4023895263671875,-0.1090240478515625
1772556633780160300,5.01916015625,-0.936798095703125,-0.4432373046875,-0.0689697265625
1772556633790144300,5.029144287109375,-0.9183502197265625,-0.470184326171875,-0.0273895263671875
1772556633800128300,5.039128173828125,-0.8819732666015625,-0.504364013671875,0.012054443359375
1772556633810112300,5.0491123046875,-0.8556060791015625,-0.5305328369140625,0.0230865478515625
1772556633820097300,5.05909716796875,-0.859039306640625,-0.5400848388671875,0.0364837646484375
1772556633830081300,5.069081298828125,-0.8840179443359375,-0.540130615234375,0.049285888671875
1772556633840065300,5.079065185546875,-0.9084014892578125,-0.545684814453125,0.0551910400390625
1772556633850050300,5.08905029296875,-0.9239959716796875,-0.5459136962890625,0.0666656494140625
1772556633860034300,5.099034423828125,-0.9237213134765625,-0.5325927734375,0.0758514404296875
1772556633870018300,5.109018310546875,-0.904541015625,-0.5091552734375,0.085968017578125
1772556633880003300,5.11900341796875,-0.8843994140625,-0.491912841796875,0.0892333984375
1772556633889987300,5.1289873046875,-0.863250732421875,-0.475128173828125,0.0837249755859375
1772556633899971300,5.138971435546875,-0.8327484130859375,-0.454376220703125,0.070037841796875
1772556633909956000,5.1489560546875,-0.7916412353515625,-0.4383087158203125,0.04534912109375
1772556633919940400,5.1589404296875,-0.780517578125,-0.4308624267578125,0.030853271484375
1772556633929924400,5.16892431640625,-0.7764739990234375,-0.428741455078125,0.0179595947265625
1772556633939909000,5.1789091796875,-0.758575439453125,-0.4354400634765625,0.00830078125
1772556633949893000,5.18889306640625,-0.7482452392578125,-0.445556640625,-0.0010223388671875
1772556633959877400,5.19887744140625,-0.714874267578125,-0.4519195556640625,-0.0027618408203125
1772556633969862100,5.208862060546875,-0.694549560546875,-0.4510498046875,0.012420654296875
1772556633979846100,5.21884619140625,-0.6890106201171875,-0.4577789306640625,0.0127410888671875
1772556633989830100,5.228830078125,-0.6747283935546875,-0.46246337890625,0.0109100341796875
1772556633999815200,5.238815185546875,-0.6668548583984375,-0.467010498046875,0.014739990234375
1772556634009799200,5.248799072265625,-0.65692138671875,-0.4766693115234375,0.02105712890625
1772556634019783200,5.258783203125,-0.6579742431640625,-0.471649169921875,0.03375244140625
1772556634029768200,5.268768310546875,-0.6616363525390625,-0.4741058349609375,0.046478271484375
1772556634039752200,5.278752197265625,-0.6663970947265625,-0.47393798828125,0.0507049560546875
1772556634049736000,5.28873583984375,-0.665313720703125,-0.4778289794921875,0.0556640625
1772556634059721200,5.29872119140625,-0.6523590087890625,-0.4833526611328125,0.0662384033203125
1772556634069705200,5.308705322265625,-0.67120361328125,-0.48046875,0.0718841552734375
1772556634079689000,5.31868896484375,-0.669891357421875,-0.4929656982421875,0.0666351318359375
1772556634089674200,5.32867431640625,-0.6729278564453125,-0.5050506591796875,0.061737060546875
1772556634099658200,5.338658203125,-0.707672119140625,-0.5130462646484375,0.0559234619140625
1772556634109642000,5.34864208984375,-0.737060546875,-0.52593994140625,0.03668212890625
1772556634119627300,5.358627197265625,-0.7670745849609375,-0.5485687255859375,0.0147552490234375
1772556634129611300,5.368611328125,-0.8246612548828125,-0.5654144287109375,0.000244140625
1772556634139595000,5.378594970703125,-0.8925018310546875,-0.5723419189453125,-0.006561279296875
1772556634149580300,5.388580322265625,-0.9521484375,-0.569915771484375,-0.019287109375
1772556634159564300,5.398564208984375,-1.00592041015625,-0.561065673828125,-0.0388336181640625
1772556634169548000,5.408548095703125,-1.0456085205078125,-0.5464935302734375,-0.0473175048828125
1772556634179533300,5.418533203125,-1.055206298828125,-0.5323486328125,-0.0554046630859375
1772556634189517300,5.428517333984375,-1.0414276123046875,-0.528717041015625,-0.064239501953125
1772556634199501000,5.4385009765625,-1.007232666015625,-0.53106689453125,-0.0762786865234375
1772556634209486300,5.448486328125,-0.9542388916015625,-0.572998046875,-0.08209228515625
1772556634219470000,5.458469970703125,-0.9664764404296875,-0.636871337890625,-0.0596466064453125
1772556634229454000,5.4684541015625,-1.03765869140625,-0.683197021484375,-0.0054779052734375
1772556634239438000,5.47843798828125,-1.09722900390625,-0.7176361083984375,0.0665740966796875
1772556634249423000,5.488423095703125,-1.16815185546875,-0.7347259521484375,0.1018218994140625
1772556634259407000,5.498406982421875,-1.2238922119140625,-0.725494384765625,0.133514404296875
1772556634269391000,5.50839111328125,-1.264190673828125,-0.6652069091796875,0.173370361328125
1772556634279376100,5.518376220703125,-1.274658203125,-0.5623779296875,0.1986083984375
1772556634289360100,5.528360107421875,-1.2330169677734375,-0.4541778564453125,0.19915771484375
1772556634299344100,5.53834423828125,-1.1807861328125,-0.3682861328125,0.1773681640625
1772556634309329200,5.5483291015625,-1.1106719970703125,-0.2938232421875,0.1553955078125
1772556634319313200,5.558313232421875,-1.0156707763671875,-0.2283782958984375,0.151397705078125
1772556634329297200,5.568297119140625,-0.92236328125,-0.199676513671875,0.1565399169921875
1772556634339282000,5.578281982421875,-0.873779296875,-0.222930908203125,0.1690216064453125
1772556634349266200,5.58826611328125,-0.843292236328125,-0.277435302734375,0.1857147216796875
1772556634359249700,5.598249755859375,-0.811065673828125,-0.3341064453125,0.20147705078125
1772556634369234700,5.608234619140625,-0.7841644287109375,-0.37158203125,0.2182464599609375
1772556634379218700,5.61821875,-0.757171630859375,-0.3981475830078125,0.2193756103515625
1772556634389202700,5.62820263671875,-0.73297119140625,-0.4229278564453125,0.21844482421875
1772556634399187500,5.6381875,-0.74169921875,-0.44158935546875,0.223297119140625
1772556634409171500,5.64817138671875,-0.7549591064453125,-0.4507598876953125,0.22772216796875
1772556634419155700,5.65815576171875,-0.757568359375,-0.45843505859375,0.209259033203125
1772556634429140500,5.668140380859375,-0.759979248046875,-0.4609832763671875,0.17669677734375
1772556634439124500,5.67812451171875,-0.739776611328125,-0.4719085693359375,0.1343536376953125
1772556634449108500,5.6881083984375,-0.764251708984375,-0.4698638916015625,0.0978546142578125
1772556634459093500,5.698093505859375,-0.77557373046875,-0.4636077880859375,0.0582427978515625
1772556634469077500,5.708077392578125,-0.787841796875,-0.463531494140625,0.023040771484375
1772556634479061500,5.7180615234375,-0.8095855712890625,-0.465057373046875,-0.0094146728515625
1772556634489046500,5.728046630859375,-0.8278045654296875,-0.4600067138671875,-0.0256195068359375
1772556634499030500,5.738030517578125,-0.8285980224609375,-0.449676513671875,-0.02471923828125
1772556634509014500,5.7480146484375,-0.82366943359375,-0.4470062255859375,-0.0208282470703125
1772556634518999600,5.75799951171875,-0.813446044921875,-0.4486846923828125,-0.0124359130859375
1772556634528983600,5.767983642578125,-0.8026123046875,-0.4574127197265625,-0.0020751953125
1772556634538967600,5.777967529296875,-0.7910003662109375,-0.4748687744140625,0.0055999755859375
1772556634548952600,5.78795263671875,-0.7789306640625,-0.4757537841796875,0.0116424560546875
1772556634558936600,5.7979365234375,-0.7650909423828125,-0.4809722900390625,0.0125732421875
1772556634568920600,5.807920654296875,-0.770263671875,-0.48052978515625,0.0174102783203125
1772556634578905600,5.817905517578125,-0.75921630859375,-0.4852142333984375,0.0247802734375
1772556634588889600,5.8278896484375,-0.770965576171875,-0.48846435546875,0.0331878662109375
1772556634598873600,5.83787353515625,-0.7937164306640625,-0.479766845703125,0.048004150390625
1772556634608858600,5.847858642578125,-0.775909423828125,-0.480255126953125,0.05010986328125
1772556634618842600,5.857842529296875,-0.7655487060546875,-0.4801788330078125,0.0556182861328125
1772556634628826600,5.86782666015625,-0.7757720947265625,-0.46612548828125,0.0732421875
1772556634638811600,5.877811767578125,-0.769561767578125,-0.4595489501953125,0.0804901123046875
1772556634648795600,5.887795654296875,-0.781890869140625,-0.46307373046875,0.078399658203125
1772556634658779600,5.897779541015625,-0.797607421875,-0.471282958984375,0.07232666015625
1772556634668764700,5.9077646484375,-0.82220458984375,-0.4753875732421875,0.0663604736328125
1772556634678748700,5.917748779296875,-0.84222412109375,-0.490386962890625,0.0552978515625
1772556634688732700,5.927732666015625,-0.865325927734375,-0.5054168701171875,0.0500030517578125
1772556634698717700,5.9377177734375,-0.8943939208984375,-0.5175933837890625,0.0516815185546875
1772556634708701700,5.94770166015625,-0.9212493896484375,-0.5303955078125,0.054168701171875
1772556634718685700,5.957685791015625,-0.940643310546875,-0.5447235107421875,0.05572509765625
1772556634728670700,5.967670654296875,-0.9436187744140625,-0.5554962158203125,0.05322265625
1772556634738654700,5.97765478515625,-0.94512939453125,-0.5497589111328125,0.061065673828125
1772556634748638700,5.987638671875,-0.9447021484375,-0.5388641357421875,0.069244384765625
1772556634758623500,5.99762353515625,-0.95538330078125,-0.5302886962890625,0.0802459716796875
1772556634768607700,6.007607666015625,-0.971527099609375,-0.525421142578125,0.0894012451171875
1772556634778591700,6.017591796875,-0.975341796875,-0.5203704833984375,0.10137939453125
1772556634788576500,6.027576416015625,-0.9619293212890625,-0.5167388916015625,0.108642578125
1772556634798560500,6.037560546875,-0.9399871826171875,-0.5286712646484375,0.110504150390625
1772556634808544500,6.04754443359375,-0.9309234619140625,-0.550262451171875,0.1291351318359375
1772556634818528500,6.057528564453125,-0.9404449462890625,-0.564544677734375,0.15826416015625
1772556634828513500,6.067513427734375,-0.9676971435546875,-0.56365966796875,0.1820220947265625
1772556634838497300,6.077497314453125,-0.9849853515625,-0.5548858642578125,0.1731109619140625
1772556634848481500,6.0874814453125,-0.9944000244140625,-0.5452728271484375,0.13470458984375
1772556634858466600,6.097466552734375,-1.009002685546875,-0.51629638671875,0.0960845947265625
1772556634868450300,6.1074501953125,-1.0400390625,-0.460906982421875,0.0708160400390625
1772556634878434300,6.117434326171875,-1.0829315185546875,-0.396270751953125,0.0482025146484375
1772556634888419600,6.127419677734375,-1.1122283935546875,-0.340972900390625,0.0017852783203125
1772556634898403300,6.1374033203125,-1.1096038818359375,-0.3057098388671875,-0.0485382080078125
1772556634908387300,6.14738720703125,-1.09088134765625,-0.292327880859375,-0.0995635986328125
1772556634918372600,6.15737255859375,-1.069000244140625,-0.2862548828125,-0.1314849853515625
1772556634928356400,6.1673564453125,-1.061859130859375,-0.2852325439453125,-0.139862060546875
1772556634938340400,6.17734033203125,-1.0712127685546875,-0.3001708984375,-0.1383819580078125
1772556634948325600,6.18732568359375,-1.078094482421875,-0.32904052734375,-0.127685546875
1772556634958309400,6.197309326171875,-1.069122314453125,-0.3594970703125,-0.10357666015625
1772556634968293400,6.20729345703125,-1.03131103515625,-0.395721435546875,-0.081390380859375
1772556634978278400,6.2172783203125,-0.98480224609375,-0.428985595703125,-0.05548095703125
1772556634988262400,6.227262451171875,-0.956451416015625,-0.463226318359375,-0.015655517578125
1772556634998246400,6.237246337890625,-0.9423065185546875,-0.4992218017578125,0.019622802734375
1772556635008231400,6.2472314453125,-0.93499755859375,-0.5166778564453125,0.06817626953125
1772556635018215400,6.25721533203125,-0.93634033203125,-0.5273895263671875,0.1077117919921875
1772556635028199400,6.267199462890625,-0.929046630859375,-0.527679443359375,0.13690185546875
1772556635038184400,6.277184326171875,-0.9006195068359375,-0.512176513671875,0.1497802734375
1772556635048168400,6.28716845703125,-0.8592071533203125,-0.4891357421875,0.158203125
1772556635058152400,6.29715234375,-0.81744384765625,-0.4641265869140625,0.1676788330078125
1772556635068137500,6.307137451171875,-0.7845458984375,-0.4398956298828125,0.1748046875
1772556635078121500,6.31712158203125,-0.754791259765625,-0.416259765625,0.1799774169921875
1772556635088105500,6.32710546875,-0.72906494140625,-0.3978729248046875,0.1824188232421875
1772556635098090500,6.337090576171875,-0.7080841064453125,-0.384368896484375,0.1787872314453125
1772556635108074500,6.347074462890625,-0.695526123046875,-0.373504638671875,0.168426513671875
1772556635118058500,6.35705859375,-0.6877593994140625,-0.371337890625,0.154571533203125
1772556635128043500,6.36704345703125,-0.6725921630859375,-0.378021240234375,0.13836669921875
1772556635138027500,6.377027587890625,-0.6595611572265625,-0.3917999267578125,0.1205596923828125
1772556635148011500,6.387011474609375,-0.666107177734375,-0.413055419921875,0.103759765625
1772556635157996500,6.39699658203125,-0.6616973876953125,-0.437744140625,0.076141357421875
1772556635167980500,6.40698046875,-0.66937255859375,-0.4566650390625,0.048126220703125
1772556635177964500,6.416964599609375,-0.6748046875,-0.4654998779296875,0.02813720703125
1772556635187949300,6.42694921875,-0.676910400390625,-0.477569580078125,0.0093536376953125
1772556635197933300,6.436933349609375,-0.6832275390625,-0.4881591796875,-0.001556396484375
1772556635207917600,6.44691748046875,-0.6928558349609375,-0.4880523681640625,-0.0042572021484375
1772556635217902300,6.45690234375,-0.7070770263671875,-0.481536865234375,-0.007354736328125
1772556635227886300,6.46688623046875,-0.7168731689453125,-0.4776153564453125,-0.0124053955078125
1772556635237870300,6.476870361328125,-0.7256622314453125,-0.472198486328125,-0.015289306640625
1772556635247855400,6.48685546875,-0.7348480224609375,-0.47186279296875,-0.0160675048828125
1772556635257839400,6.49683935546875,-0.74932861328125,-0.47467041015625,-0.018218994140625
1772556635267823400,6.5068232421875,-0.7762451171875,-0.475067138671875,-0.0166778564453125
1772556635277808400,6.516808349609375,-0.807403564453125,-0.47882080078125,-0.012939453125
1772556635287792400,6.52679248046875,-0.832489013671875,-0.4836578369140625,-0.0197296142578125
1772556635297776400,6.5367763671875,-0.85601806640625,-0.4843292236328125,-0.029052734375
1772556635307761400,6.546761474609375,-0.88714599609375,-0.47930908203125,-0.04254150390625
1772556635317745400,6.556745361328125,-0.9214630126953125,-0.473968505859375,-0.0578155517578125
1772556635327729400,6.5667294921875,-0.95550537109375,-0.4658660888671875,-0.0720367431640625
1772556635337714400,6.57671435546875,-0.984466552734375,-0.456817626953125,-0.0865631103515625
1772556635347698400,6.586698486328125,-1.015167236328125,-0.45367431640625,-0.0948638916015625
1772556635357682400,6.596682373046875,-1.034912109375,-0.4626922607421875,-0.1016082763671875
1772556635367667200,6.606667236328125,-1.0277099609375,-0.483856201171875,-0.111602783203125
1772556635377651200,6.616651123046875,-1.0009765625,-0.514373779296875,-0.1180877685546875
1772556635387635200,6.62663525390625,-0.966461181640625,-0.568206787109375,-0.1255035400390625
1772556635397619200,6.636619140625,-0.9626312255859375,-0.6340484619140625,-0.119354248046875
1772556635407604200,6.646604248046875,-1.0016326904296875,-0.6854248046875,-0.0779571533203125
1772556635417588200,6.656588134765625,-1.0511932373046875,-0.732635498046875,-0.018096923828125
1772556635427573200,6.6665732421875,-1.121826171875,-0.75836181640625,0.0597381591796875
1772556635437557200,6.67655712890625,-1.2023773193359375,-0.738067626953125,0.130035400390625
1772556635447541200,6.686541259765625,-1.2661285400390625,-0.6715240478515625,0.1832122802734375
1772556635457525200,6.696525146484375,-1.302459716796875,-0.56964111328125,0.218841552734375
1772556635467510300,6.70651025390625,-1.2930755615234375,-0.466400146484375,0.2152099609375
1772556635477494300,6.716494384765625,-1.2457427978515625,-0.3717041015625,0.177825927734375
1772556635487478300,6.726478271484375,-1.1773223876953125,-0.29290771484375,0.1484222412109375
1772556635497463300,6.73646337890625,-1.096588134765625,-0.2409820556640625,0.140655517578125
1772556635507447300,6.746447265625,-1.0301361083984375,-0.2276763916015625,0.1541900634765625
1772556635517431300,6.756431396484375,-0.9915924072265625,-0.2510223388671875,0.18328857421875
1772556635527416300,6.766416259765625,-0.9714813232421875,-0.2985992431640625,0.2136993408203125
1772556635537400300,6.776400390625,-0.93743896484375,-0.3462066650390625,0.231170654296875
1772556635547384300,6.78638427734375,-0.8814544677734375,-0.383544921875,0.235443115234375
1772556635557369300,6.796369384765625,-0.8259735107421875,-0.4078216552734375,0.2330474853515625
1772556635567353300,6.806353271484375,-0.7844085693359375,-0.4193267822265625,0.22320556640625
1772556635577337300,6.81633740234375,-0.7574920654296875,-0.4172515869140625,0.2046356201171875
1772556635587322000,6.826322021484375,-0.7371368408203125,-0.4067230224609375,0.186248779296875
1772556635597306400,6.836306396484375,-0.725494384765625,-0.3903350830078125,0.163604736328125
1772556635607290400,6.846290283203125,-0.7246246337890625,-0.3782501220703125,0.1313323974609375
1772556635617275100,6.856275146484375,-0.732269287109375,-0.3758697509765625,0.0919952392578125
1772556635627259100,6.866259033203125,-0.744537353515625,-0.3851165771484375,0.051910400390625
1772556635637243400,6.876243408203125,-0.7558135986328125,-0.3978271484375,0.0097503662109375
1772556635647228200,6.886228271484375,-0.7584381103515625,-0.40863037109375,-0.0338897705078125
1772556635657212200,6.896212158203125,-0.756256103515625,-0.418304443359375,-0.068878173828125
1772556635667196200,6.906196044921875,-0.7615509033203125,-0.42913818359375,-0.0889892578125
1772556635677181200,6.91618115234375,-0.763946533203125,-0.439178466796875,-0.1065521240234375
1772556635687165200,6.926165283203125,-0.7601470947265625,-0.4495086669921875,-0.11492919921875
1772556635697149200,6.936149169921875,-0.7570953369140625,-0.4534912109375,-0.108489990234375
1772556635707134200,6.94613427734375,-0.7521514892578125,-0.455169677734375,-0.08648681640625
1772556635717118200,6.9561181640625,-0.7552642822265625,-0.460296630859375,-0.0526580810546875
1772556635727102200,6.966102294921875,-0.762725830078125,-0.4644012451171875,-0.0128326416015625
1772556635737087200,6.976087158203125,-0.767486572265625,-0.46044921875,0.022003173828125
1772556635747071200,6.9860712890625,-0.7710113525390625,-0.4543304443359375,0.039398193359375
1772556635757055200,6.99605517578125,-0.7725677490234375,-0.447784423828125,0.0453948974609375
1772556635767040300,7.006040283203125,-0.7676239013671875,-0.44720458984375,0.0492095947265625
1772556635777024300,7.016024169921875,-0.7680816650390625,-0.447174072265625,0.0499420166015625
1772556635787008300,7.02600830078125,-0.7763214111328125,-0.447509765625,0.05224609375
1772556635796993300,7.0359931640625,-0.782958984375,-0.4523468017578125,0.0501556396484375
1772556635806977300,7.045977294921875,-0.7861480712890625,-0.451019287109375,0.0515899658203125
1772556635816961300,7.055961181640625,-0.788421630859375,-0.4520721435546875,0.05572509765625
1772556635826945300,7.0659453125,-0.792694091796875,-0.4548187255859375,0.0512237548828125
1772556635836930300,7.075930419921875,-0.800323486328125,-0.44903564453125,0.046844482421875
1772556635846914300,7.085914306640625,-0.8102569580078125,-0.4445953369140625,0.0453948974609375
1772556635856898300,7.095898193359375,-0.8181610107421875,-0.44525146484375,0.048614501953125
1772556635866883300,7.10588330078125,-0.830047607421875,-0.446807861328125,0.0599212646484375
1772556635876867300,7.115867431640625,-0.8453369140625,-0.4540557861328125,0.072662353515625
1772556635886851300,7.125851318359375,-0.8567962646484375,-0.466339111328125,0.08599853515625
1772556635896836400,7.13583642578125,-0.8723297119140625,-0.48175048828125,0.099212646484375
1772556635906820400,7.1458203125,-0.892425537109375,-0.5005645751953125,0.115509033203125
1772556635916804400,7.155804443359375,-0.9169921875,-0.52191162109375,0.13153076171875
1772556635926789400,7.165789306640625,-0.9390411376953125,-0.5377349853515625,0.14385986328125
1772556635936773400,7.1757734375,-0.955963134765625,-0.5493011474609375,0.151397705078125
1772556635946757400,7.18575732421875,-0.9743804931640625,-0.55950927734375,0.1480255126953125
1772556635956742400,7.195742431640625,-0.9766845703125,-0.5826873779296875,0.138031005859375
1772556635966726400,7.205726318359375,-0.9807586669921875,-0.606109619140625,0.1409149169921875
1772556635976710400,7.21571044921875,-1.0080108642578125,-0.6203155517578125,0.1694793701171875
1772556635986695200,7.225695068359375,-1.1024017333984375,-0.5921173095703125,0.2118988037109375
1772556635996679400,7.235679443359375,-1.2573394775390625,-0.532135009765625,0.2278289794921875
1772556636006663400,7.245663330078125,-1.3718719482421875,-0.478057861328125,0.1852874755859375
1772556636016648200,7.255648193359375,-1.40997314453125,-0.4214935302734375,0.1182098388671875
1772556636026632200,7.265632080078125,-1.4002227783203125,-0.3555145263671875,0.0496978759765625
1772556636036616400,7.275616455078125,-1.351104736328125,-0.2932586669921875,-0.0070648193359375
1772556636046601200,7.285601318359375,-1.266204833984375,-0.2512359619140625,-0.063323974609375
1772556636056585200,7.295585205078125,-1.16815185546875,-0.2306365966796875,-0.116058349609375
1772556636066569200,7.3055693359375,-1.0745391845703125,-0.2294921875,-0.1498565673828125
1772556636076554200,7.31555419921875,-1.013275146484375,-0.235107421875,-0.1436614990234375
1772556636086538200,7.325538330078125,-0.9902191162109375,-0.2665557861328125,-0.1235809326171875
1772556636096522200,7.335522216796875,-0.98492431640625,-0.3190155029296875,-0.098541259765625
1772556636106506200,7.34550634765625,-0.9703826904296875,-0.360443115234375,-0.0750732421875
1772556636116491300,7.3554912109375,-0.9305267333984375,-0.3958587646484375,-0.05450439453125
1772556636126475300,7.365475341796875,-0.882659912109375,-0.42242431640625,-0.04254150390625
1772556636136459300,7.375459228515625,-0.8432769775390625,-0.4345245361328125,-0.0311431884765625
1772556636146444300,7.3854443359375,-0.8081512451171875,-0.4379119873046875,-0.02166748046875
1772556636156428300,7.39542822265625,-0.814727783203125,-0.429718017578125,-0.01287841796875
1772556636166412300,7.405412353515625,-0.83282470703125,-0.412933349609375,-0.0153656005859375
1772556636176397300,7.415397216796875,-0.85394287109375,-0.393524169921875,-0.014434814453125
1772556636186381300,7.42538134765625,-0.866180419921875,-0.3734130859375,-0.0059356689453125
1772556636196365300,7.435365234375,-0.869415283203125,-0.35833740234375,0.00286865234375
1772556636206350300,7.445350341796875,-0.8656463623046875,-0.349517822265625,0.0099639892578125
1772556636216334300,7.455334228515625,-0.8616180419921875,-0.3409576416015625,0.01953125
1772556636226318300,7.465318359375,-0.8468475341796875,-0.337799072265625,0.0339202880859375
1772556636236303400,7.475303466796875,-0.835601806640625,-0.3471527099609375,0.0504913330078125
1772556636246287400,7.485287353515625,-0.82769775390625,-0.3608551025390625,0.0655364990234375
1772556636256271400,7.495271240234375,-0.818359375,-0.375518798828125,0.075103759765625
1772556636266256400,7.50525634765625,-0.80596923828125,-0.3888092041015625,0.0782012939453125
1772556636276240400,7.515240478515625,-0.7949676513671875,-0.39935302734375,0.074371337890625
1772556636286224400,7.525224365234375,-0.781005859375,-0.40924072265625,0.0587615966796875
1772556636296209400,7.53520947265625,-0.7635650634765625,-0.412261962890625,0.04351806640625
1772556636306193400,7.545193359375,-0.7442626953125,-0.410125732421875,0.0321044921875
1772556636316177400,7.555177490234375,-0.7277069091796875,-0.4092864990234375,0.0260009765625
1772556636326162400,7.565162353515625,-0.7146453857421875,-0.407501220703125,0.0212860107421875
1772556636336146400,7.575146484375,-0.7085723876953125,-0.40582275390625,0.0149688720703125
1772556636346130400,7.58513037109375,-0.707916259765625,-0.4064483642578125,0.008331298828125
1772556636356114200,7.5951142578125,-0.7142181396484375,-0.4085693359375,0.0056610107421875
1772556636366099000,7.605098876953125,-0.7150726318359375,-0.41192626953125,0.002960205078125
1772556636376083000,7.6150830078125,-0.7159271240234375,-0.4138336181640625,0.005157470703125
1772556636386067000,7.62506689453125,-0.7248992919921875,-0.4216156005859375,0.0051422119140625
1772556636396052000,7.635052001953125,-0.7315216064453125,-0.4333953857421875,0.00372314453125
1772556636406036000,7.645035888671875,-0.7390289306640625,-0.4389190673828125,0.0028839111328125
1772556636416020000,7.65502001953125,-0.7438507080078125,-0.440460205078125,-0.004638671875
1772556636426005000,7.6650048828125,-0.75006103515625,-0.441986083984375,-0.01220703125
1772556636435989000,7.674989013671875,-0.762939453125,-0.44207763671875,-0.02508544921875
1772556636445973000,7.684972900390625,-0.78863525390625,-0.44232177734375,-0.03741455078125
1772556636455958000,7.6949580078125,-0.8319854736328125,-0.44757080078125,-0.03851318359375
1772556636465942000,7.70494189453125,-0.8954925537109375,-0.4517822265625,-0.041259765625
1772556636475926000,7.714926025390625,-0.9742431640625,-0.450927734375,-0.055694580078125
1772556636485910800,7.724910888671875,-1.03125,-0.4444732666015625,-0.0817718505859375
1772556636495894800,7.734894775390625,-1.0501708984375,-0.4405364990234375,-0.0976409912109375
1772556636505879000,7.744879150390625,-1.103179931640625,-0.459259033203125,-0.1181182861328125
1772556636515863000,7.754863037109375,-1.1187744140625,-0.47509765625,-0.145233154296875
1772556636525847800,7.764847900390625,-1.1094207763671875,-0.4911346435546875,-0.1443328857421875
1772556636535831800,7.774831787109375,-1.0794219970703125,-0.523406982421875,-0.140045166015625
1772556636545816000,7.784816162109375,-1.0518341064453125,-0.5519561767578125,-0.12652587890625
1772556636555800800,7.79480078125,-1.0309906005859375,-0.5905914306640625,-0.10675048828125
1772556636565784800,7.804784912109375,-1.010467529296875,-0.649749755859375,-0.08221435546875
1772556636575768800,7.814768798828125,-1.013916015625,-0.7052001953125,-0.033111572265625
1772556636585753900,7.82475390625,-1.069549560546875,-0.7432098388671875,0.05096435546875
1772556636595737900,7.83473779296875,-1.1551361083984375,-0.75579833984375,0.1215972900390625
1772556636605721900,7.844721923828125,-1.2213134765625,-0.7519378662109375,0.1590576171875
1772556636615707000,7.854706787109375,-1.2573394775390625,-0.7232818603515625,0.1802215576171875
1772556636625691000,7.86469091796875,-1.278533935546875,-0.6455230712890625,0.1744842529296875
1772556636635675000,7.8746748046875,-1.28936767578125,-0.532958984375,0.1664276123046875
1772556636645660000,7.884659912109375,-1.2744598388671875,-0.4222564697265625,0.126220703125
1772556636655644000,7.894643798828125,-1.2191619873046875,-0.3215484619140625,0.0480194091796875
1772556636665628000,7.9046279296875,-1.1202392578125,-0.2245941162109375,-0.0080413818359375
1772556636675613000,7.914613037109375,-1.0017242431640625,-0.148040771484375,-0.0240325927734375
1772556636685597000,7.924596923828125,-0.8816680908203125,-0.110748291015625,-0.0117340087890625
1772556636695581000,7.934580810546875,-0.79522705078125,-0.1262359619140625,0.03863525390625
1772556636705565000,7.94456494140625,-0.769500732421875,-0.18511962890625,0.1071624755859375
1772556636715550000,7.954550048828125,-0.7612457275390625,-0.25823974609375,0.1833038330078125
1772556636725534000,7.964533935546875,-0.7402191162109375,-0.32330322265625,0.234832763671875
1772556636735518000,7.97451806640625,-0.70416259765625,-0.38409423828125,0.241302490234375
1772556636745503000,7.9845029296875,-0.6800994873046875,-0.424835205078125,0.237060546875
1772556636755487000,7.994487060546875,-0.66619873046875,-0.4447784423828125,0.2255706787109375
1772556636765469700,8.0044697265625,-0.662384033203125,-0.461151123046875,0.198974609375
1772556636775455000,8.014455078125,-0.6761932373046875,-0.465545654296875,0.16839599609375
1772556636785438700,8.024438720703126,-0.70184326171875,-0.4604339599609375,0.1387786865234375
1772556636795422700,8.034422607421876,-0.7303619384765625,-0.453094482421875,0.102294921875
1772556636805408000,8.044407958984374,-0.75238037109375,-0.4501800537109375,0.0683135986328125
1772556636815391700,8.054391845703124,-0.7800140380859375,-0.4451904296875,0.03558349609375
1772556636825375700,8.064375732421874,-0.8061370849609375,-0.441192626953125,-0.0002593994140625
1772556636835359700,8.07435986328125,-0.829437255859375,-0.439300537109375,-0.0348968505859375
1772556636845344800,8.0843447265625,-0.8454437255859375,-0.435150146484375,-0.0536041259765625
1772556636855328800,8.094328857421875,-0.8574676513671875,-0.4293060302734375,-0.0616912841796875
1772556636865312800,8.104312744140625,-0.8557891845703125,-0.4251251220703125,-0.076690673828125
1772556636875297800,8.1142978515625,-0.8413543701171875,-0.4239654541015625,-0.0771942138671875
1772556636885281800,8.12428173828125,-0.83306884765625,-0.431243896484375,-0.061767578125
1772556636895265800,8.134265869140625,-0.8328094482421875,-0.4479217529296875,-0.0437469482421875
1772556636905250800,8.144250732421876,-0.834503173828125,-0.463714599609375,-0.02337646484375
1772556636915234800,8.15423486328125,-0.8368988037109375,-0.4722442626953125,-0.0048675537109375
1772556636925218800,8.16421875,-0.83892822265625,-0.475860595703125,0.0096893310546875
1772556636935203800,8.174203857421874,-0.8419036865234375,-0.475128173828125,0.02301025390625
1772556636945187800,8.184187744140624,-0.8531951904296875,-0.4735107421875,0.034820556640625
1772556636955171800,8.194171875,-0.8565521240234375,-0.4716033935546875,0.04327392578125
1772556636965155800,8.20415576171875,-0.84796142578125,-0.469635009765625,0.0441436767578125
1772556636975140900,8.214140869140625,-0.833251953125,-0.462677001953125,0.0410919189453125
1772556636985124900,8.224124755859375,-0.8161773681640625,-0.4504241943359375,0.0374603271484375
1772556636995108900,8.23410888671875,-0.8003082275390625,-0.4394378662109375,0.0301361083984375
1772556637005094000,8.244093994140625,-0.7822418212890625,-0.43414306640625,0.0210418701171875
1772556637015078000,8.254077880859375,-0.76513671875,-0.4338531494140625,0.02044677734375
1772556637025062000,8.264061767578125,-0.75494384765625,-0.436920166015625,0.0257720947265625
1772556637035047000,8.274046875,-0.7610321044921875,-0.44598388671875,0.035919189453125
1772556637045031000,8.284031005859376,-0.7697296142578125,-0.46099853515625,0.051605224609375
1772556637055015000,8.294014892578126,-0.777984619140625,-0.4752960205078125,0.06707763671875
1772556637065000000,8.304,-0.7890472412109375,-0.4881591796875,0.077484130859375
1772556637074984000,8.31398388671875,-0.7977447509765625,-0.5055084228515625,0.078857421875
1772556637084968000,8.323968017578125,-0.810455322265625,-0.525726318359375,0.085296630859375
1772556637094952000,8.333951904296875,-0.8320770263671875,-0.5511322021484375,0.1016082763671875
1772556637104937000,8.34393701171875,-0.8644256591796875,-0.5752716064453125,0.1019439697265625
1772556637114921000,8.3539208984375,-0.877685546875,-0.5737762451171875,0.112701416015625
1772556637124905000,8.363905029296875,-0.8958740234375,-0.5678253173828125,0.118896484375
1772556637134889700,8.3738896484375,-0.9174041748046875,-0.56390380859375,0.111907958984375
1772556637144874000,8.3838740234375,-0.92022705078125,-0.5641937255859375,0.11370849609375
1772556637154858000,8.39385791015625,-0.9186248779296875,-0.584381103515625,0.129302978515625
1772556637164842800,8.4038427734375,-0.9342193603515625,-0.5941619873046875,0.1672821044921875
1772556637174826800,8.41382666015625,-0.964691162109375,-0.60174560546875,0.2059783935546875
1772556637184810800,8.423810791015624,-1.0084991455078125,-0.608123779296875,0.2140960693359375
1772556637194796800,8.433796875,-1.0759124755859375,-0.6095123291015625,0.1932830810546875
1772556637204780800,8.44378076171875,-1.1424102783203125,-0.5993194580078125,0.148345947265625
1772556637214764800,8.453764892578125,-1.202972412109375,-0.576690673828125,0.094482421875
1772556637224748800,8.463748779296875,-1.2533111572265625,-0.5374908447265625,0.05645751953125
1772556637234733800,8.47373388671875,-1.256988525390625,-0.4932098388671875,0.007232666015625
1772556637244717800,8.4837177734375,-1.2211761474609375,-0.4547119140625,-0.06719970703125
1772556637254701800,8.493701904296875,-1.178802490234375,-0.4139556884765625,-0.1434783935546875
1772556637264686800,8.503686767578126,-1.1323394775390625,-0.350921630859375,-0.1955413818359375
1772556637274670800,8.5136708984375,-1.0762481689453125,-0.303558349609375,-0.2529296875
1772556637284654800,8.52365478515625,-1.010772705078125,-0.2730712890625,-0.2883148193359375
1772556637294639900,8.533639892578124,-0.9544830322265625,-0.2557525634765625,-0.2947540283203125
1772556637304623900,8.543623779296874,-0.914306640625,-0.25738525390625,-0.27789306640625
1772556637314607900,8.55360791015625,-0.8899078369140625,-0.25640869140625,-0.2588958740234375
1772556637324593000,8.563593017578125,-0.8675384521484375,-0.275543212890625,-0.220703125
1772556637334577000,8.573576904296875,-0.8440399169921875,-0.2987213134765625,-0.1767120361328125
1772556637344561000,8.583560791015625,-0.8224334716796875,-0.3234405517578125,-0.13958740234375
1772556637354545000,8.593544921875,-0.8083648681640625,-0.3700103759765625,-0.11004638671875
1772556637364533500,8.603533447265624,-0.80865478515625,-0.4061431884765625,-0.096710205078125
1772556637374517500,8.613517578125,-0.8200531005859375,-0.4317169189453125,-0.088714599609375
1772556637384501500,8.62350146484375,-0.827056884765625,-0.4516143798828125,-0.0822296142578125
1772556637394486500,8.633486572265625,-0.83306884765625,-0.46484375,-0.0715179443359375
1772556637404470500,8.643470458984375,-0.8354034423828125,-0.4703369140625,-0.058197021484375
1772556637414454500,8.65345458984375,-0.8306427001953125,-0.464813232421875,-0.0424652099609375
1772556637424439600,8.663439453125,-0.82196044921875,-0.4468536376953125,-0.0224456787109375
1772556637434423600,8.673423583984375,-0.8147125244140625,-0.419647216796875,0.0038604736328125
1772556637444407600,8.683407470703125,-0.806427001953125,-0.40130615234375,0.017913818359375
1772556637454392300,8.693392333984375,-0.7978515625,-0.3928070068359375,0.0218963623046875
1772556637464376600,8.70337646484375,-0.794219970703125,-0.3958740234375,0.0228271484375
1772556637474360600,8.713360595703126,-0.796875,-0.4057464599609375,0.0096435546875
1772556637484344600,8.723344482421876,-0.79852294921875,-0.4173126220703125,-0.0095977783203125
1772556637494329300,8.733329345703124,-0.7975311279296875,-0.4258880615234375,-0.0246734619140625
1772556637504313300,8.743313232421874,-0.78912353515625,-0.430267333984375,-0.043426513671875
1772556637514297600,8.753297607421874,-0.771514892578125,-0.43011474609375,-0.0681610107421875
1772556637524282400,8.763282470703125,-0.7528228759765625,-0.4268951416015625,-0.0892181396484375
1772556637534266400,8.773266357421875,-0.7457733154296875,-0.427001953125,-0.10821533203125
1772556637544250400,8.78325048828125,-0.747802734375,-0.4327392578125,-0.1240081787109375
1772556637554235400,8.7932353515625,-0.7530364990234375,-0.4433135986328125,-0.13482666015625
1772556637564219400,8.803219482421875,-0.755035400390625,-0.4517822265625,-0.13848876953125
1772556637574203400,8.813203369140625,-0.7565460205078125,-0.451812744140625,-0.1419219970703125
1772556637584187400,8.8231875,-0.75872802734375,-0.445098876953125,-0.143463134765625
1772556637594172400,8.83317236328125,-0.7675323486328125,-0.437591552734375,-0.135772705078125
1772556637604156400,8.843156494140626,-0.779022216796875,-0.4297943115234375,-0.1295013427734375
1772556637614140200,8.85314013671875,-0.7669219970703125,-0.4320220947265625,-0.1349029541015625
1772556637624125400,8.86312548828125,-0.74884033203125,-0.440185546875,-0.1378173828125
1772556637634109400,8.873109375,-0.7475433349609375,-0.450347900390625,-0.1301116943359375
1772556637644093200,8.88309326171875,-0.7664794921875,-0.455474853515625,-0.1200103759765625
1772556637654077200,8.8930771484375,-0.7918548583984375,-0.4594573974609375,-0.1158294677734375
1772556637664062500,8.9030625,-0.8230438232421875,-0.4602203369140625,-0.1106109619140625
1772556637674046200,8.913046142578125,-0.8557281494140625,-0.4621429443359375,-0.1107330322265625
1772556637684030200,8.9230302734375,-0.8882598876953125,-0.46051025390625,-0.117462158203125
1772556637694015500,8.933015380859375,-0.9234466552734375,-0.4529571533203125,-0.12567138671875
1772556637703999200,8.942999267578125,-0.963348388671875,-0.442840576171875,-0.1380615234375
1772556637713983200,8.952983154296875,-0.998809814453125,-0.433563232421875,-0.15234375
1772556637723968500,8.962968505859376,-1.024078369140625,-0.4358673095703125,-0.176727294921875
1772556637733952300,8.9729521484375,-1.071746826171875,-0.4029388427734375,-0.1667938232421875
1772556637743936300,8.982936279296876,-1.1048583984375,-0.41204833984375,-0.1805572509765625
1772556637753920300,8.992920166015624,-1.06304931640625,-0.495147705078125,-0.22784423828125
1772556637763905300,9.0029052734375,-1.0112457275390625,-0.578521728515625,-0.2496490478515625
1772556637773889300,9.01288916015625,-1.0504302978515625,-0.58349609375,-0.21795654296875
1772556637783873300,9.022873291015625,-1.1088409423828125,-0.5589141845703125,-0.1857147216796875
1772556637793858300,9.0328583984375,-1.1598968505859375,-0.5196075439453125,-0.1714324951171875
1772556637803842300,9.04284228515625,-1.220489501953125,-0.4647674560546875,-0.1776580810546875
1772556637813826300,9.052826416015625,-1.260162353515625,-0.415374755859375,-0.1992645263671875
1772556637823811300,9.062811279296875,-1.2511138916015625,-0.372802734375,-0.2071990966796875
1772556637833795300,9.07279541015625,-1.199127197265625,-0.3243865966796875,-0.18011474609375
1772556637843779300,9.082779296875,-1.1464996337890625,-0.285614013671875,-0.15093994140625
1772556637853763300,9.092763427734376,-1.1041259765625,-0.2547454833984375,-0.1270294189453125
1772556637863748400,9.102748291015626,-1.057891845703125,-0.2334136962890625,-0.0973052978515625
1772556637873732400,9.112732421875,-1.02911376953125,-0.221160888671875,-0.0627899169921875
1772556637883716400,9.12271630859375,-1.018798828125,-0.22735595703125,-0.034332275390625
1772556637893701400,9.132701416015625,-1.01043701171875,-0.2549285888671875,-0.01824951171875
1772556637903685400,9.142685302734375,-0.983245849609375,-0.2745208740234375,-0.0123748779296875
1772556637913669400,9.15266943359375,-0.943511962890625,-0.29766845703125,-0.0022430419921875
1772556637923654400,9.162654296875,-0.902099609375,-0.320709228515625,0.0070037841796875
1772556637933638400,9.172638427734375,-0.88238525390625,-0.329742431640625,0.0163421630859375
1772556637943622400,9.182622314453125,-0.8940887451171875,-0.3249053955078125,0.02593994140625
1772556637953606400,9.1926064453125,-0.9159393310546875,-0.32073974609375,0.024627685546875
1772556637963591400,9.20259130859375,-0.9425506591796875,-0.325439453125,0.006988525390625
1772556637973575400,9.212575439453126,-0.9619140625,-0.3328857421875,-0.026519775390625
1772556637983559400,9.222559326171876,-0.9540863037109375,-0.3415374755859375,-0.0623016357421875
1772556637993544400,9.23254443359375,-0.9294891357421875,-0.3540191650390625,-0.1014556884765625
1772556638003528400,9.242528564453124,-0.8978424072265625,-0.373046875,-0.132171630859375
1772556638013512400,9.252512451171874,-0.87799072265625,-0.3935089111328125,-0.1659393310546875
1772556638023496400,9.262496337890624,-0.8404541015625,-0.409820556640625,-0.1927642822265625
1772556638033481500,9.2724814453125,-0.8091278076171875,-0.4215087890625,-0.2229766845703125
1772556638043465500,9.282465576171875,-0.79473876953125,-0.42529296875,-0.2535400390625
1772556638053449500,9.292449462890625,-0.7849273681640625,-0.4227142333984375,-0.2670440673828125
1772556638063434200,9.302434326171875,-0.7758026123046875,-0.415802001953125,-0.259735107421875
1772556638073418500,9.31241845703125,-0.7765960693359375,-0.4095001220703125,-0.24102783203125
1772556638083402500,9.322402587890625,-0.7908782958984375,-0.407073974609375,-0.212646484375
1772556638093387300,9.33238720703125,-0.800384521484375,-0.4065704345703125,-0.189727783203125
1772556638103371300,9.342371337890626,-0.7993011474609375,-0.403045654296875,-0.17034912109375
1772556638113355500,9.35235546875,-0.7911376953125,-0.395538330078125,-0.15228271484375
1772556638123339500,9.362339599609374,-0.7821197509765625,-0.382843017578125,-0.142608642578125
1772556638133324300,9.37232421875,-0.772064208984375,-0.37005615234375,-0.1405029296875
1772556638143308300,9.382308349609374,-0.7554168701171875,-0.362823486328125,-0.1467437744140625
1772556638153292500,9.39229248046875,-0.7364959716796875,-0.36029052734375,-0.154388427734375
1772556638163277300,9.40227734375,-0.7220916748046875,-0.3606414794921875,-0.1605224609375
1772556638173261300,9.41226123046875,-0.7167816162109375,-0.361541748046875,-0.1580047607421875
1772556638183245300,9.422245361328125,-0.728912353515625,-0.3600921630859375,-0.1489410400390625
1772556638193229300,9.432229248046875,-0.7502593994140625,-0.3700714111328125,-0.1389923095703125
1772556638203214300,9.44221435546875,-0.765716552734375,-0.391021728515625,-0.13055419921875
1772556638213198300,9.4521982421875,-0.7749176025390625,-0.4120635986328125,-0.11627197265625
1772556638223182300,9.462182373046875,-0.7875518798828125,-0.4297027587890625,-0.09796142578125
1772556638233167400,9.47216748046875,-0.8124847412109375,-0.4474334716796875,-0.0850067138671875
1772556638243151400,9.4821513671875,-0.8401336669921875,-0.464202880859375,-0.0846710205078125
1772556638253135400,9.49213525390625,-0.86846923828125,-0.48492431640625,-0.08868408203125
1772556638263119400,9.502119384765624,-0.9037933349609375,-0.5076141357421875,-0.090423583984375
1772556638273104400,9.5121044921875,-0.9259490966796875,-0.53118896484375,-0.091949462890625
1772556638283088400,9.52208837890625,-0.943267822265625,-0.541961669921875,-0.0948638916015625
1772556638293072400,9.532072265625,-0.96435546875,-0.5350799560546875,-0.100982666015625
1772556638303057400,9.542057373046875,-0.96893310546875,-0.5170440673828125,-0.1096649169921875
1772556638313041400,9.55204150390625,-0.9581451416015625,-0.5003662109375,-0.1189117431640625
1772556638323025400,9.562025390625,-0.9362335205078125,-0.48675537109375,-0.120758056640625
1772556638333010400,9.572010498046875,-0.903167724609375,-0.4977874755859375,-0.1097869873046875
1772556638342994400,9.581994384765625,-0.888671875,-0.501678466796875,-0.0780029296875
1772556638352978400,9.591978515625,-0.9191436767578125,-0.45355224609375,-0.0354156494140625
1772556638362962400,9.60196240234375,-0.9484405517578125,-0.4236602783203125,-0.0357208251953125
1772556638372944600,9.611944580078125,-0.93963623046875,-0.4522705078125,-0.0610198974609375
1772556638382928600,9.6219287109375,-0.96728515625,-0.4515228271484375,-0.06121826171875
1772556638392912600,9.63191259765625,-1.0589752197265625,-0.35760498046875,-0.048919677734375
1772556638402897700,9.641897705078126,-1.1416168212890625,-0.2715606689453125,-0.0780792236328125
1772556638412881700,9.651881591796876,-1.1583099365234375,-0.24285888671875,-0.1453094482421875
1772556638422865700,9.66186572265625,-1.1251678466796875,-0.2519073486328125,-0.2130889892578125
1772556638432849400,9.671849365234374,-1.0768280029296875,-0.2662200927734375,-0.254425048828125
1772556638442834700,9.681834716796875,-1.030517578125,-0.271942138671875,-0.267608642578125
1772556638452818700,9.691818603515625,-0.976165771484375,-0.2811431884765625,-0.284210205078125
1772556638462802400,9.701802490234375,-0.928863525390625,-0.2980804443359375,-0.302978515625
1772556638472787700,9.71178759765625,-0.9199371337890625,-0.3300323486328125,-0.339752197265625
1772556638482771700,9.721771728515625,-0.9190673828125,-0.34326171875,-0.37139892578125
1772556638492755500,9.73175537109375,-0.9212188720703125,-0.37493896484375,-0.3722076416015625
1772556638502739500,9.741739501953125,-0.924530029296875,-0.4159698486328125,-0.35595703125
1772556638512724500,9.751724365234375,-0.918670654296875,-0.4619293212890625,-0.312408447265625
1772556638522708500,9.76170849609375,-0.901611328125,-0.4922332763671875,-0.25054931640625
1772556638532692500,9.7716923828125,-0.904510498046875,-0.4875640869140625,-0.1708984375
1772556638542677500,9.781677490234374,-0.9223785400390625,-0.482086181640625,-0.104583740234375
1772556638552661500,9.79166162109375,-0.94720458984375,-0.4770660400390625,-0.0437164306640625
1772556638562645500,9.8016455078125,-0.971343994140625,-0.47509765625,0.0053253173828125
1772556638572629500,9.81162939453125,-0.97332763671875,-0.4724273681640625,0.030120849609375
1772556638582614500,9.821614501953125,-0.9509735107421875,-0.4609527587890625,0.0326995849609375
1772556638592598500,9.8315986328125,-0.908782958984375,-0.439422607421875,0.02056884765625
1772556638602582500,9.84158251953125,-0.8626556396484375,-0.416595458984375,-0.00115966796875
1772556638612567600,9.851567626953125,-0.8310699462890625,-0.396881103515625,-0.0309906005859375
1772556638622551600,9.861551513671875,-0.8161773681640625,-0.38580322265625,-0.0612640380859375
1772556638632535600,9.87153564453125,-0.8091278076171875,-0.381744384765625,-0.0863494873046875
1772556638642520300,9.881520263671876,-0.80902099609375,-0.3811492919921875,-0.1054840087890625
1772556638652504300,9.89150439453125,-0.8177032470703125,-0.383331298828125,-0.1190643310546875
1772556638662488600,9.901488525390626,-0.8279571533203125,-0.386077880859375,-0.1263275146484375
1772556638672472600,9.91147265625,-0.8313751220703125,-0.387969970703125,-0.130401611328125
1772556638682457300,9.921457275390624,-0.8339385986328125,-0.3868255615234375,-0.1300811767578125
1772556638692441300,9.93144140625,-0.8278656005859375,-0.3874969482421875,-0.1285552978515625
1772556638702425600,9.941425537109374,-0.813079833984375,-0.3888702392578125,-0.1311492919921875
1772556638712410400,9.951410400390625,-0.798065185546875,-0.390869140625,-0.131988525390625
1772556638722394400,9.961394287109375,-0.792694091796875,-0.396026611328125,-0.1370697021484375
1772556638732378400,9.97137841796875,-0.7863311767578125,-0.39874267578125,-0.148223876953125
1772556638742362600,9.981362548828125,-0.753448486328125,-0.405609130859375,-0.15338134765625
1772556638752347400,9.991347412109375,-0.7257843017578125,-0.41448974609375,-0.1545867919921875
1772556638762331400,10.001331298828125,-0.7014007568359375,-0.4167022705078125,-0.1379547119140625
1772556638772315400,10.0113154296875,-0.692291259765625,-0.4207000732421875,-0.12750244140625
1772556638782300400,10.021300537109376,-0.6980133056640625,-0.4260711669921875,-0.1233978271484375
1772556638792284400,10.031284423828126,-0.712371826171875,-0.42437744140625,-0.1224517822265625
1772556638802268400,10.041268310546876,-0.7419281005859375,-0.417449951171875,-0.12225341796875
1772556638812252400,10.05125244140625,-0.7783660888671875,-0.4137115478515625,-0.1226654052734375
1772556638822237400,10.061237548828124,-0.8108062744140625,-0.409088134765625,-0.128875732421875
1772556638832221400,10.071221435546875,-0.8434295654296875,-0.398895263671875,-0.133514404296875
1772556638842205400,10.081205322265625,-0.8819427490234375,-0.390625,-0.1395721435546875
1772556638852190500,10.0911904296875,-0.9255218505859375,-0.389068603515625,-0.153564453125
1772556638862174500,10.101174560546875,-0.9758758544921875,-0.3863525390625,-0.17138671875
1772556638872158500,10.111158447265625,-1.015289306640625,-0.390655517578125,-0.197265625
1772556638882142500,10.121142578125,-1.0252532958984375,-0.426055908203125,-0.235443115234375
1772556638892127500,10.13112744140625,-1.0020599365234375,-0.50677490234375,-0.2657012939453125
1772556638902111500,10.141111572265626,-1.0173187255859375,-0.5724945068359375,-0.275238037109375
1772556638912095500,10.151095458984376,-1.0738677978515625,-0.607696533203125,-0.2753448486328125
1772556638922080500,10.16108056640625,-1.115753173828125,-0.6431121826171875,-0.271026611328125
1772556638932064500,10.171064453125,-1.1731414794921875,-0.6389007568359375,-0.268707275390625
1772556638942048500,10.181048583984374,-1.2736053466796875,-0.567108154296875,-0.27099609375
1772556638952032500,10.191032470703124,-1.402923583984375,-0.4668426513671875,-0.2779693603515625
1772556638962017500,10.201017578125,-1.4952545166015625,-0.370086669921875,-0.26373291015625
1772556638972001500,10.21100146484375,-1.5119476318359375,-0.3000640869140625,-0.2379302978515625
1772556638981985500,10.220985595703125,-1.4239654541015625,-0.25927734375,-0.203704833984375
1772556638991970600,10.230970458984375,-1.24395751953125,-0.228179931640625,-0.1494293212890625
1772556639001954600,10.24095458984375,-1.0543670654296875,-0.2021331787109375,-0.076324462890625
1772556639011938600,10.2509384765625,-0.855560302734375,-0.217926025390625,0.004791259765625
1772556639021922600,10.260922607421875,-0.75274658203125,-0.2066802978515625,0.0524139404296875
1772556639031907600,10.270907470703126,-0.7908782958984375,-0.1997528076171875,0.0675811767578125
1772556639041891600,10.2808916015625,-0.80364990234375,-0.261749267578125,0.06646728515625
1772556639051875600,10.29087548828125,-0.8289642333984375,-0.3188934326171875,0.060028076171875
1772556639061859600,10.300859619140626,-0.844940185546875,-0.363372802734375,0.0343017578125
1772556639071844600,10.3108447265625,-0.8662261962890625,-0.3740234375,0.0066680908203125
1772556639081828600,10.32082861328125,-0.86688232421875,-0.36004638671875,0.0062255859375
1772556639091812600,10.3308125,-0.889739990234375,-0.336669921875,0.005859375
1772556639101797600,10.340797607421875,-0.91314697265625,-0.313323974609375,-0.006866455078125
1772556639111781600,10.35078173828125,-0.91693115234375,-0.2922515869140625,-0.0379638671875
1772556639121765600,10.360765625,-0.9061126708984375,-0.2751312255859375,-0.0843963623046875
1772556639131749600,10.37074951171875,-0.88916015625,-0.2681732177734375,-0.1340179443359375
1772556639141734700,10.380734619140625,-0.86187744140625,-0.280731201171875,-0.18438720703125
1772556639151718700,10.39071875,-0.820587158203125,-0.3063507080078125,-0.2273712158203125
1772556639161702700,10.40070263671875,-0.75714111328125,-0.3253021240234375,-0.2454681396484375
1772556639171687700,10.410687744140626,-0.73443603515625,-0.3370513916015625,-0.2486724853515625
1772556639181671700,10.420671630859376,-0.7316131591796875,-0.3550567626953125,-0.2374420166015625
1772556639191655400,10.430655517578124,-0.728118896484375,-0.3742828369140625,-0.2182464599609375
1772556639201639400,10.440639404296874,-0.739013671875,-0.3842620849609375,-0.1972808837890625
1772556639211624700,10.450624755859375,-0.7629241943359375,-0.3904266357421875,-0.1692962646484375
1772556639221608400,10.4606083984375,-0.7897796630859375,-0.3930206298828125,-0.1421966552734375
1772556639231592400,10.470592529296875,-0.8233642578125,-0.385284423828125,-0.1116943359375
1772556639241577700,10.48057763671875,-0.8535003662109375,-0.381591796875,-0.0875396728515625
1772556639251561500,10.4905615234375,-0.8773193359375,-0.3787994384765625,-0.0701141357421875
1772556639261545500,10.50054541015625,-0.89935302734375,-0.3753204345703125,-0.0682220458984375
1772556639271529500,10.510529541015625,-0.9000091552734375,-0.3733367919921875,-0.081268310546875
1772556639281514500,10.520514404296875,-0.8822021484375,-0.373931884765625,-0.10845947265625
1772556639291498500,10.53049853515625,-0.8569793701171875,-0.379974365234375,-0.136260986328125
1772556639301482500,10.540482421875,-0.8389129638671875,-0.3870849609375,-0.1630096435546875
1772556639311467500,10.550467529296874,-0.819976806640625,-0.3897552490234375,-0.1898193359375
1772556639321451500,10.560451416015624,-0.811065673828125,-0.39141845703125,-0.2108001708984375
1772556639331435500,10.570435546875,-0.802642822265625,-0.3900604248046875,-0.2239837646484375
1772556639341419500,10.58041943359375,-0.803985595703125,-0.3863067626953125,-0.2272186279296875
1772556639351404500,10.590404541015625,-0.8081817626953125,-0.3864288330078125,-0.22119140625
1772556639361388500,10.600388427734375,-0.81793212890625,-0.389678955078125,-0.2056884765625
1772556639371372000,10.6103720703125,-0.827789306640625,-0.389984130859375,-0.18280029296875
1772556639381357000,10.620357177734375,-0.837127685546875,-0.3897552490234375,-0.16748046875
1772556639391341000,10.630341064453125,-0.841949462890625,-0.3907318115234375,-0.16363525390625
1772556639401325000,10.640324951171875,-0.841796875,-0.3942108154296875,-0.165435791015625
1772556639411309000,10.65030908203125,-0.8390960693359375,-0.4000396728515625,-0.167236328125
1772556639421294000,10.660294189453126,-0.842041015625,-0.40667724609375,-0.163787841796875
1772556639431278000,10.670278076171876,-0.8548126220703125,-0.422882080078125,-0.151092529296875
1772556639441262000,10.680261962890626,-0.86688232421875,-0.4678955078125,-0.1424560546875
1772556639451245800,10.690245849609376,-0.885528564453125,-0.537384033203125,-0.1257476806640625
1772556639461231000,10.700231201171874,-0.9599151611328125,-0.5355072021484375,-0.094451904296875
1772556639471215000,10.710215087890624,-1.0830841064453125,-0.478118896484375,-0.09686279296875
1772556639481198800,10.72019873046875,-1.245513916015625,-0.425262451171875,-0.1221771240234375
1772556639491183900,10.730183837890625,-1.4345855712890625,-0.3569793701171875,-0.143951416015625
1772556639501167900,10.74016796875,-1.5475616455078125,-0.292633056640625,-0.1852264404296875
1772556639511151900,10.75015185546875,-1.5267181396484375,-0.2724761962890625,-0.2647857666015625
1772556639521135900,10.760135986328125,-1.4091033935546875,-0.2698974609375,-0.3519287109375
1772556639531121000,10.770120849609375,-1.230377197265625,-0.262542724609375,-0.4028778076171875
1772556639541105000,10.78010498046875,-1.0311279296875,-0.2442474365234375,-0.4132232666015625
1772556639551089000,10.7900888671875,-0.953582763671875,-0.2407073974609375,-0.402984619140625
1772556639561073700,10.80007373046875,-0.8885345458984375,-0.2198944091796875,-0.361572265625
1772556639571058000,10.810057861328126,-0.8721466064453125,-0.1843719482421875,-0.290740966796875
1772556639581042000,10.8200419921875,-0.8845062255859375,-0.208038330078125,-0.239990234375
1772556639591026000,10.83002587890625,-0.9131927490234375,-0.2801666259765625,-0.2167510986328125
1772556639601010700,10.8400107421875,-0.935882568359375,-0.3564605712890625,-0.2159271240234375
1772556639610994700,10.84999462890625,-0.9441070556640625,-0.3890228271484375,-0.2037506103515625
1772556639620979000,10.85997900390625,-0.94488525390625,-0.3907318115234375,-0.1892852783203125
1772556639630963700,10.869963623046875,-0.9332733154296875,-0.3862457275390625,-0.1793212890625
1772556639640947700,10.87994775390625,-0.909149169921875,-0.3845977783203125,-0.1796722412109375
1772556639650931700,10.889931640625,-0.9044189453125,-0.3868865966796875,-0.1957855224609375
1772556639660916000,10.899916015625,-0.9162445068359375,-0.3821868896484375,-0.213287353515625
1772556639670900700,10.909900634765625,-0.9319305419921875,-0.375274658203125,-0.235931396484375
1772556639680884700,10.919884765625,-0.95391845703125,-0.36541748046875,-0.2514190673828125
1772556639690868700,10.92986865234375,-0.96124267578125,-0.3488311767578125,-0.2541656494140625
1772556639700853000,10.93985302734375,-0.9417572021484375,-0.3307647705078125,-0.2590179443359375
1772556639710837800,10.949837646484376,-0.8854522705078125,-0.318389892578125,-0.261077880859375
1772556639720821800,10.95982177734375,-0.81512451171875,-0.3104095458984375,-0.2558746337890625
1772556639730805800,10.9698056640625,-0.7696380615234375,-0.3069000244140625,-0.2372894287109375
1772556639740790800,10.979790771484375,-0.7675018310546875,-0.3276519775390625,-0.2043914794921875
1772556639750774800,10.98977490234375,-0.7750396728515625,-0.3546295166015625,-0.185882568359375
1772556639760758800,10.9997587890625,-0.769622802734375,-0.3724822998046875,-0.17962646484375
1772556639770742800,11.00974267578125,-0.7611083984375,-0.379150390625,-0.1719818115234375
1772556639780727800,11.019727783203125,-0.7482757568359375,-0.3756866455078125,-0.1641998291015625
1772556639790711800,11.0297119140625,-0.738555908203125,-0.3721923828125,-0.1626434326171875
1772556639800695800,11.03969580078125,-0.734893798828125,-0.3690643310546875,-0.1695709228515625
1772556639810679800,11.0496796875,-0.728790283203125,-0.3651275634765625,-0.1709747314453125
1772556639820664800,11.059664794921876,-0.731170654296875,-0.36871337890625,-0.1714019775390625
1772556639830648800,11.06964892578125,-0.7418060302734375,-0.3778228759765625,-0.1702423095703125
1772556639840632800,11.0796328125,-0.745391845703125,-0.386932373046875,-0.1650238037109375
1772556639850617900,11.089617919921874,-0.7445068359375,-0.3945159912109375,-0.15899658203125
1772556639860601900,11.099601806640624,-0.734588623046875,-0.405914306640625,-0.1527862548828125
1772556639870585900,11.1095859375,-0.725189208984375,-0.4160308837890625,-0.15277099609375
1772556639880569900,11.11956982421875,-0.7201690673828125,-0.4253692626953125,-0.1561737060546875
1772556639890555000,11.129554931640625,-0.723236083984375,-0.4345245361328125,-0.153900146484375
1772556639900539000,11.139538818359375,-0.734466552734375,-0.44146728515625,-0.1431121826171875
1772556639910523000,11.14952294921875,-0.741119384765625,-0.44146728515625,-0.14007568359375
1772556639920508000,11.1595078125,-0.7546234130859375,-0.4401397705078125,-0.1476287841796875
1772556639930492000,11.169491943359375,-0.781341552734375,-0.435150146484375,-0.1551971435546875
1772556639940476000,11.179475830078125,-0.817352294921875,-0.4368438720703125,-0.1627044677734375
1772556639950460000,11.1894599609375,-0.845855712890625,-0.439788818359375,-0.1735992431640625
1772556639960445000,11.19944482421875,-0.8771820068359375,-0.435546875,-0.1847991943359375
1772556639970429000,11.209428955078126,-0.927764892578125,-0.4291839599609375,-0.195098876953125
1772556639980413000,11.219412841796874,-0.979217529296875,-0.4231414794921875,-0.2050628662109375
1772556639990397000,11.22939697265625,-1.0156707763671875,-0.4147491455078125,-0.221160888671875
1772556640000382000,11.2393818359375,-1.0397491455078125,-0.4087982177734375,-0.24359130859375
1772556640010366000,11.249365966796875,-1.0515289306640625,-0.40478515625,-0.264129638671875
1772556640020350000,11.259349853515625,-1.03985595703125,-0.41229248046875,-0.2845458984375
1772556640030335000,11.2693349609375,-1.005218505859375,-0.4522857666015625,-0.3021697998046875
1772556640040319000,11.279319091796875,-0.9530029296875,-0.552154541015625,-0.3095703125
1772556640050303000,11.289302978515625,-0.95623779296875,-0.6081695556640625,-0.277557373046875
1772556640060287000,11.299286865234375,-0.9931793212890625,-0.59857177734375,-0.2417755126953125
1772556640070272000,11.30927197265625,-1.0440521240234375,-0.6022186279296875,-0.2347259521484375
1772556640080256000,11.319256103515626,-1.0901641845703125,-0.577484130859375,-0.23095703125
1772556640090240000,11.329239990234376,-1.1513519287109375,-0.5252532958984375,-0.227996826171875
1772556640100223700,11.3392236328125,-1.2176666259765625,-0.4781494140625,-0.194793701171875
1772556640110209000,11.349208984375,-1.2363128662109375,-0.413848876953125,-0.1503143310546875
1772556640120193000,11.359193115234374,-1.2253875732421875,-0.3350372314453125,-0.1065521240234375
1772556640130176800,11.3691767578125,-1.2024993896484375,-0.2695159912109375,-0.07769775390625
1772556640140162000,11.379162109375,-1.151123046875,-0.220703125,-0.0681915283203125
1772556640150146000,11.38914599609375,-1.0818023681640625,-0.1830291748046875,-0.059539794921875
1772556640160129800,11.3991298828125,-1.0233001708984375,-0.173248291015625,-0.0471343994140625
1772556640170113800,11.40911376953125,-0.9726715087890625,-0.1974334716796875,-0.03314208984375
1772556640180098800,11.419098876953125,-0.92437744140625,-0.2412872314453125,-0.018707275390625
1772556640190082800,11.429082763671875,-0.878875732421875,-0.2935638427734375,-0.016632080078125
1772556640200066800,11.43906689453125,-0.8417205810546875,-0.348907470703125,-0.025787353515625
1772556640210050800,11.44905078125,-0.823455810546875,-0.3953094482421875,-0.0324249267578125
1772556640220035800,11.459035888671876,-0.823211669921875,-0.4239959716796875,-0.0340118408203125
1772556640230019800,11.469019775390626,-0.837890625,-0.4343719482421875,-0.0367279052734375
1772556640240003800,11.47900390625,-0.8563995361328125,-0.431732177734375,-0.0459442138671875
1772556640249988900,11.48898876953125,-0.8667144775390625,-0.4215545654296875,-0.0667877197265625
1772556640259972900,11.498972900390624,-0.86248779296875,-0.411651611328125,-0.0986480712890625
1772556640269956900,11.508956787109375,-0.8647613525390625,-0.4110107421875,-0.1309814453125
1772556640279940900,11.51894091796875,-0.8648834228515625,-0.4146575927734375,-0.1649017333984375
1772556640289926000,11.52892578125,-0.84075927734375,-0.417724609375,-0.199737548828125
1772556640299910000,11.538909912109375,-0.8029632568359375,-0.420745849609375,-0.2391357421875
1772556640309894000,11.548893798828125,-0.7665252685546875,-0.42156982421875,-0.2714691162109375
1772556640319878000,11.5588779296875,-0.7379913330078125,-0.41912841796875,-0.2799224853515625
1772556640329863000,11.56886279296875,-0.713531494140625,-0.4122314453125,-0.265411376953125
1772556640339847000,11.578846923828126,-0.6822509765625,-0.408355712890625,-0.235687255859375
1772556640349831000,11.588830810546876,-0.7249755859375,-0.40521240234375,-0.2084808349609375
1772556640359816000,11.59881591796875,-0.7379150390625,-0.3998870849609375,-0.1739044189453125
1772556640369800400,11.608800537109374,-0.80584716796875,-0.3869476318359375,-0.113006591796875
1772556640379784700,11.61878466796875,-0.9049072265625,-0.3895263671875,-0.0448150634765625
1772556640389768700,11.628768798828125,-0.91949462890625,-0.4006195068359375,-0.0076446533203125
1772556640399753500,11.63875341796875,-0.8791351318359375,-0.38092041015625,-0.001617431640625
1772556640409737500,11.648737548828125,-0.8488006591796875,-0.34625244140625,-0.0166168212890625
