time,seconds_elapsed,z,y,x
1772556628841664800,0.080664794921875,-1.8468132770776748,-1.2392635630249977,-0.655294046524167
1772556628851648800,0.090648681640625,-2.1499428219377994,-1.15880295586586,-0.9832976281389594
1772556628861632800,0.1006328125,-2.8952509013861416,-0.20180033719539642,-0.8415256431877612
1772556628871617800,0.11061767578125,-3.6036838329017162,1.0412556038498877,-0.7297266255654394
1772556628881601800,0.120601806640625,-3.79055022033751,1.692755811049044,-1.0778481354489922
1772556628891585800,0.130585693359375,-3.170226949429512,1.809223551134765,-1.497998670363426
1772556628901570800,0.14057080078125,-1.6896563837289809,1.5860948869675398,-1.7973058804564177
1772556628911554800,0.150554931640625,-0.3640612756848335,1.5678355921775102,-1.8527229395128786
1772556628921538800,0.160538818359375,0.43025194995105265,1.7491396693110466,-1.696418717470765
1772556628931522800,0.170522705078125,0.8479360947519541,1.6645181430801748,-1.5076517571106551
1772556628941507800,0.1805078125,0.8948743715375661,1.174724163097143,-1.3890586954340338
1772556628951491800,0.190491943359375,0.6025269174546003,0.68054071598351,-1.191257657007873
1772556628961475800,0.200475830078125,0.2126753669530153,0.3293564575284719,-0.8641941327221692
1772556628971460900,0.2104609375,-0.07392448338866234,0.08770897085219621,-0.5181587814629077
1772556628981444900,0.22044482421875,-0.23669804757535456,-0.05866583171933889,-0.28033815959841013
1772556628991428900,0.230428955078125,-0.29733284128010273,-0.12362404158115387,-0.1365089498564601
1772556629001414000,0.240413818359375,-0.33982115291953086,-0.13820698594599962,0.0011355799011886119
1772556629011398000,0.25039794921875,-0.35626083106696604,-0.15972820514142513,0.12144859723821282
1772556629021382000,0.2603818359375,-0.30143033972680566,-0.1318570323973894,0.13121661560200154
1772556629031367000,0.270366943359375,-0.18190496563613415,-0.1010769864693284,0.13839819766916334
1772556629041351000,0.280350830078125,0.02146422831118107,-0.10317366648763418,0.19379830559082328
1772556629051335000,0.2903349609375,0.23920330839455126,-0.11711860520988703,0.19123481177836654
1772556629061319000,0.30031884765625,0.5186258144527673,-0.16436667859703302,0.14867401942461728
1772556629071304000,0.310303955078125,0.8214420555800199,-0.22887509886473417,0.035727000810950996
1772556629081288000,0.320287841796875,1.027323524609208,-0.21342676984220743,-0.04286379388831556
1772556629091272000,0.33027197265625,1.2424638203710316,-0.12573942629992962,-0.1901698859605938
1772556629101257000,0.340257080078125,1.4697954891860485,-0.02918663925677538,-0.38087848190777
1772556629111241000,0.350240966796875,1.6032038426786661,0.08077157280445098,-0.5243322824660688
1772556629121225000,0.360224853515625,1.5820838977605103,0.15853870309591292,-0.5960037992961704
1772556629131209700,0.370209716796875,1.5230845963031052,0.1768178716301918,-0.6331825332853943
1772556629141194000,0.380194091796875,1.571812094593048,0.1911810357645154,-0.6717290484964847
1772556629151178000,0.390177978515625,1.5952777258545159,0.22894202662110327,-0.7634792575635015
1772556629161162800,0.400162841796875,1.5537211421072483,0.2922264580518007,-0.8654683173764497
1772556629171146800,0.410146728515625,1.481892754215002,0.24865093569755553,-0.9528870000451802
1772556629181131000,0.420131103515625,1.3099766831517219,0.15789543675631285,-0.9343763608425855
1772556629191115000,0.430114990234375,1.173493744519353,-0.046238604083657264,-0.9100397189002484
1772556629201099800,0.440099853515625,1.1434914049655198,-0.26768092259913684,-0.9555494972527027
1772556629211083800,0.450083740234375,1.117168630707264,-0.43580461564213036,-1.031901353918761
1772556629221068000,0.460068115234375,1.0746546001046895,-0.5980097322911023,-1.1113992535255848
1772556629231052800,0.470052734375,1.0123130024820566,-0.7402043265685438,-1.1863008383180946
1772556629241036800,0.480036865234375,0.8871832325130701,-0.8282055583655834,-1.1965230301901697
1772556629251020800,0.490020751953125,0.7318085464060307,-0.854734084329009,-1.1855530156254768
1772556629261005800,0.500005859375,0.5484358463048935,-0.873887697610259,-1.1418361851043999
1772556629270989800,0.50998974609375,0.38164895482361316,-0.9560571545138955,-1.0027285970568656
1772556629280973800,0.519973876953125,0.14597674316465853,-1.1920116902455686,-0.9228203630834817
1772556629290958800,0.529958740234375,-0.20620003345906734,-1.321330436336994,-0.7273838618315756
1772556629300942800,0.53994287109375,-0.47877603462338447,-1.4600716752901672,-0.33123686444759365
1772556629310926800,0.5499267578125,-0.6338590443074703,-1.6132365763932466,-0.027727837016899137
1772556629320910800,0.559910888671875,-0.7526590267330407,-1.7252654572486876,0.1310381537625566
1772556629330896000,0.569895751953125,-0.7330693601220846,-1.7822870288923383,0.17982045097965746
1772556629340880000,0.5798798828125,-0.7723626751124858,-1.7282777908071874,0.08419732773574069
1772556629350864000,0.58986376953125,-0.917409443950653,-1.61733290579617,-0.007638111929316073
1772556629360851500,0.5998515625,-1.0905109254062175,-1.5881652635008097,-0.1418129562824033
1772556629370835500,0.60983544921875,-1.3527847282648087,-1.6550445045530795,-0.22363338055266066
1772556629380819500,0.6198193359375,-1.7446978874713182,-1.674363245268166,-0.2844226524330675
1772556629390804500,0.629804443359375,-2.2367139274179935,-1.3647002069860696,-0.2577171076686121
1772556629400788500,0.63978857421875,-2.7649282389491794,-0.8293234564796089,-0.25514153982587157
1772556629410772500,0.6497724609375,-3.1601883704960345,-0.28707857376933094,-0.4897004930133
1772556629420757500,0.659757568359375,-3.370470120310783,0.3567898233771324,-0.8849703057039529
1772556629430741500,0.669741455078125,-3.536577212834358,0.9614943771317601,-1.2476904689781367
1772556629440725500,0.6797255859375,-3.8920764118790623,1.3080635430067777,-1.401694743514806
1772556629450709500,0.68970947265625,-4.252569765949249,1.3788976591646671,-1.3025032785311341
1772556629460694500,0.699694580078125,-4.37832438981831,1.1685723624691366,-1.0460800283316523
1772556629470678500,0.709678466796875,-4.425450298130512,0.7917550655856728,-0.6684032650746404
1772556629480662500,0.71966259765625,-4.594650680494309,0.2555363112971186,-0.31582937889210877
1772556629490647600,0.7296474609375,-4.616774834018946,-0.39246728595793245,-0.07922832541782408
1772556629500631600,0.739631591796875,-4.330865304028988,-0.8086711290732026,0.13780463395649567
1772556629510615600,0.749615478515625,-3.8418215578913686,-0.8019128869846462,0.413299536508508
1772556629520600600,0.7596005859375,-3.3332752389043567,-0.48600247874557967,0.6034557227373123
1772556629530584600,0.76958447265625,-2.880964601880312,-0.04188946896344423,0.7139781445525586
1772556629540568600,0.779568603515625,-2.485737788081169,0.4490203633069992,0.8480354634732008
1772556629550553600,0.7895537109375,-2.09162273491621,0.9866463540449738,1.0514191243372857
1772556629560537600,0.79953759765625,-1.6288830583363771,1.5313737012207507,1.3249825291037558
1772556629570521600,0.809521484375,-1.173937396633625,1.9771593203902242,1.613726844128221
1772556629580505600,0.819505615234375,-0.7375356918811797,2.2551038628503677,1.87193938889727
1772556629590490600,0.82949072265625,-0.3758428988933563,2.457363341990113,2.10459897473678
1772556629600474600,0.839474609375,-0.052014264875650404,2.608348853227496,2.22019227007553
1772556629610458600,0.849458740234375,0.27740824362635613,2.6794939350306985,2.2179481444105504
1772556629620443600,0.859443603515625,0.5989911445438861,2.654329390896857,2.106921426334977
1772556629630427600,0.869427734375,0.8942074320614337,2.6275720246136185,1.9167270635202527
1772556629640411600,0.87941162109375,1.1448293755710124,2.588051915130019,1.6206702335253358
1772556629650396700,0.889396728515625,1.4046622150182724,2.519816875554621,1.2766107123836874
1772556629660380700,0.899380615234375,1.5919886211812495,2.465023209093511,0.9517271624855697
1772556629670364700,0.90936474609375,1.6863789694935083,2.446938686348498,0.6842693811178207
1772556629680349700,0.919349609375,1.7183990786105394,2.4063228905826803,0.457795132849738
1772556629690333700,0.929333740234375,1.689033283394575,2.3344413111984728,0.27580530194174496
1772556629700317700,0.939317626953125,1.65791567607522,2.20989226372689,0.17629571091961116
1772556629710302500,0.949302490234375,1.6468594445317983,2.037861918634176,0.16535521471034734
1772556629720286700,0.95928662109375,1.7342045505076646,1.815154110227525,0.12829955911152063
1772556629730270700,0.969270751953125,1.9020815753132103,1.5998668072104454,0.15025230159200728
1772556629740254700,0.979254638671875,2.043699538746476,1.3458821092694997,0.20145945133585483
1772556629750239500,0.989239501953125,2.1046932288914917,1.052721292977035,0.24109222741369157
1772556629760223700,0.9992236328125,2.114883198994398,0.7820707069173455,0.27635000327769665
1772556629770207700,1.009207763671875,2.0447920101583,0.5476932112440467,0.32084991046786304
1772556629780192500,1.019192626953125,1.8967875605583189,0.3268868525445461,0.32916667057741433
1772556629790176500,1.029176513671875,1.7169535559773443,0.18957886126488446,0.34815168582610784
1772556629800160800,1.039160888671875,1.5121943689763546,0.08932429709434508,0.3751896226163953
1772556629810145500,1.0491455078125,1.37583359541893,-0.051283027991652484,0.34430041722543536
1772556629820129500,1.059129638671875,1.2843190948039294,-0.16256372082829473,0.3009161065943539
1772556629830113500,1.069113525390625,1.173212004968524,-0.17716507763266562,0.3181513190336525
1772556629840098600,1.0790986328125,1.1123813964307308,-0.17567337777018546,0.3204722362618893
1772556629850082600,1.08908251953125,1.075295236095786,-0.18535949000418184,0.30624760381542143
1772556629860066600,1.099066650390625,1.0119418310821056,-0.2052694746106863,0.3309994754951447
1772556629870051600,1.109051513671875,0.914015125337243,-0.23157179060280322,0.3923126068528741
1772556629880035600,1.11903564453125,0.8139934931397438,-0.27875995049625635,0.4818856180112809
1772556629890019600,1.12901953125,0.7289385439276694,-0.3789408649086952,0.48433819879516954
1772556629900003600,1.139003662109375,0.6437754581660032,-0.4974588155224919,0.4254327861662954
1772556629909988600,1.148988525390625,0.5946715277791023,-0.6643345543310046,0.41520314164012667
1772556629919972600,1.15897265625,0.568983544293046,-0.8158154478698968,0.4075307803813368
1772556629929956600,1.16895654296875,0.5864928974986076,-0.9466098194718361,0.4149520894885063
1772556629939941600,1.178941650390625,0.5994733751028776,-1.0917977503463625,0.42294549939520654
1772556629949925600,1.188925537109375,0.5510895756840706,-1.1863245845198631,0.4701365088328719
1772556629959909600,1.19890966796875,0.4652110351294279,-1.2193339969351886,0.551607827404514
1772556629969894700,1.208894775390625,0.3980301807820797,-1.2467910359203815,0.6088502752572298
1772556629979878700,1.218878662109375,0.42874739060699935,-1.247951896393299,0.6853380332626402
1772556629989862700,1.228862548828125,0.5031307236790656,-1.2085899000808595,0.762800481519103
1772556629999847700,1.23884765625,0.6021802959740161,-1.143131047220528,0.8313337733887135
1772556630009831700,1.248831787109375,0.6983014136016369,-1.0562690485864876,0.8937662641651928
1772556630019815700,1.258815673828125,0.8049597073346376,-0.921477131780982,0.8951797842249274
1772556630029800700,1.26880078125,0.8347492809206247,-0.787053171505034,0.835056447173655
1772556630039784700,1.27878466796875,0.7557482249200344,-0.6861401434257626,0.7882784755162894
1772556630049768700,1.288768798828125,0.633212563097477,-0.6351052449762821,0.7123328615635633
1772556630059753700,1.298753662109375,0.4271142364472151,-0.5917530099838971,0.6456986813135445
1772556630069737700,1.30873779296875,0.21817221080362795,-0.527306256775558,0.6136063837431371
1772556630079721700,1.3187216796875,0.09095862029790877,-0.45971097640842196,0.594617021112889
1772556630089705700,1.328705810546875,0.058898763692378994,-0.3254273013859987,0.5825745550110936
1772556630099690800,1.338690673828125,0.007965864312648773,-0.1682733306467533,0.5763485201030969
1772556630109674800,1.3486748046875,0.023314240092039105,-0.06655746175199746,0.5326696835048497
1772556630119658800,1.35865869140625,0.13876608113348482,0.06610913346260786,0.43400165787339207
1772556630129643800,1.368643798828125,0.3141086195141077,0.20455372755676507,0.3281593566983938
1772556630139627800,1.378627685546875,0.5379202975094318,0.21502309912294149,0.2870870493367314
1772556630149611800,1.38861181640625,0.8003782247632741,-0.020974106706678868,0.32880013881996273
1772556630159596800,1.3985966796875,1.0013637384444474,-0.43382513226270675,0.4652954985424876
1772556630169580800,1.408580810546875,1.0714929212033748,-0.8327566457986831,0.6307062793649733
1772556630179564800,1.418564697265625,1.0130570988476275,-1.288235975986719,0.7391798058263958
1772556630189549600,1.428549560546875,0.7935036628186702,-1.6566069315642118,0.8488866734750569
1772556630199533800,1.438533935546875,0.4382160606980324,-1.962730397543311,0.8326379878550767
1772556630209517800,1.448517822265625,-0.04214753537774086,-1.9878256758332251,0.6802179137699306
1772556630219502600,1.458502685546875,-0.9580383914589882,-1.5150462512761353,0.40021278551816936
1772556630229486600,1.468486572265625,-2.0972095951378344,-0.9424462700515985,-0.09912146848738193
1772556630239470800,1.478470947265625,-2.9572090526491404,-0.6470815139740705,-0.7282661976240575
1772556630249454800,1.488454833984375,-3.242795926555991,-0.40813071903586384,-1.3472003522612153
1772556630259439600,1.498439697265625,-3.085231621450186,-0.029296529372036455,-1.74617702011317
1772556630269423600,1.508423583984375,-2.442172787120938,0.4402130797341466,-1.7692971989378332
1772556630279407600,1.51840771484375,-1.4273942713081835,0.8747375924378633,-1.4620603648893535
1772556630289392600,1.528392578125,-0.4113210395097732,1.1896154427587986,-0.9654121350973844
1772556630299376600,1.538376708984375,0.34868425833284855,1.444848094934225,-0.46040465776100753
1772556630309360600,1.548360595703125,0.9170330118536949,1.5942103888839483,-0.07098916058912873
1772556630319345700,1.558345703125,1.1559393831282854,1.623981842291355,0.16501096784994004
1772556630329329700,1.56832958984375,1.1864642852514982,1.5691194945082068,0.2828115639746189
1772556630339313700,1.578313720703125,1.187730944186449,1.3666966415002941,0.2780744524501264
1772556630349298700,1.588298583984375,1.1947919686138628,1.172950723683834,0.33985023288354277
1772556630359279000,1.598279052734375,1.1907032379955054,1.0391226834744214,0.36142858909368514
1772556630369263000,1.60826318359375,1.1426806731045245,0.911038739874959,0.2732834187813103
1772556630379248000,1.618248046875,1.0452566561847925,0.7636439466059207,0.17807810082435607
1772556630389232000,1.628232177734375,0.9507388821005821,0.5755857190370559,0.012645108170062303
1772556630399216000,1.638216064453125,0.8345224864274263,0.38015316330790516,-0.15835004865601657
1772556630409201200,1.648201171875,0.7178343815892935,0.2156868237286806,-0.2649105811029672
1772556630419185200,1.65818505859375,0.6164245099037885,0.10392039320170879,-0.37540100034475327
1772556630429169200,1.668169189453125,0.5629056856840848,0.039377486142516134,-0.5330399781219661
1772556630439153200,1.678153076171875,0.5411047727644444,-0.02790858214497566,-0.6541990908943116
1772556630449138200,1.68813818359375,0.5351286209642887,-0.06401537605375052,-0.733045248594135
1772556630459122200,1.6981220703125,0.5553115772932767,-0.021729308988153933,-0.7761699584409594
1772556630469106200,1.708106201171875,0.6370616397410631,-0.008291735266149044,-0.7991026518695056
1772556630479091200,1.71809130859375,0.7428437351614237,-0.01855447834432125,-0.7512469679780304
1772556630489075200,1.7280751953125,0.8671434840470552,-0.03365238649398088,-0.6195353354007005
1772556630499059200,1.73805908203125,0.9239636878997087,-0.09482347903251648,-0.4295996235221624
1772556630509044200,1.748044189453125,0.890480520492792,-0.19458119959682224,-0.2040159674182534
1772556630519028200,1.7580283203125,0.9082581692457199,-0.301288008646667,-0.07145765488371253
1772556630529012200,1.76801220703125,0.9973106636613607,-0.4091989327892661,-0.0011402560763061045
1772556630538997200,1.777997314453125,0.9943757792532444,-0.5242036145851016,-0.008913228165358304
1772556630548981200,1.787981201171875,1.0274918669134379,-0.5906190375179052,-0.05995367957279086
1772556630558965200,1.79796533203125,1.1013988146454095,-0.5879913193628191,-0.13980404587909578
1772556630568950300,1.8079501953125,1.2612298956394195,-0.6177107503220438,-0.2906440111659467
1772556630578934300,1.817934326171875,1.4663362886428832,-0.6334975175186991,-0.45137496360912915
1772556630588918300,1.827918212890625,1.5972645157575607,-0.5818602692618966,-0.558711887256056
1772556630598903300,1.8379033203125,1.6510229939520358,-0.5339993246734142,-0.6468794155307114
1772556630608887300,1.84788720703125,1.682770715868473,-0.5456099752292036,-0.7160990822292864
1772556630618871300,1.857871337890625,1.6812644029587507,-0.5811255252465606,-0.7701217643178999
1772556630628856000,1.86785595703125,1.633138962215185,-0.5901067040815949,-0.7292343120038509
1772556630638840300,1.87784033203125,1.5504840598821639,-0.5533212802588939,-0.6066460432112216
1772556630648824300,1.88782421875,1.4359399813354015,-0.47379970751553774,-0.4938144676707685
1772556630658808300,1.897808349609375,1.3207137657433747,-0.40315526871085167,-0.46045887216627596
1772556630668793000,1.90779296875,1.1382955898880958,-0.3433554645255208,-0.43913215262964367
1772556630678777300,1.91777734375,0.798854960718751,-0.3186985776528716,-0.35672318788170815
1772556630688761300,1.92776123046875,0.38297874212265015,-0.3587663841471076,-0.2342572302944958
1772556630698746000,1.93774609375,-0.027477789512276647,-0.3884969210222363,-0.25214674192406233
1772556630708730000,1.947730224609375,-0.437021297955513,-0.28794863460212944,-0.43498906147554517
1772556630718714000,1.957714111328125,-0.85234514336586,-0.1316673550441861,-0.6840669904135167
1772556630728699100,1.96769921875,-1.2110650580227373,-0.02128857948333025,-0.876538942771405
1772556630738683100,1.97768310546875,-1.4282359828293323,-0.0036088381469249723,-1.0314214614473283
1772556630748667100,1.987667236328125,-1.6639859358996152,-0.09965659827739,-1.1032217922888696
1772556630758652200,1.997652099609375,-1.6714011805921791,-0.34155747519284485,-1.0832932491123675
1772556630768636200,2.00763623046875,-1.247920332211256,-0.9114049428388475,-1.2533001255534588
1772556630778620200,2.0176201171875,-0.6973416286587715,-1.6358318545609711,-1.5081760732457041
1772556630788605200,2.027605224609375,-0.5801385600358248,-2.1913234645962714,-1.507839827028662
1772556630798589200,2.037589111328125,-0.8463660689562559,-2.4848460999384523,-1.3236948273807763
1772556630808573200,2.0475732421875,-1.4855144518435,-2.4263284445181488,-1.2097938690431416
1772556630818558200,2.05755810546875,-2.206867070686817,-2.133141909262538,-1.2083493693232537
1772556630828542200,2.067542236328125,-2.8391216024070975,-1.742536617784202,-1.1770013142488895
1772556630838526200,2.077526123046875,-3.271484845423698,-1.1519976597651838,-0.8657458922088146
1772556630848511200,2.08751123046875,-3.341763081264496,-0.3693640582680702,-0.4702331010751426
1772556630858495200,2.0974951171875,-3.0653081928402184,0.42753333864212034,-0.15333616601675748
1772556630868479200,2.107479248046875,-2.475318100875616,1.1630626591369508,0.06166004509925842
1772556630878464300,2.11746435546875,-1.7725310662925242,1.8035922672495246,0.3474864268504083
1772556630888448300,2.1274482421875,-1.1343144112974404,2.198940953862667,0.6774234607458114
1772556630898432300,2.137432373046875,-0.5414338585883378,2.2999039585635064,0.9528792551301419
1772556630908416000,2.147416015625,-0.07415303144752979,2.1781857506036757,1.18159287982285
1772556630918401300,2.1574013671875,0.2312117251187563,1.919260673651099,1.3357666657075284
1772556630928385300,2.16738525390625,0.4637514839708805,1.5251453282251952,1.362389445825666
1772556630938369000,2.177369140625,0.6836743378341198,1.0928957747161387,1.3244269410476088
1772556630948354300,2.187354248046875,0.8328928393989801,0.7651458756014704,1.3407527835570274
1772556630958338000,2.197338134765625,0.8353647824704646,0.5541024937644601,1.4207622859477995
1772556630968322000,2.207322021484375,0.6893763488680124,0.37403614173233507,1.526684666621685
1772556630978307300,2.217307373046875,0.5183896676093339,0.09768003750741482,1.540051951586455
1772556630988291000,2.227291015625,0.2911901007413864,-0.14083616540580987,1.4354426993377505
1772556630998275000,2.237275146484375,0.05626081640422344,-0.24541736060380934,1.2742211868986486
1772556631008260400,2.24726025390625,-0.0375882646381855,-0.18763474145978687,1.0285048433482646
1772556631018244000,2.257244140625,-0.007552022814750671,-0.07527502121478319,0.7414753694176673
1772556631028228000,2.26722802734375,0.08018938900232314,-0.018243220438063142,0.44088571829870343
1772556631038213400,2.27721337890625,0.21008476593792438,-0.005984919628500938,0.11567191353291273
1772556631048197000,2.287197021484375,0.4129360734909773,0.03275543765425682,-0.1862313044026494
1772556631058181000,2.29718115234375,0.7060808154314756,0.06838204683065414,-0.43917613790184257
1772556631068166100,2.307166259765625,0.9647013564795255,0.07431903566420078,-0.5838694171272217
1772556631078150100,2.317150146484375,1.141679971629381,0.09391337845027446,-0.6139901223637163
1772556631088134100,2.327134033203125,1.190159048116207,0.09990063616633414,-0.47856253800317644
1772556631098119200,2.337119140625,1.1731570599108934,0.05167728800624609,-0.2715167013697326
1772556631108103000,2.34710302734375,1.201218786790967,0.039297114382684226,-0.016050532699376344
1772556631118087200,2.357087158203125,1.2601724955409765,0.015117489632964134,0.1808954963326454
1772556631128072000,2.367072021484375,1.2996914359807967,-0.028621698850393295,0.34082433861270545
1772556631138056000,2.377055908203125,1.2841858238130808,-0.05975508826076984,0.4584608302168548
1772556631148040000,2.3870400390625,1.3007704633891581,-0.080659636862576,0.5175516093499958
1772556631158025000,2.39702490234375,1.356051621106267,-0.09407879814505576,0.5185270302534103
1772556631168009000,2.407009033203125,1.3781383652299641,-0.07250263389199972,0.46047363134399055
1772556631177993000,2.416992919921875,1.3162100245833397,-0.03968348335176706,0.3638923488587141
1772556631187977000,2.42697705078125,1.242944297364354,-0.06568623187541961,0.26784780359864235
1772556631197962000,2.4369619140625,1.2251228094696998,-0.12493804678916931,0.2144331704057753
1772556631207946000,2.446946044921875,1.2304606633663178,-0.12914163595885036,0.2327700604766607
1772556631217930000,2.456929931640625,1.2126087803333998,-0.184219672319293,0.30786840995028614
1772556631227915000,2.4669150390625,1.1240402700424195,-0.24222557882517576,0.40135494129061694
1772556631237899000,2.47689892578125,1.005889106914401,-0.2623772632330656,0.5006584883466363
1772556631247883000,2.486883056640625,0.7958043409764767,-0.26513006907254455,0.5275154425468296
1772556631257868000,2.496867919921875,0.5719909094154835,-0.26413287472873925,0.47051009138561783
1772556631267852000,2.50685205078125,0.34544016184508797,-0.2676058115363121,0.3634920974947512
1772556631277836000,2.5168359375,0.17371873657107353,-0.34200521896034475,0.24516630845218895
1772556631287821000,2.526821044921875,0.03624444881379604,-0.4837587914720177,0.18774945388063788
1772556631297805000,2.53680517578125,-0.12462123592495918,-0.6247834651872516,0.19729111614264547
1772556631307789000,2.5467890625,-0.2383078208595514,-0.7303367202877998,0.22981318343244492
1772556631317774000,2.556774169921875,-0.39549978552162646,-0.8365145370274781,0.21834661752246318
1772556631327758000,2.566758056640625,-0.6546025571286678,-0.9472732518166304,0.21493666294850408
1772556631337742000,2.5767421875,-0.7871522479653358,-1.1388330577656627,0.24435944904871285
1772556631347727000,2.58672705078125,-0.7044272030055523,-1.4948460515514015,0.30031156482994553
1772556631357710600,2.596710693359375,-0.711700993400812,-1.6375912654489277,0.5102450126636773
1772556631367694600,2.606694580078125,-0.8365665594756603,-1.4701552624091505,0.7535316448491066
1772556631377679600,2.6166796875,-1.260275955915451,-1.0117682280808686,0.8130347311101853
1772556631387663600,2.62666357421875,-1.7546318369865417,-0.6901599004611373,0.5152814724609256
1772556631397647600,2.636647705078125,-2.2153239333868027,-0.4765498830065131,0.12093253747485577
1772556631407632600,2.646632568359375,-2.84944893515408,0.04983984344601631,0.0007414660170674324
1772556631417616600,2.65661669921875,-3.403246600753069,0.6146937405884265,-0.1420319510616362
1772556631427600600,2.6666005859375,-3.467551022881269,1.0143602904006839,-0.5193740755368024
1772556631437585700,2.676585693359375,-3.0752818898439407,1.2186182498812674,-1.0697138557668775
1772556631447569700,2.686569580078125,-2.3498247582912444,1.2704530665367841,-1.620844713309407
1772556631457553700,2.6965537109375,-1.4441986911147833,1.3302704063788056,-1.9574460273995995
1772556631467537700,2.70653759765625,-0.6780056445479392,1.3678522412762044,-1.9718211742326617
1772556631477522700,2.716522705078125,-0.17258125697374344,1.355087159988284,-1.733545502077043
1772556631487506700,2.726506591796875,-0.2165630220413208,1.2286200039356947,-1.4878601381868124
1772556631497490700,2.73649072265625,-0.4812865561395883,0.9512292959660291,-1.2965250809043645
1772556631507475700,2.746475830078125,-0.7489391294270753,0.6634156859204172,-1.1011731161307543
1772556631517459700,2.756459716796875,-0.8286012796849012,0.45142216375172134,-0.903314063907042
1772556631527443700,2.766443603515625,-0.7324006670802832,0.2760594593659043,-0.6446343400176614
1772556631537428700,2.7764287109375,-0.5334329229623079,0.12930910148024558,-0.398173096384108
1772556631547412700,2.786412841796875,-0.3918278190106153,-0.0014981296032667158,-0.12347981080487369
1772556631557396700,2.796396728515625,-0.3370201240241527,-0.09099106126278639,0.1659353892184794
1772556631567381500,2.806381591796875,-0.339444136300683,-0.1438014449521899,0.4195237813182175
1772556631577365800,2.81636572265625,-0.36576048081815243,-0.20801029775142668,0.5898850972201675
1772556631587349800,2.826349853515625,-0.37564357692897316,-0.27054829472899433,0.7127048366811126
1772556631597334500,2.83633447265625,-0.2823141358464956,-0.264340379999578,0.7653592991564422
1772556631607318500,2.846318603515625,-0.1491635565072298,-0.16579057392030955,0.7870448420681059
1772556631617302800,2.856302734375,0.047270285218954086,-0.0166895612552762,0.8096152780555188
1772556631627287600,2.86628759765625,0.25056407584249973,0.125046767860651,0.7928371617339551
1772556631637271600,2.876271484375,0.4705395366758108,0.24672990450710056,0.7504867972604929
1772556631647255600,2.886255615234375,0.7644891652584076,0.35799715334028004,0.6927640916101634
1772556631657240600,2.896240478515625,0.9931535439819097,0.45110622967034575,0.6274575067020952
1772556631667224600,2.906224609375,1.1459084029793738,0.4240902124509215,0.567514056262374
1772556631677208600,2.91620849609375,1.263151803612709,0.2678992415249348,0.47913507719412446
1772556631687193600,2.926193603515625,1.3391758896291255,0.08356734100282191,0.47513256355449557
1772556631697177600,2.936177490234375,1.4192273314654826,-0.07809475481063127,0.47283524639755486
1772556631707161600,2.94616162109375,1.4860463667631147,-0.19809388389289379,0.4894212011478841
1772556631717146600,2.956146728515625,1.5477391450881957,-0.3024661125153303,0.47066535501256584
1772556631727130600,2.966130615234375,1.5818962662339209,-0.35223552107363937,0.4403684164263308
1772556631737114600,2.976114501953125,1.6430770033836364,-0.3141249861270189,0.4838859249830246
1772556631747098600,2.9860986328125,1.7877268818587064,-0.16786182723641394,0.5641157921262085
1772556631757083600,2.996083740234375,1.9384850140810013,0.03569996667355299,0.5792199838861822
1772556631767067600,3.006067626953125,2.0952719050735236,0.1807347528129816,0.5701883900381625
1772556631777051600,3.0160517578125,2.236965856352448,0.22120529488921165,0.5240295731924474
1772556631787036700,3.02603662109375,2.320074932193756,0.26865999676436186,0.4926755267687142
1772556631797020700,3.036020751953125,2.2545354153126476,0.3203197491139173,0.46127501085475087
1772556631807004700,3.046004638671875,2.090651259535551,0.31351094588190315,0.4376078656718135
1772556631816989700,3.05598974609375,1.791937193030119,0.24844810660183428,0.43186961428076026
1772556631826973700,3.0659736328125,1.3659656968772411,0.13975100051760672,0.44680780182406304
1772556631836957700,3.075957763671875,0.9804758487164974,-0.02971241669654846,0.35168738567158575
1772556631846942700,3.085942626953125,0.6663017627507448,-0.16554361342191695,0.08837766389399766
1772556631856926700,3.0959267578125,0.3374275357812643,-0.19726152472198008,-0.2159999813310802
1772556631866910700,3.10591064453125,-0.04181961859762669,-0.29599311710894105,-0.5372837531715631
1772556631876895700,3.115895751953125,-0.4686638059318065,-0.38012043008208274,-0.7763675268396735
1772556631886879700,3.125879638671875,-0.924686741477251,-0.42670097947120667,-0.9770027657784521
1772556631896863700,3.13586376953125,-1.114673306760192,-0.46199791830182074,-1.1136037778325378
1772556631906848800,3.145848876953125,-1.0143477231800555,-0.43397330856174227,-1.1776239761918783
1772556631916832800,3.155832763671875,-0.7867085958510637,-0.4034747099235654,-1.0697134904406964
1772556631926816800,3.165816650390625,-0.3846750246465206,-0.6525628679946065,-0.9086366471692919
1772556631936801800,3.1758017578125,0.2125064401268959,-1.4131927274763583,-0.8370344692483543
1772556631946785800,3.185785888671875,0.42090719850063324,-2.05638337149173,-0.5985789104811847
1772556631956769800,3.195769775390625,0.2891103718578815,-2.411159809219837,-0.41187765047922725
1772556631966754600,3.205754638671875,-0.0752326433777809,-2.7141718651801345,-0.41039018840044733
1772556631976738800,3.21573876953125,-0.688886519524455,-2.7755776432573795,-0.44399493636041876
1772556631986722800,3.225722900390625,-1.4656430456817149,-2.300060902690887,-0.37943463977500796
1772556631996707600,3.23570751953125,-2.6155373034268616,-1.1264701275378466,-0.22641163136065004
1772556632006691600,3.245691650390625,-3.747270466059446,0.12392039417922496,-0.12078604167625308
1772556632016675600,3.255675537109375,-4.559054466456175,1.0833686524361372,0.05600158094614744
1772556632026660600,3.26566064453125,-4.808571663594246,1.8337474592775105,0.19312208682969212
1772556632036644600,3.27564453125,-4.080774690917134,2.2937010122701524,0.2932474716626107
1772556632046628600,3.285628662109375,-2.494502693817019,2.3980852235913277,0.3735004274204373
1772556632056613600,3.295613525390625,-0.9610872576355933,2.264412081682682,0.5240281118877231
1772556632066597600,3.30559765625,0.19065233571529389,1.9640484944045542,0.8362845276638865
1772556632076581600,3.31558154296875,0.8614800514578819,1.4436252751410006,1.0044937070332467
1772556632086565600,3.325565673828125,0.8347989652812481,0.8312550090640782,1.0459370396643877
1772556632096550700,3.335550537109375,0.4766957212179899,0.3586673076868057,1.0248761314570902
1772556632106534700,3.34553466796875,0.20330957271456718,0.09802110603004693,0.9980087289281189
1772556632116518700,3.3555185546875,-0.02375847672820091,0.01122720419615507,0.9304057036459445
1772556632126503700,3.365503662109375,-0.14473814128041265,-0.0007943652480840683,0.8467914547614753
1772556632136487700,3.37548779296875,-0.19457389307320117,-0.028374153830111024,0.7871351507000625
1772556632146471700,3.3854716796875,-0.24556232203245162,-0.03099719581007957,0.6560572859816253
1772556632156456700,3.395456787109375,-0.26864567597806455,0.07768763531446457,0.509928128734231
1772556632166440700,3.405440673828125,-0.26255671145319937,0.2098123787373304,0.26346681203544137
1772556632176424700,3.4154248046875,-0.06710252841413021,0.20162147349715231,-0.17763707905858753
1772556632186409700,3.42540966796875,0.21695289814174173,0.1307695294216275,-0.6586594313040375
1772556632196393700,3.435393798828125,0.46480245432853695,0.052313540083169935,-1.0172495821014047
1772556632206377700,3.445377685546875,0.6641314329743385,-0.01586012469381094,-1.2210074831053614
1772556632216362800,3.45536279296875,0.8131091115206479,-0.09512976850271225,-1.3501343598864972
1772556632226346800,3.4653466796875,0.9502239183157681,-0.13548106811344623,-1.3882476713120937
1772556632236330800,3.475330810546875,1.0194161124855279,-0.05322276388257741,-1.1266919535949826
1772556632246315800,3.485315673828125,1.0366583391875028,0.04201572569161653,-0.6681368692234159
1772556632256299800,3.4952998046875,1.0150590863198041,0.08330021449923515,-0.2213769981943071
1772556632266283800,3.50528369140625,0.9767658882826566,0.13452128317058085,0.15510814412534235
1772556632276268800,3.515268798828125,0.9084054687619209,0.23731851756125688,0.4854388535134494
1772556632286252800,3.525252685546875,0.928500746807456,0.3134951637908816,0.736843325702846
1772556632296236800,3.53523681640625,1.0111901359319686,0.35515374660789967,0.8232806691840291
1772556632306221800,3.545221923828125,1.1419389148265122,0.36034313194453715,0.8107491043910384
1772556632316205800,3.555205810546875,1.3195499826610086,0.3515767649039626,0.7207865093931556
1772556632326189800,3.56518994140625,1.4769494525939226,0.4071428770422935,0.6519843374542892
1772556632336174800,3.5751748046875,1.5756769533276558,0.5109785145699978,0.6024982758820057
1772556632346158800,3.585158935546875,1.6883838795751331,0.560533111333847,0.5436906976044178
1772556632356142800,3.595142822265625,1.715809062117338,0.5900634494617581,0.42762043240368364
1772556632366127600,3.605127685546875,1.655310462012887,0.586863192115724,0.4085588813200593
1772556632376111600,3.615111572265625,1.4930647210925816,0.5124100086778403,0.4225687019720673
1772556632386095600,3.625095703125,1.285889705121517,0.39904403399974103,0.3322422420978546
1772556632396079600,3.63507958984375,1.109152497512102,0.30404198352992534,0.1632674851834774
1772556632406064400,3.645064453125,0.9779892925977707,0.15342852047532796,-0.0144860598616302
1772556632416048600,3.655048583984375,0.8531476919203996,-0.10398030669540166,-0.24701865832060574
1772556632426032600,3.66503271484375,0.6277835237860679,-0.33771716637760396,-0.43547246107831594
1772556632436017400,3.675017333984375,0.2610778710722923,-0.547177662937343,-0.4647463402271271
1772556632446001400,3.68500146484375,-0.09802256733477115,-0.7292366500914096,-0.4236088586747646
1772556632455985700,3.694985595703125,-0.42287353013753887,-0.8053110049903393,-0.3966026321969926
1772556632465970400,3.704970458984375,-0.6312357100665569,-0.8750318992093205,-0.34476138580068943
1772556632475954400,3.714954345703125,-0.6122597914397716,-1.2763815798029303,-0.36775676920190453
1772556632485938400,3.7249384765625,-0.6638835956931114,-1.8074340373694895,-0.24413974188342688
1772556632495923500,3.73492333984375,-0.9844786546170711,-1.8091086925834416,0.11996084289848803
1772556632505907500,3.744907470703125,-1.4715502238988876,-1.7568021667629479,0.23362302404418586
1772556632515891500,3.754891357421875,-2.1716835291028023,-1.6478946327984332,0.10271481680423021
1772556632525876500,3.76487646484375,-3.5029017377257343,-0.6572381663292646,-0.1041210303403437
1772556632535860500,3.774860595703125,-4.664090127423405,0.4575003146216273,-0.5314294741854071
1772556632545844500,3.784844482421875,-4.849673489311337,0.8878206536337733,-1.2423168131157756
1772556632555829500,3.79482958984375,-4.2213259019017215,1.0149947889119386,-1.9646984827458858
1772556632565813500,3.8048134765625,-3.1532828288912773,1.1527405870869756,-2.4938100353777406
1772556632575797500,3.814797607421875,-1.9033873972147701,1.253093935456872,-2.74855227368772
1772556632585782500,3.824782470703125,-0.7880810532480478,1.2991408163607119,-2.6607266907185316
1772556632595766500,3.8347666015625,-0.056010056513547894,1.3913412534132599,-2.164035644698143
1772556632605750500,3.84475048828125,0.14634206934571264,1.4133248294234275,-1.5745162389852105
1772556632615735600,3.854735595703125,0.010430208599567413,1.1685352453291415,-1.2434354418821632
1772556632625719600,3.864719482421875,-0.0353618207603693,0.733463912397623,-1.0409545750766993
1772556632635703600,3.87470361328125,0.03984218104481697,0.3209332048371434,-0.8400548399828374
1772556632645688600,3.8846884765625,0.18745967715382575,0.05861994675099849,-0.5695847250565886
1772556632655672600,3.894672607421875,0.40406478477120394,-0.026292963641881942,-0.2325207618907094
1772556632665656600,3.904656494140625,0.6238017606735229,-0.015887304961681364,0.051327890046685934
1772556632675641600,3.9146416015625,0.7611936308443545,0.042190789997577666,0.2541904496461153
1772556632685625600,3.92462548828125,0.7050526414275169,0.16929565943181513,0.4094609447263181
1772556632695609600,3.934609619140625,0.4903150812476873,0.21739216634184122,0.437134987463057
1772556632705594600,3.9445947265625,0.27881401877105233,0.16558189960569142,0.41506227186471223
1772556632715578600,3.95457861328125,0.25875556560456753,0.14496581255644558,0.4448236422695219
1772556632725562600,3.964562744140625,0.3890273746371269,0.19535510657876728,0.43471915849298237
1772556632735546600,3.974546630859375,0.6806997059375047,0.2685153275966644,0.3528143438749015
1772556632745531600,3.98453173828125,1.00508889644742,0.3276078602954745,0.3072496935300529
1772556632755515600,3.994515625,1.256059215003252,0.3662146543264389,0.2290508938230574
1772556632765499600,4.004499755859375,1.4873288077890872,0.3564686285987496,0.1938673522390425
1772556632775484700,4.014484619140625,1.6344927149116992,0.32063217606395483,0.17698256067261098
1772556632785468700,4.02446875,1.6329799722611904,0.21676848148554562,0.10253712214976549
1772556632795452700,4.03445263671875,1.5274229177683591,0.05044716168940067,0.065250032415241
1772556632805437400,4.0444375,1.4285826043099163,-0.06425035385340452,0.07833017100170254
1772556632815421700,4.054421630859375,1.349501468810439,-0.13390695066452027,0.08601561093777417
1772556632825405700,4.06440576171875,1.3065905478447675,-0.18973814347982407,0.09793737326934933
1772556632835390500,4.074390380859375,1.287816289269924,-0.2205143900156021,0.10566241456344723
1772556632845374500,4.08437451171875,1.3717296672314405,-0.2182230642080307,0.06723273066505789
1772556632855358700,4.094358642578125,1.496484174147248,-0.22286124540269373,0.06239961142018437
1772556632865343500,4.104343505859375,1.6332587892025707,-0.24987550905644892,-0.0005541267514228821
1772556632875327500,4.114327392578125,1.7759242158621549,-0.19485913975536823,-0.06938391734957694
1772556632885311500,4.1243115234375,1.9329981071025133,-0.12480652936398982,-0.13638561573773622
1772556632895296500,4.134296630859375,2.109054931232333,-0.10091682747155427,-0.2315054473683238
1772556632905280500,4.144280517578125,2.209118064484,-0.1242737376615405,-0.2728006037004292
1772556632915264500,4.154264404296875,2.235565926426649,-0.18010843760818243,-0.2325309910237789
1772556632925249500,4.16424951171875,2.1059645640015603,-0.2765139251351356,-0.15817279239296914
1772556632935233500,4.174233642578125,1.760887974771857,-0.42111850316375493,-0.05985504150390625
1772556632945217500,4.184217529296875,1.3788684330701828,-0.5507280488952994,0.028413243731483816
1772556632955202600,4.19420263671875,0.9527163196533918,-0.6291346461340784,0.099543274096027
1772556632965186600,4.2041865234375,0.5366729277968406,-0.6363336177274584,0.06417107807211578
1772556632975170600,4.214170654296875,0.03931961847543716,-0.6019482407838106,-0.15263539733625947
1772556632985155600,4.224155517578125,-0.5103413857102393,-0.4781242927163839,-0.38633126742094753
1772556632995139600,4.2341396484375,-1.0124299068599938,-0.32134733859598635,-0.6670041388664394
1772556633005123600,4.24412353515625,-1.3872878863692282,-0.19222937577366828,-0.985761972425878
1772556633015108600,4.254108642578125,-1.5934043331980705,-0.06329933673888445,-1.3437429052837193
1772556633025092600,4.264092529296875,-1.5970242772608993,0.033142391145229336,-1.6805321431614457
1772556633035076600,4.27407666015625,-1.3984177676707505,-0.10188391893804073,-1.9968913180813193
1772556633045061600,4.2840615234375,-0.9194412420392036,-0.6969739643901586,-2.4133672561362385
1772556633055045600,4.294045654296875,-0.5717746363162994,-1.361083185532689,-2.6266902733430264
1772556633065029600,4.304029541015625,-0.6856932764410972,-1.6151944324627519,-2.433278409786522
1772556633075013400,4.314013427734375,-1.0139245293319226,-1.940697429433465,-2.2044595711536705
1772556633084998700,4.32399853515625,-1.5039543638974426,-2.370801203085482,-2.0336546762026844
1772556633094982700,4.333982666015625,-2.273411965218186,-2.5800793288156387,-1.745956216969341
1772556633104966400,4.34396630859375,-3.2420266957491632,-2.2550024483025073,-1.112858731618896
1772556633114951700,4.35395166015625,-4.355625651276111,-1.4111524538204072,-0.288092646182701
1772556633124935700,4.363935791015625,-4.906275666499138,-0.592040594753623,0.15399061133749783
1772556633134919400,4.37391943359375,-4.790943067923188,0.06800532247275114,0.29169074373990295
1772556633144904700,4.38390478515625,-4.006502417004108,0.8606991302132606,0.40309944687038657
1772556633154888700,4.393888671875,-2.779416198506951,1.597446594326198,0.4486417392529547
1772556633164872400,4.40387255859375,-1.4921452681601046,1.9768211744770408,0.6358533599298447
1772556633174857700,4.413857666015625,-0.2919131543189287,2.015826904697716,1.1482141226384788
1772556633184843500,4.423843505859375,0.42731005128026006,1.7867206274256109,1.7472919956177473
1772556633194827500,4.43382763671875,0.6372820044934749,1.4789727751150727,2.0911910655006767
1772556633204812500,4.4438125,0.4984270760327577,1.1410244303300976,2.347086419368535
1772556633214796500,4.453796630859375,0.40648470539450643,0.909455270075798,2.4352099623709917
1772556633224780500,4.463780517578125,0.46586979129910466,0.6571662701368332,2.3457962334275244
1772556633234765600,4.473765625,0.663071110266447,0.36589901250600815,2.1543543547697364
1772556633244749600,4.48374951171875,0.7358896782398223,0.18125556181669233,2.016873929532617
1772556633254733600,4.493733642578125,0.7999977010130882,0.1878846245676279,1.8806899738468228
1772556633264718600,4.503718505859375,0.7944833215057849,0.32536826467514035,1.7337046381615102
1772556633274702600,4.51370263671875,0.6611842736065388,0.5204477691829205,1.5410389167971907
1772556633284686600,4.5236865234375,0.49091304714083667,0.6514438008368015,1.2436365174122155
1772556633294671600,4.533671630859375,0.3797159409344196,0.7410100899934768,0.782661804678291
1772556633304655600,4.543655517578125,0.42731648102104663,0.8036363497763872,0.2337737941591069
1772556633314639600,4.5536396484375,0.5279173744112253,0.8156085271209478,-0.34195312344692647
1772556633324624600,4.563624755859375,0.5950239944785833,0.7272346626192331,-0.8011522778756917
1772556633334608600,4.573608642578125,0.7664975824713707,0.5770581296771764,-1.116016611127928
1772556633344592600,4.583592529296875,0.9839572610914706,0.4183361789688468,-1.2365506508044897
1772556633354577700,4.59357763671875,1.183790097606182,0.2862435842499137,-1.2078441962800919
1772556633364563200,4.603563232421875,1.3157529284656047,0.16765958266258238,-1.0393941208269446
1772556633374547200,4.613547119140625,1.4387357495337725,0.096223116697371,-0.8264975854039192
1772556633384532200,4.6235322265625,1.5224743554502724,0.08112637759149074,-0.6153124570086598
1772556633394516200,4.63351611328125,1.5320955857545135,0.051363692012429234,-0.3751732925361022
1772556633404500200,4.643500244140625,1.4926719223827123,-0.012457622773945331,-0.07159494446255266
1772556633414485200,4.6534853515625,1.4502794723331927,-0.12538140664249658,0.13352624425124376
1772556633424469200,4.66346923828125,1.4209230294674635,-0.24217355637699364,0.2639521843995899
1772556633434453200,4.673453369140625,1.4194459426522255,-0.32008155644387004,0.28013861843831833
1772556633444438300,4.683438232421875,1.424236099538207,-0.36391397616863247,0.18006123746559022
1772556633454422300,4.69342236328125,1.4412456865280865,-0.2984703208774328,0.05290171523466706
1772556633464406300,4.70340625,1.425828921687603,-0.22360709533393383,-0.10806381314937025
1772556633474391300,4.713391357421875,1.3993769680917263,-0.1174330779865384,-0.26543274181354787
1772556633484375300,4.723375244140625,1.4359475801199675,-0.04727233104556799,-0.34261403504107146
1772556633494359300,4.733359375,1.4635492882728576,-0.035928514732420445,-0.3914779826596379
1772556633504344300,4.74334423828125,1.4029203397870063,-0.03809446059465408,-0.3495244354840368
1772556633514328300,4.753328369140625,1.217365619471669,-0.02155687503069639,-0.14261435405947268
1772556633524312300,4.763312255859375,1.0715040271192788,-0.03883504982888698,0.06768926966036669
1772556633534297300,4.77329736328125,0.8288017706930637,-0.15592647477090357,0.31687961859740316
1772556633544281300,4.78328125,0.4652291553080082,-0.4275000208944082,0.6349558265682309
1772556633554265000,4.79326513671875,0.24184417829215527,-0.5846595445916056,0.8658033945497124
1772556633564249000,4.8032490234375,0.049915831291675566,-0.5205599973857402,0.9130421886518597
1772556633574234400,4.813234375,-0.14558862062990666,-0.535012301108241,0.8403910861998796
1772556633584218000,4.823218017578125,-0.3773118024021387,-0.6565525221526622,0.7328342361919582
1772556633594202000,4.8332021484375,-0.654070642209053,-0.7365221309244633,0.7935054894495756
1772556633604187100,4.843187255859375,-0.9522826044112443,-0.7623460157498717,0.8546275552146136
1772556633614171100,4.853171142578125,-1.085985556936264,-0.8637082489013671,0.8410274113420396
1772556633624155100,4.863155029296875,-0.9398866486966609,-1.1589058317184449,0.8146011767093092
1772556633634140200,4.87314013671875,-0.9577572364300488,-1.4653136675968765,0.8565342656187712
1772556633644124000,4.8831240234375,-1.1914917580246924,-1.4265575282230973,1.091438488579914
1772556633654108200,4.893108154296875,-1.6500561947464942,-1.0986945241227746,1.272866265158355
1772556633664093200,4.90309326171875,-2.442749710226059,-0.7999310655176639,1.1632653421021997
1772556633674077000,4.913076904296875,-3.4318507639467715,-0.40748336104303595,0.9643564154993742
1772556633684061000,4.92306103515625,-4.044085420945287,0.2178004548817873,0.5403399989370257
1772556633694046200,4.933046142578125,-4.074678712129593,0.8263742512851953,-0.0890251406178344
1772556633704030000,4.943030029296875,-3.6308296139806506,1.3136667698413134,-0.9399166054435074
1772556633714014000,4.953013916015625,-2.8136101445317268,1.6124962794199584,-1.8377146093428134
1772556633723999000,4.9629990234375,-1.7341560351908205,1.6790677696973084,-2.5327996912464497
1772556633733983000,4.97298291015625,-0.8688187237828969,1.6615414653569458,-2.8174577598705888
1772556633743967000,4.982967041015625,-0.39747254689931866,1.6114064383566378,-2.639611421975493
1772556633753952000,4.992951904296875,-0.4785159223824739,1.4775632005780934,-2.1465467497587203
1772556633763936000,5.00293603515625,-0.7421224351495503,1.1870178274810312,-1.6874008598871528
1772556633773920000,5.012919921875,-0.7667880898505449,0.8245739238649606,-1.3179247195467352
1772556633783905000,5.022905029296875,-0.6436836882293224,0.46541620231270786,-0.9593283582042902
1772556633793889000,5.032888916015625,-0.4918073656320572,0.22775486266314982,-0.5902381484415382
1772556633803873000,5.042873046875,-0.17349018851220607,-0.0676405808135867,-0.22774941930305212
1772556633813858000,5.052858154296875,0.10445523073077201,-0.32047844680696724,-0.1462072274522856
1772556633823842000,5.062842041015625,0.10408347480893135,-0.43607700284272427,-0.0625652137780562
1772556633833826000,5.072825927734375,-0.11988777766227722,-0.4454898510932922,0.03559570258148014
1772556633843811000,5.08281103515625,-0.35639059492647646,-0.5242041991069912,0.07160824233554303
1772556633853795000,5.092795166015625,-0.4942763860940933,-0.5788371220484375,0.17670768925398586
1772556633863779000,5.102779052734375,-0.49611646100282664,-0.519094601008296,0.2795028412854299
1772556633873764000,5.11276416015625,-0.2854968575358391,-0.34416590412557124,0.4017679060056805
1772556633883748000,5.122748046875,-0.05899345623850822,-0.22001871545314788,0.48297761449906973
1772556633893732000,5.132732177734375,0.17049042217433452,-0.09909867213368415,0.4808805691545829
1772556633903717000,5.142717041015625,0.46143853085339065,0.07664426374137401,0.40348124926220624
1772556633913701000,5.152701171875,0.8791630076646805,0.2353244211345911,0.2005185354902409
1772556633923685000,5.16268505859375,1.0339075791746377,0.3136658441826701,0.0704758407721296
1772556633933670100,5.172670166015625,1.048905241820216,0.35484248870164153,-0.03028185061495751
1772556633943654100,5.182654052734375,1.2187544434815645,0.31506226697713136,-0.12669086353955789
1772556633953638100,5.19263818359375,1.30682844825387,0.22162936552017926,-0.21295794675406068
1772556633963623200,5.202623046875,1.600667602199316,0.17463146750181913,-0.2623230670941062
1772556633973607200,5.212607177734375,1.8324270243287086,0.18175941968560216,-0.1423513192091137
1772556633983591200,5.222591064453125,1.8781395587116478,0.1426280172586441,-0.14210010266071185
1772556633993575200,5.2325751953125,2.0195932714939118,0.07652472901493311,-0.20500373634658753
1772556634003560200,5.242560302734375,2.089339592415094,0.05713087723702192,-0.22159944530595094
1772556634013544200,5.252544189453125,2.193971933278441,-0.057794601842761036,-0.20932594692725687
1772556634023528200,5.262528076171875,2.1913889310479164,-0.007457914790511131,-0.14562040400765836
1772556634033513000,5.272512939453125,2.145946445778012,-0.01868044281154871,-0.06261931858547032
1772556634043497000,5.2824970703125,2.103642843055725,-0.01516074425280094,-0.058096872724965214
1772556634053481200,5.292481201171875,2.06918703122437,-0.028114333850145338,-0.06408935460541397
1772556634063466000,5.302466064453125,2.213903545194864,-0.08118161491006612,-0.010036898433044552
1772556634073450000,5.312449951171875,2.0285323647528886,-0.030701719994843005,0.02197583109512925
1772556634083434000,5.32243408203125,1.9963310538500547,-0.11636720232069492,-0.05832118300013244
1772556634093419000,5.3324189453125,1.9867384651184081,-0.21895459335297346,-0.1409497818481177
1772556634103403000,5.342403076171875,1.6516414181113241,-0.2720046310171485,-0.21132051827795803
1772556634113387000,5.352386962890625,1.3328203831225633,-0.35705139692276716,-0.3923096842434257
1772556634123372000,5.3623720703125,1.0414473270297049,-0.5583826553016901,-0.6152144034616649
1772556634133356000,5.37235595703125,0.511718519282341,-0.7241615387842059,-0.7635370521653443
1772556634143340000,5.382340087890625,-0.1576554905205965,-0.812221222770214,-0.8172400738455354
1772556634153325000,5.392324951171875,-0.7289677700221538,-0.8262433183819055,-0.9096887135054915
1772556634163309000,5.40230908203125,-1.2449743418872357,-0.7846963792458176,-1.078637240000069
1772556634173293000,5.41229296875,-1.6268582745105027,-0.7050938502207398,-1.1541895437862724
1772556634183278000,5.422278076171875,-1.7313269492447376,-0.6084373105421662,-1.1994207974582909
1772556634193262000,5.432261962890625,-1.5939093601107597,-0.6041907590135932,-1.2698995243072508
1772556634203246000,5.44224609375,-1.2849269975692033,-0.6195660227999091,-1.383266229637712
1772556634213231000,5.452231201171875,-0.7660340566128492,-0.9531424361109733,-1.470853766067326
1772556634223215000,5.462215087890625,-0.7958879276067018,-1.539667190052569,-1.3157714870356023
1772556634233199000,5.47219921875,-1.5132839177787303,-1.962158150613308,-0.8569801827553659
1772556634243184000,5.48218408203125,-2.1278899800837037,-2.2580048449888825,-0.15562814941145478
1772556634253168000,5.492168212890625,-2.8450919089883566,-2.4122382521063086,0.22453597368188202
1772556634263152000,5.502152099609375,-3.422952002698183,-2.3466484663426876,0.5369933919228613
1772556634273137200,5.51213720703125,-3.832712368762493,-1.8273288244068622,0.9729295980554074
1772556634283121200,5.52212109375,-3.980113007250428,-0.8607049754321575,1.3066048686310647
1772556634293105200,5.532105224609375,-3.6095150232732296,0.1929027449905872,1.414254803749919
1772556634303090200,5.542090087890625,-3.0858178969055414,1.056855908563733,1.3010614091597497
1772556634313074200,5.55207421875,-2.435850598362088,1.7954440321072935,1.1418654111988842
1772556634323058200,5.56205810546875,-1.5344015246093272,2.489023677884042,1.1317233718909323
1772556634333043200,5.572043212890625,-0.6248550691187381,2.879549182124436,1.2079168231248856
1772556634343027200,5.582027099609375,-0.11766367187201976,2.7715993872761726,1.328234808897972
1772556634353011200,5.59201123046875,0.12737725663483143,2.332662026566267,1.4980311113283038
1772556634362995700,5.60199560546875,0.4208294570893049,1.822840280815959,1.6416484318852425
1772556634372979500,5.6119794921875,0.6404430988729,1.496079684999585,1.802741203378141
1772556634382963500,5.62196337890625,0.8845037841707467,1.2697890496701,1.8188976806700228
1772556634392948700,5.63194873046875,1.114756893390417,1.0600947443544864,1.7840495085202157
1772556634402932500,5.641932373046875,1.067588899502158,0.8677250833272934,1.8085881758406757
1772556634412916500,5.65191650390625,0.9252905525892973,0.7617109327167272,1.855814183526486
1772556634422901500,5.661901611328125,0.9189432293891906,0.6548463027566671,1.7094066477291285
1772556634432885500,5.671885498046875,0.899330181902647,0.5848229184597731,1.4044263604357838
1772556634442869500,5.681869384765625,1.1431184799999,0.42882396297454833,1.0051949871703982
1772556634452854500,5.6918544921875,0.9745727621525525,0.3673153090447187,0.6502605824016034
1772556634462838500,5.701838623046875,0.8792080158501863,0.36774317906796933,0.2729187501873821
1772556634472822500,5.711822509765625,0.810469995188713,0.3068731153026223,-0.06516626312192529
1772556634482807300,5.721807373046875,0.6466489677757025,0.21905396207422018,-0.3797348282979801
1772556634492791300,5.731791259765625,0.48528527038693425,0.19013035766780376,-0.5452534899417311
1772556634502775600,5.741775634765625,0.5022638777166605,0.22777853579968213,-0.5297757156290114
1772556634512759600,5.751759521484375,0.5748311012774705,0.20504326463937758,-0.470750658675842
1772556634522744300,5.761744384765625,0.6983744788378476,0.13985767576247451,-0.37217604694887996
1772556634532728300,5.771728271484375,0.8315069379985331,0.03695698099732399,-0.24393850195659322
1772556634542712600,5.781712646484375,0.9560223754614591,-0.17594459592700004,-0.13438771991878748
1772556634552697300,5.791697265625,1.0849293258816004,-0.2138835736989975,-0.04454260468757711
1772556634562681300,5.801681396484375,1.227858371913433,-0.2744637146070599,0.0012194313928950576
1772556634572665300,5.811665283203125,1.212351006180048,-0.28335136993974447,0.0647046004269272
1772556634582650400,5.821650390625,1.277853698182106,-0.31105069324821233,0.17644136646799743
1772556634592634400,5.83163427734375,1.2358318350106476,-0.37640900834351776,0.2632860851736739
1772556634602618400,5.841618408203125,0.9855758022040129,-0.3004462971255183,0.43869836432226
1772556634612603400,5.851603271484375,1.110527292996645,-0.30467326717078685,0.4960876367671415
1772556634622587400,5.86158740234375,1.2858458659797907,-0.3383741689816117,0.5346357594134286
1772556634632571400,5.8715712890625,1.1666565919756888,-0.21917525036633012,0.720730176096037
1772556634642556400,5.881556396484375,1.2443646855562924,-0.15590601650476454,0.8016459796767681
1772556634652540400,5.89154052734375,1.1342027676165103,-0.18360095589905975,0.7942909407388419
1772556634662524400,5.9015244140625,1.0012678768545389,-0.2740636093735695,0.727973863613978
1772556634672509400,5.911509521484375,0.7531038478910923,-0.3113677963733673,0.6739446056541055
1772556634682493400,5.921493408203125,0.5645306565374135,-0.4476414761692285,0.5616650379732251
1772556634692477400,5.9314775390625,0.3414531380355358,-0.605464724472165,0.4904136462513357
1772556634702462500,5.94146240234375,0.06392156029045581,-0.7303294137641787,0.4934310943763703
1772556634712446500,5.951446533203125,-0.19750585487186909,-0.8690130773112177,0.4932105104282498
1772556634722430500,5.961430419921875,-0.39970717408359047,-1.0183484832540153,0.49430506419930603
1772556634732415500,5.97141552734375,-0.434703084141016,-1.149363804130256,0.4318487541558221
1772556634742399500,5.9813994140625,-0.44990649849176406,-1.1174842725276946,0.46310935014244164
1772556634752383500,5.991383544921875,-0.4424392313510179,-1.0091814264580607,0.49597931755445895
1772556634762368500,6.001368408203125,-0.5392798954248428,-0.9088868225380777,0.5586583669705316
1772556634772352500,6.0113525390625,-0.7106739884406328,-0.8416577451348304,0.599786459640041
1772556634782336500,6.02133642578125,-0.7807289369195699,-0.7690773698315024,0.6724971102595328
1772556634792321500,6.031321533203125,-0.6848661779671907,-0.693795334354043,0.715078653140366
1772556634802305500,6.041305419921875,-0.4941980601608753,-0.7500012057006359,0.6906628084819764
1772556634812289500,6.05128955078125,-0.40311669026613234,-0.9144625768437981,0.8126878173686564
1772556634822274600,6.061274658203125,-0.5002238963216543,-1.0243410016670822,1.062066263623163
1772556634832258600,6.071258544921875,-0.7810591917872428,-0.9926678062915801,1.2923062941655517
1772556634842242600,6.08124267578125,-0.9845751007288693,-0.8716603769496083,1.237661096264422
1772556634852227300,6.091227294921875,-1.099842232853174,-0.7619459105163812,0.8711096111990511
1772556634862211600,6.101211669921875,-1.2301684024214743,-0.4953323248878121,0.47928493399359284
1772556634872195600,6.111195556640625,-1.5215858821779489,0.025177403615415095,0.20720964889302848
1772556634882180400,6.121180419921875,-1.9304910927176475,0.6531798308491706,-0.001275317165441811
1772556634892164400,6.131164306640625,-2.2476894949406385,1.1964771452218292,-0.4409386540623381
1772556634902148600,6.141148681640625,-2.2423031257271764,1.562035673727095,-0.9440621808156371
1772556634912133400,6.15113330078125,-2.071440947631001,1.6961834474101662,-1.4685646322168409
1772556634922117400,6.161117431640625,-1.8443933564543722,1.7571499572873115,-1.8351896209098397
1772556634932101400,6.171101318359375,-1.7586890034228562,1.7770584805890917,-1.969443485315889
1772556634942086400,6.18108642578125,-1.8376760308980942,1.6571116662159562,-1.9832541301339863
1772556634952070400,6.1910703125,-1.918464554837346,1.3806369040474296,-1.9101263500809669
1772556634962054400,6.201054443359375,-1.8530559708595276,1.0766261924386025,-1.692162813591957
1772556634972039400,6.211039306640625,-1.5092238287329673,0.7190265139833092,-1.4589710205718873
1772556634982023400,6.2210234375,-1.0378250448793171,0.36139030290991064,-1.2447139373853802
1772556634992007400,6.23100732421875,-0.7286147188007831,0.030260405968129633,-0.8435277767904102
1772556635001992400,6.240992431640625,-0.5675701703637838,-0.36141660639494655,-0.5142337169736624
1772556635011976400,6.2509765625,-0.47355625414848324,-0.5721823403343558,-0.052005423982068893
1772556635021960400,6.26096044921875,-0.4675146358966827,-0.7121347086429596,0.3516974686741829
1772556635031945500,6.270945556640625,-0.4007522992223501,-0.7630632241085171,0.6554680879168212
1772556635041929500,6.280929443359375,-0.13030921843349932,-0.6634975189849734,0.810793308858946
1772556635051913500,6.29091357421875,0.28085809181928634,-0.459971965432167,0.9033739043354988
1772556635061898500,6.3008984375,0.7025842054873704,-0.22926176009476185,1.0198624680135397
1772556635071882500,6.310882568359375,1.03379125931859,0.01595890889316797,1.11704529658854
1772556635081866500,6.320866455078125,1.3209651101559399,0.27105127581506966,1.2039558105394244
1772556635091851500,6.3308515625,1.5629337916105985,0.49091333940178156,1.2676556909032166
1772556635101835500,6.34083544921875,1.7595839064359664,0.667129445746541,1.2809148393183947
1772556635111819500,6.350819580078125,1.8695482559770344,0.8261816513225436,1.2278921280525623
1772556635121804500,6.360804443359375,1.9246055418103931,0.902950125965476,1.1393848464295266
1772556635131788500,6.37078857421875,2.0468261463344097,0.8883198353275656,1.0233526482168585
1772556635141772500,6.3807724609375,2.169499755322933,0.7898267278715968,0.8835353775300085
1772556635151756500,6.390756591796875,2.124958018285036,0.608161708471179,0.7388667943544686
1772556635161741600,6.400741455078125,2.1368091995984315,0.36674043176621196,0.5002720828449353
1772556635171725600,6.4107255859375,2.103471578142047,0.15033727646172046,0.20118872636938467
1772556635181709600,6.42070947265625,2.043719997012615,0.03199526693671942,-0.01858085489459336
1772556635191694600,6.430694580078125,2.0481325527578593,-0.11977613398134708,-0.23658307942617685
1772556635201678600,6.4406787109375,2.0060440540909767,-0.26430706225186584,-0.3903379092464223
1772556635211662600,6.45066259765625,1.9368635503590106,-0.3165057437837124,-0.45454566606711594
1772556635221647600,6.460647705078125,1.813628800356388,-0.2796238738492131,-0.513843329416588
1772556635231631600,6.470631591796875,1.7135504695355892,-0.2583329562783241,-0.5955343551535159
1772556635241615600,6.48061572265625,1.6347335379302501,-0.21375848601460457,-0.6590349866181612
1772556635251600400,6.490600341796875,1.53881641844213,-0.19654490088522433,-0.7004012354250997
1772556635261584600,6.500584716796875,1.401488261157274,-0.21360271093100308,-0.7510460385784506
1772556635271568600,6.510568603515625,1.137967088586092,-0.19773031127750873,-0.7705205543771386
1772556635281553400,6.520553466796875,0.8203010688513517,-0.20818039362132548,-0.7459007115792483
1772556635291537400,6.530537353515625,0.5505021311849355,-0.2365098315268755,-0.8077473652917891
1772556635301521700,6.540521728515625,0.31545243533849715,-0.22565905942767858,-0.8916344397682696
1772556635311506400,6.55050634765625,0.00886836611032486,-0.16467062997967002,-1.0107710337370635
1772556635321490400,6.560490478515625,-0.3292722863763571,-0.09725158296227454,-1.1430148734949528
1772556635331474400,6.570474365234375,-0.6689163291633129,-0.021533201894164085,-1.2669400899797678
1772556635341459500,6.58045947265625,-0.9537842411458491,0.06980477311015129,-1.3893169079788028
1772556635351443500,6.590443359375,-1.2475059061914682,0.10521744727492331,-1.4608786077588796
1772556635361427200,6.60042724609375,-1.461691093185544,0.02006459064632654,-1.5040470106169581
1772556635371412200,6.610412109375,-1.4158382735490798,-0.1847989335119724,-1.595033395704627
1772556635381396200,6.620396240234375,-1.173831013649702,-0.4674900859773159,-1.660421667546779
1772556635391380200,6.630380126953125,-0.8364806347578764,-0.9452911380887031,-1.745008414725214
1772556635401365200,6.640365234375,-0.754085260143876,-1.579434260034561,-1.7455556733444333
1772556635411349200,6.650349365234375,-1.1218874759227038,-2.0720412516117093,-1.4040297623336315
1772556635421333200,6.660333251953125,-1.6037696598678826,-2.5255732471242545,-0.866442642301321
1772556635431318300,6.670318359375,-2.265118184125423,-2.8239032827481627,-0.1390020818464458
1772556635441302300,6.68030224609375,-3.0515275047689676,-2.708733181257546,0.5679395151328295
1772556635451286300,6.690286376953125,-3.6752071003675457,-2.1577792146518826,1.1230161146264523
1772556635461271300,6.700271240234375,-4.045191336360573,-1.2408122537717223,1.5359446623981
1772556635471255300,6.71025537109375,-3.9784897899627683,-0.2778285148650408,1.6100576540961862
1772556635481239300,6.7202392578125,-3.5218373243421315,0.6176835700541734,1.3131959374591708
1772556635491224300,6.730224365234375,-2.8646482578516004,1.3987483147993682,1.0530334276661277
1772556635501208300,6.740208251953125,-2.084365895655751,1.9717638910874724,0.9880124547664075
1772556635511192300,6.7501923828125,-1.4257166934847831,2.199776527903974,1.125492953068763
1772556635521177300,6.76017724609375,-1.04960666808784,2.0803493534907695,1.4161423710621892
1772556635531161300,6.770161376953125,-0.8818915558457374,1.7022987154200673,1.7427675039306283
1772556635541145300,6.780145263671875,-0.6107534785300492,1.2983730468586085,1.9507645038090644
1772556635551130400,6.79013037109375,-0.11882920852005481,0.9785451729148625,2.0221422253243624
1772556635561114400,6.8001142578125,0.41496436444818974,0.776931590463221,2.013322959052771
1772556635571098400,6.810098388671875,0.8185621162295341,0.6838228063941002,1.9403018542446195
1772556635581083400,6.82008349609375,1.081046931490302,0.7182672200486063,1.7691829249083995
1772556635591067400,6.8300673828125,1.2781471281707286,0.8281178800821304,1.5970248617827891
1772556635601051400,6.840051513671875,1.4024299259215594,0.9946034505292772,1.3953984198495746
1772556635611036400,6.850036376953125,1.4251900392621755,1.1152058062016963,1.103035475936532
1772556635621020400,6.8600205078125,1.3680728982895611,1.138798570974171,0.7267473174937069
1772556635631004400,6.87000439453125,1.2651508684754371,1.0310662182688712,0.3366019351447001
1772556635640988400,6.879988525390625,1.1770599125683308,0.8652773979142308,-0.079609872081317
1772556635650973400,6.889973388671875,1.1626397575497627,0.7071852695420384,-0.5161421809434891
1772556635660957400,6.89995751953125,1.2140174780875443,0.5579524471908808,-0.8817902874283492
1772556635670941400,6.90994140625,1.2026467737674713,0.3962792454615235,-1.099676886223629
1772556635680926200,6.91992626953125,1.1947072129398584,0.24067133512049912,-1.2815692115738988
1772556635690910500,6.929910400390625,1.2611176674365996,0.08480945001840591,-1.3882494248777628
1772556635700894500,6.93989453125,1.3112006719887255,-0.011103285555541515,-1.3469862711191176
1772556635710879200,6.949879150390625,1.381505211314559,-0.06352145505696535,-1.1534675861872732
1772556635720863200,6.95986328125,1.37825819221735,-0.14097849648594857,-0.8292783752288669
1772556635730847200,6.96984716796875,1.3173498422682284,-0.21297961059659717,-0.4327324416551739
1772556635740832300,6.979832275390625,1.2764613670408724,-0.19954554400593041,-0.06598976313294842
1772556635750816300,6.989816162109375,1.252215399056673,-0.1599164211899042,0.13784344986323266
1772556635760800300,6.99980029296875,1.2393798828810452,-0.11078910992741584,0.2132193376366049
1772556635770785300,7.009785400390625,1.2894897754400967,-0.11100742885321378,0.2589825427608564
1772556635780769300,7.019769287109375,1.3060901971071959,-0.12760872730314732,0.26889775104299185
1772556635790753300,7.029753173828125,1.233175767543912,-0.13929068952947854,0.2917348568762652
1772556635800738300,7.03973828125,1.1732909154236315,-0.20030308437496422,0.27280957245817405
1772556635810722300,7.049722412109375,1.1405939299583434,-0.20599603531956673,0.2705271606094204
1772556635820706300,7.059706298828125,1.12456107904613,-0.21339842053055763,0.3047514469735324
1772556635830691300,7.06969140625,1.0843751991301773,-0.24963264021128415,0.2615450319263153
1772556635840675300,7.07967529296875,1.013581999504566,-0.19641338346004486,0.2006054283224046
1772556635850659300,7.089659423828125,0.9080003950923681,-0.1328454589128494,0.1725328329884447
1772556635860644400,7.099644287109375,0.8227876249700784,-0.12200929986089468,0.1816985015449114
1772556635870628400,7.10962841796875,0.7051373971015215,-0.11741729589551686,0.2694833141122944
1772556635880612400,7.1196123046875,0.5448644175589085,-0.16062369267642498,0.3752305026160553
1772556635890597400,7.129597412109375,0.4225684097111225,-0.26341449732631445,0.4859281348677352
1772556635900581400,7.139581298828125,0.2715945889115333,-0.40162148327231406,0.591508277975209
1772556635910565400,7.1495654296875,0.07664660182893276,-0.5763660557597875,0.7231126142531633
1772556635920550400,7.15955029296875,-0.15867840382754803,-0.7914797557756305,0.8577879189416766
1772556635930534400,7.169534423828125,-0.3802180452376604,-0.9634729837283491,0.9581861293666064
1772556635940518400,7.179518310546875,-0.5424766456395387,-1.0948124219924211,1.0135748391114174
1772556635950503400,7.18950341796875,-0.72162675960958,-1.204993336893618,0.9704328858688474
1772556635960487400,7.1994873046875,-0.7630348747968674,-1.4225243271842598,0.84826532670632
1772556635970471400,7.209471435546875,-0.7841489744961261,-1.6654831887200474,0.8227830949254333
1772556635980455200,7.219455078125,-1.0053870026111602,-1.8347186423972248,1.0426656898435205
1772556635990440400,7.2294404296875,-1.817362726187706,-1.6417536458253859,1.441047241346538
1772556636000424400,7.239424560546875,-3.2967285922735927,-1.1033365047097206,1.6494211117133497
1772556636010408200,7.249408203125,-4.474452521708607,-0.6333622007012367,1.313982411661744
1772556636020393500,7.2593935546875,-4.896061146476865,-0.1717567888483405,0.6811945037171244
1772556636030377200,7.269377197265625,-4.801019056257605,0.3802575004652142,0.04098430028464645
1772556636040361200,7.279361328125,-4.342826959979534,0.9349015537604689,-0.5060727684803307
1772556636050346500,7.289346435546875,-3.519312774300575,1.3367217744752764,-1.0210129532229155
1772556636060330200,7.299330322265625,-2.566153387054801,1.565318348659575,-1.5311181190244854
1772556636070314200,7.309314208984375,-1.6468980229765176,1.6340949477657676,-1.883167323745787
1772556636080299300,7.31929931640625,-1.0211737698078156,1.663585246144235,-1.8473954608798027
1772556636090283300,7.329283203125,-0.8003723795443772,1.487372354669869,-1.645173975662887
1772556636100267300,7.339267333984375,-0.7810580227434635,1.0682876954212783,-1.3862135351359843
1772556636110252300,7.349252197265625,-0.702924397227168,0.7292486327901482,-1.1368091507226228
1772556636120236000,7.359236083984375,-0.3695131113499403,0.44241585047543047,-0.9183835496798157
1772556636130220300,7.36922021484375,0.08043079654276371,0.21358429849147795,-0.7875139208845794
1772556636140205300,7.379205322265625,0.4519774595469236,0.11097118849605321,-0.6870746477968991
1772556636150189000,7.38918896484375,0.8197393433153629,0.08769932624101638,-0.6043949398161843
1772556636160173000,7.399173095703125,0.791872262224555,0.1557981722161174,-0.5290748373506591
1772556636170158000,7.409157958984375,0.6270405964642762,0.2957145924285054,-0.5589782100420445
1772556636180142000,7.41914208984375,0.43225218385756015,0.4599427393376827,-0.570548674717918
1772556636190126000,7.4291259765625,0.3183522484332323,0.6188938226267695,-0.4999413165206089
1772556636200111000,7.439111083984375,0.2929752305924892,0.7341551095321774,-0.41264710048176345
1772556636210095000,7.44909521484375,0.3514806110531091,0.7818176089391112,-0.3405425990618765
1772556636220079000,7.4590791015625,0.3999988505065441,0.8257660562589764,-0.25249559189435095
1772556636230064000,7.469064208984375,0.5535264474421739,0.8370660334303974,-0.11482837538085877
1772556636240048000,7.479048095703125,0.6789379569619893,0.7407642985388636,0.05130589741058647
1772556636250032000,7.4890322265625,0.7663450222581625,0.5963657644763588,0.21011318831481038
1772556636260016000,7.49901611328125,0.8529092069894075,0.45222909622043367,0.3303304171271622
1772556636270001200,7.509001220703125,0.9703051678359508,0.32211160096675157,0.3859096810080111
1772556636279985200,7.518985107421875,1.082423480540514,0.22465017464607953,0.38661680636405943
1772556636289969200,7.52896923828125,1.2099784318298101,0.12536767037808894,0.26664982598572967
1772556636299954200,7.5389541015625,1.3794172991245983,0.08747779244482516,0.13441753053516148
1772556636309938200,7.548938232421875,1.5674790338248012,0.10646277116090058,0.034781956779491155
1772556636319922200,7.558922119140625,1.7342296849489212,0.11523001498430967,-0.02054767972184345
1772556636329907200,7.5689072265625,1.8716689013928174,0.12585866876542567,-0.0666954454505816
1772556636339891200,7.57889111328125,1.9413766438692808,0.13888123194575308,-0.1321174734318629
1772556636349875200,7.588875244140625,1.958974259880185,0.12996318147480487,-0.21305143372379243
1772556636359860000,7.59885986328125,1.9009306517124176,0.10458090293705463,-0.26416411011721935
1772556636369844000,7.608843994140625,1.8826152428209781,0.06919423999637365,-0.31691129237730054
1772556636379828000,7.618827880859375,1.882999273702502,0.05127426016330719,-0.33110647953357547
1772556636389813000,7.62881298828125,1.7988304596751927,-0.007822364188730717,-0.34798235714118925
1772556636399797000,7.638796875,1.7221990554153919,-0.12077245154231786,-0.39199528453201055
1772556636409781000,7.648781005859375,1.6435919671684502,-0.1726385401189327,-0.4179192321984097
1772556636419766000,7.65876611328125,1.5886872415482998,-0.176002463594079,-0.5081510725917294
1772556636429750000,7.66875,1.5201473738074303,-0.1757642709240317,-0.60592529118862
1772556636439734000,7.678734130859375,1.402231188479066,-0.16154314560890196,-0.7452597833272069
1772556636449718000,7.688718017578125,1.1567331638544798,-0.14973784926384687,-0.9000198446672409
1772556636459703000,7.698703125,0.7521189285069704,-0.18577654637247323,-0.9427259637758135
1772556636469687000,7.70868701171875,0.15179098240137098,-0.23369506636708973,-0.9746462657801807
1772556636479671000,7.718671142578125,-0.6062772098988294,-0.24872224736809728,-1.10855014770478
1772556636489656000,7.728656005859375,-1.2078186234474182,-0.212401810708642,-1.34873998291865
1772556636499640000,7.73864013671875,-1.3836492376059293,-0.196090435115993,-1.525983240354061
1772556636509624000,7.7486240234375,-1.866248045387864,-0.38627135392725465,-1.6736482288666068
1772556636519609000,7.758609130859375,-2.060632553368807,-0.5891293834820389,-1.9519146967574952
1772556636529593000,7.768593017578125,-1.985683403107524,-0.7425391992568969,-1.946052672856301
1772556636539577000,7.7785771484375,-1.7062597280055283,-1.0484133666500448,-1.8924432477436959
1772556636549561900,7.788561767578125,-1.4360019406557083,-1.3081845390379427,-1.7706391150660812
1772556636559546000,7.798546142578125,-1.251167351308465,-1.6159472966566681,-1.5866478446751833
1772556636569529900,7.80852978515625,-1.0745710134744644,-2.1130846251398325,-1.3803725540228187
1772556636579515000,7.818514892578125,-1.0937263803213835,-2.603126734665036,-0.9630270665917545
1772556636589499000,7.828498779296875,-1.609468163770437,-2.9363442515358327,-0.19803576049748808
1772556636599483000,7.83848291015625,-2.470880995211005,-3.032970103815198,0.5281490642752498
1772556636609467000,7.848466796875,-3.170989750495553,-2.9793311603471637,0.9238850697055458
1772556636619452000,7.858451904296875,-3.5613416517347094,-2.732019072037935,1.1872435990609227
1772556636629436000,7.868435791015625,-3.7784219756484028,-2.0278595800578594,1.210192220710963
1772556636639420000,7.878419921875,-3.9001480746537447,-0.9472422721564769,1.2258730433151126
1772556636649405000,7.888405029296875,-3.7881934280782934,0.15437076976150274,0.9854568519994616
1772556636659388700,7.898388671875,-3.3087697432011365,1.1641440246328711,0.36183585472032426
1772556636669372700,7.90837255859375,-2.398373392882943,2.157434931258857,-0.1434598284402862
1772556636679358000,7.91835791015625,-1.2765402774959802,3.0054800393432375,-0.24719578671948983
1772556636689341700,7.928341796875,-0.13670505695044993,3.515897997421026,-0.11704110126057639
1772556636699325700,7.93832568359375,0.7302981418430805,3.527796817268431,0.37239900551717725
1772556636709311000,7.94831103515625,0.9749614692091941,3.0949446216911074,1.0229168140828608
1772556636719294700,7.958294677734375,1.013735144239664,2.4611095427811143,1.7522767982929943
1772556636729278700,7.96827880859375,1.1510299837768077,1.8844868819117544,2.272092260921746
1772556636739263700,7.978263671875,1.4769278252840041,1.3212649698853491,2.314170822716504
1772556636749247700,7.988247802734375,1.7183499787718057,0.9126578655093908,2.2036812802575527
1772556636759230000,7.99822998046875,1.8611720572978256,0.7050315986394882,2.033980985547602
1772556636769214000,8.0082138671875,1.9204402388244866,0.5210813909113406,1.7190971438772975
1772556636779199000,8.018198974609374,1.8290888198167086,0.42777182357311244,1.357046038971096
1772556636789183000,8.028182861328125,1.607493648827076,0.4272638740509748,1.029195382895693
1772556636799167000,8.0381669921875,1.354352415972948,0.44909985828399657,0.6591600012373179
1772556636809152000,8.048152099609375,1.1626619693815707,0.4284659433171153,0.31057770544160157
1772556636819136000,8.058135986328125,0.9381237306773662,0.4142334198251366,0.0022682371929287908
1772556636829120000,8.0681201171875,0.7078139228343964,0.39713235515952106,-0.33376017238013445
1772556636839104800,8.078104736328125,0.5113543621450662,0.354147784435749,-0.6541124355241655
1772556636849089000,8.088089111328125,0.3806652044832706,0.32991818306446075,-0.84142539768368
1772556636859073000,8.098072998046876,0.28703005845248697,0.3259846430078149,-0.8895721734762191
1772556636869057800,8.108057861328126,0.31168285367190834,0.3159218064159155,-1.010858565890044
1772556636879041800,8.118041748046876,0.4697019168078899,0.2855599858999252,-1.0231043725442142
1772556636889026000,8.128026123046874,0.5845271503835916,0.1897895814061165,-0.8763687007710337
1772556636899010000,8.138010009765624,0.6049532678186893,0.005717793124914169,-0.6965243209265172
1772556636908994800,8.147994873046875,0.6010556758582591,-0.17610183231532572,-0.49884774913024155
1772556636918978800,8.157978759765625,0.5871183359205723,-0.28113106354177,-0.31822025608401744
1772556636928963000,8.167963134765625,0.5640758985072374,-0.3331798152089119,-0.1832275012104772
1772556636938947800,8.17794775390625,0.5495809246867894,-0.3331885830372572,-0.06242523905178532
1772556636948931800,8.187931884765625,0.4436433464437723,-0.32145284479707475,0.04406792724737897
1772556636958915800,8.197915771484375,0.3966553852975368,-0.3084177143961191,0.1216638108914718
1772556636968900900,8.20790087890625,0.46648412380516524,-0.28904169053584333,0.13918355762688442
1772556636978884900,8.217884765625,0.6035334641486406,-0.22463351577222346,0.11406217678133397
1772556636988868900,8.227868896484376,0.7632868037313223,-0.09275339476019144,0.09159689993513748
1772556636998852900,8.237852783203126,0.9099497755944729,0.04179623772203922,0.03646132470117882
1772556637008838000,8.247837890625,1.0711942305177449,0.13081775247752667,-0.03822818824322894
1772556637018822000,8.25782177734375,1.2230384044110774,0.1771393586695194,-0.0411638763689436
1772556637028806000,8.267805908203124,1.3186965807020663,0.19181348844915627,0.023011019361764192
1772556637038791000,8.277791015625,1.2546405803769827,0.15493191077560187,0.12478850051695481
1772556637048775000,8.28777490234375,1.1467793405950069,0.0443675495147705,0.28079898204319176
1772556637058759000,8.297759033203125,1.0562643724113703,-0.07187573416531086,0.4370760238174349
1772556637068744000,8.307743896484375,0.9371165994614362,-0.1780865763917565,0.5470926880676299
1772556637078728000,8.31772802734375,0.8448597560465335,-0.3285995016813278,0.5626414817899466
1772556637088712000,8.3277119140625,0.7222153731524944,-0.5206652113258838,0.6018635581750422
1772556637098697000,8.337697021484376,0.5298509728223085,-0.7596011009559035,0.7558275737665593
1772556637108681000,8.347680908203126,0.21379764898121356,-1.0330056618988512,0.763000461070612
1772556637118665000,8.3576650390625,0.07349076814651488,-1.0554024948850274,0.8469543902382254
1772556637128649000,8.36764892578125,-0.07642623707652091,-1.011528574106097,0.921073373285681
1772556637138634000,8.377634033203124,-0.29221067596077915,-0.9941858096390962,0.8582678844783455
1772556637148618000,8.387617919921874,-0.33394261627495286,-0.9919111427053808,0.8560510121464728
1772556637158602000,8.39760205078125,-0.30119243931770323,-1.1927978721871972,0.9900456410944461
1772556637168587000,8.4075869140625,-0.427474301931262,-1.312624567312002,1.33187521122694
1772556637178571000,8.417571044921875,-0.7077291671603918,-1.3915698014721274,1.7278640954397617
1772556637188556800,8.427556884765625,-1.1120961497485637,-1.4623787831887602,1.8495406562149523
1772556637198541800,8.437541748046876,-1.7413994304478166,-1.5045856475383041,1.6802156245581805
1772556637208525800,8.44752587890625,-2.395764671689272,-1.4409996028125285,1.2807950123310088
1772556637218509800,8.457509765625,-2.971075665438175,-1.2743787155479191,0.7710172518528997
1772556637228494800,8.467494873046874,-3.474498650062084,-0.9489423540726304,0.41961737788580356
1772556637238478800,8.477478759765624,-3.5524645177960394,-0.5596893539860844,0.01661234043375589
1772556637248462800,8.487462890625,-3.2070787164866923,-0.20968115357309577,-0.6413637939143926
1772556637258448000,8.49744775390625,-2.7767484406024217,0.13172463818937538,-1.3599299238443374
1772556637268432000,8.507431884765625,-2.330480006352067,0.7337155490711331,-1.83019561201483
1772556637278416000,8.517415771484375,-1.784969107583165,1.2194687292307616,-2.3523760502092537
1772556637288400000,8.52739990234375,-1.1654261733978986,1.5578472821265459,-2.6937732202738522
1772556637298385000,8.537385009765625,-0.6027735856920481,1.7699945335522294,-2.7570506374418735
1772556637308369000,8.547368896484375,-0.2119482217222452,1.820891192574799,-2.5799469346076247
1772556637318353000,8.557352783203125,0.01736672986447811,1.86600400749892,-2.374575314796716
1772556637328338000,8.567337890625,0.21150106247663497,1.7665844328477978,-2.0054886121653017
1772556637338322000,8.577322021484376,0.41753333815336224,1.561054845996201,-1.5479361289650202
1772556637348306000,8.587305908203126,0.611457242885232,1.38927087687999,-1.1702139191310852
1772556637358291000,8.597291015625,0.7485042451411485,0.9755904147624969,-0.8534629684146493
1772556637368278500,8.607278564453125,0.7557225059568882,0.6143117555335164,-0.6986159594435244
1772556637378262300,8.61726220703125,0.6517652878761291,0.3501496547102928,-0.6117319316407666
1772556637388247600,8.62724755859375,0.5901759699255228,0.12710691526085138,-0.538799272301048
1772556637398231600,8.6372314453125,0.5498147334426641,-0.058629883623123165,-0.43366654416751116
1772556637408215300,8.64721533203125,0.5490846656024456,-0.17901655071824787,-0.2968989616411738
1772556637418199300,8.65719921875,0.6225859551429748,-0.20951777970492838,-0.1335838927226141
1772556637428184600,8.6671845703125,0.7369985162645578,-0.11339461625069379,0.06884546309132128
1772556637438168300,8.677168212890624,0.8447218088805675,0.08187427334934473,0.3481657143514603
1772556637448152300,8.68715234375,0.9425140745908022,0.22818507077395914,0.5375975683610886
1772556637458137300,8.697137451171875,1.0455395647794008,0.2885685200661421,0.6198737735748291
1772556637468121300,8.707121337890625,1.0962211197465657,0.24933862570077178,0.6869657075297088
1772556637478105300,8.717105224609375,1.0795394495368003,0.1510652984753251,0.6270958337828516
1772556637488090400,8.72709033203125,1.0513456207096576,0.03784311618208885,0.49589160273838784
1772556637498074400,8.737074462890625,1.052668978267908,-0.05008125098645687,0.40001149079240855
1772556637508058400,8.747058349609375,1.1193237629145383,-0.09565379237681627,0.28407230462543664
1772556637518042400,8.75704248046875,1.2770762840688228,-0.10147036970108747,0.09140629100017249
1772556637528027400,8.76702734375,1.4688959099978207,-0.07894114250689745,-0.07941643186844885
1772556637538011400,8.777011474609376,1.5604425593167544,-0.08783844245076179,-0.24187968799695372
1772556637547995400,8.786995361328126,1.5548995382368564,-0.16294979753643274,-0.38835217878930267
1772556637557980400,8.79698046875,1.5219927094131707,-0.29495880562514065,-0.5016865162201225
1772556637567964400,8.80696435546875,1.5133599056243896,-0.4238473436057567,-0.5543942432526499
1772556637577948400,8.816948486328124,1.5210188959449529,-0.47254152414798734,-0.6023770606551319
1772556637587933200,8.82693310546875,1.5200819073557852,-0.4560153367608785,-0.6465647235583514
1772556637597917400,8.83691748046875,1.4651584770351647,-0.4194853490039706,-0.5989651333197951
1772556637607901400,8.8469013671875,1.3540157313644885,-0.37263095110952854,-0.5415750936899334
1772556637617885400,8.856885498046875,1.457761352521181,-0.40057928074300286,-0.6004322832629084
1772556637627870200,8.8668701171875,1.6426257524847983,-0.48164895971119404,-0.6495411820858716
1772556637637854500,8.8768544921875,1.679706652122736,-0.573757919088006,-0.6002108955971897
1772556637647838500,8.88683837890625,1.502685951396823,-0.6072372871026397,-0.49820605369321996
1772556637657823200,8.8968232421875,1.2449825251936912,-0.6159346805602312,-0.4583064433727413
1772556637667807200,8.90680712890625,0.9325017991423606,-0.5937015137031674,-0.4000687008723616
1772556637677791200,8.916791259765626,0.5991857903331518,-0.5826549267709255,-0.3864165345516056
1772556637687776300,8.9267763671875,0.26678046662807464,-0.549313213661313,-0.43896337193399665
1772556637697760300,8.93676025390625,-0.0792594146758318,-0.4675429852083325,-0.5062512668523937
1772556637707744300,8.946744140625,-0.47149055379033084,-0.3623065409719944,-0.6113559014026075
1772556637717728300,8.956728271484375,-0.8323854743987321,-0.2656622762531042,-0.7184867080181837
1772556637727713300,8.96671337890625,-1.0698375552117825,-0.32006752791851756,-0.9425625168424099
1772556637737697300,8.976697265625,-1.5124164872944355,-0.028876550394296645,-0.8434476972915231
1772556637747681300,8.986681396484375,-1.87750126080811,-0.06163812552839517,-0.8841529249064624
1772556637757666300,8.996666259765625,-1.5617179860800503,-0.8225807042211294,-1.304519586789608
1772556637767650300,9.006650390625,-0.9750444713175296,-1.7262459927186369,-1.5567432664074004
1772556637777634300,9.01663427734375,-1.2649760964304209,-1.8645652068674563,-1.2654384532451628
1772556637787619300,9.026619384765626,-1.850311640587449,-1.6503224444672464,-0.8946836712710559
1772556637797603300,9.036603271484376,-2.343974863219261,-1.3025105850547551,-0.6946175374571234
1772556637807587300,9.04658740234375,-2.9278777442246673,-0.801018276232481,-0.6812857621971518
1772556637817571300,9.0565712890625,-3.3534979427218436,-0.3366822703719139,-0.8360879821784793
1772556637827556400,9.066556396484375,-3.316291955399513,0.028143267683684824,-0.8976346300311386
1772556637837540400,9.076540283203125,-2.827756743305921,0.4595493561059236,-0.6221280553076416
1772556637847524400,9.0865244140625,-2.2814327745884655,0.815080411593616,-0.28782727324478324
1772556637857509400,9.09650927734375,-1.8565227701872586,1.0926908997938036,-0.026083704805374145
1772556637867493400,9.106493408203125,-1.3952765470355748,1.2972823290124536,0.27713629481717944
1772556637877477400,9.116477294921875,-1.0856763448566198,1.4300649518221615,0.6260957168295979
1772556637887461400,9.12646142578125,-0.9762053317904472,1.4082359818518162,0.9265560424804687
1772556637897446400,9.1364462890625,-0.9061649963587523,1.159534192749858,1.107896506101638
1772556637907430400,9.146430419921876,-0.677362670469284,0.9785039641216396,1.1748559727832675
1772556637917414400,9.156414306640626,-0.30678339119255543,0.7904609341219067,1.2705385528631508
1772556637927399400,9.1663994140625,0.09133739048242569,0.5885618127271532,1.3665199697591364
1772556637937383400,9.176383544921874,0.3103343616724014,0.5136491950839758,1.4546553493298588
1772556637947367400,9.186367431640624,0.20972119332253933,0.5854889811530709,1.5512700956933199
1772556637957352400,9.1963525390625,-0.007750175735354423,0.6538198823183775,1.5505606322497127
1772556637967336400,9.20633642578125,-0.26304946340620516,0.6215495978325605,1.3920127229340373
1772556637977320400,9.216320556640625,-0.47294718233942984,0.5401277444258332,1.069367453482002
1772556637987304400,9.226304443359375,-0.4148766861647367,0.4368722448736429,0.7154381341025233
1772556637997289500,9.23628955078125,-0.17895839079022408,0.2848071217060089,0.32779739151820536
1772556638007273500,9.2462734375,0.15679916595220564,0.07330196757614613,0.021847820801287887
1772556638017257500,9.256257568359375,0.3576730359524488,-0.16470248642265795,-0.3065039897292852
1772556638027242500,9.266242431640626,0.7198334464520215,-0.3508247774928808,-0.5588530492924153
1772556638037226500,9.2762265625,1.050281790870428,-0.4873980247572064,-0.8434628948606551
1772556638047210500,9.28621044921875,1.205496902501583,-0.5381371551305055,-1.1322392124585807
1772556638057195500,9.296195556640624,1.2984212699145077,-0.5125236981853842,-1.279151629038155
1772556638067179500,9.306179443359374,1.3823510144889355,-0.4378565797358751,-1.212002046611905
1772556638077163500,9.31616357421875,1.3866390670716762,-0.3559104101940989,-1.0250552874162793
1772556638087147500,9.3261474609375,1.2441595183730125,-0.308444017881155,-0.7337270933784544
1772556638097132500,9.336132568359375,1.127384904295206,-0.28533056105822324,-0.4754657410316169
1772556638107116500,9.346116455078125,1.11288642334342,-0.23229104478806256,-0.2641178232900798
1772556638117100500,9.3561005859375,1.1735744085401296,-0.14226327559947965,-0.05116407778710127
1772556638127085600,9.36608544921875,1.251230479672551,-0.0005748772785067557,0.07384951845631003
1772556638137069600,9.376069580078125,1.331623866814375,0.15148644649684428,0.12437617512270807
1772556638147053600,9.386053466796875,1.476889246839285,0.2538859137415886,0.07819865357652306
1772556638157037600,9.39603759765625,1.6516197908014059,0.30453824261426926,0.004404518569260835
1772556638167022600,9.406022705078126,1.7970979367941617,0.3256406518757343,-0.0746567431859672
1772556638177006600,9.416006591796876,1.8530887040853499,0.3383221465334296,-0.08257789157405496
1772556638186990600,9.425990478515626,1.7530594731032847,0.37947394887208935,-0.02552753222733736
1772556638196975400,9.435975341796874,1.5323627122581005,0.33143121797591446,0.04649579371511936
1772556638206959400,9.44595947265625,1.3630425029069184,0.16571575511842965,0.10131576366126537
1772556638216943600,9.455943603515625,1.2558949643522501,-0.008867197066545486,0.20494126556962727
1772556638226927400,9.46592724609375,1.13220779440701,-0.14756722722649573,0.364330740275979
1772556638236912400,9.475912353515625,0.8865145394712686,-0.2880254992306232,0.48346463083103297
1772556638246896400,9.485896484375,0.6048199968278408,-0.4275599343881011,0.48317207762524483
1772556638256880400,9.49588037109375,0.32723815020024777,-0.6134288352191448,0.4253180006802082
1772556638266865400,9.505865478515625,-0.013584873238205909,-0.8309864212557673,0.3957695423737168
1772556638276849400,9.515849365234375,-0.2513625327438116,-1.0732543779179453,0.37622210746929047
1772556638286833400,9.52583349609375,-0.40747254738807676,-1.216112404540181,0.3536889347523451
1772556638296818400,9.535818359375,-0.6107002870380878,-1.1824749233543872,0.30189810336902734
1772556638306802200,9.54580224609375,-0.6772428434818982,-1.0310708944439888,0.22872180799916386
1772556638316786200,9.5557861328125,-0.5800555579274892,-0.8727133931338786,0.14799348981454968
1772556638326770400,9.5657705078125,-0.3814069627612829,-0.7300450438648461,0.12737126528546214
1772556638336755200,9.575755126953124,-0.0722357996493578,-0.7901333096027374,0.2301980180315673
1772556638346739200,9.5857392578125,0.10141220977306366,-0.8517036305919289,0.5107260011136532
1772556638356723200,9.59572314453125,-0.16746669043898582,-0.3861684780746698,0.944254488517344
1772556638366705400,9.605705322265624,-0.5151683674752712,0.01776508153229952,0.9841761645391582
1772556638376689400,9.615689453125,-0.4631809906065464,-0.1683124936133623,0.709815618045628
1772556638386673400,9.62567333984375,-0.6652706661373377,-0.22879385032206773,0.6255056419819593
1772556638396657400,9.635657470703125,-1.5184885006844997,0.6359945950314402,0.7242623688101768
1772556638406642400,9.645642333984375,-2.3768729242146014,1.5407698905974625,0.4630196625649929
1772556638416626400,9.65562646484375,-2.6141122390598057,1.8668556558921932,-0.19534451211951673
1772556638426610400,9.6656103515625,-2.3086562970787283,1.7753280035346746,-0.8941710455738008
1772556638436595500,9.675595458984375,-1.8207967922896147,1.5881708164587616,-1.3456987155266105
1772556638446579500,9.685579345703125,-1.3518243588000536,1.4847399603396654,-1.4770752709306776
1772556638456563500,9.6955634765625,-0.8184002036660909,1.379455585308373,-1.6113535391256213
1772556638466547500,9.70554736328125,-0.31370822201967236,1.2015142626062034,-1.765935029028356
1772556638476532500,9.715532470703126,-0.17685352746546268,0.8623807996898889,-2.0848270834267137
1772556638486516500,9.7255166015625,-0.16542086382508278,0.7019120053142309,-2.4259594650752843
1772556638496500500,9.73550048828125,-0.1577723948985338,0.3845286019131541,-2.4534143121033907
1772556638506485500,9.745485595703125,-0.18454934266507625,-0.0533300236493349,-2.347904165492207
1772556638516469500,9.755469482421875,-0.12004326048493384,-0.5255678886756301,-1.9603712671965359
1772556638526453500,9.76545361328125,0.06269172623455524,-0.9105831050619483,-1.4126181424587965
1772556638536437500,9.7754375,0.08598492353856563,-0.9197434398561716,-0.6598365853246301
1772556638546422500,9.785422607421875,-0.06134966397583484,-0.893901142591238,-0.02092266878038645
1772556638556406500,9.795406494140625,-0.2775233944386244,-0.8745449924752116,0.5577959414549172
1772556638566390500,9.805390625,-0.5156295552462339,-0.8864207237079739,1.0498025559861213
1772556638576375600,9.81537548828125,-0.5497615419507026,-0.8952522649392485,1.3198181320779026
1772556638586359600,9.825359619140626,-0.35184301462471484,-0.8237336736485361,1.3763605419024825
1772556638596343600,9.835343505859376,0.05265957704186439,-0.6407669239997863,1.279107205374539
1772556638606328600,9.84532861328125,0.5131874227911234,-0.42447658142000433,1.095739108383283
1772556638616312600,9.8553125,0.8452806118071079,-0.22907734343856573,0.8270283312797546
1772556638626296600,9.865296630859374,1.0018944843202828,-0.10455401493012904,0.5491567079253494
1772556638636280600,9.875280517578124,1.0765087035387755,-0.05554068543612957,0.3146508366320282
1772556638646265600,9.885265625,1.0839783087670802,-0.04506926804333925,0.13943703919760883
1772556638656249600,9.89524951171875,1.0060527730435131,-0.06684855365306139,0.01545285906717181
1772556638666233600,9.905233642578125,0.9032675213515758,-0.1033621747970581,-0.04877893621623516
1772556638676218600,9.915218505859375,0.8664064019441604,-0.14339666354358196,-0.07823547845557331
1772556638686202600,9.92520263671875,0.8501753981113434,-0.15672288584560154,-0.06688384416215121
1772556638696186600,9.9351865234375,0.8955600157141685,-0.17690847252309322,-0.03583250701203942
1772556638706170600,9.945170654296875,1.0455307969510554,-0.21103578305244444,-0.04806771920695901
1772556638716155600,9.95515576171875,1.1945838788211345,-0.23091332669407127,-0.050648967871814964
1772556638726139600,9.9651396484375,1.2675725426644087,-0.2821811571165919,-0.07349588271304965
1772556638736123600,9.97512353515625,1.2942255717903375,-0.30379706885814667,-0.18478636629134415
1772556638746108400,9.9851083984375,1.593617683687806,-0.34135786096751686,-0.22128464373573659
1772556638756092700,9.9950927734375,1.8618389967739581,-0.4015583549082279,-0.24774624194279313
1772556638766076700,10.00507666015625,2.087023716688156,-0.38723055434823034,-0.08947875700369477
1772556638776060700,10.015060791015625,2.1828315305829045,-0.37059155423641205,0.027663813603669405
1772556638786045400,10.02504541015625,2.1143243960678575,-0.3756225341409445,0.07267009941339492
1772556638796029400,10.035029541015625,1.9670149429947137,-0.31898937729299065,0.08379691197499632
1772556638806013700,10.045013671875,1.6749381225466726,-0.206239780947566,0.08248334515839814
1772556638815998500,10.05499853515625,1.3041583522617817,-0.13158318389207124,0.08158654244914651
1772556638825982500,10.064982421875,0.967201356601715,-0.06319909123480319,0.01882262776121497
1772556638835966500,10.074966552734375,0.6486983015209437,0.047487727361917496,-0.0385489263638854
1772556638845950700,10.08495068359375,0.2725286548912525,0.14442805241793394,-0.09772373051866888
1772556638855935500,10.094935546875,-0.14158990638256072,0.1617635103613138,-0.23757965271547435
1772556638865919500,10.10491943359375,-0.6307371128946543,0.17526099757701158,-0.4109916614249348
1772556638875903500,10.114903564453124,-1.0328045863687991,0.14078998817652463,-0.6563742429763079
1772556638885888500,10.124888427734374,-1.1716162602096796,-0.16750409983992576,-1.0181346943728624
1772556638895872500,10.13487255859375,-0.9528267942905425,-0.9321572234883904,-1.3432451848946512
1772556638905856500,10.1448564453125,-1.0170336012631653,-1.6400468419075012,-1.4558691090337932
1772556638915840500,10.154840576171875,-1.5588544133424758,-2.002645059302449,-1.455915140132606
1772556638925825500,10.164825439453125,-1.9902163703620432,-2.3677619815200566,-1.3956225839942693
1772556638935809500,10.1748095703125,-2.4973762034267186,-2.4265926484122873,-1.3380017312832175
1772556638945793500,10.18479345703125,-3.4291140324592586,-1.8209958219930529,-1.3062491870611905
1772556638955778600,10.194778564453125,-4.670763029316068,-0.9166288149669766,-1.3136278991356491
1772556638965762600,10.204762451171876,-5.631076964491605,-0.03375526234656572,-1.119242222110927
1772556638975746600,10.21474658203125,-5.876736317157745,0.5891176930442452,-0.7623350559644401
1772556638985730300,10.224730224609376,-5.1283565751791,0.911519801390171,-0.35050095236599443
1772556638995715600,10.234715576171874,-3.42357276494503,1.1299591386973857,0.2327659688234329
1772556639005699600,10.244699462890624,-1.5190332750856876,1.3675681636378167,0.9932739554911851
1772556639015683300,10.254683349609374,0.35487083801329133,1.2578726941660046,1.7933795007929205
1772556639025667300,10.264667236328124,1.649368212482333,1.3501567178487777,2.3303083030469716
1772556639035652400,10.27465234375,1.2383423565268517,1.577328519926965,2.4747668967336414
1772556639045636400,10.28463623046875,1.087962409967184,1.1145727689951657,2.476694649925828
1772556639055620400,10.294620361328125,0.7961772659420967,0.6362512001410127,2.4042212421283122
1772556639065605400,10.30460546875,0.6085100835174322,0.25776012482643124,2.181191069899499
1772556639075589400,10.31458935546875,0.3576835573464632,0.17788287051320076,1.8809645530045032
1772556639085573400,10.324573486328125,0.32876492137610913,0.3304202873677015,1.852334963108599
1772556639095557400,10.334557373046875,0.12854513137042523,0.5674389451995492,1.8629412589274346
1772556639105542400,10.34454248046875,-0.11620470523536204,0.7837354252591728,1.763771713514626
1772556639115526400,10.3545263671875,-0.16484335619807242,0.9595470424562692,1.4992664983421564
1772556639125510400,10.364510498046876,-0.053736850884556764,1.0805968496352434,1.0809588148154319
1772556639135495400,10.374495361328124,0.12644377517700195,1.1076730726093054,0.6309317586839198
1772556639145479400,10.3844794921875,0.3937006271451711,0.9460805349007249,0.16960151051059363
1772556639155463400,10.39446337890625,0.8010901724249124,0.6385971787452698,-0.23707988649979234
1772556639165447400,10.404447509765625,1.421052208805084,0.3894938231050968,-0.4239391135424375
1772556639175432400,10.414432373046875,1.7267366988450288,0.24433745641261337,-0.4586953696250915
1772556639185416400,10.42441650390625,1.7541677266061304,0.05829553710222244,-0.36004371060654516
1772556639195400400,10.434400390625,1.798065320521593,-0.13839724782109258,-0.17193141476288437
1772556639205385500,10.444385498046875,1.7088737098962068,-0.2460463061571121,0.023602847775071857
1772556639215369500,10.454369384765625,1.487287891256809,-0.3006111322984099,0.28226810474768277
1772556639225353500,10.464353515625,1.2255191153109073,-0.33145196850299835,0.5372668020367622
1772556639235337500,10.47433740234375,0.9190092803627252,-0.2715010654091835,0.8152205507166683
1772556639245322500,10.484322509765626,0.6086456925958394,-0.23557371972054242,1.0365332515031098
1772556639255306500,10.494306396484374,0.39651217743456363,-0.23608079245984553,1.2057193130806088
1772556639265290500,10.50429052734375,0.17934768236875534,-0.23071868090480566,1.2309024157844484
1772556639275275500,10.514275634765625,0.1596644922554493,-0.24244243644624947,1.1103830622203648
1772556639285259500,10.524259521484375,0.32395664431154725,-0.27625059802383184,0.853915461422503
1772556639295243500,10.534243408203125,0.5916571483939885,-0.3512842116981745,0.5731912251159549
1772556639305227500,10.5442275390625,0.7713631426811218,-0.43880408971905704,0.31376565129533407
1772556639315212500,10.554212646484375,0.9623404725670814,-0.46882659527808423,0.05432108051329851
1772556639325196500,10.564196533203125,1.0505869112968445,-0.47174248272478575,-0.15303776759207247
1772556639335180500,10.5741806640625,1.1265712498247622,-0.43922932939380405,-0.2848079984888434
1772556639345165600,10.58416552734375,1.1061895560532808,-0.36430122192054987,-0.32216084693595765
1772556639355149600,10.594149658203126,1.048873677638173,-0.3173132607743144,-0.2609529295183718
1772556639365132800,10.6041328125,0.9418792838186025,-0.29898090074807404,-0.11535890206098556
1772556639375116800,10.61411669921875,0.8239636830121279,-0.2634627203822136,0.11384177549630403
1772556639385101800,10.624101806640626,0.7135229481309652,-0.21261749928593635,0.2792822208046913
1772556639395085800,10.6340859375,0.6396686073690653,-0.18165274444073437,0.3295294760078192
1772556639405069800,10.64406982421875,0.6239502292335033,-0.17680471988767385,0.3075805329196155
1772556639415053800,10.6540537109375,0.6371610084623098,-0.19726532411426304,0.27816125395074487
1772556639425038800,10.664038818359375,0.6110434013873338,-0.225427004237473,0.2901842846997082
1772556639435022800,10.67402294921875,0.4816758477181196,-0.33427199435979127,0.3980852719701826
1772556639445006800,10.6840068359375,0.3491109593123197,-0.6977084161445498,0.4723875026300549
1772556639454992000,10.693991943359375,0.19349311209917067,-1.3696896858364342,0.5867248065583408
1772556639464976000,10.703975830078125,-0.45116555864214897,-1.4608382757484912,0.8758117975406349
1772556639474960000,10.7139599609375,-1.6057207939356564,-0.9300053061515092,0.8721846930846572
1772556639484944000,10.72394384765625,-3.121730921807885,-0.4601689493089914,0.616839520445466
1772556639494929000,10.733928955078126,-4.939404029119014,0.0989221465229988,0.40481268052905794
1772556639504913000,10.743912841796876,-6.163829503974318,0.6392743473544716,0.07627528429850935
1772556639514897000,10.75389697265625,-6.059117668133974,0.7488350845307111,-0.6156124628685414
1772556639524882000,10.7638818359375,-4.969927177676558,0.6414522759154438,-1.4279779164150357
1772556639534866000,10.773865966796874,-3.2690316070526837,0.6126005677014589,-1.9317768947444856
1772556639544850000,10.783849853515624,-1.2225322084546089,0.7200324761554598,-2.023819803147763
1772556639554834000,10.793833984375,-0.37026422197818754,0.7919795219913125,-1.9211089318662882
1772556639564819000,10.80381884765625,0.2650269009590149,0.9691294020548462,-1.537519218238443
1772556639574803000,10.813802978515625,0.4587327790260315,1.4382418285369871,-0.8434338148966432
1772556639584787000,10.823786865234375,0.33442776944339275,1.3646139900073408,-0.3274089767225086
1772556639594772000,10.83377197265625,0.03319850524663925,0.7900327718377113,-0.0820145586028695
1772556639604756000,10.843755859375,-0.22234978874921799,0.08711246626377105,-0.10442556624487041
1772556639614740000,10.853739990234375,-0.33575638769865035,-0.2340370116725564,-0.04454246769025921
1772556639624724000,10.863723876953125,-0.35017829628288744,-0.2338838669374585,0.045918286088109016
1772556639634709000,10.873708984375,-0.2503027945578098,-0.17776801196187733,0.09607917818203568
1772556639644693000,10.88369287109375,-0.006619710400700569,-0.15534078383743763,0.04106032466292381
1772556639654677000,10.893677001953124,0.09990881947278976,-0.19890899966806172,-0.17074337402209638
1772556639664661000,10.903660888671874,0.010036825367808342,-0.1904687958419323,-0.39640871706008907
1772556639674646000,10.91364599609375,-0.11127601666152477,-0.16517916402369737,-0.6599380729377269
1772556639684630000,10.923630126953125,-0.30439445022940637,-0.12425766330957412,-0.8456415540739893
1772556639694614000,10.933614013671875,-0.3815793967187404,-0.022441548910737037,-0.8831351261660456
1772556639704598800,10.943598876953125,-0.21819266906976698,0.11384937428086996,-0.907609788339585
1772556639714583000,10.9535830078125,0.3033025633394718,0.20882219865620136,-0.9054303984738886
1772556639724567000,10.963567138671875,0.9932143342584371,0.27636604109704493,-0.8340297344744205
1772556639734551000,10.973551025390625,1.484535377678275,0.3287155292764306,-0.6447419651106
1772556639744535800,10.983535888671875,1.533641061630845,0.17774989178329706,-0.29655688847154377
1772556639754520000,10.99352001953125,1.4359832359552382,-0.0705123368576169,-0.05574935975074768
1772556639764504000,11.003504150390626,1.4531079737573862,-0.22247253834605216,0.03760331607684493
1772556639774488000,11.013488037109376,1.5220096605479716,-0.27273557564020157,0.1362896080173552
1772556639784472800,11.023472900390624,1.6264987935483455,-0.21889058820605276,0.23495836430117487
1772556639794456800,11.033456787109374,1.7229998504042625,-0.16170184330195186,0.27592311963513494
1772556639804441000,11.043441162109374,1.7543804925739763,-0.1196332183793187,0.21184812234863637
1772556639814425900,11.05342578125,1.811920242872834,-0.07179477788358926,0.18527648789584636
1772556639824409900,11.063409912109375,1.808410773447156,-0.09780980136692523,0.17091989963278173
1772556639834393900,11.073393798828125,1.7050971139669417,-0.1845449587509036,0.15851605287268758
1772556639844378000,11.083378173828125,1.6728846971482036,-0.28562048391550776,0.18696151837334035
1772556639854363000,11.09336279296875,1.6773381694257259,-0.3621168636187911,0.22442674115374683
1772556639864347000,11.103346923828125,1.770632539194822,-0.46997488853037356,0.26726167427375913
1772556639874331000,11.113330810546875,1.8685352795422077,-0.5641980635821819,0.2514994569964707
1772556639884316000,11.12331591796875,1.9248247375190257,-0.6412140832453965,0.19490590150654316
1772556639894300000,11.1332998046875,1.901733784788847,-0.7051610702380537,0.18258871011659503
1772556639904284000,11.143283935546876,1.7877450020372867,-0.7502487507209181,0.25313860250562426
1772556639914268000,11.153267822265626,1.7095219446718692,-0.7218257893130183,0.27629999012351036
1772556639924253000,11.1632529296875,1.5828098739475012,-0.6737284056201577,0.1793826075516641
1772556639934237000,11.17323681640625,1.3286959966689347,-0.5890607021600007,0.07475713482052088
1772556639944220700,11.183220703125,0.9646709613412618,-0.5611366301849484,-0.024519670359045266
1772556639954204700,11.19320458984375,0.6693547205805778,-0.5630334037169814,-0.1581537954315543
1772556639964190000,11.20318994140625,0.3663526014924049,-0.4979381234720349,-0.29447043758630753
1772556639974173700,11.213173583984375,-0.11569207953810691,-0.40759062080979347,-0.40947321968600153
1772556639984157700,11.22315771484375,-0.6420639780730009,-0.3265843624666333,-0.5154473305471241
1772556639994143000,11.23314306640625,-1.0314379741907118,-0.22292349698394537,-0.6559525104328989
1772556640004126700,11.243126708984375,-1.2882353914648295,-0.14218290383964777,-0.8676489493511617
1772556640014110700,11.25311083984375,-1.4297405421733855,-0.0821630271628499,-1.0580518403500319
1772556640024094700,11.2630947265625,-1.3595201739996672,-0.11497428665757178,-1.2598238282337784
1772556640034079700,11.273079833984376,-1.0615507883816957,-0.41740445107668633,-1.435478209042549
1772556640044063700,11.283063720703124,-0.5566904644310474,-1.3069804239451885,-1.5545391804918647
1772556640054047700,11.2930478515625,-0.5172416666179895,-1.9254408235907554,-1.2976261740140616
1772556640064031700,11.30303173828125,-0.8953367283523083,-1.7962521336197852,-0.9436552074499428
1772556640074016800,11.313016845703125,-1.3967045340120792,-1.78143508823812,-0.8499383744850755
1772556640084000800,11.323000732421875,-1.8750386700868606,-1.5531185000389813,-0.8160821359820664
1772556640093984800,11.33298486328125,-2.4502643236398693,-1.0351794988065957,-0.7850837711282074
1772556640103969800,11.3429697265625,-3.1308693370312453,-0.5793985553234815,-0.4764066751435399
1772556640113953800,11.352953857421875,-3.37185660623312,-0.0010574000984430313,-0.0007467267140746116
1772556640123937800,11.362937744140625,-3.2735493767380714,0.7315837977394462,0.47405251323282716
1772556640133921800,11.372921875,-3.0621447603732346,1.364007256285846,0.8418462534442543
1772556640143906800,11.38290673828125,-2.5920500448554753,1.8247081205144524,0.9919684258505701
1772556640153890800,11.392890869140626,-1.9138924246162174,2.1955121484577655,1.1098846111789344
1772556640163874800,11.402874755859376,-1.3277011404126882,2.333168807044625,1.25255193753466
1772556640173859800,11.41285986328125,-0.8339753739386796,2.146746948505938,1.4023938316948712
1772556640183843800,11.42284375,-0.37483810576498505,1.7620120103657244,1.5495159455023706
1772556640193827800,11.432827880859374,0.06063304013907909,1.2972390743926168,1.586647114022821
1772556640203811800,11.442811767578124,0.4236515287727117,0.7942886757165193,1.4878325195275246
1772556640213796900,11.452796875,0.6131769062846899,0.3619406302690506,1.400214880220592
1772556640223780900,11.46278076171875,0.6258131004959344,0.08944850799590348,1.3607853716298937
1772556640233764900,11.472764892578125,0.4845739072471857,-0.01733487342149019,1.317382575494051
1772556640243748900,11.482748779296875,0.3148345957010984,-0.004011865989863872,1.2180422035589813
1772556640253734000,11.49273388671875,0.19981237824857234,0.07264262688457965,1.0140206831827758
1772556640263718000,11.5027177734375,0.2544634213685989,0.14910510431826113,0.6998553650453686
1772556640273702000,11.512701904296875,0.2611398303925991,0.12669365828484297,0.3713832891359925
1772556640283687000,11.52268701171875,0.26622224822342394,0.04803133271932602,0.03966477865129709
1772556640293671000,11.5326708984375,0.49473172864615916,-0.03353255950659513,-0.3106014881759882
1772556640303655000,11.542655029296874,0.8803291288346051,-0.1063704167023301,-0.6993060605995357
1772556640313639000,11.552638916015624,1.2621551937907933,-0.15659809042215347,-1.0489474735267459
1772556640323624000,11.5626240234375,1.5676467916071415,-0.15882541108280418,-1.1741015011541545
1772556640333608000,11.57260791015625,1.80804836987555,-0.10769611234813928,-1.0785276421457528
1772556640343592000,11.582592041015625,2.1593226447016,-0.07195464462041855,-0.8130348772406577
1772556640353576000,11.592575927734375,1.791121784994006,-0.034168519322574135,-0.564995205309242
1772556640363561000,11.60256103515625,1.6394979758530854,0.007019523373246192,-0.26489801388233897
1772556640373545700,11.612545654296875,1.084191659256816,0.1211211188495159,0.28607173481434583
1772556640383529700,11.62252978515625,0.09552665886580944,0.09806582195460796,0.9801419405870139
1772556640393514800,11.6325146484375,-0.1764870322406292,-0.052604047462344164,1.4001165344126523
1772556640403498800,11.642498779296876,0.2369365325063467,0.05948387010395526,1.506232099571079
