time,seconds_elapsed,z,y,x
1772556628841664800,0.080664794921875,0.05048343539237976,-0.5000712871551514,-0.11001266539096832
1772556628851648800,0.090648681640625,-0.04132504761219025,-0.575175940990448,-0.2930503785610199
1772556628861632800,0.1006328125,-0.17829570174217224,-0.6434013247489929,-0.5110006332397461
1772556628871617800,0.11061767578125,-0.29057854413986206,-0.7234790921211243,-0.6791473031044006
1772556628881601800,0.120601806640625,-0.3479294776916504,-0.7368929982185364,-0.7206534743309021
1772556628891585800,0.130585693359375,-0.33676499128341675,-0.5878949761390686,-0.5737748146057129
1772556628901570800,0.14057080078125,-0.28168046474456787,-0.3633621335029602,-0.2745550870895386
1772556628911554800,0.150554931640625,-0.23933298885822296,-0.1497529000043869,0.07876913994550705
1772556628921538800,0.160538818359375,-0.23211675882339478,0.04672478884458542,0.39102062582969666
1772556628931522800,0.170522705078125,-0.23487898707389832,0.23264272511005402,0.5822661519050598
1772556628941507800,0.1805078125,-0.25203993916511536,0.3963022828102112,0.6198068261146545
1772556628951491800,0.190491943359375,-0.2901441752910614,0.5056039690971375,0.529596745967865
1772556628961475800,0.200475830078125,-0.3275164067745209,0.5514243841171265,0.3632206320762634
1772556628971460900,0.2104609375,-0.3544287383556366,0.5522395968437195,0.15337951481342316
1772556628981444900,0.22044482421875,-0.36301034688949585,0.5223414897918701,-0.0578460693359375
1772556628991428900,0.230428955078125,-0.3473277986049652,0.4506673514842987,-0.2540150582790375
1772556629001414000,0.240413818359375,-0.3090854585170746,0.33886709809303284,-0.4164890646934509
1772556629011398000,0.25039794921875,-0.2606862187385559,0.24272885918617249,-0.5340993404388428
1772556629021382000,0.2603818359375,-0.20073847472667694,0.14970389008522034,-0.5840497612953186
1772556629031367000,0.270366943359375,-0.13274984061717987,0.04416520893573761,-0.5591561198234558
1772556629041351000,0.280350830078125,-0.059872645884752274,-0.05175428092479706,-0.48513516783714294
1772556629051335000,0.2903349609375,-0.0011890921741724014,-0.13391467928886414,-0.3750600516796112
1772556629061319000,0.30031884765625,0.0335887148976326,-0.18307629227638245,-0.2634735405445099
1772556629071304000,0.310303955078125,0.030071742832660675,-0.19828267395496368,-0.16440366208553314
1772556629081288000,0.320287841796875,0.0032377629540860653,-0.17639534175395966,-0.08684809505939484
1772556629091272000,0.33027197265625,-0.03978267312049866,-0.13463564217090607,-0.020525529980659485
1772556629101257000,0.340257080078125,-0.0895787924528122,-0.07905391603708267,0.019884081557393074
1772556629111241000,0.350240966796875,-0.14353948831558228,-0.03713842108845711,0.02442130818963051
1772556629121225000,0.360224853515625,-0.1960459053516388,-0.008483354933559895,0.0027181655168533325
1772556629131209700,0.370209716796875,-0.24676793813705444,0.030011305585503578,-0.025965943932533264
1772556629141194000,0.380194091796875,-0.2934339642524719,0.1029941737651825,-0.07163888961076736
1772556629151178000,0.390177978515625,-0.3308580219745636,0.20075854659080505,-0.12004423886537552
1772556629161162800,0.400162841796875,-0.3495243191719055,0.2992371916770935,-0.16809293627738953
1772556629171146800,0.410146728515625,-0.3567739725112915,0.3598797917366028,-0.21577922999858856
1772556629181131000,0.420131103515625,-0.351070374250412,0.39516356587409973,-0.2572236955165863
1772556629191115000,0.430114990234375,-0.3398006856441498,0.4205605089664459,-0.28764766454696655
1772556629201099800,0.440099853515625,-0.3245687484741211,0.4404124319553375,-0.31104686856269836
1772556629211083800,0.450083740234375,-0.3004138767719269,0.45969292521476746,-0.322165310382843
1772556629221068000,0.460068115234375,-0.2592095136642456,0.48687252402305603,-0.3300061523914337
1772556629231052800,0.470052734375,-0.20305168628692627,0.5282644629478455,-0.32700422406196594
1772556629241036800,0.480036865234375,-0.13673067092895508,0.5896088480949402,-0.3140418529510498
1772556629251020800,0.490020751953125,-0.06309985369443893,0.671137273311615,-0.28145620226860046
1772556629261005800,0.500005859375,0.02837984263896942,0.7865944504737854,-0.24185357987880707
1772556629270989800,0.50998974609375,0.12998317182064056,0.839005708694458,-0.1801803559064865
1772556629280973800,0.519973876953125,0.2292679399251938,0.8381873369216919,-0.13537254929542542
1772556629290958800,0.529958740234375,0.309099406003952,0.7819339632987976,-0.07913430780172348
1772556629300942800,0.53994287109375,0.3792820870876312,0.6672946810722351,-0.01229918748140335
1772556629310926800,0.5499267578125,0.4314776659011841,0.5086225271224976,0.07063218206167221
1772556629320910800,0.559910888671875,0.464469850063324,0.34539756178855896,0.1699991524219513
1772556629330896000,0.569895751953125,0.475680410861969,0.2135622799396515,0.26712650060653687
1772556629340880000,0.5798798828125,0.4609341621398926,0.11711791902780533,0.3324626386165619
1772556629350864000,0.58986376953125,0.4218759834766388,0.0597987063229084,0.3522754907608032
1772556629360851500,0.5998515625,0.3370748460292816,0.026376651600003242,0.3147259056568146
1772556629370835500,0.60983544921875,0.20655889809131622,-0.026495883241295815,0.2459322065114975
1772556629380819500,0.6198193359375,0.026904884725809097,-0.11953390389680862,0.16824254393577576
1772556629390804500,0.629804443359375,-0.17283086478710175,-0.2612505555152893,0.09105561673641205
1772556629400788500,0.63978857421875,-0.383446604013443,-0.375061959028244,0.03389645740389824
1772556629410772500,0.6497724609375,-0.5973280072212219,-0.4124782979488373,0.0007124068215489388
1772556629420757500,0.659757568359375,-0.7944297194480896,-0.3577363193035126,-0.026115667074918747
1772556629430741500,0.669741455078125,-0.9456464052200317,-0.29377517104148865,-0.0652332454919815
1772556629440725500,0.6797255859375,-1.051188349723816,-0.24188350141048431,-0.1312149614095688
1772556629450709500,0.68970947265625,-1.105510950088501,-0.17331455647945404,-0.21568430960178375
1772556629460694500,0.699694580078125,-1.093363642692566,-0.09305839985609055,-0.3103281259536743
1772556629470678500,0.709678466796875,-1.0051994323730469,-0.039446037262678146,-0.40860435366630554
1772556629480662500,0.71966259765625,-0.8518492579460144,-0.022638211026787758,-0.4659566581249237
1772556629490647600,0.7296474609375,-0.6648415327072144,-0.021584399044513702,-0.43103116750717163
1772556629500631600,0.739631591796875,-0.4670027792453766,-0.043715573847293854,-0.28898385167121887
1772556629510615600,0.749615478515625,-0.2734745740890503,-0.0754023939371109,-0.06801605224609375
1772556629520600600,0.7596005859375,-0.08972972631454468,-0.10870311409235,0.18402601778507233
1772556629530584600,0.76958447265625,0.06812594830989838,-0.1257215142250061,0.426563560962677
1772556629540568600,0.779568603515625,0.17795290052890778,-0.11737512052059174,0.6492404341697693
1772556629550553600,0.7895537109375,0.22551189363002777,-0.09814070910215378,0.8393182158470154
1772556629560537600,0.79953759765625,0.2171602100133896,-0.07593122869729996,0.9956911206245422
1772556629570521600,0.809521484375,0.17660798132419586,-0.06466206908226013,1.1071240901947021
1772556629580505600,0.819505615234375,0.10810329020023346,-0.08994856476783752,1.1718270778656006
1772556629590490600,0.82949072265625,0.03161624073982239,-0.14622968435287476,1.1919502019882202
1772556629600474600,0.839474609375,-0.05158728361129761,-0.2130558341741562,1.1855720281600952
1772556629610458600,0.849458740234375,-0.12336879223585129,-0.28618890047073364,1.1593884229660034
1772556629620443600,0.859443603515625,-0.18807587027549744,-0.344265878200531,1.115776538848877
1772556629630427600,0.869427734375,-0.2329551875591278,-0.37913277745246887,1.049283504486084
1772556629640411600,0.87941162109375,-0.25521159172058105,-0.38739532232284546,0.9654252529144287
1772556629650396700,0.889396728515625,-0.257413774728775,-0.3687739670276642,0.8510475158691406
1772556629660380700,0.899380615234375,-0.2619129419326782,-0.3357754647731781,0.7060621976852417
1772556629670364700,0.90936474609375,-0.2567274868488312,-0.2797636091709137,0.5507676601409912
1772556629680349700,0.919349609375,-0.244310662150383,-0.21718639135360718,0.3824976682662964
1772556629690333700,0.929333740234375,-0.22995063662528992,-0.15643516182899475,0.2301749736070633
1772556629700317700,0.939317626953125,-0.2084324210882187,-0.10143081843852997,0.10630112886428833
1772556629710302500,0.949302490234375,-0.17263419926166534,-0.05666201189160347,0.033751554787158966
1772556629720286700,0.95928662109375,-0.12399732321500778,-0.02920040860772133,0.012669740244746208
1772556629730270700,0.969270751953125,-0.06828026473522186,-0.005842622369527817,0.03381896764039993
1772556629740254700,0.979254638671875,-0.004526002332568169,-0.00714724650606513,0.0765140950679779
1772556629750239500,0.989239501953125,0.061632778495550156,-0.02484927885234356,0.12637512385845184
1772556629760223700,0.9992236328125,0.12272782623767853,-0.04767176881432533,0.16024813055992126
1772556629770207700,1.009207763671875,0.18846048414707184,-0.0774586945772171,0.15828432142734528
1772556629780192500,1.019192626953125,0.23973815143108368,-0.10868392139673233,0.11989659816026688
1772556629790176500,1.029176513671875,0.28723642230033875,-0.15622135996818542,0.05084402486681938
1772556629800160800,1.039160888671875,0.31485792994499207,-0.18808671832084656,-0.039935152977705
1772556629810145500,1.0491455078125,0.3307758867740631,-0.21521660685539246,-0.13788194954395294
1772556629820129500,1.059129638671875,0.3176500201225281,-0.2522776424884796,-0.2339993268251419
1772556629830113500,1.069113525390625,0.29216092824935913,-0.2785414755344391,-0.32180055975914
1772556629840098600,1.0790986328125,0.25713375210762024,-0.2901866137981415,-0.3823377788066864
1772556629850082600,1.08908251953125,0.21162939071655273,-0.2871417999267578,-0.4171527624130249
1772556629860066600,1.099066650390625,0.16012941300868988,-0.2921636402606964,-0.4250275790691376
1772556629870051600,1.109051513671875,0.10828804224729538,-0.3019302487373352,-0.40905287861824036
1772556629880035600,1.11903564453125,0.05784234777092934,-0.31105688214302063,-0.3737525939941406
1772556629890019600,1.12901953125,0.01387382484972477,-0.32889872789382935,-0.3332384526729584
1772556629900003600,1.139003662109375,-0.02383672632277012,-0.3526417911052704,-0.2840087115764618
1772556629909988600,1.148988525390625,-0.05677283927798271,-0.37455296516418457,-0.23486459255218506
1772556629919972600,1.15897265625,-0.07950858026742935,-0.4033474922180176,-0.18499185144901276
1772556629929956600,1.16895654296875,-0.08963046222925186,-0.42952635884284973,-0.13320642709732056
1772556629939941600,1.178941650390625,-0.08696970343589783,-0.46078193187713623,-0.07976329326629639
1772556629949925600,1.188925537109375,-0.08097652345895767,-0.5078738331794739,-0.018595015630126
1772556629959909600,1.19890966796875,-0.07749339938163757,-0.5475428700447083,0.03732745349407196
1772556629969894700,1.208894775390625,-0.08097468316555023,-0.5650928616523743,0.10739468783140182
1772556629979878700,1.218878662109375,-0.09985749423503876,-0.5520791411399841,0.18919487297534943
1772556629989862700,1.228862548828125,-0.12781110405921936,-0.5336210131645203,0.28507906198501587
1772556629999847700,1.23884765625,-0.17045943439006805,-0.5080522298812866,0.3843572735786438
1772556630009831700,1.248831787109375,-0.2158450335264206,-0.4510432779788971,0.49131304025650024
1772556630019815700,1.258815673828125,-0.2655831575393677,-0.367838591337204,0.598360538482666
1772556630029800700,1.26880078125,-0.3098691403865814,-0.2922857701778412,0.6792939901351929
1772556630039784700,1.27878466796875,-0.33152082562446594,-0.20949572324752808,0.7363327145576477
1772556630049768700,1.288768798828125,-0.3356873393058777,-0.13084325194358826,0.756187915802002
1772556630059753700,1.298753662109375,-0.3299938142299652,-0.0661262571811676,0.7319647073745728
1772556630069737700,1.30873779296875,-0.3088773488998413,-0.017150990664958954,0.6939539313316345
1772556630079721700,1.3187216796875,-0.2749579846858978,0.008900849148631096,0.6519838571548462
1772556630089705700,1.328705810546875,-0.23607048392295837,0.0012554326094686985,0.6263705492019653
1772556630099690800,1.338690673828125,-0.1955091953277588,-0.023378681391477585,0.6177626848220825
1772556630109674800,1.3486748046875,-0.1532304435968399,-0.03736933320760727,0.6408514976501465
1772556630119658800,1.35865869140625,-0.11260799318552017,-0.04752563312649727,0.7033722400665283
1772556630129643800,1.368643798828125,-0.07115296274423599,-0.04692775383591652,0.7918674945831299
1772556630139627800,1.378627685546875,-0.025006094947457314,-0.04127984866499901,0.9125701785087585
1772556630149611800,1.38861181640625,-0.0043322425335645676,-0.04263193532824516,1.0272853374481201
1772556630159596800,1.3985966796875,-0.025799548253417015,-0.038207050412893295,1.106181025505066
1772556630169580800,1.408580810546875,-0.06121346354484558,-0.0294583011418581,1.1217368841171265
1772556630179564800,1.418564697265625,-0.10760633647441864,-0.03587073087692261,1.0396074056625366
1772556630189549600,1.428549560546875,-0.14309614896774292,-0.06570398807525635,0.8637818694114685
1772556630199533800,1.438533935546875,-0.18016116321086884,-0.1040993183851242,0.587576687335968
1772556630209517800,1.448517822265625,-0.22758832573890686,-0.15676066279411316,0.1964309960603714
1772556630219502600,1.458502685546875,-0.2512601613998413,-0.20738621056079865,-0.30874893069267273
1772556630229486600,1.468486572265625,-0.1950296312570572,-0.2358444780111313,-0.8551369309425354
1772556630239470800,1.478470947265625,-0.04011689871549606,-0.18072596192359924,-1.3259422779083252
1772556630249454800,1.488454833984375,0.18180938065052032,-0.0589073970913887,-1.6162054538726807
1772556630259439600,1.498439697265625,0.4343102276325226,0.06015988811850548,-1.6295363903045654
1772556630269423600,1.508423583984375,0.6713903546333313,0.14276182651519775,-1.3675035238265991
1772556630279407600,1.51840771484375,0.8405562043190002,0.14611788094043732,-0.8832999467849731
1772556630289392600,1.528392578125,0.9164224863052368,0.08923116326332092,-0.29886260628700256
1772556630299376600,1.538376708984375,0.8866182565689087,0.03372254595160484,0.28465235233306885
1772556630309360600,1.548360595703125,0.7913830876350403,-0.037252027541399,0.7735114693641663
1772556630319345700,1.558345703125,0.6625393629074097,-0.10943438112735748,1.1189934015274048
1772556630329329700,1.56832958984375,0.5302561521530151,-0.1697954684495926,1.298223614692688
1772556630339313700,1.578313720703125,0.4064701199531555,-0.2094568908214569,1.3319991827011108
1772556630349298700,1.588298583984375,0.282625675201416,-0.20379555225372314,1.2338494062423706
1772556630359279000,1.598279052734375,0.16870905458927155,-0.13566601276397705,1.0194191932678223
1772556630369263000,1.60826318359375,0.07722120732069016,-0.02432882972061634,0.7151684761047363
1772556630379248000,1.618248046875,0.023951735347509384,0.1162063404917717,0.3503285050392151
1772556630389232000,1.628232177734375,0.005851294379681349,0.2646205723285675,-0.030982891097664833
1772556630399216000,1.638216064453125,0.01852571777999401,0.3965892791748047,-0.395285964012146
1772556630409201200,1.648201171875,0.05156675726175308,0.4988884925842285,-0.6972556710243225
1772556630419185200,1.65818505859375,0.12101105600595474,0.550213098526001,-0.9224991798400879
1772556630429169200,1.668169189453125,0.21052682399749756,0.5630921125411987,-1.0629916191101074
1772556630439153200,1.678153076171875,0.3031213581562042,0.5547033548355103,-1.1202601194381714
1772556630449138200,1.68813818359375,0.37421897053718567,0.5351464748382568,-1.1008435487747192
1772556630459122200,1.6981220703125,0.44445133209228516,0.495970219373703,-0.9999500513076782
1772556630469106200,1.708106201171875,0.5038065314292908,0.44039615988731384,-0.8319913744926453
1772556630479091200,1.71809130859375,0.5453489422798157,0.37386462092399597,-0.624322772026062
1772556630489075200,1.7280751953125,0.5660291910171509,0.31305214762687683,-0.419461727142334
1772556630499059200,1.73805908203125,0.5658385157585144,0.2535388767719269,-0.2491040676832199
1772556630509044200,1.748044189453125,0.5451892018318176,0.2201729416847229,-0.1250406950712204
1772556630519028200,1.7580283203125,0.5077102780342102,0.21097548305988312,-0.054384030401706696
1772556630529012200,1.76801220703125,0.45905083417892456,0.21156884729862213,-0.029758844524621964
1772556630538997200,1.777997314453125,0.40866249799728394,0.21810968220233917,-0.039120689034461975
1772556630548981200,1.787981201171875,0.3604254424571991,0.21949797868728638,-0.060191087424755096
1772556630558965200,1.79796533203125,0.3239416778087616,0.22420698404312134,-0.0665656104683876
1772556630568950300,1.8079501953125,0.30011147260665894,0.24281609058380127,-0.052425552159547806
1772556630578934300,1.817934326171875,0.27786898612976074,0.2562653124332428,-0.01796857640147209
1772556630588918300,1.827918212890625,0.25894322991371155,0.2635634243488312,0.022645695134997368
1772556630598903300,1.8379033203125,0.24370302259922028,0.28119269013404846,0.06628869473934174
1772556630608887300,1.84788720703125,0.24248410761356354,0.3094986379146576,0.10097689926624298
1772556630618871300,1.857871337890625,0.2514069676399231,0.3352337181568146,0.13100755214691162
1772556630628856000,1.86785595703125,0.25719135999679565,0.3665764629840851,0.16504886746406555
1772556630638840300,1.87784033203125,0.26183438301086426,0.3956063389778137,0.1996767669916153
1772556630648824300,1.88782421875,0.2724257707595825,0.4248875081539154,0.23924733698368073
1772556630658808300,1.897808349609375,0.27764347195625305,0.4469493627548218,0.2792482078075409
1772556630668793000,1.90779296875,0.28189387917518616,0.419739305973053,0.30206379294395447
1772556630678777300,1.91777734375,0.27748963236808777,0.3417985737323761,0.3122527003288269
1772556630688761300,1.92776123046875,0.2688276767730713,0.21937862038612366,0.2976151704788208
1772556630698746000,1.93774609375,0.24831485748291016,0.08981996774673462,0.24801218509674072
1772556630708730000,1.947730224609375,0.19507719576358795,-0.018318748101592064,0.1477087438106537
1772556630718714000,1.957714111328125,0.11815159022808075,-0.10379109531641006,0.013474419713020325
1772556630728699100,1.96769921875,0.03626418858766556,-0.16229595243930817,-0.12313429266214371
1772556630738683100,1.97768310546875,-0.030089538544416428,-0.20971478521823883,-0.2420184463262558
1772556630748667100,1.987667236328125,-0.05371417477726936,-0.2338307797908783,-0.29364651441574097
1772556630758652200,1.997652099609375,-0.0308061670511961,-0.19682814180850983,-0.2183666229248047
1772556630768636200,2.00763623046875,0.009806504473090172,-0.10976194590330124,-0.03367266803979874
1772556630778620200,2.0176201171875,0.045458897948265076,-0.03562907129526138,0.18333619832992554
1772556630788605200,2.027605224609375,0.08880876749753952,-0.013108845800161362,0.3500215709209442
1772556630798589200,2.037589111328125,0.14613030850887299,-0.08395986258983612,0.39960718154907227
1772556630808573200,2.0475732421875,0.20236988365650177,-0.16540305316448212,0.3048708140850067
1772556630818558200,2.05755810546875,0.24473561346530914,-0.24161700904369354,0.11080653220415115
1772556630828542200,2.067542236328125,0.2554609477519989,-0.33674487471580505,-0.11673261970281601
1772556630838526200,2.077526123046875,0.25402718782424927,-0.4303581714630127,-0.3060988485813141
1772556630848511200,2.08751123046875,0.24698978662490845,-0.4811209440231323,-0.4085618257522583
1772556630858495200,2.0974951171875,0.23132392764091492,-0.46391600370407104,-0.3902084231376648
1772556630868479200,2.107479248046875,0.2030044049024582,-0.3523719012737274,-0.26358097791671753
1772556630878464300,2.11746435546875,0.1683499962091446,-0.17778435349464417,-0.06401237100362778
1772556630888448300,2.1274482421875,0.1264510154724121,0.04112749174237251,0.15387094020843506
1772556630898432300,2.137432373046875,0.07715334743261337,0.23632609844207764,0.34985050559043884
1772556630908416000,2.147416015625,0.023960696533322334,0.3747444450855255,0.49191921949386597
1772556630918401300,2.1574013671875,-0.009915122762322426,0.46208125352859497,0.5677134990692139
1772556630928385300,2.16738525390625,-0.030547164380550385,0.5123037099838257,0.5789083242416382
1772556630938369000,2.177369140625,-0.05734280124306679,0.5214231014251709,0.5344645977020264
1772556630948354300,2.187354248046875,-0.10101278126239777,0.4866030812263489,0.4232611358165741
1772556630958338000,2.197338134765625,-0.1611817330121994,0.4101647436618805,0.25148558616638184
1772556630968322000,2.207322021484375,-0.20850077271461487,0.3212122619152069,0.025372035801410675
1772556630978307300,2.217307373046875,-0.23513740301132202,0.2452329695224762,-0.23899906873703003
1772556630988291000,2.227291015625,-0.24634824693202972,0.17530742287635803,-0.5096947550773621
1772556630998275000,2.237275146484375,-0.24748043715953827,0.112942636013031,-0.7474603652954102
1772556631008260400,2.24726025390625,-0.24621489644050598,0.06551386415958405,-0.9019092917442322
1772556631018244000,2.257244140625,-0.2288496494293213,0.02967560663819313,-0.9645563960075378
1772556631028228000,2.26722802734375,-0.18401506543159485,-0.008522112853825092,-0.9331188201904297
1772556631038213400,2.27721337890625,-0.11188492178916931,-0.04834972694516182,-0.8051164150238037
1772556631048197000,2.287197021484375,-0.025024591013789177,-0.0832909345626831,-0.6031103134155273
1772556631058181000,2.29718115234375,0.06231764703989029,-0.10720477253198624,-0.3625586926937103
1772556631068166100,2.307166259765625,0.13666297495365143,-0.12016851454973221,-0.11555848270654678
1772556631078150100,2.317150146484375,0.18349041044712067,-0.1313055008649826,0.08962810039520264
1772556631088134100,2.327134033203125,0.1967042088508606,-0.1532829850912094,0.22219333052635193
1772556631098119200,2.337119140625,0.18104414641857147,-0.1751536726951599,0.29860976338386536
1772556631108103000,2.34710302734375,0.13655418157577515,-0.19463098049163818,0.3269026577472687
1772556631118087200,2.357087158203125,0.07594320178031921,-0.2142903208732605,0.31040218472480774
1772556631128072000,2.367072021484375,-0.0036291189026087523,-0.22784608602523804,0.24974948167800903
1772556631138056000,2.377055908203125,-0.09286651015281677,-0.2139204740524292,0.17161943018436432
1772556631148040000,2.3870400390625,-0.1856643557548523,-0.17290912568569183,0.0795438289642334
1772556631158025000,2.39702490234375,-0.2753065824508667,-0.09989696741104126,-0.015181105583906174
1772556631168009000,2.407009033203125,-0.34910809993743896,-0.007233339827507734,-0.10756856203079224
1772556631177993000,2.416992919921875,-0.3982870578765869,0.08031218498945236,-0.16470597684383392
1772556631187977000,2.42697705078125,-0.4191382825374603,0.13253064453601837,-0.1688879281282425
1772556631197962000,2.4369619140625,-0.4319675862789154,0.1511613130569458,-0.11554824560880661
1772556631207946000,2.446946044921875,-0.4481215178966522,0.14042717218399048,-0.03046823851764202
1772556631217930000,2.456929931640625,-0.47864729166030884,0.10162848234176636,0.07435981929302216
1772556631227915000,2.4669150390625,-0.5205351114273071,0.05753612518310547,0.1736091673374176
1772556631237899000,2.47689892578125,-0.565812885761261,0.0215434730052948,0.24299854040145874
1772556631247883000,2.486883056640625,-0.606602668762207,0.021765580400824547,0.27884602546691895
1772556631257868000,2.496867919921875,-0.6326794028282166,0.049822304397821426,0.2778703570365906
1772556631267852000,2.50685205078125,-0.6234923005104065,0.10579103231430054,0.25708651542663574
1772556631277836000,2.5168359375,-0.5791977643966675,0.16399715840816498,0.2189560830593109
1772556631287821000,2.526821044921875,-0.5076261162757874,0.19758574664592743,0.19228585064411163
1772556631297805000,2.53680517578125,-0.4264899790287018,0.2027284950017929,0.17134658992290497
1772556631307789000,2.5467890625,-0.3360045552253723,0.18974052369594574,0.1505473107099533
1772556631317774000,2.556774169921875,-0.23903806507587433,0.15592800080776215,0.12897391617298126
1772556631327758000,2.566758056640625,-0.1372469812631607,0.10373750329017639,0.12180255353450775
1772556631337742000,2.5767421875,-0.03621751815080643,0.05776486545801163,0.15603519976139069
1772556631347727000,2.58672705078125,0.01660388521850109,0.0038843220099806786,0.21136663854122162
1772556631357710600,2.596710693359375,0.0028055862057954073,-0.06912004202604294,0.25248461961746216
1772556631367694600,2.606694580078125,-0.054793260991573334,-0.18375848233699799,0.2424738109111786
1772556631377679600,2.6166796875,-0.10438451915979385,-0.30715295672416687,0.1646357625722885
1772556631387663600,2.62666357421875,-0.1501930207014084,-0.4498012065887451,0.021686069667339325
1772556631397647600,2.636647705078125,-0.2392849326133728,-0.5705925226211548,-0.19916178286075592
1772556631407632600,2.646632568359375,-0.34426459670066833,-0.6431727409362793,-0.47168225049972534
1772556631417616600,2.65661669921875,-0.40802159905433655,-0.6382488012313843,-0.7084068655967712
1772556631427600600,2.6666005859375,-0.40133678913116455,-0.5755600929260254,-0.833126425743103
1772556631437585700,2.676585693359375,-0.3368985950946808,-0.45349475741386414,-0.7794952988624573
1772556631447569700,2.686569580078125,-0.2387789636850357,-0.2953626215457916,-0.5547221302986145
1772556631457553700,2.6965537109375,-0.12850551307201385,-0.15039341151714325,-0.1978459507226944
1772556631467537700,2.70653759765625,-0.05254710093140602,-0.07529706507921219,0.19232578575611115
1772556631477522700,2.716522705078125,-0.02938925102353096,-0.054586391896009445,0.4845534861087799
1772556631487506700,2.726506591796875,-0.04882819578051567,-0.05636724829673767,0.6256946325302124
1772556631497490700,2.73649072265625,-0.0953492596745491,-0.06497828662395477,0.6092036366462708
1772556631507475700,2.746475830078125,-0.14668701589107513,-0.05877258628606796,0.4926532804965973
1772556631517459700,2.756459716796875,-0.18349003791809082,-0.017613358795642853,0.3176685869693756
1772556631527443700,2.766443603515625,-0.19310671091079712,0.05302272364497185,0.1440267562866211
1772556631537428700,2.7764287109375,-0.16959382593631744,0.11823085695505142,-0.0035339966416358948
1772556631547412700,2.786412841796875,-0.11693435162305832,0.1410922408103943,-0.10994059592485428
1772556631557396700,2.796396728515625,-0.051298998296260834,0.11759784072637558,-0.18918344378471375
1772556631567381500,2.806381591796875,0.012735376134514809,0.05892680212855339,-0.25982511043548584
1772556631577365800,2.81636572265625,0.06610412895679474,-0.0244191512465477,-0.3146858513355255
1772556631587349800,2.826349853515625,0.10057928413152695,-0.13165026903152466,-0.34812211990356445
1772556631597334500,2.83633447265625,0.10467907786369324,-0.24766196310520172,-0.3362217843532562
1772556631607318500,2.846318603515625,0.0834243893623352,-0.3549066483974457,-0.2798756957054138
1772556631617302800,2.856302734375,0.04452335089445114,-0.4443706274032593,-0.1937205046415329
1772556631627287600,2.86628759765625,0.0062105837278068066,-0.5028291344642639,-0.09132969379425049
1772556631637271600,2.876271484375,-0.01825100928544998,-0.5056197047233582,0.01647481881082058
1772556631647255600,2.886255615234375,-0.03146295249462128,-0.4649212956428528,0.12043317407369614
1772556631657240600,2.896240478515625,-0.021887486800551414,-0.39201703667640686,0.19836914539337158
1772556631667224600,2.906224609375,0.018670324236154556,-0.2966788113117218,0.24573612213134766
1772556631677208600,2.91620849609375,0.07459574192762375,-0.18386520445346832,0.2634305953979492
1772556631687193600,2.926193603515625,0.13803569972515106,-0.062099892646074295,0.24829906225204468
1772556631697177600,2.936177490234375,0.19671086966991425,0.05043298378586769,0.22382235527038574
1772556631707161600,2.94616162109375,0.25786611437797546,0.15402089059352875,0.18431702256202698
1772556631717146600,2.956146728515625,0.3286852240562439,0.23521922528743744,0.1460902988910675
1772556631727130600,2.966130615234375,0.3853578269481659,0.2873298227787018,0.11793962121009827
1772556631737114600,2.976114501953125,0.4181799292564392,0.31298068165779114,0.11628010869026184
1772556631747098600,2.9860986328125,0.4269941747188568,0.30899739265441895,0.14897572994232178
1772556631757083600,2.996083740234375,0.42442870140075684,0.2800723612308502,0.21247044205665588
1772556631767067600,3.006067626953125,0.41275233030319214,0.2508649230003357,0.29497331380844116
1772556631777051600,3.0160517578125,0.4009869396686554,0.24522052705287933,0.38053861260414124
1772556631787036700,3.02603662109375,0.38563409447669983,0.253706693649292,0.4523907005786896
1772556631797020700,3.036020751953125,0.3725605010986328,0.27499330043792725,0.49024879932403564
1772556631807004700,3.046004638671875,0.3602180778980255,0.27430805563926697,0.490105003118515
1772556631816989700,3.05598974609375,0.339247465133667,0.2346857190132141,0.44750115275382996
1772556631826973700,3.0659736328125,0.30944082140922546,0.16426774859428406,0.38716456294059753
1772556631836957700,3.075957763671875,0.26057684421539307,0.09708671271800995,0.3085368573665619
1772556631846942700,3.085942626953125,0.18111661076545715,0.03734136000275612,0.21364735066890717
1772556631856926700,3.0959267578125,0.07966523617506027,-0.03638191893696785,0.09916273504495621
1772556631866910700,3.10591064453125,-0.02668490633368492,-0.12950226664543152,-0.03633969649672508
1772556631876895700,3.115895751953125,-0.11696134507656097,-0.2330055683851242,-0.18593250215053558
1772556631886879700,3.125879638671875,-0.17487311363220215,-0.3075335919857025,-0.3008420467376709
1772556631896863700,3.13586376953125,-0.20557479560375214,-0.31884172558784485,-0.33653655648231506
1772556631906848800,3.145848876953125,-0.21059058606624603,-0.2839849591255188,-0.26316940784454346
1772556631916832800,3.155832763671875,-0.1753976047039032,-0.19761301577091217,-0.07234641164541245
1772556631926816800,3.165816650390625,-0.09212642163038254,-0.058744076639413834,0.22804510593414307
1772556631936801800,3.1758017578125,0.005762906279414892,0.06441699713468552,0.5511150360107422
1772556631946785800,3.185785888671875,0.11192342638969421,0.18416070938110352,0.8094768524169922
1772556631956769800,3.195769775390625,0.24208450317382812,0.2891906797885895,0.9327659010887146
1772556631966754600,3.205754638671875,0.3682861328125,0.32940971851348877,0.8937165141105652
1772556631976738800,3.21573876953125,0.4466809630393982,0.29155677556991577,0.7002655863761902
1772556631986722800,3.225722900390625,0.43047162890434265,0.18396639823913574,0.33553287386894226
1772556631996707600,3.23570751953125,0.3399130403995514,0.04834509640932083,-0.1635468602180481
1772556632006691600,3.245691650390625,0.23119057714939117,-0.1245606392621994,-0.7127538323402405
1772556632016675600,3.255675537109375,0.17023150622844696,-0.27716922760009766,-1.1879583597183228
1772556632026660600,3.26566064453125,0.1835361272096634,-0.29310718178749084,-1.4465835094451904
1772556632036644600,3.27564453125,0.26250404119491577,-0.14737200736999512,-1.3851318359375
1772556632046628600,3.285628662109375,0.38729390501976013,0.032476577907800674,-1.0354502201080322
1772556632056613600,3.295613525390625,0.515987753868103,0.18042665719985962,-0.5065528154373169
1772556632066597600,3.30559765625,0.6260455846786499,0.3028484284877777,0.05443408712744713
1772556632076581600,3.31558154296875,0.7123972177505493,0.3603755533695221,0.48925384879112244
1772556632086565600,3.325565673828125,0.7507686018943787,0.37512174248695374,0.7172425389289856
1772556632096550700,3.335550537109375,0.7340642809867859,0.38888248801231384,0.740947961807251
1772556632106534700,3.34553466796875,0.6610425710678101,0.39155521988868713,0.6072540879249573
1772556632116518700,3.3555185546875,0.5507264733314514,0.3885028064250946,0.37262120842933655
1772556632126503700,3.365503662109375,0.4193233847618103,0.36109593510627747,0.09555232524871826
1772556632136487700,3.37548779296875,0.2957444489002228,0.27813848853111267,-0.17000629007816315
1772556632146471700,3.3854716796875,0.1802162379026413,0.155568927526474,-0.3950071930885315
1772556632156456700,3.395456787109375,0.08820890635251999,0.015966158360242844,-0.5599923729896545
1772556632166440700,3.405440673828125,0.022207248955965042,-0.07612675428390503,-0.6617967486381531
1772556632176424700,3.4154248046875,-0.018333083018660545,-0.10091075301170349,-0.6985039114952087
1772556632186409700,3.42540966796875,-0.017623351886868477,-0.07514546811580658,-0.6661728620529175
1772556632196393700,3.435393798828125,0.011857207864522934,-0.011888697743415833,-0.5896720886230469
1772556632206377700,3.445377685546875,0.064512699842453,0.05871489644050598,-0.47403576970100403
1772556632216362800,3.45536279296875,0.1332007497549057,0.12312284111976624,-0.3268885612487793
1772556632226346800,3.4653466796875,0.1879311054944992,0.16434191167354584,-0.1631593108177185
1772556632236330800,3.475330810546875,0.21301297843456268,0.17565830051898956,0.00031234463676810265
1772556632246315800,3.485315673828125,0.216556578874588,0.14862854778766632,0.15136976540088654
1772556632256299800,3.4952998046875,0.21171343326568604,0.10331100970506668,0.27465978264808655
1772556632266283800,3.50528369140625,0.19840136170387268,0.03501557931303978,0.3592801094055176
1772556632276268800,3.515268798828125,0.16899293661117554,-0.0460548959672451,0.4196694493293762
1772556632286252800,3.525252685546875,0.12958268821239471,-0.12771514058113098,0.4481343924999237
1772556632296236800,3.53523681640625,0.0718105137348175,-0.20619425177574158,0.44876208901405334
1772556632306221800,3.545221923828125,0.007400895468890667,-0.27878695726394653,0.43088507652282715
1772556632316205800,3.555205810546875,-0.069121353328228,-0.3365018963813782,0.3918585777282715
1772556632326189800,3.56518994140625,-0.15517288446426392,-0.38522869348526,0.3435398042201996
1772556632336174800,3.5751748046875,-0.24977542459964752,-0.40738025307655334,0.2903723418712616
1772556632346158800,3.585158935546875,-0.3490132987499237,-0.4085424542427063,0.24769175052642822
1772556632356142800,3.595142822265625,-0.4610868990421295,-0.40661492943763733,0.21426093578338623
1772556632366127600,3.605127685546875,-0.574446976184845,-0.41569072008132935,0.19916586577892303
1772556632376111600,3.615111572265625,-0.6884532570838928,-0.4126894176006317,0.19394773244857788
1772556632386095600,3.625095703125,-0.7770822048187256,-0.38101884722709656,0.1966732144355774
1772556632396079600,3.63507958984375,-0.8188917636871338,-0.315295934677124,0.2079811543226242
1772556632406064400,3.645064453125,-0.7995615005493164,-0.20659957826137543,0.23140844702720642
1772556632416048600,3.655048583984375,-0.72512286901474,-0.05700787529349327,0.25376182794570923
1772556632426032600,3.66503271484375,-0.6164283156394958,0.08808033913373947,0.24635928869247437
1772556632436017400,3.675017333984375,-0.4978877305984497,0.2108038067817688,0.21566921472549438
1772556632446001400,3.68500146484375,-0.38992664217948914,0.28789645433425903,0.17838016152381897
1772556632455985700,3.694985595703125,-0.30306196212768555,0.3079952597618103,0.1506335586309433
1772556632465970400,3.704970458984375,-0.2201034426689148,0.309780091047287,0.15477344393730164
1772556632475954400,3.714954345703125,-0.1722891926765442,0.2803001403808594,0.1726265698671341
1772556632485938400,3.7249384765625,-0.17788822948932648,0.2168138474225998,0.17938727140426636
1772556632495923500,3.73492333984375,-0.21651868522167206,0.10663203150033951,0.12972714006900787
1772556632505907500,3.744907470703125,-0.29499486088752747,-0.06448618322610855,-0.008800903335213661
1772556632515891500,3.754891357421875,-0.43412163853645325,-0.30210500955581665,-0.3072913587093353
1772556632525876500,3.76487646484375,-0.5821611881256104,-0.5319573879241943,-0.7115510106086731
1772556632535860500,3.774860595703125,-0.6435281038284302,-0.6900854706764221,-1.0814144611358643
1772556632545844500,3.784844482421875,-0.5992692708969116,-0.7124959826469421,-1.2982466220855713
1772556632555829500,3.79482958984375,-0.46845442056655884,-0.6091713905334473,-1.2892533540725708
1772556632565813500,3.8048134765625,-0.2859642505645752,-0.4419075548648834,-1.030725359916687
1772556632575797500,3.814797607421875,-0.10691352933645248,-0.28168490529060364,-0.5899456739425659
1772556632585782500,3.824782470703125,0.0071073174476623535,-0.18373838067054749,-0.08337808400392532
1772556632595766500,3.8347666015625,0.019825385883450508,-0.13172370195388794,0.3478323221206665
1772556632605750500,3.84475048828125,-0.01362418383359909,-0.10258366167545319,0.6096087694168091
1772556632615735600,3.854735595703125,-0.065617635846138,-0.07112449407577515,0.706946611404419
1772556632625719600,3.864719482421875,-0.12342607229948044,-0.02523636631667614,0.665780246257782
1772556632635703600,3.87470361328125,-0.17740380764007568,0.04245613142848015,0.5349716544151306
1772556632645688600,3.8846884765625,-0.22990338504314423,0.117306187748909,0.3488338589668274
1772556632655672600,3.894672607421875,-0.2646194100379944,0.17960450053215027,0.1514042615890503
1772556632665656600,3.904656494140625,-0.27655303478240967,0.2140706181526184,-0.05448764190077782
1772556632675641600,3.9146416015625,-0.2820076644420624,0.22439707815647125,-0.27303504943847656
1772556632685625600,3.92462548828125,-0.26628464460372925,0.2098439782857895,-0.5007826685905457
1772556632695609600,3.934609619140625,-0.2343439906835556,0.16013610363006592,-0.7270919680595398
1772556632705594600,3.9445947265625,-0.21213296055793762,0.09209979325532913,-0.9053173661231995
1772556632715578600,3.95457861328125,-0.20066925883293152,0.013467018492519855,-0.9997286200523376
1772556632725562600,3.964562744140625,-0.19486036896705627,-0.060989368706941605,-0.9869323372840881
1772556632735546600,3.974546630859375,-0.19043345749378204,-0.12757515907287598,-0.8742699027061462
1772556632745531600,3.98453173828125,-0.19234028458595276,-0.18768617510795593,-0.6872521042823792
1772556632755515600,3.994515625,-0.18821707367897034,-0.2450208067893982,-0.455355167388916
1772556632765499600,4.004499755859375,-0.19100859761238098,-0.26884785294532776,-0.2221544086933136
1772556632775484700,4.014484619140625,-0.18285992741584778,-0.2601109445095062,-0.041881855577230453
1772556632785468700,4.02446875,-0.16557441651821136,-0.2252858728170395,0.06170365959405899
1772556632795452700,4.03445263671875,-0.1437583863735199,-0.16527651250362396,0.09114400297403336
1772556632805437400,4.0444375,-0.11449290812015533,-0.09178950637578964,0.06689245998859406
1772556632815421700,4.054421630859375,-0.08277618139982224,-0.02004673331975937,0.017188306897878647
1772556632825405700,4.06440576171875,-0.04645359888672829,0.041967637836933136,-0.03551644831895828
1772556632835390500,4.074390380859375,-0.01292803231626749,0.1012408435344696,-0.0702831819653511
1772556632845374500,4.08437451171875,0.016869276762008667,0.15105074644088745,-0.058597493916749954
1772556632855358700,4.094358642578125,0.04439067840576172,0.19788353145122528,-0.00009122677147388458
1772556632865343500,4.104343505859375,0.0833095833659172,0.2565564215183258,0.0881936326622963
1772556632875327500,4.114327392578125,0.12795551121234894,0.32803910970687866,0.20710238814353943
1772556632885311500,4.1243115234375,0.1944250762462616,0.43031221628189087,0.34086284041404724
1772556632895296500,4.134296630859375,0.262631893157959,0.5561544895172119,0.4713575541973114
1772556632905280500,4.144280517578125,0.32517489790916443,0.6872909665107727,0.5900983214378357
1772556632915264500,4.154264404296875,0.377447247505188,0.807673454284668,0.6783915162086487
1772556632925249500,4.16424951171875,0.40665096044540405,0.8832536935806274,0.7131385803222656
1772556632935233500,4.174233642578125,0.40964046120643616,0.9164343476295471,0.6997873783111572
1772556632945217500,4.184217529296875,0.38229992985725403,0.9004510641098022,0.6330496668815613
1772556632955202600,4.19420263671875,0.3263244330883026,0.8422458171844482,0.5198947787284851
1772556632965186600,4.2041865234375,0.2578819692134857,0.7428758144378662,0.3684467077255249
1772556632975170600,4.214170654296875,0.16708068549633026,0.6082715392112732,0.1892300695180893
1772556632985155600,4.224155517578125,0.04367993026971817,0.4314517080783844,0.001009292434900999
1772556632995139600,4.2341396484375,-0.08769579231739044,0.24383163452148438,-0.16107337176799774
1772556633005123600,4.24412353515625,-0.19852857291698456,0.061787255108356476,-0.26454412937164307
1772556633015108600,4.254108642578125,-0.2731797397136688,-0.0755457878112793,-0.26966071128845215
1772556633025092600,4.264092529296875,-0.2860654294490814,-0.12452185153961182,-0.19319230318069458
1772556633035076600,4.27407666015625,-0.2236064225435257,-0.04739395156502724,-0.01732257567346096
1772556633045061600,4.2840615234375,-0.11598514765501022,0.08996577560901642,0.22520750761032104
1772556633055045600,4.294045654296875,-0.00290815276093781,0.21758383512496948,0.43584689497947693
1772556633065029600,4.304029541015625,0.10578396916389465,0.3122200667858124,0.5767566561698914
1772556633075013400,4.314013427734375,0.20301836729049683,0.3535369336605072,0.5951918959617615
1772556633084998700,4.32399853515625,0.251120924949646,0.31127655506134033,0.46672284603118896
1772556633094982700,4.333982666015625,0.21989916265010834,0.12942741811275482,0.2121865153312683
1772556633104966400,4.34396630859375,0.1231614351272583,-0.16530542075634003,-0.153456449508667
1772556633114951700,4.35395166015625,0.04480005428195,-0.3988193869590759,-0.5513582825660706
1772556633124935700,4.363935791015625,0.007082502357661724,-0.5410500168800354,-0.8453752398490906
1772556633134919400,4.37391943359375,0.010290957987308502,-0.49478164315223694,-0.9438624978065491
1772556633144904700,4.38390478515625,0.076072096824646,-0.25653818249702454,-0.7825295329093933
1772556633154888700,4.393888671875,0.19499561190605164,0.08500208705663681,-0.3804311454296112
1772556633164872400,4.40387255859375,0.32738107442855835,0.42283472418785095,0.1669541895389557
1772556633174857700,4.413857666015625,0.426245778799057,0.6479077935218811,0.7139155268669128
1772556633184843500,4.423843505859375,0.49470072984695435,0.7450814843177795,1.1449873447418213
1772556633194827500,4.43382763671875,0.5090334415435791,0.7211220860481262,1.3697370290756226
1772556633204812500,4.4438125,0.4524153769016266,0.6473762392997742,1.3972320556640625
1772556633214796500,4.453796630859375,0.34233906865119934,0.5769675970077515,1.2679542303085327
1772556633224780500,4.463780517578125,0.2117893397808075,0.5398945212364197,1.0442301034927368
1772556633234765600,4.473765625,0.07803872227668762,0.5035188794136047,0.7615582942962646
1772556633244749600,4.48374951171875,-0.054384831339120865,0.4572640359401703,0.4559619128704071
1772556633254733600,4.493733642578125,-0.1823398470878601,0.3974173665046692,0.14574865996837616
1772556633264718600,4.503718505859375,-0.2875693440437317,0.3133152723312378,-0.1406753659248352
1772556633274702600,4.51370263671875,-0.3514890968799591,0.21306005120277405,-0.3753032386302948
1772556633284686600,4.5236865234375,-0.3562029004096985,0.10240676999092102,-0.5394700765609741
1772556633294671600,4.533671630859375,-0.3118319511413574,0.030544988811016083,-0.6162484288215637
1772556633304655600,4.543655517578125,-0.2286667674779892,0.0129550751298666,-0.6254174113273621
1772556633314639600,4.5536396484375,-0.13490940630435944,0.02865118347108364,-0.5977243781089783
1772556633324624600,4.563624755859375,-0.03848779574036598,0.06305310130119324,-0.5275352001190186
1772556633334608600,4.573608642578125,0.04513140022754669,0.10644718259572983,-0.42503032088279724
1772556633344592600,4.583592529296875,0.10364930331707001,0.1278001368045807,-0.30108627676963806
1772556633354577700,4.59357763671875,0.14621242880821228,0.11338093131780624,-0.17130422592163086
1772556633364563200,4.603563232421875,0.1658361852169037,0.07789403945207596,-0.057677529752254486
1772556633374547200,4.613547119140625,0.1690022051334381,0.05271144583821297,0.012912765145301819
1772556633384532200,4.6235322265625,0.15187621116638184,0.04760456457734108,0.03204384818673134
1772556633394516200,4.63351611328125,0.10819406062364578,0.03988340497016907,-0.011287625879049301
1772556633404500200,4.643500244140625,0.042131952941417694,0.028963379561901093,-0.09498544782400131
1772556633414485200,4.6534853515625,-0.03593561053276062,0.012605318799614906,-0.2047867625951767
1772556633424469200,4.66346923828125,-0.11974208801984787,0.0013545285910367966,-0.3104974627494812
1772556633434453200,4.673453369140625,-0.19851189851760864,-0.005805466324090958,-0.3911997377872467
1772556633444438300,4.683438232421875,-0.2693905830383301,-0.0029052835889160633,-0.4385930895805359
1772556633454422300,4.69342236328125,-0.3351879417896271,0.00966326892375946,-0.4425901472568512
1772556633464406300,4.70340625,-0.39220330119132996,0.041815876960754395,-0.40436577796936035
1772556633474391300,4.713391357421875,-0.4365087151527405,0.0899461954832077,-0.33486324548721313
1772556633484375300,4.723375244140625,-0.46734490990638733,0.1276690661907196,-0.2302396297454834
1772556633494359300,4.733359375,-0.4969663619995117,0.16345061361789703,-0.12988197803497314
1772556633504344300,4.74334423828125,-0.5441439747810364,0.17795072495937347,-0.05747381970286369
1772556633514328300,4.753328369140625,-0.6055609583854675,0.2114381492137909,-0.021550610661506653
1772556633524312300,4.763312255859375,-0.6707250475883484,0.21886517107486725,-0.015906307846307755
1772556633534297300,4.77329736328125,-0.6954615712165833,0.16671891510486603,-0.021440539509058
1772556633544281300,4.78328125,-0.6815638542175293,0.09638190269470215,0.00313670770265162
1772556633554265000,4.79326513671875,-0.6363561749458313,0.06879470497369766,0.04284648969769478
1772556633564249000,4.8032490234375,-0.5518487691879272,0.11428975313901901,0.0709867849946022
1772556633574234400,4.813234375,-0.44008806347846985,0.21421323716640472,0.0821138471364975
1772556633584218000,4.823218017578125,-0.3235723674297333,0.3205822706222534,0.061644528061151505
1772556633594202000,4.8332021484375,-0.20854966342449188,0.3622002601623535,0.03636303171515465
1772556633604187100,4.843187255859375,-0.08615877479314804,0.34130430221557617,0.038075175136327744
1772556633614171100,4.853171142578125,0.030308173969388008,0.29076334834098816,0.08791205286979675
1772556633624155100,4.863155029296875,0.11181208491325378,0.20096582174301147,0.16580577194690704
1772556633634140200,4.87314013671875,0.11786998063325882,0.09558487683534622,0.23371919989585876
1772556633644124000,4.8831240234375,0.03799858316779137,-0.02430104650557041,0.24268341064453125
1772556633654108200,4.893108154296875,-0.10875485837459564,-0.20550142228603363,0.1450977772474289
1772556633664093200,4.90309326171875,-0.30193763971328735,-0.4162658452987671,-0.08058834075927734
1772556633674077000,4.913076904296875,-0.4777562916278839,-0.5614256262779236,-0.37645620107650757
1772556633684061000,4.92306103515625,-0.564751923084259,-0.6059255003929138,-0.6104835867881775
1772556633694046200,4.933046142578125,-0.5305671691894531,-0.5669692158699036,-0.7012498378753662
1772556633704030000,4.943030029296875,-0.3845958709716797,-0.44069361686706543,-0.599352240562439
1772556633714014000,4.953013916015625,-0.1889733076095581,-0.2170219123363495,-0.31582334637641907
1772556633723999000,4.9629990234375,-0.008849884383380413,0.04805503040552139,0.07800759375095367
1772556633733983000,4.97298291015625,0.1266409456729889,0.2524510324001312,0.4670114815235138
1772556633743967000,4.982967041015625,0.19409775733947754,0.3317357301712036,0.7425868511199951
1772556633753952000,4.992951904296875,0.20722681283950806,0.34099847078323364,0.8556002974510193
1772556633763936000,5.00293603515625,0.1721327304840088,0.35322797298431396,0.8208191394805908
1772556633773920000,5.012919921875,0.09584738314151764,0.37472397089004517,0.7002584338188171
1772556633783905000,5.022905029296875,-0.01667703501880169,0.3920030891895294,0.5376958847045898
1772556633793889000,5.032888916015625,-0.12234148383140564,0.4176539182662964,0.39657342433929443
1772556633803873000,5.042873046875,-0.18994450569152832,0.43415114283561707,0.2770121395587921
1772556633813858000,5.052858154296875,-0.21739402413368225,0.4164869487285614,0.14831140637397766
1772556633823842000,5.062842041015625,-0.2191391885280609,0.3409687578678131,-0.017563585191965103
1772556633833826000,5.072825927734375,-0.19672006368637085,0.21873608231544495,-0.21431401371955872
1772556633843811000,5.08281103515625,-0.15340906381607056,0.07237008959054947,-0.4114779531955719
1772556633853795000,5.092795166015625,-0.11228904873132706,-0.09273383021354675,-0.5496695041656494
1772556633863779000,5.102779052734375,-0.08775413781404495,-0.24501711130142212,-0.618965208530426
1772556633873764000,5.11276416015625,-0.07386717945337296,-0.3942664563655853,-0.6122744679450989
1772556633883748000,5.122748046875,-0.08402208238840103,-0.5185090899467468,-0.5318366289138794
1772556633893732000,5.132732177734375,-0.11665304750204086,-0.5794239044189453,-0.3860896825790405
1772556633903717000,5.142717041015625,-0.17394404113292694,-0.5451372861862183,-0.21064168214797974
1772556633913701000,5.152701171875,-0.23779043555259705,-0.48799678683280945,-0.0462314747273922
1772556633923685000,5.16268505859375,-0.2913183867931366,-0.4271283745765686,0.08000475913286209
1772556633933670100,5.172670166015625,-0.3290354907512665,-0.32884731888771057,0.1546424925327301
1772556633943654100,5.182654052734375,-0.34745365381240845,-0.24065116047859192,0.17792624235153198
1772556633953638100,5.19263818359375,-0.35899031162261963,-0.1309974640607834,0.16163259744644165
1772556633963623200,5.202623046875,-0.377641499042511,-0.015208819881081581,0.14686138927936554
1772556633973607200,5.212607177734375,-0.3875970244407654,0.07762381434440613,0.10943551361560822
1772556633983591200,5.222591064453125,-0.38587793707847595,0.1849108636379242,0.06110553443431854
1772556633993575200,5.2325751953125,-0.38411542773246765,0.2709057033061981,0.02685277722775936
1772556634003560200,5.242560302734375,-0.3690086603164673,0.35571804642677307,0.0152001166716218
1772556634013544200,5.252544189453125,-0.3429383337497711,0.4067566394805908,0.029157595708966255
1772556634023528200,5.262528076171875,-0.31186723709106445,0.4194628596305847,0.05964892357587814
1772556634033513000,5.272512939453125,-0.2622595727443695,0.40725934505462646,0.09763551503419876
1772556634043497000,5.2824970703125,-0.20728127658367157,0.4208665192127228,0.12410120666027069
1772556634053481200,5.292481201171875,-0.14671096205711365,0.4580952823162079,0.1559276282787323
1772556634063466000,5.302466064453125,-0.09048870205879211,0.43853408098220825,0.19525772333145142
1772556634073450000,5.312449951171875,-0.02752968668937683,0.43094775080680847,0.22845636308193207
1772556634083434000,5.32243408203125,0.03939235582947731,0.4221790134906769,0.26314324140548706
1772556634093419000,5.3324189453125,0.10546658933162689,0.35363301634788513,0.29479628801345825
1772556634103403000,5.342403076171875,0.1651560217142105,0.2753688395023346,0.30248910188674927
1772556634113387000,5.352386962890625,0.21596243977546692,0.20636868476867676,0.261507511138916
1772556634123372000,5.3623720703125,0.2542981207370758,0.11408936232328415,0.16369758546352386
1772556634133356000,5.37235595703125,0.25357431173324585,0.006210900843143463,-0.0006882892921566963
1772556634143340000,5.382340087890625,0.20096784830093384,-0.09809979051351547,-0.20561666786670685
1772556634153325000,5.392324951171875,0.1206880584359169,-0.1807982623577118,-0.42415672540664673
1772556634163309000,5.40230908203125,0.025828925892710686,-0.266596257686615,-0.5859877467155457
1772556634173293000,5.41229296875,-0.04936850070953369,-0.31673792004585266,-0.6465446949005127
1772556634183278000,5.422278076171875,-0.069099061191082,-0.29375964403152466,-0.5569988489151001
1772556634193262000,5.432261962890625,-0.027532406151294708,-0.165679931640625,-0.31571295857429504
1772556634203246000,5.44224609375,0.05956201255321503,0.09730909019708633,0.032084159553050995
1772556634213231000,5.452231201171875,0.14262890815734863,0.3265046775341034,0.3797105550765991
1772556634223215000,5.462215087890625,0.18972264230251312,0.4237619936466217,0.5957304239273071
1772556634233199000,5.47219921875,0.18340279161930084,0.41116684675216675,0.6495516300201416
1772556634243184000,5.48218408203125,0.1676507145166397,0.2594814598560333,0.5468282103538513
1772556634253168000,5.492168212890625,0.11777761578559875,0.0009220584179274738,0.33918631076812744
1772556634263152000,5.502152099609375,0.030407555401325226,-0.3310833275318146,0.10030900686979294
1772556634273137200,5.51213720703125,-0.05687341094017029,-0.6437632441520691,-0.0954960435628891
1772556634283121200,5.52212109375,-0.11866780370473862,-0.8579338788986206,-0.18706351518630981
1772556634293105200,5.532105224609375,-0.12874890863895416,-0.9643426537513733,-0.16903816163539886
1772556634303090200,5.542090087890625,-0.10073325783014297,-0.9456382393836975,-0.04200325161218643
1772556634313074200,5.55207421875,-0.06372681260108948,-0.7790275812149048,0.18796370923519135
1772556634323058200,5.56205810546875,-0.02156710997223854,-0.49576735496520996,0.4577845335006714
1772556634333043200,5.572043212890625,0.037497419863939285,-0.2162901610136032,0.6751869320869446
1772556634343027200,5.582027099609375,0.10976682603359222,-0.00929515901952982,0.7929681539535522
1772556634353011200,5.59201123046875,0.17296072840690613,0.13283997774124146,0.8113955855369568
1772556634362995700,5.60199560546875,0.1842607855796814,0.21286557614803314,0.75153648853302
1772556634372979500,5.6119794921875,0.16193336248397827,0.25412794947624207,0.6270148754119873
1772556634382963500,5.62196337890625,0.1242901086807251,0.296199232339859,0.4476834833621979
1772556634392948700,5.63194873046875,0.08469343185424805,0.2682720720767975,0.22524204850196838
1772556634402932500,5.641932373046875,0.048213984817266464,0.18086713552474976,-0.02360478974878788
1772556634412916500,5.65191650390625,0.030812963843345642,0.06745681911706924,-0.2490416169166565
1772556634422901500,5.661901611328125,0.033905692398548126,-0.05147116258740425,-0.4459022283554077
1772556634432885500,5.671885498046875,0.06531074643135071,-0.041385382413864136,-0.5839139819145203
1772556634442869500,5.681869384765625,0.11759552359580994,-0.030846986919641495,-0.6991393566131592
1772556634452854500,5.6918544921875,0.19055184721946716,0.005931028164923191,-0.7782607674598694
1772556634462838500,5.701838623046875,0.2697465419769287,0.032762374728918076,-0.8099177479743958
1772556634472822500,5.711822509765625,0.34799742698669434,0.051594946533441544,-0.8246110677719116
1772556634482807300,5.721807373046875,0.4153655469417572,0.045771412551403046,-0.8190815448760986
1772556634492791300,5.731791259765625,0.44148096442222595,0.02702276222407818,-0.7934132218360901
1772556634502775600,5.741775634765625,0.4362132251262665,-0.004579904954880476,-0.7355749607086182
1772556634512759600,5.751759521484375,0.41508081555366516,-0.04344017803668976,-0.6486149430274963
1772556634522744300,5.761744384765625,0.3860686123371124,-0.07997315376996994,-0.5441545844078064
1772556634532728300,5.771728271484375,0.36978578567504883,-0.13057276606559753,-0.4195987284183502
1772556634542712600,5.781712646484375,0.3686313033103943,-0.15195181965827942,-0.29071852564811707
1772556634552697300,5.791697265625,0.3834545910358429,-0.14540697634220123,-0.1730259507894516
1772556634562681300,5.801681396484375,0.3933703303337097,-0.1603691428899765,-0.07901742309331894
1772556634572665300,5.811665283203125,0.39652323722839355,-0.11452482640743256,-0.03511849790811539
1772556634582650400,5.821650390625,0.3925088047981262,-0.07515238970518112,-0.05540433153510094
1772556634592634400,5.83163427734375,0.36462974548339844,-0.09557344019412994,-0.1079067662358284
1772556634602618400,5.841618408203125,0.3121196925640106,-0.08539669960737228,-0.1545424461364746
1772556634612603400,5.851603271484375,0.24506106972694397,-0.05091630294919014,-0.1740470826625824
1772556634622587400,5.86158740234375,0.15382064878940582,-0.04412364587187767,-0.17522364854812622
1772556634632571400,5.8715712890625,0.05355064198374748,-0.00890572089701891,-0.1537281721830368
1772556634642556400,5.881556396484375,-0.02264239639043808,0.011581976898014545,-0.11936646699905396
1772556634652540400,5.89154052734375,-0.06601764261722565,0.006970573216676712,-0.07218033820390701
1772556634662524400,5.9015244140625,-0.0990363135933876,-0.026789521798491478,-0.036792781203985214
1772556634672509400,5.911509521484375,-0.11551159620285034,-0.029773956164717674,-0.014959819614887238
1772556634682493400,5.921493408203125,-0.13537344336509705,-0.0010704058222472668,-0.026130449026823044
1772556634692477400,5.9314775390625,-0.15677183866500854,0.03672775253653526,-0.05436548963189125
1772556634702462500,5.94146240234375,-0.180088073015213,0.08892970532178879,-0.10258495062589645
1772556634712446500,5.951446533203125,-0.1881915032863617,0.1533237099647522,-0.14491596817970276
1772556634722430500,5.961430419921875,-0.16453251242637634,0.23895685374736786,-0.14602996408939362
1772556634732415500,5.97141552734375,-0.1241254061460495,0.33245161175727844,-0.10370123386383057
1772556634742399500,5.9813994140625,-0.07407262176275253,0.4304860234260559,-0.019574375823140144
1772556634752383500,5.991383544921875,-0.022607458755373955,0.5157110691070557,0.07156258076429367
1772556634762368500,6.001368408203125,0.034310948103666306,0.5565136671066284,0.15517652034759521
1772556634772352500,6.0113525390625,0.09014071524143219,0.5580873489379883,0.2329503446817398
1772556634782336500,6.02133642578125,0.13674549758434296,0.5448642373085022,0.3155791759490967
1772556634792321500,6.031321533203125,0.16905905306339264,0.5340458154678345,0.4051327109336853
1772556634802305500,6.041305419921875,0.15743489563465118,0.506879985332489,0.479425311088562
1772556634812289500,6.05128955078125,0.08091450482606888,0.43735167384147644,0.5199552178382874
1772556634822274600,6.061274658203125,-0.03491382673382759,0.29512742161750793,0.5073941349983215
1772556634832258600,6.071258544921875,-0.14299386739730835,0.1463150680065155,0.4537549316883087
1772556634842242600,6.08124267578125,-0.21274657547473907,0.024355337023735046,0.35907554626464844
1772556634852227300,6.091227294921875,-0.2620009779930115,-0.06324823945760727,0.2511182725429535
1772556634862211600,6.101211669921875,-0.3300045132637024,-0.12304579466581345,0.1345197707414627
1772556634872195600,6.111195556640625,-0.4010407328605652,-0.16770625114440918,0.00943442340940237
1772556634882180400,6.121180419921875,-0.43004709482192993,-0.1746014505624771,-0.10656914114952087
1772556634892164400,6.131164306640625,-0.3964096009731293,-0.11516684293746948,-0.16643688082695007
1772556634902148600,6.141148681640625,-0.3085465729236603,-0.008674487471580505,-0.15036256611347198
1772556634912133400,6.15113330078125,-0.20510654151439667,0.1309356689453125,-0.08175040781497955
1772556634922117400,6.161117431640625,-0.10507822781801224,0.25010520219802856,-0.00364841241389513
1772556634932101400,6.171101318359375,-0.017517192289233208,0.29253914952278137,0.02675282210111618
1772556634942086400,6.18108642578125,0.06476090848445892,0.26017215847969055,0.0005577025003731251
1772556634952070400,6.1910703125,0.1425902396440506,0.19038447737693787,-0.07023646682500839
1772556634962054400,6.201054443359375,0.21347293257713318,0.1470724195241928,-0.1335853487253189
1772556634972039400,6.211039306640625,0.27736014127731323,0.15978945791721344,-0.16765907406806946
1772556634982023400,6.2210234375,0.32504963874816895,0.20419155061244965,-0.19415564835071564
1772556634992007400,6.23100732421875,0.36989110708236694,0.24551038444042206,-0.23056025803089142
1772556635001992400,6.240992431640625,0.39443400502204895,0.2668311297893524,-0.27047598361968994
1772556635011976400,6.2509765625,0.41024377942085266,0.26091617345809937,-0.33029308915138245
1772556635021960400,6.26096044921875,0.4288182854652405,0.21956554055213928,-0.3913029134273529
1772556635031945500,6.270945556640625,0.45959606766700745,0.15940016508102417,-0.4109781086444855
1772556635041929500,6.280929443359375,0.5026193857192993,0.1123354583978653,-0.3577742874622345
1772556635051913500,6.29091357421875,0.5518465638160706,0.07157852500677109,-0.23614142835140228
1772556635061898500,6.3008984375,0.6028175950050354,0.03008221462368965,-0.07342894375324249
1772556635071882500,6.310882568359375,0.6475602984428406,-0.013859144411981106,0.10407420247793198
1772556635081866500,6.320866455078125,0.6758121848106384,-0.04736650362610817,0.2626771628856659
1772556635091851500,6.3308515625,0.6932034492492676,-0.08019855618476868,0.38952842354774475
1772556635101835500,6.34083544921875,0.7086588144302368,-0.10806533694267273,0.46851804852485657
1772556635111819500,6.350819580078125,0.7096284031867981,-0.13536308705806732,0.49388587474823
1772556635121804500,6.360804443359375,0.6952230930328369,-0.13081094622612,0.46257615089416504
1772556635131788500,6.37078857421875,0.6645335555076599,-0.08653900027275085,0.3825855851173401
1772556635141772500,6.3807724609375,0.6115862131118774,-0.029567589983344078,0.25430431962013245
1772556635151756500,6.390756591796875,0.5387113094329834,0.1081695631146431,0.08542035520076752
1772556635161741600,6.400741455078125,0.4598250389099121,0.25321170687675476,-0.10052847117185593
1772556635171725600,6.4107255859375,0.37235206365585327,0.38236376643180847,-0.27093231678009033
1772556635181709600,6.42070947265625,0.3006632328033447,0.46922969818115234,-0.3950076401233673
1772556635191694600,6.430694580078125,0.2652980387210846,0.5087537169456482,-0.45714104175567627
1772556635201678600,6.4406787109375,0.2517835199832916,0.5136998891830444,-0.4483526349067688
1772556635211662600,6.45066259765625,0.2585732936859131,0.502927839756012,-0.3845910429954529
1772556635221647600,6.460647705078125,0.27936381101608276,0.5042538046836853,-0.2835800051689148
1772556635231631600,6.470631591796875,0.3112258017063141,0.5214980244636536,-0.1602756530046463
1772556635241615600,6.48061572265625,0.34891006350517273,0.5496540665626526,-0.027553826570510864
1772556635251600400,6.490600341796875,0.3911939263343811,0.5772505402565002,0.0804407000541687
1772556635261584600,6.500584716796875,0.421084463596344,0.5540134310722351,0.16054166853427887
1772556635271568600,6.510568603515625,0.43061724305152893,0.47259292006492615,0.2079734057188034
1772556635281553400,6.520553466796875,0.42876100540161133,0.3546271324157715,0.23487825691699982
1772556635291537400,6.530537353515625,0.392020583152771,0.22104020416736603,0.23823976516723633
1772556635301521700,6.540521728515625,0.3221309781074524,0.08886777609586716,0.21177273988723755
1772556635311506400,6.55050634765625,0.2285553514957428,-0.02484646625816822,0.15911917388439178
1772556635321490400,6.560490478515625,0.12398845702409744,-0.1352297067642212,0.0887475460767746
1772556635331474400,6.570474365234375,-0.0040101963095366955,-0.23946237564086914,0.01810668408870697
1772556635341459500,6.58045947265625,-0.1299220472574234,-0.3158748745918274,-0.051732584834098816
1772556635351443500,6.590443359375,-0.23955707252025604,-0.3430481255054474,-0.10804294794797897
1772556635361427200,6.60042724609375,-0.2876646816730499,-0.31519651412963867,-0.1130819171667099
1772556635371412200,6.610412109375,-0.2657758891582489,-0.20529960095882416,-0.04341868311166763
1772556635381396200,6.620396240234375,-0.16650629043579102,-0.0012428672052919865,0.0840708315372467
1772556635391380200,6.630380126953125,-0.026573561131954193,0.22054730355739594,0.21892447769641876
1772556635401365200,6.640365234375,0.07958269864320755,0.3624010980129242,0.2848481237888336
1772556635411349200,6.650349365234375,0.14150340855121613,0.42518553137779236,0.24745601415634155
1772556635421333200,6.660333251953125,0.13068485260009766,0.3799392282962799,0.08982697129249573
1772556635431318300,6.670318359375,0.06062048673629761,0.1914118230342865,-0.15193846821784973
1772556635441302300,6.68030224609375,-0.042585525661706924,-0.08295556157827377,-0.4116102457046509
1772556635451286300,6.690286376953125,-0.1508025974035263,-0.3777829110622406,-0.6181548833847046
1772556635461271300,6.700271240234375,-0.20530179142951965,-0.600742518901825,-0.6963958740234375
1772556635471255300,6.71025537109375,-0.15329831838607788,-0.6815699934959412,-0.6132679581642151
1772556635481239300,6.7202392578125,-0.0048377332277596,-0.6206552386283875,-0.35537463426589966
1772556635491224300,6.730224365234375,0.18168744444847107,-0.4360502064228058,0.01297600008547306
1772556635501208300,6.740208251953125,0.35983243584632874,-0.20156310498714447,0.3996179699897766
1772556635511192300,6.7501923828125,0.5026583671569824,-0.012172916904091835,0.6846106052398682
1772556635521177300,6.76017724609375,0.5844235420227051,0.0813881978392601,0.8184970021247864
1772556635531161300,6.770161376953125,0.6179909110069275,0.11300644278526306,0.8192570805549622
1772556635541145300,6.780145263671875,0.6041539311408997,0.13212396204471588,0.7456936836242676
1772556635551130400,6.79013037109375,0.5600307583808899,0.15272948145866394,0.6353456377983093
1772556635561114400,6.8001142578125,0.4891747236251831,0.15888378024101257,0.5061929821968079
1772556635571098400,6.810098388671875,0.410876601934433,0.1350885033607483,0.37684497237205505
1772556635581083400,6.82008349609375,0.31916770339012146,0.08588819950819016,0.24919700622558594
1772556635591067400,6.8300673828125,0.22132287919521332,0.018277501687407494,0.1335221379995346
1772556635601051400,6.840051513671875,0.1287045180797577,-0.04577019065618515,0.012295052409172058
1772556635611036400,6.850036376953125,0.05148979276418686,-0.07039567083120346,-0.1132005974650383
1772556635621020400,6.8600205078125,-0.013424490578472614,-0.05101930722594261,-0.26358211040496826
1772556635631004400,6.87000439453125,-0.04489000514149666,-0.008613865822553635,-0.4076981842517853
1772556635640988400,6.879988525390625,-0.04221139848232269,0.03637517988681793,-0.5266234874725342
1772556635650973400,6.889973388671875,-0.008175237104296684,0.07629100233316422,-0.6049807071685791
1772556635660957400,6.89995751953125,0.03516344726085663,0.09777578711509705,-0.6494461894035339
1772556635670941400,6.90994140625,0.07659275084733963,0.1219065934419632,-0.6651906371116638
1772556635680926200,6.91992626953125,0.11901983618736267,0.14519113302230835,-0.6439210772514343
1772556635690910500,6.929910400390625,0.1579189896583557,0.15957370400428772,-0.5834100246429443
1772556635700894500,6.93989453125,0.1926111876964569,0.14963211119174957,-0.4973750114440918
1772556635710879200,6.949879150390625,0.21264329552650452,0.10801170766353607,-0.4042735695838928
1772556635720863200,6.95986328125,0.21465744078159332,0.04277970269322395,-0.3197038471698761
1772556635730847200,6.96984716796875,0.1927710920572281,-0.01863846741616726,-0.254098117351532
1772556635740832300,6.979832275390625,0.15243858098983765,-0.06015528365969658,-0.21566149592399597
1772556635750816300,6.989816162109375,0.09344537556171417,-0.07267025858163834,-0.1876353770494461
1772556635760800300,6.99980029296875,0.028433088213205338,-0.0764562115073204,-0.16840416193008423
1772556635770785300,7.009785400390625,-0.04085613787174225,-0.07478965073823929,-0.161237433552742
1772556635780769300,7.019769287109375,-0.11432183533906937,-0.0733741745352745,-0.1562059372663498
1772556635790753300,7.029753173828125,-0.18903402984142303,-0.06683240830898285,-0.15767844021320343
1772556635800738300,7.03973828125,-0.2689485549926758,-0.06317029148340225,-0.1410113126039505
1772556635810722300,7.049722412109375,-0.3411330580711365,-0.06069689989089966,-0.10377287864685059
1772556635820706300,7.059706298828125,-0.39265111088752747,-0.071952223777771,-0.040228791534900665
1772556635830691300,7.06969140625,-0.4323129653930664,-0.082070492208004,0.039141152054071426
1772556635840675300,7.07967529296875,-0.45946335792541504,-0.0893920511007309,0.11508917063474655
1772556635850659300,7.089659423828125,-0.47339552640914917,-0.0822790339589119,0.17515885829925537
1772556635860644400,7.099644287109375,-0.472171813249588,-0.05987066030502319,0.2078574150800705
1772556635870628400,7.10962841796875,-0.4688247740268707,-0.03362980857491493,0.2144097089767456
1772556635880612400,7.1196123046875,-0.46237754821777344,-0.007293009199202061,0.1993548572063446
1772556635890597400,7.129597412109375,-0.4481178820133209,0.026708705350756645,0.16149312257766724
1772556635900581400,7.139581298828125,-0.42220479249954224,0.06351199001073837,0.09465870261192322
1772556635910565400,7.1495654296875,-0.38188886642456055,0.09541366249322891,0.014060663059353828
1772556635920550400,7.15955029296875,-0.32623282074928284,0.13275597989559174,-0.06516784429550171
1772556635930534400,7.169534423828125,-0.2526276111602783,0.17675025761127472,-0.1257229447364807
1772556635940518400,7.179518310546875,-0.15367469191551208,0.21975578367710114,-0.147931307554245
1772556635950503400,7.18950341796875,-0.028860174119472504,0.2649073600769043,-0.12996871769428253
1772556635960487400,7.1994873046875,0.07043658196926117,0.3252146244049072,-0.0809689536690712
1772556635970471400,7.209471435546875,0.12402597069740295,0.38062748312950134,-0.05473586916923523
1772556635980455200,7.219455078125,0.09537488222122192,0.3399205505847931,-0.1159299835562706
1772556635990440400,7.2294404296875,0.0030120541341602802,0.13976946473121643,-0.3185850977897644
1772556636000424400,7.239424560546875,-0.08600623905658722,-0.09470216184854507,-0.6122350692749023
1772556636010408200,7.249408203125,-0.12580399215221405,-0.2624800503253937,-0.8579834699630737
1772556636020393500,7.2593935546875,-0.10284166783094406,-0.34289446473121643,-0.9804624915122986
1772556636030377200,7.269377197265625,-0.019205784425139427,-0.34839928150177,-0.9119547009468079
1772556636040361200,7.279361328125,0.10166711360216141,-0.2859806418418884,-0.6567311882972717
1772556636050346500,7.289346435546875,0.24351592361927032,-0.1756671965122223,-0.2528359293937683
1772556636060330200,7.299330322265625,0.3724515438079834,-0.06073367968201637,0.22323502600193024
1772556636070314200,7.309314208984375,0.42870137095451355,0.014096942730247974,0.6465185284614563
1772556636080299300,7.31929931640625,0.42978712916374207,0.03922652825713158,0.9274015426635742
1772556636090283300,7.329283203125,0.39505672454833984,0.007716034073382616,1.033958911895752
1772556636100267300,7.339267333984375,0.3216634690761566,-0.04613255336880684,0.9741706848144531
1772556636110252300,7.349252197265625,0.2184341549873352,-0.06147622689604759,0.8280119299888611
1772556636120236000,7.359236083984375,0.1155485212802887,-0.023109927773475647,0.6432915925979614
1772556636130220300,7.36922021484375,0.01978454738855362,0.027107801288366318,0.45890992879867554
1772556636140205300,7.379205322265625,-0.05271149054169655,0.11368690431118011,0.28716668486595154
1772556636150189000,7.38918896484375,-0.09749462455511093,0.14484979212284088,0.11559609323740005
1772556636160173000,7.399173095703125,-0.09250785410404205,0.15345792472362518,-0.06696652621030807
1772556636170158000,7.409157958984375,-0.05371296405792236,0.12822318077087402,-0.24088793992996216
1772556636180142000,7.41914208984375,0.004787632264196873,0.08262079954147339,-0.3772849440574646
1772556636190126000,7.4291259765625,0.07351091504096985,0.06362056732177734,-0.4698532819747925
1772556636200111000,7.439111083984375,0.13397905230522156,0.06904249638319016,-0.5083333253860474
1772556636210095000,7.44909521484375,0.1850992888212204,0.07882732897996902,-0.49292218685150146
1772556636220079000,7.4590791015625,0.21666839718818665,0.08836250752210617,-0.4148622751235962
1772556636230064000,7.469064208984375,0.2206794172525406,0.07792648673057556,-0.2966019809246063
1772556636240048000,7.479048095703125,0.20567171275615692,0.020014455541968346,-0.17587557435035706
1772556636250032000,7.4890322265625,0.1783437877893448,-0.058377087116241455,-0.06429511308670044
1772556636260016000,7.49901611328125,0.14607533812522888,-0.1352764070034027,0.018296433612704277
1772556636270001200,7.509001220703125,0.11228564381599426,-0.19019882380962372,0.0541193000972271
1772556636279985200,7.518985107421875,0.09969928115606308,-0.22678400576114655,0.0505988672375679
1772556636289969200,7.52896923828125,0.1022995114326477,-0.2261704057455063,0.029265619814395905
1772556636299954200,7.5389541015625,0.11688058823347092,-0.1712845265865326,0.0033179093152284622
1772556636309938200,7.548938232421875,0.13495323061943054,-0.0929025337100029,-0.021268997341394424
1772556636319922200,7.558922119140625,0.15984925627708435,0.003977939020842314,-0.039087675511837006
1772556636329907200,7.5689072265625,0.19262480735778809,0.11750007420778275,-0.056854765862226486
1772556636339891200,7.57889111328125,0.2232583463191986,0.23128868639469147,-0.06648289412260056
1772556636349875200,7.588875244140625,0.24738062918186188,0.3235239088535309,-0.07033361494541168
1772556636359860000,7.59885986328125,0.26977968215942383,0.3909125328063965,-0.057544052600860596
1772556636369844000,7.608843994140625,0.28979429602622986,0.4328293204307556,-0.02721848152577877
1772556636379828000,7.618827880859375,0.3049311637878418,0.4522102177143097,0.00873445812612772
1772556636389813000,7.62881298828125,0.3283233940601349,0.44803503155708313,0.04880066588521004
1772556636399797000,7.638796875,0.3523789346218109,0.437209814786911,0.08652088046073914
1772556636409781000,7.648781005859375,0.3823229670524597,0.43418389558792114,0.11990165710449219
1772556636419766000,7.65876611328125,0.4096909463405609,0.4393046200275421,0.1438021957874298
1772556636429750000,7.66875,0.43594586849212646,0.4549078345298767,0.15470094978809357
1772556636439734000,7.678734130859375,0.4589744806289673,0.4794464707374573,0.1477367877960205
1772556636449718000,7.688718017578125,0.4554283320903778,0.4755587875843048,0.11217324435710907
1772556636459703000,7.698703125,0.4181656539440155,0.41503074765205383,0.023384256288409233
1772556636469687000,7.70868701171875,0.3491192162036896,0.2959080636501312,-0.11673743277788162
1772556636479671000,7.718671142578125,0.26264050602912903,0.14874525368213654,-0.26299023628234863
1772556636489656000,7.728656005859375,0.14885742962360382,0.0033202366903424263,-0.33045461773872375
1772556636499640000,7.73864013671875,0.04350411146879196,-0.11879874765872955,-0.3868640959262848
1772556636509624000,7.7486240234375,-0.012396511621773243,-0.1865379959344864,-0.37685301899909973
1772556636519609000,7.758609130859375,-0.037653930485248566,-0.21941816806793213,-0.2777099013328552
1772556636529593000,7.768593017578125,-0.009723257273435593,-0.17966878414154053,-0.08671364188194275
1772556636539577000,7.7785771484375,0.06027473509311676,-0.07212315499782562,0.15044938027858734
1772556636549561900,7.788561767578125,0.16641780734062195,0.09172362834215164,0.4017227292060852
1772556636559546000,7.798546142578125,0.28288930654525757,0.2775544822216034,0.627091109752655
1772556636569529900,7.80852978515625,0.3580838143825531,0.4376700818538666,0.7747159600257874
1772556636579515000,7.818514892578125,0.3341822326183319,0.4812777638435364,0.7969831824302673
1772556636589499000,7.828498779296875,0.21127904951572418,0.36377954483032227,0.6842524409294128
1772556636599483000,7.83848291015625,0.04859292507171631,0.10712884366512299,0.48041653633117676
1772556636609467000,7.848466796875,-0.12119725346565247,-0.241201713681221,0.26644590497016907
1772556636619452000,7.858451904296875,-0.24299533665180206,-0.6266316771507263,0.10327880829572678
1772556636629436000,7.868435791015625,-0.3243076503276825,-0.9760727882385254,0.010353324003517628
1772556636639420000,7.878419921875,-0.3438595235347748,-1.251636266708374,-0.0032221395522356033
1772556636649405000,7.888405029296875,-0.2593410313129425,-1.4010396003723145,0.08414554595947266
1772556636659388700,7.898388671875,-0.10653577744960785,-1.3400033712387085,0.2787664234638214
1772556636669372700,7.90837255859375,0.07249254733324051,-1.0977619886398315,0.5520864725112915
1772556636679358000,7.91835791015625,0.2410522699356079,-0.7072030901908875,0.8538039922714233
1772556636689341700,7.928341796875,0.36007943749427795,-0.2738325595855713,1.1012399196624756
1772556636699325700,7.93832568359375,0.4212982952594757,0.07193946838378906,1.2004905939102173
1772556636709311000,7.94831103515625,0.3866632282733917,0.3306160867214203,1.137883186340332
1772556636719294700,7.958294677734375,0.2745627760887146,0.5325513482093811,0.9357560276985168
1772556636729278700,7.96827880859375,0.13510264456272125,0.6913079619407654,0.6697502136230469
1772556636739263700,7.978263671875,-0.009558945894241333,0.779430091381073,0.39499425888061523
1772556636749247700,7.988247802734375,-0.14049123227596283,0.7946611642837524,0.13022659718990326
1772556636759230000,7.99822998046875,-0.22057966887950897,0.7454382181167603,-0.09625474363565445
1772556636769214000,8.0082138671875,-0.24760428071022034,0.6335026025772095,-0.28722572326660156
1772556636779199000,8.018198974609374,-0.22052684426307678,0.47166091203689575,-0.44437673687934875
1772556636789183000,8.028182861328125,-0.15219376981258392,0.2759172022342682,-0.5576702952384949
1772556636799167000,8.0381669921875,-0.07319960743188858,0.11170217394828796,-0.6301684379577637
1772556636809152000,8.048152099609375,-0.0002233521081507206,-0.011905334889888763,-0.6755810976028442
1772556636819136000,8.058135986328125,0.051992978900671005,-0.11224046349525452,-0.7015144228935242
1772556636829120000,8.0681201171875,0.09476937353610992,-0.18810531497001648,-0.7173479795455933
1772556636839104800,8.078104736328125,0.11067882925271988,-0.23495697975158691,-0.7211187481880188
1772556636849089000,8.088089111328125,0.09568025171756744,-0.2721545100212097,-0.7147639989852905
1772556636859073000,8.098072998046876,0.05744951218366623,-0.26916271448135376,-0.674304187297821
1772556636869057800,8.108057861328126,0.02091526985168457,-0.2222490757703781,-0.5882144570350647
1772556636879041800,8.118041748046876,-0.024777917191386223,-0.16216975450515747,-0.4817822575569153
1772556636889026000,8.128026123046874,-0.06103096902370453,-0.11280198395252228,-0.37277597188949585
1772556636899010000,8.138010009765624,-0.10121674090623856,-0.06537241488695145,-0.2788606584072113
1772556636908994800,8.147994873046875,-0.1464633196592331,-0.029553962871432304,-0.18651770055294037
1772556636918978800,8.157978759765625,-0.20083095133304596,-0.0036414056085050106,-0.11541582643985748
1772556636928963000,8.167963134765625,-0.2521594166755676,0.014818673953413963,-0.06880657374858856
1772556636938947800,8.17794775390625,-0.3031509518623352,0.0005816812627017498,-0.0475018173456192
1772556636948931800,8.187931884765625,-0.34282687306404114,-0.05130917578935623,-0.037770532071590424
1772556636958915800,8.197915771484375,-0.37642931938171387,-0.12140677124261856,-0.012943210080265999
1772556636968900900,8.20790087890625,-0.39095497131347656,-0.19329945743083954,0.041667334735393524
1772556636978884900,8.217884765625,-0.4086221158504486,-0.2750696837902069,0.1239885687828064
1772556636988868900,8.227868896484376,-0.41204163432121277,-0.34341391921043396,0.21800440549850464
1772556636998852900,8.237852783203126,-0.4089084267616272,-0.3849334120750427,0.32012277841567993
1772556637008838000,8.247837890625,-0.4070139229297638,-0.39832213521003723,0.40519940853118896
1772556637018822000,8.25782177734375,-0.4179590046405792,-0.38209068775177,0.47071611881256104
1772556637028806000,8.267805908203124,-0.4425743520259857,-0.3669005036354065,0.48198217153549194
1772556637038791000,8.277791015625,-0.47145846486091614,-0.34191232919692993,0.4475424587726593
1772556637048775000,8.28777490234375,-0.4990082085132599,-0.31193074584007263,0.3711901605129242
1772556637058759000,8.297759033203125,-0.5151424407958984,-0.2707976996898651,0.28549763560295105
1772556637068744000,8.307743896484375,-0.5115031599998474,-0.2317468822002411,0.20402367413043976
1772556637078728000,8.31772802734375,-0.4919328987598419,-0.1901906579732895,0.11946512013673782
1772556637088712000,8.3277119140625,-0.4503733813762665,-0.13371552526950836,0.02095266990363598
1772556637098697000,8.337697021484376,-0.38291287422180176,-0.0873408317565918,-0.0841311365365982
1772556637108681000,8.347680908203126,-0.29624617099761963,-0.06782937794923782,-0.15572424232959747
1772556637118665000,8.3576650390625,-0.20155932009220123,-0.05431170389056206,-0.1967899203300476
1772556637128649000,8.36764892578125,-0.09388820827007294,-0.028987059369683266,-0.21735568344593048
1772556637138634000,8.377634033203124,0.024231774732470512,0.016942081972956657,-0.2107236087322235
1772556637148618000,8.387617919921874,0.1359255015850067,0.08791201561689377,-0.16997668147087097
1772556637158602000,8.39760205078125,0.18779614567756653,0.13475942611694336,-0.1141941100358963
1772556637168587000,8.4075869140625,0.16476278007030487,0.1321079134941101,-0.0729546844959259
1772556637178571000,8.417571044921875,0.09225743263959885,0.09168166667222977,-0.0676688402891159
1772556637188556800,8.427556884765625,-0.012503311969339848,-0.023147057741880417,-0.12002361565828323
1772556637198541800,8.437541748046876,-0.12696145474910736,-0.1663966327905655,-0.21714110672473907
1772556637208525800,8.44752587890625,-0.23320555686950684,-0.3284241557121277,-0.3399898409843445
1772556637218509800,8.457509765625,-0.3157491683959961,-0.5153165459632874,-0.45412734150886536
1772556637228494800,8.467494873046874,-0.37362343072891235,-0.6793744564056396,-0.5180026292800903
1772556637238478800,8.477478759765624,-0.37819528579711914,-0.7486355304718018,-0.49520039558410645
1772556637248462800,8.487462890625,-0.33291593194007874,-0.7428255677223206,-0.40435224771499634
1772556637258448000,8.49744775390625,-0.27154844999313354,-0.7099022269248962,-0.2536309063434601
1772556637268432000,8.507431884765625,-0.18222741782665253,-0.6310163736343384,-0.08243532478809357
1772556637278416000,8.517415771484375,-0.0770658403635025,-0.5289233326911926,0.10247834026813507
1772556637288400000,8.52739990234375,-0.002233051462098956,-0.4220987856388092,0.27533233165740967
1772556637298385000,8.537385009765625,0.02998134307563305,-0.3332597315311432,0.41808202862739563
1772556637308369000,8.547368896484375,0.014619627967476845,-0.30142709612846375,0.5053463578224182
1772556637318353000,8.557352783203125,-0.039893947541713715,-0.29161494970321655,0.5505284667015076
1772556637328338000,8.567337890625,-0.12006405740976334,-0.28520676493644714,0.5434795618057251
1772556637338322000,8.577322021484376,-0.21938744187355042,-0.2753985822200775,0.5018913745880127
1772556637348306000,8.587305908203126,-0.2927890717983246,-0.26052218675613403,0.4129619598388672
1772556637358291000,8.597291015625,-0.3219221830368042,-0.2530765235424042,0.2652515769004822
1772556637368278500,8.607278564453125,-0.3118084967136383,-0.24916692078113556,0.05927148833870888
1772556637378262300,8.61726220703125,-0.2679007053375244,-0.23188993334770203,-0.16951854526996613
1772556637388247600,8.62724755859375,-0.20066311955451965,-0.19443564116954803,-0.40425604581832886
1772556637398231600,8.6372314453125,-0.12170091271400452,-0.15834687650203705,-0.6038690209388733
1772556637408215300,8.64721533203125,-0.03837689384818077,-0.13270354270935059,-0.7428135275840759
1772556637418199300,8.65719921875,0.03246266022324562,-0.1325586587190628,-0.8011588454246521
1772556637428184600,8.6671845703125,0.07112166285514832,-0.16876791417598724,-0.7664481997489929
1772556637438168300,8.677168212890624,0.08506464213132858,-0.24515163898468018,-0.6569256782531738
1772556637448152300,8.68715234375,0.08582470566034317,-0.3497035503387451,-0.48933470249176025
1772556637458137300,8.697137451171875,0.06531862914562225,-0.4565727412700653,-0.3027573823928833
1772556637468121300,8.707121337890625,0.03805242106318474,-0.5521041750907898,-0.14341853559017181
1772556637478105300,8.717105224609375,0.013617386110126972,-0.6220813989639282,-0.03500043973326683
1772556637488090400,8.72709033203125,-0.008161443285644054,-0.6585082411766052,0.02316294051706791
1772556637498074400,8.737074462890625,-0.021563002839684486,-0.6613621115684509,0.030342023819684982
1772556637508058400,8.747058349609375,-0.017844755202531815,-0.6221298575401306,0.004540273454040289
1772556637518042400,8.75704248046875,-0.007322604767978191,-0.5180891752243042,-0.04587815701961517
1772556637528027400,8.76702734375,0.0064979963935911655,-0.3739893138408661,-0.123717300593853
1772556637538011400,8.777011474609376,0.017354905605316162,-0.2088240385055542,-0.22321167588233948
1772556637547995400,8.786995361328126,0.022399211302399635,-0.054042164236307144,-0.32262614369392395
1772556637557980400,8.79698046875,0.01707741618156433,0.06976659595966339,-0.4004349112510681
1772556637567964400,8.80696435546875,0.009963278658688068,0.16042861342430115,-0.4484314024448395
1772556637577948400,8.816948486328124,0.012095138430595398,0.21847300231456757,-0.4689566493034363
1772556637587933200,8.82693310546875,0.007210635580122471,0.23026813566684723,-0.45460858941078186
1772556637597917400,8.83691748046875,0.0066476427018642426,0.19894804060459137,-0.3940797448158264
1772556637607901400,8.8469013671875,0.024328336119651794,0.17647239565849304,-0.28841862082481384
1772556637617885400,8.856885498046875,0.06742546707391739,0.17491844296455383,-0.13736492395401
1772556637627870200,8.8668701171875,0.12171671539545059,0.18373198807239532,0.035650208592414856
1772556637637854500,8.8768544921875,0.1877537965774536,0.173969104886055,0.19387632608413696
1772556637647838500,8.88683837890625,0.2521376311779022,0.14853499829769135,0.31732743978500366
1772556637657823200,8.8968232421875,0.2998257875442505,0.11203797161579132,0.38150960206985474
1772556637667807200,8.90680712890625,0.32447826862335205,0.0919453427195549,0.38521483540534973
1772556637677791200,8.916791259765626,0.32376107573509216,0.06740191578865051,0.3340456485748291
1772556637687776300,8.9267763671875,0.290353387594223,0.023473750799894333,0.24940107762813568
1772556637697760300,8.93676025390625,0.2250116616487503,-0.0482635535299778,0.1338670253753662
1772556637707744300,8.946744140625,0.12624166905879974,-0.14557120203971863,0.012330202385783195
1772556637717728300,8.956728271484375,0.03730407729744911,-0.23912006616592407,-0.09727059304714203
1772556637727713300,8.96671337890625,-0.09093482792377472,-0.3719114363193512,-0.199685201048851
1772556637737697300,8.976697265625,-0.21927309036254883,-0.4794141948223114,-0.2935246229171753
1772556637747681300,8.986681396484375,-0.2741134464740753,-0.5066332817077637,-0.31226128339767456
1772556637757666300,8.996666259765625,-0.2734392285346985,-0.41915595531463623,-0.24748559296131134
1772556637767650300,9.006650390625,-0.2874564230442047,-0.38915908336639404,-0.1797281801700592
1772556637777634300,9.01663427734375,-0.32043516635894775,-0.46127748489379883,-0.14494569599628448
1772556637787619300,9.026619384765626,-0.3579852283000946,-0.5519394874572754,-0.16661417484283447
1772556637797603300,9.036603271484376,-0.35859188437461853,-0.6328974366188049,-0.2552787959575653
1772556637807587300,9.04658740234375,-0.2990621328353882,-0.6709994077682495,-0.38837653398513794
1772556637817571300,9.0565712890625,-0.19868864119052887,-0.6774685382843018,-0.5021076798439026
1772556637827556400,9.066556396484375,-0.09401298314332962,-0.5761739015579224,-0.5373111963272095
1772556637837540400,9.076540283203125,0.005878464784473181,-0.4375491738319397,-0.4954076409339905
1772556637847524400,9.0865244140625,0.08821849524974823,-0.3165980279445648,-0.3972764313220978
1772556637857509400,9.09650927734375,0.14528949558734894,-0.2070332020521164,-0.24017414450645447
1772556637867493400,9.106493408203125,0.16511200368404388,-0.11580943316221237,-0.07606085389852524
1772556637877477400,9.116477294921875,0.16409307718276978,-0.044387977570295334,0.05575283244252205
1772556637887461400,9.12646142578125,0.17039410769939423,-0.008833084255456924,0.14489349722862244
1772556637897446400,9.1364462890625,0.16257134079933167,0.0055818078108131886,0.2246253490447998
1772556637907430400,9.146430419921876,0.14404143393039703,0.015260829590260983,0.29404205083847046
1772556637917414400,9.156414306640626,0.1218128427863121,0.021485967561602592,0.3669112026691437
1772556637927399400,9.1663994140625,0.075460284948349,0.023326996713876724,0.4077640175819397
1772556637937383400,9.176383544921874,-0.005498748272657394,0.011334249749779701,0.38889044523239136
1772556637947367400,9.186367431640624,-0.11596915125846863,-0.0017017277423292398,0.29255735874176025
1772556637957352400,9.1963525390625,-0.22798970341682434,-0.020764900371432304,0.12928612530231476
1772556637967336400,9.20633642578125,-0.32061660289764404,-0.05497767776250839,-0.07590387016534805
1772556637977320400,9.216320556640625,-0.3804141581058502,-0.0898112878203392,-0.25856316089630127
1772556637987304400,9.226304443359375,-0.4005199670791626,-0.12772545218467712,-0.3874133825302124
1772556637997289500,9.23628955078125,-0.4028523564338684,-0.14733724296092987,-0.4444822669029236
1772556638007273500,9.2462734375,-0.3759152293205261,-0.2016167789697647,-0.43319544196128845
1772556638017257500,9.256257568359375,-0.327886700630188,-0.23953166604042053,-0.3580482304096222
1772556638027242500,9.266242431640626,-0.2643015384674072,-0.2246735394001007,-0.2394358366727829
1772556638037226500,9.2762265625,-0.17284701764583588,-0.20718295872211456,-0.11634372919797897
1772556638047210500,9.28621044921875,-0.07029999792575836,-0.19517040252685547,0.0014836867339909077
1772556638057195500,9.296195556640624,0.020732169970870018,-0.16392779350280762,0.10485002398490906
1772556638067179500,9.306179443359374,0.08022081851959229,-0.13636092841625214,0.1755392849445343
1772556638077163500,9.31616357421875,0.10823194682598114,-0.1390901356935501,0.2149503380060196
1772556638087147500,9.3261474609375,0.11724036931991577,-0.17097382247447968,0.23178888857364655
1772556638097132500,9.336132568359375,0.11358758062124252,-0.2193480134010315,0.24685359001159668
1772556638107116500,9.346116455078125,0.08092289417982101,-0.2546185553073883,0.25330427289009094
1772556638117100500,9.3561005859375,0.020816145464777946,-0.27233046293258667,0.2564350962638855
1772556638127085600,9.36608544921875,-0.05480010807514191,-0.2573971450328827,0.2479795515537262
1772556638137069600,9.376069580078125,-0.1335439234972,-0.21278494596481323,0.23269620537757874
1772556638147053600,9.386053466796875,-0.20553451776504517,-0.14513732492923737,0.21357916295528412
1772556638157037600,9.39603759765625,-0.2747095823287964,-0.04673991724848747,0.20356115698814392
1772556638167022600,9.406022705078126,-0.35410159826278687,0.04330388456583023,0.1999407708644867
1772556638177006600,9.416006591796876,-0.4444994032382965,0.09227649122476578,0.20970392227172852
1772556638186990600,9.425990478515626,-0.5323743224143982,0.08737847208976746,0.21986910700798035
1772556638196975400,9.435975341796874,-0.6087633967399597,0.04115478694438934,0.2504509687423706
1772556638206959400,9.44595947265625,-0.6773054599761963,-0.01643558219075203,0.28612545132637024
1772556638216943600,9.455943603515625,-0.7339376211166382,-0.07233933359384537,0.3087197244167328
1772556638226927400,9.46592724609375,-0.777610719203949,-0.11572127789258957,0.28794652223587036
1772556638236912400,9.475912353515625,-0.7756828665733337,-0.13485316932201385,0.21344111859798431
1772556638246896400,9.485896484375,-0.7369801998138428,-0.13676245510578156,0.10048146545886993
1772556638256880400,9.49588037109375,-0.6521209478378296,-0.1504356563091278,-0.015838222578167915
1772556638266865400,9.505865478515625,-0.5312798023223877,-0.16827763617038727,-0.11364281922578812
1772556638276849400,9.515849365234375,-0.3968868851661682,-0.1690020114183426,-0.17853419482707977
1772556638286833400,9.52583349609375,-0.2615143060684204,-0.1619061380624771,-0.21243171393871307
1772556638296818400,9.535818359375,-0.13092409074306488,-0.14179714024066925,-0.21201999485492706
1772556638306802200,9.54580224609375,0.013083078898489475,-0.11174512654542923,-0.16265615820884705
1772556638316786200,9.5557861328125,0.1503772884607315,-0.07435834407806396,-0.05838994309306145
1772556638326770400,9.5657705078125,0.26087331771850586,-0.015755200758576393,0.10299202799797058
1772556638336755200,9.575755126953124,0.3005421459674835,0.05164674296975136,0.2805095613002777
1772556638346739200,9.5857392578125,0.2305285632610321,0.10368546843528748,0.41576650738716125
1772556638356723200,9.59572314453125,0.09573132544755936,0.1490660160779953,0.4864713251590729
1772556638366705400,9.605705322265624,-0.05031649023294449,0.23087550699710846,0.50420081615448
1772556638376689400,9.615689453125,-0.22504863142967224,0.2847802937030792,0.45733073353767395
1772556638386673400,9.62567333984375,-0.43893083930015564,0.26081565022468567,0.2959180772304535
1772556638396657400,9.635657470703125,-0.6520713567733765,0.14069269597530365,0.036152537912130356
1772556638406642400,9.645642333984375,-0.7921273708343506,-0.009549137204885483,-0.23169834911823273
1772556638416626400,9.65562646484375,-0.8405539989471436,-0.15731729567050934,-0.4365750551223755
1772556638426610400,9.6656103515625,-0.8324994444847107,-0.30104073882102966,-0.5370643734931946
1772556638436595500,9.675595458984375,-0.8116181492805481,-0.44595956802368164,-0.5457316637039185
1772556638446579500,9.685579345703125,-0.7679895162582397,-0.5601477026939392,-0.48443490266799927
1772556638456563500,9.6955634765625,-0.7118726968765259,-0.5792447328567505,-0.39573031663894653
1772556638466547500,9.70554736328125,-0.5965807437896729,-0.503718376159668,-0.3436755836009979
1772556638476532500,9.715532470703126,-0.4625547528266907,-0.3588208556175232,-0.33379897475242615
1772556638486516500,9.7255166015625,-0.31070613861083984,-0.17470188438892365,-0.3555571734905243
1772556638496500500,9.73550048828125,-0.13409511744976044,0.03735978156328201,-0.38548338413238525
1772556638506485500,9.745485595703125,0.049891117960214615,0.2222718447446823,-0.4097493886947632
1772556638516469500,9.755469482421875,0.21713870763778687,0.366150438785553,-0.38928645849227905
1772556638526453500,9.76545361328125,0.31972387433052063,0.45839229226112366,-0.35452404618263245
1772556638536437500,9.7754375,0.3574770987033844,0.4847852885723114,-0.32594993710517883
1772556638546422500,9.785422607421875,0.34204933047294617,0.438891738653183,-0.3170650005340576
1772556638556406500,9.795406494140625,0.28547579050064087,0.32574599981307983,-0.3278715908527374
1772556638566390500,9.805390625,0.19596503674983978,0.17484532296657562,-0.333471417427063
1772556638576375600,9.81537548828125,0.09734098613262177,0.022525819018483162,-0.31757766008377075
1772556638586359600,9.825359619140626,-0.007824806496500969,-0.1058032363653183,-0.2624618709087372
1772556638596343600,9.835343505859376,-0.10170576721429825,-0.1973416805267334,-0.18174037337303162
1772556638606328600,9.84532861328125,-0.17696206271648407,-0.2630535066127777,-0.09660542011260986
1772556638616312600,9.8553125,-0.2159118503332138,-0.30706650018692017,-0.023333070799708366
1772556638626296600,9.865296630859374,-0.24176432192325592,-0.32927384972572327,0.016599345952272415
1772556638636280600,9.875280517578124,-0.2527565062046051,-0.31398943066596985,0.01000802218914032
1772556638646265600,9.885265625,-0.24909630417823792,-0.29233068227767944,-0.03524165600538254
1772556638656249600,9.89524951171875,-0.2292615920305252,-0.26933854818344116,-0.110755056142807
1772556638666233600,9.905233642578125,-0.19964712858200073,-0.24058257043361664,-0.1916120946407318
1772556638676218600,9.915218505859375,-0.16869507730007172,-0.21854864060878754,-0.24718108773231506
1772556638686202600,9.92520263671875,-0.1383797824382782,-0.20379818975925446,-0.2541297972202301
1772556638696186600,9.9351865234375,-0.09741156548261642,-0.17610850930213928,-0.2162676453590393
1772556638706170600,9.945170654296875,-0.05224720388650894,-0.13731136918067932,-0.14351540803909302
1772556638716155600,9.95515576171875,0.007495219819247723,-0.09283552318811417,-0.0465095117688179
1772556638726139600,9.9651396484375,0.08950021117925644,-0.06998427957296371,0.058268576860427856
1772556638736123600,9.97512353515625,0.18513324856758118,-0.030818236991763115,0.18891926109790802
1772556638746108400,9.9851083984375,0.27716270089149475,0.02248442731797695,0.32527968287467957
1772556638756092700,9.9950927734375,0.3368161916732788,0.07790187746286392,0.45634448528289795
1772556638766076700,10.00507666015625,0.38277149200439453,0.12685152888298035,0.5655941367149353
1772556638776060700,10.015060791015625,0.41864028573036194,0.15550421178340912,0.6332429647445679
1772556638786045400,10.02504541015625,0.43088921904563904,0.17658153176307678,0.6478655338287354
1772556638796029400,10.035029541015625,0.41449931263923645,0.1940247118473053,0.6027809381484985
1772556638806013700,10.045013671875,0.37737926840782166,0.19839313626289368,0.5077869892120361
1772556638815998500,10.05499853515625,0.3310631811618805,0.2009713351726532,0.39945223927497864
1772556638825982500,10.064982421875,0.26716697216033936,0.19180767238140106,0.2793603241443634
1772556638835966500,10.074966552734375,0.17010195553302765,0.16855721175670624,0.1589667797088623
1772556638845950700,10.08495068359375,0.05190411955118179,0.13068458437919617,0.04141680523753166
1772556638855935500,10.094935546875,-0.06802574545145035,0.05901254341006279,-0.07162932306528091
1772556638865919500,10.10491943359375,-0.1564677655696869,-0.026845093816518784,-0.16424225270748138
1772556638875903500,10.114903564453124,-0.19760774075984955,-0.08216054737567902,-0.20585334300994873
1772556638885888500,10.124888427734374,-0.17569757997989655,-0.06527996063232422,-0.18186092376708984
1772556638895872500,10.13487255859375,-0.12971091270446777,-0.03698733448982239,-0.12598514556884766
1772556638905856500,10.1448564453125,-0.08664832264184952,-0.07234196364879608,-0.09313986450433731
1772556638915840500,10.154840576171875,-0.044517647475004196,-0.16661733388900757,-0.08730994164943695
1772556638925825500,10.164825439453125,-0.00852394662797451,-0.2793397009372711,-0.13529537618160248
1772556638935809500,10.1748095703125,0.025909926742315292,-0.40040087699890137,-0.27891114354133606
1772556638945793500,10.18479345703125,0.09911812096834183,-0.5819941163063049,-0.5161772966384888
1772556638955778600,10.194778564453125,0.19151169061660767,-0.8038319945335388,-0.7877765893936157
1772556638965762600,10.204762451171876,0.293955534696579,-0.9832789897918701,-1.0379692316055298
1772556638975746600,10.21474658203125,0.39376336336135864,-1.0043057203292847,-1.1501386165618896
1772556638985730300,10.224730224609376,0.46327322721481323,-0.8355996012687683,-1.0184555053710938
1772556638995715600,10.234715576171874,0.4972599446773529,-0.5682153105735779,-0.6626068353652954
1772556639005699600,10.244699462890624,0.512281060218811,-0.14629967510700226,-0.11297108232975006
1772556639015683300,10.254683349609374,0.4716803729534149,0.1395517736673355,0.40335485339164734
1772556639025667300,10.264667236328124,0.3769175708293915,0.28038203716278076,0.8466650247573853
1772556639035652400,10.27465234375,0.3095552921295166,0.294866681098938,1.1175856590270996
1772556639045636400,10.28463623046875,0.271659255027771,0.23443488776683807,1.2001274824142456
1772556639055620400,10.294620361328125,0.2523587942123413,0.18956194818019867,1.1138091087341309
1772556639065605400,10.30460546875,0.2172967791557312,0.1224365383386612,0.8982844352722168
1772556639075589400,10.31458935546875,0.1347438395023346,0.08182812482118607,0.6145550012588501
1772556639085573400,10.324573486328125,0.018517334014177322,0.01217299047857523,0.28986045718193054
1772556639095557400,10.334557373046875,-0.09421134740114212,-0.09162770211696625,-0.038110245019197464
1772556639105542400,10.34454248046875,-0.17493212223052979,-0.210780531167984,-0.32615208625793457
1772556639115526400,10.3545263671875,-0.1961870789527893,-0.3283628225326538,-0.5482061505317688
1772556639125510400,10.364510498046876,-0.16364146769046783,-0.40931954979896545,-0.6864608526229858
1772556639135495400,10.374495361328124,-0.0759345144033432,-0.4273427426815033,-0.7429736852645874
1772556639145479400,10.3844794921875,0.05336393043398857,-0.38358166813850403,-0.7110884189605713
1772556639155463400,10.39446337890625,0.19859541952610016,-0.22578644752502441,-0.5730549097061157
1772556639165447400,10.404447509765625,0.32358643412590027,-0.06748832017183304,-0.3840496242046356
1772556639175432400,10.414432373046875,0.4325193166732788,0.06842876970767975,-0.17708313465118408
1772556639185416400,10.42441650390625,0.5144582986831665,0.16276341676712036,0.011880913749337196
1772556639195400400,10.434400390625,0.5741720199584961,0.23569753766059875,0.14244984090328217
1772556639205385500,10.444385498046875,0.594269871711731,0.3086009621620178,0.20050284266471863
1772556639215369500,10.454369384765625,0.5853450894355774,0.3702440857887268,0.1878560185432434
1772556639225353500,10.464353515625,0.5356883406639099,0.41398856043815613,0.11114093661308289
1772556639235337500,10.47433740234375,0.4633174240589142,0.4131528437137604,0.0019422778859734535
1772556639245322500,10.484322509765626,0.3655889630317688,0.3689242899417877,-0.1288929581642151
1772556639255306500,10.494306396484374,0.24676163494586945,0.27702099084854126,-0.2500385344028473
1772556639265290500,10.50429052734375,0.12616345286369324,0.1623769998550415,-0.33114248514175415
1772556639275275500,10.514275634765625,0.022954516112804413,0.07528204470872879,-0.36152249574661255
1772556639285259500,10.524259521484375,-0.054935622960329056,0.017449622973799706,-0.3272910416126251
1772556639295243500,10.534243408203125,-0.11096373945474625,-0.04065176472067833,-0.23781999945640564
1772556639305227500,10.5442275390625,-0.14575284719467163,-0.09062262624502182,-0.10672099888324738
1772556639315212500,10.554212646484375,-0.1734537035226822,-0.13378262519836426,0.03486036881804466
1772556639325196500,10.564196533203125,-0.1928090751171112,-0.16227838397026062,0.18330062925815582
1772556639335180500,10.5741806640625,-0.2126733362674713,-0.1860169917345047,0.3092907667160034
1772556639345165600,10.58416552734375,-0.23376059532165527,-0.1984289437532425,0.40392813086509705
1772556639355149600,10.594149658203126,-0.25917699933052063,-0.19560359418392181,0.4537510871887207
1772556639365132800,10.6041328125,-0.2864970266819,-0.1882205456495285,0.4655211865901947
1772556639375116800,10.61411669921875,-0.320637971162796,-0.17160934209823608,0.44546014070510864
1772556639385101800,10.624101806640626,-0.34562644362449646,-0.14256702363491058,0.39998573064804077
1772556639395085800,10.6340859375,-0.3463364243507385,-0.09991490095853806,0.3569689989089966
1772556639405069800,10.64406982421875,-0.31289130449295044,-0.043927423655986786,0.3298087418079376
1772556639415053800,10.6540537109375,-0.24990542232990265,0.006964521016925573,0.3203776776790619
1772556639425038800,10.664038818359375,-0.1722126305103302,0.05357624217867851,0.32536524534225464
1772556639435022800,10.67402294921875,-0.09621293097734451,0.122760109603405,0.3206799626350403
1772556639445006800,10.6840068359375,-0.025008289143443108,0.20413704216480255,0.29485589265823364
1772556639454992000,10.693991943359375,-0.006678017787635326,0.28024619817733765,0.19869236648082733
1772556639464976000,10.703975830078125,-0.04698935151100159,0.3110571801662445,-0.013778666965663433
1772556639474960000,10.7139599609375,-0.12867435812950134,0.23154182732105255,-0.36571910977363586
1772556639484944000,10.72394384765625,-0.2216695249080658,-0.015449094586074352,-0.8162054419517517
1772556639494929000,10.733928955078126,-0.259499728679657,-0.3224867880344391,-1.2724131345748901
1772556639504913000,10.743912841796876,-0.19399712979793549,-0.5412208437919617,-1.5653247833251953
1772556639514897000,10.75389697265625,-0.029785551130771637,-0.6444877982139587,-1.5831375122070312
1772556639524882000,10.7638818359375,0.1797723025083542,-0.598972737789154,-1.2841957807540894
1772556639534866000,10.773865966796874,0.3636569082736969,-0.377363383769989,-0.7615134119987488
1772556639544850000,10.783849853515624,0.5085802674293518,-0.2587333917617798,-0.18273645639419556
1772556639554834000,10.793833984375,0.5527262091636658,-0.13830339908599854,0.36140167713165283
1772556639564819000,10.80381884765625,0.42766112089157104,-0.007889555767178535,0.7672434449195862
1772556639574803000,10.813802978515625,0.21062573790550232,0.11140328645706177,0.9893127083778381
1772556639584787000,10.823786865234375,-0.004726613871753216,0.20752006769180298,1.0215636491775513
1772556639594772000,10.83377197265625,-0.15328945219516754,0.28818267583847046,0.8964188098907471
1772556639604756000,10.843755859375,-0.2545185983181,0.35094597935676575,0.683855414390564
1772556639614740000,10.853739990234375,-0.35247525572776794,0.4003303050994873,0.4282476305961609
1772556639624724000,10.863723876953125,-0.4418269395828247,0.44682878255844116,0.18388491868972778
1772556639634709000,10.873708984375,-0.5045433640480042,0.5126762986183167,-0.02932216413319111
1772556639644693000,10.88369287109375,-0.5094504952430725,0.5486326813697815,-0.20995217561721802
1772556639654677000,10.893677001953124,-0.4477524757385254,0.5353922843933105,-0.3586367070674896
1772556639664661000,10.903660888671874,-0.325577050447464,0.44908538460731506,-0.47323429584503174
1772556639674646000,10.91364599609375,-0.17157578468322754,0.2879047393798828,-0.5483970046043396
1772556639684630000,10.923630126953125,-0.030933327972888947,0.09374834597110748,-0.5808954238891602
1772556639694614000,10.933614013671875,0.07886587083339691,-0.1011795923113823,-0.5455805659294128
1772556639704598800,10.943598876953125,0.1486366093158722,-0.2241593897342682,-0.42947012186050415
1772556639714583000,10.9535830078125,0.18940028548240662,-0.2661379873752594,-0.23542797565460205
1772556639724567000,10.963567138671875,0.21304269134998322,-0.24814315140247345,-0.0022445074282586575
1772556639734551000,10.973551025390625,0.21837513148784637,-0.250328004360199,0.18921521306037903
1772556639744535800,10.983535888671875,0.21789945662021637,-0.2591453790664673,0.31818079948425293
1772556639754520000,10.99352001953125,0.22673502564430237,-0.25350505113601685,0.38355207443237305
1772556639764504000,11.003504150390626,0.2343916893005371,-0.23265185952186584,0.3997547924518585
1772556639774488000,11.013488037109376,0.231018528342247,-0.17897957563400269,0.3744654059410095
1772556639784472800,11.023472900390624,0.22038155794143677,-0.09156499803066254,0.3138468861579895
1772556639794456800,11.033456787109374,0.20786097645759583,-0.0020332508720457554,0.23403620719909668
1772556639804441000,11.043441162109374,0.18331065773963928,0.08388826996088028,0.14833346009254456
1772556639814425900,11.05342578125,0.15763352811336517,0.17545759677886963,0.06303054094314575
1772556639824409900,11.063409912109375,0.1272784322500229,0.2262442708015442,-0.006093987729400396
1772556639834393900,11.073393798828125,0.10157466679811478,0.25371691584587097,-0.05180022493004799
1772556639844378000,11.083378173828125,0.09370783716440201,0.26242682337760925,-0.05526682734489441
1772556639854363000,11.09336279296875,0.0981324166059494,0.27434447407722473,-0.007622073870152235
1772556639864347000,11.103346923828125,0.12168972939252853,0.2964293956756592,0.07437790930271149
1772556639874331000,11.113330810546875,0.16757360100746155,0.33060282468795776,0.16931666433811188
1772556639884316000,11.12331591796875,0.21246379613876343,0.36057406663894653,0.2642492353916168
1772556639894300000,11.1332998046875,0.24573706090450287,0.37883856892585754,0.34627488255500793
1772556639904284000,11.143283935546876,0.2653612196445465,0.4022664725780487,0.41579699516296387
1772556639914268000,11.153267822265626,0.2781987190246582,0.42335259914398193,0.45597079396247864
1772556639924253000,11.1632529296875,0.2696988880634308,0.4352213740348816,0.4649576246738434
1772556639934237000,11.17323681640625,0.24155621230602264,0.41744425892829895,0.4459911286830902
1772556639944220700,11.183220703125,0.20004349946975708,0.3993563652038574,0.4171941876411438
1772556639954204700,11.19320458984375,0.14892783761024475,0.37318548560142517,0.38222742080688477
1772556639964190000,11.20318994140625,0.09101341664791107,0.28317537903785706,0.3476140797138214
1772556639974173700,11.213173583984375,0.029998531565070152,0.1434643417596817,0.3002798557281494
1772556639984157700,11.22315771484375,-0.03271503001451492,-0.006401099730283022,0.25585296750068665
1772556639994143000,11.23314306640625,-0.09248914569616318,-0.12164673209190369,0.20962871611118317
1772556640004126700,11.243126708984375,-0.14171172678470612,-0.1768433153629303,0.16556157171726227
1772556640014110700,11.25311083984375,-0.16130328178405762,-0.15660515427589417,0.15592464804649353
1772556640024094700,11.2630947265625,-0.1385103315114975,-0.06791418045759201,0.22758515179157257
1772556640034079700,11.273079833984376,-0.06188824772834778,0.07321524620056152,0.3720965087413788
1772556640044063700,11.283063720703124,0.0027757217176258564,0.17890381813049316,0.5207849740982056
1772556640054047700,11.2930478515625,0.044866982847452164,0.22021104395389557,0.6087289452552795
1772556640064031700,11.30303173828125,0.10632465779781342,0.19941487908363342,0.6058917045593262
1772556640074016800,11.313016845703125,0.17550666630268097,0.13790996372699738,0.5224327445030212
1772556640084000800,11.323000732421875,0.25737378001213074,0.05801999568939209,0.3510249853134155
1772556640093984800,11.33298486328125,0.33013930916786194,-0.06162011995911598,0.11116098612546921
1772556640103969800,11.3429697265625,0.38057881593704224,-0.17323936522006989,-0.12640133500099182
1772556640113953800,11.352953857421875,0.3970786929130554,-0.2907894253730774,-0.2906129062175751
1772556640123937800,11.362937744140625,0.3716683089733124,-0.3912329375743866,-0.3705747127532959
1772556640133921800,11.372921875,0.3387737274169922,-0.418731689453125,-0.34915223717689514
1772556640143906800,11.38290673828125,0.31658774614334106,-0.3466421067714691,-0.2264837920665741
1772556640153890800,11.392890869140626,0.31208857893943787,-0.2103939801454544,-0.05357860028743744
1772556640163874800,11.402874755859376,0.3120400905609131,-0.07125169783830643,0.1430768370628357
1772556640173859800,11.41285986328125,0.3032788336277008,0.043462902307510376,0.3176659345626831
1772556640183843800,11.42284375,0.2845150828361511,0.14531612396240234,0.4507376253604889
1772556640193827800,11.432827880859374,0.2599431574344635,0.23060305416584015,0.5304515957832336
1772556640203811800,11.442811767578124,0.2285173386335373,0.2880764305591583,0.5350273251533508
1772556640213796900,11.452796875,0.18206249177455902,0.3106696307659149,0.46112385392189026
1772556640223780900,11.46278076171875,0.11893420666456223,0.30225494503974915,0.31551671028137207
1772556640233764900,11.472764892578125,0.04626746475696564,0.2621930241584778,0.11334016174077988
1772556640243748900,11.482748779296875,-0.010882079601287842,0.1955055296421051,-0.10150986909866333
1772556640253734000,11.49273388671875,-0.047476306557655334,0.12845486402511597,-0.27483052015304565
1772556640263718000,11.5027177734375,-0.07185089588165283,0.06958916038274765,-0.4141223728656769
1772556640273702000,11.512701904296875,-0.09030553698539734,0.024296242743730545,-0.5187736749649048
1772556640283687000,11.52268701171875,-0.08924766629934311,0.031396131962537766,-0.5646222233772278
1772556640293671000,11.5326708984375,-0.04297710582613945,0.07664164155721664,-0.5392262935638428
1772556640303655000,11.542655029296874,0.05305328592658043,0.13781258463859558,-0.4540594816207886
1772556640313639000,11.552638916015624,0.1770869642496109,0.20721614360809326,-0.3189477026462555
1772556640323624000,11.5626240234375,0.2845071256160736,0.2873714864253998,-0.17879514396190643
1772556640333608000,11.57260791015625,0.35061636567115784,0.3961365818977356,-0.009703589603304863
1772556640343592000,11.582592041015625,0.39481213688850403,0.4080367386341095,0.07925017923116684
1772556640353576000,11.592575927734375,0.4055079221725464,0.43457141518592834,0.08907938003540039
1772556640363561000,11.60256103515625,0.35145944356918335,0.34787601232528687,0.0041605280712246895
1772556640373545700,11.612545654296875,0.23931294679641724,0.12154805660247803,-0.16563063859939575
1772556640383529700,11.62252978515625,0.10358446836471558,-0.0853504166007042,-0.32453128695487976
1772556640393514800,11.6325146484375,-0.06284338980913162,-0.20817939937114716,-0.38014155626296997
1772556640403498800,11.642498779296876,-0.2355879247188568,-0.263309121131897,-0.35501423478126526
