time,seconds_elapsed,z,y,x
1772556659143025000,0.07202490234375,-0.33342823701202867,-0.7676394459828734,0.5818811659194528
1772556659153009000,0.0820087890625,-0.43066403788328167,-0.8673734934106468,0.7164674771502614
1772556659162994000,0.091993896484375,-0.3758428988933563,-1.2532841973319648,0.6266871068514883
1772556659172978000,0.10197802734375,-0.14713234294056893,-1.7374851796135304,0.544306637545675
1772556659182962000,0.1119619140625,-0.0656172582924366,-1.7750944870397447,0.5717506709188223
1772556659192946000,0.12194580078125,-0.3382996424406767,-1.5645865272536872,0.4967961138300597
1772556659202931000,0.131930908203125,-0.5946639289945364,-1.5151871210515497,0.18107932846695185
1772556659212915000,0.1419150390625,-1.0366770438879727,-1.143190960714221,-0.0068261927582323545
1772556659222899000,0.15189892578125,-1.9182102878153322,-0.5000260356619953,-0.14502616444155572
1772556659232883000,0.161883056640625,-2.814780941876769,0.059472179666161536,-0.37049291616752744
1772556659242867000,0.171866943359375,-3.294975611126423,0.4735916177228093,-0.5838884140886366
1772556659252852000,0.18185205078125,-3.3591315646946427,0.745026924419403,-0.8565994398094713
1772556659262836000,0.1918359375,-3.061439242452383,0.9824193839997053,-1.1134703607112169
1772556659272820000,0.201820068359375,-2.465543141314387,1.231444705967605,-1.256356298253685
1772556659282804000,0.211803955078125,-1.6640782903581857,1.4581404149666428,-1.2536157673738897
1772556659292789000,0.2217890625,-0.9436246661812067,1.7482538263872265,-1.0202417496547103
1772556659302773000,0.23177294921875,-0.4503875600069761,1.636501424385607,-0.8868085539817809
1772556659312757000,0.241757080078125,-0.11834639343917369,1.341696640278399,-0.8446841072186827
1772556659322741000,0.251740966796875,-0.023303718698024747,0.9053326371878385,-0.8514017250359058
1772556659332726000,0.26172607421875,0.012369067707657814,0.6092644090160727,-0.7741358222648501
1772556659342710000,0.2717099609375,0.17354396452605722,0.46715164780318735,-0.6850868349805473
1772556659352694000,0.281694091796875,0.2574924138009548,0.36135377029180527,-0.628869711587578
1772556659362678000,0.291677978515625,0.11191314552128315,0.43432139134705067,-0.40049145632907746
1772556659372662000,0.301662109375,0.1254348903954029,0.9262965147614478,-0.12813552765622735
1772556659382647000,0.31164697265625,0.45239773078560824,0.6069473642453551,-0.11180120957940816
1772556659392629000,0.32162890625,0.39654607970416544,0.5054173733115196,-0.16892171155288815
1772556659402613000,0.331613037109375,0.33930735817849633,0.31648119386434553,-0.14175138055458664
1772556659412597000,0.341596923828125,0.21494857258200645,0.3158025639504194,-0.15845438581332563
1772556659422582000,0.35158203125,0.16419862855374812,-0.053873629006743425,0.0850746768258512
1772556659432566000,0.36156591796875,0.40600539744496345,-0.1827688889890909,-0.1900211982049048
1772556659442550000,0.371550048828125,0.7032961531490087,-0.2030883311793208,0.03566336099021136
1772556659452534000,0.381533935546875,0.9155027335464954,-0.2285521505206823,-0.13705109390914438
1772556659462519000,0.39151904296875,1.163978312677145,-0.11794307333528994,-0.0777419227849692
1772556659472503000,0.4015029296875,1.1802864733994007,-0.054197454133629794,0.06108765203878283
1772556659482487000,0.411487060546875,1.3298632868826388,-0.08200549851357937,-0.12606997342854737
1772556659492471000,0.421470947265625,1.5323258873790502,-0.12369418420791625,-0.05981741290725767
1772556659502454800,0.431454833984375,1.3916630327135324,-0.05543605601787567,-0.10658274427875876
1772556659512440000,0.441440185546875,1.2536965775251387,-0.009122048610448836,-0.2620930394642055
1772556659522424000,0.451424072265625,1.1487632078886032,0.060981415185332295,-0.343486543559283
1772556659532407800,0.46140771484375,1.0371417387902737,0.06013268940150737,-0.42986499646008014
1772556659542391800,0.471391845703125,0.9912912572413682,-0.07707856350541115,-0.5621740104086697
1772556659552377000,0.481377197265625,0.9984797074407339,-0.2452665539562702,-0.6498590158633888
1772556659562360800,0.49136083984375,1.020109939968586,-0.4014619087964296,-0.6850945798955858
1772556659572344800,0.5013447265625,1.128800616312027,-0.6767927616268395,-0.7037244615636765
1772556659582328800,0.511328857421875,1.2954969069004059,-0.9378139340758324,-0.8047781402226537
1772556659592312800,0.521312744140625,1.442282043838501,-0.8351151916235685,-0.7561129665791988
1772556659602297900,0.5312978515625,1.6249351974934338,-0.7318500474601983,-0.5884674124419689
1772556659612281900,0.54128173828125,1.7422972560703753,-0.6630886459231377,-0.4495551643034443
1772556659622265900,0.551265869140625,1.7935434591829775,-0.5243903693288564,-0.4330662767194211
1772556659632249900,0.561249755859375,1.8031898239284754,-0.2510141576975584,-0.3536756734119728
1772556659642235000,0.57123486328125,1.7178595649063586,-0.021409867775440215,-0.27081377726476635
1772556659652219000,0.581218994140625,1.5512071134597063,0.13613865523934363,-0.22776072614835574
1772556659662203000,0.591202880859375,1.2151491124659777,0.17447160076498985,-0.2273174210939556
1772556659672187000,0.601186767578125,0.6979460242927074,0.19083587558865547,-0.19553216191241515
1772556659682172000,0.611171875,0.24926819081306456,0.1497726283162832,-0.02327091240696609
1772556659692156000,0.621156005859375,-0.11298632771074771,0.11667641440033912,0.32730511448923494
1772556659702140000,0.631139892578125,-0.3320136940389871,-0.1185205809623003,0.4178585515197366
1772556659712124000,0.6411240234375,-0.6732195793151855,0.07055003851950169,0.4689707529891282
1772556659722108000,0.65110791015625,-0.9516226791977882,0.16813246087133885,0.3727869819214567
1772556659732093000,0.661093017578125,-1.0586989060819147,0.11849661556482315,0.19154758578827605
1772556659742077000,0.671076904296875,-1.0386375303059816,0.09968144045770168,0.022990606761397792
1772556659752061000,0.68106103515625,-0.7308703887730836,0.05788695630133152,-0.0664556818779558
1772556659762045000,0.691044921875,-0.12019991235136986,-0.20576047299802303,-0.08461208254909143
1772556659772030000,0.701030029296875,0.6469710393369198,-0.9077829529494047,-0.16796733343750236
1772556659782014000,0.711013916015625,1.0839876611173151,-1.687116051596403,-0.1735977770725265
1772556659791998000,0.720998046875,0.8092553587019443,-2.128940365919471,0.09272831511786207
1772556659801982000,0.73098193359375,0.13131634964942931,-2.5369500889241694,0.37579767151214183
1772556659811967000,0.740967041015625,-0.5822340710103512,-2.9791420675158498,0.5377982785649598
1772556659821951000,0.750950927734375,-1.5568699615269899,-2.8922166482567784,0.7525659416221082
1772556659831935000,0.76093505859375,-2.8570500578075646,-1.9681366405010223,0.9791318136963992
1772556659841919000,0.7709189453125,-3.9629017602086063,-0.6601315496832132,1.0617738565478474
1772556659851903000,0.780903076171875,-4.335947721859813,0.5354308187812566,1.122365907089412
1772556659861888000,0.790887939453125,-3.9777451090753075,1.661640249556303,1.2737089995928108
1772556659871872000,0.8008720703125,-2.9730864207386967,2.6348458150088785,1.2682622784942388
1772556659881856000,0.81085595703125,-1.9245155254393815,3.331874139934778,1.265134501862526
1772556659891840000,0.820840087890625,-0.7803197715967893,3.5326223377287387,1.2594640550106764
1772556659901825000,0.830824951171875,0.5148550637423992,3.1834780606687065,1.1650317672528325
1772556659911809000,0.84080908203125,1.2148486682146786,2.4907588311135767,1.1015488906405866
1772556659921793000,0.85079296875,1.0036012882381677,1.556028250005841,1.1345025542806833
1772556659931776800,0.86077685546875,0.3143658091455698,0.5883885019868612,1.1112487391389905
1772556659941762000,0.870761962890625,-0.23171324490010736,-0.3744844700217247,0.9476856320098042
1772556659951746000,0.88074609375,-0.698010321700573,-1.144416118595004,0.8176588107142597
1772556659961729800,0.890729736328125,-1.0984054780483246,-1.505457169675827,0.8258728045690804
1772556659971713800,0.9007138671875,-1.3777221856445074,-1.5903794324189424,0.7530014834951609
1772556659981697800,0.91069775390625,-1.3714794918626545,-1.3430173674881458,0.5883384157674387
1772556659991682800,0.920682861328125,-0.9366267701178789,-0.8005524122864007,0.38890133710466324
1772556660001666800,0.930666748046875,-0.36557986355423927,-0.3176578364282846,0.1326953189855907
1772556660011650800,0.94065087890625,0.2026993318617344,0.04925941320955753,-0.04239959217635914
1772556660021634800,0.950634765625,0.8087626067489385,0.32394846100509167,-0.191317795620393
1772556660031619800,0.960619873046875,1.3690893818557262,0.513852024179697,-0.30317307347459715
1772556660041603800,0.970603759765625,1.7717495605260132,0.6397235524266958,-0.36955530652385205
1772556660051587800,0.980587890625,1.9723826075077056,0.7068231582313775,-0.4575988065600395
1772556660061571800,0.99057177734375,1.9872797323882578,0.6455377916634082,-0.5304009348552674
1772556660071556900,1.000556884765625,1.9181278702288864,0.5894073236405849,-0.5207813119862228
1772556660081540900,1.010540771484375,1.8489473664969205,0.5916536412626504,-0.4461951132858172
1772556660091524900,1.02052490234375,1.8930366835922001,0.5703115780264139,-0.3056466605138965
1772556660101508900,1.0305087890625,1.8699620974749325,0.5237526559472083,-0.15068561497535557
1772556660111494000,1.040493896484375,1.818002193135023,0.4106733892560005,-0.05976217558868229
1772556660121478000,1.050477783203125,1.7252257097601889,0.33383331068158145,-0.010979412580700591
1772556660131462000,1.0604619140625,1.6549048038214444,0.37621465481519695,0.01351572612528689
1772556660141446000,1.07044580078125,1.5674211661577224,0.4044394633024931,0.03956595791932195
1772556660151430000,1.080429931640625,1.431623287180066,0.3962064724862575,0.012797704915888606
1772556660161415000,1.090414794921875,1.322240536919236,0.39952831038534636,-0.034754744545579884
1772556660171399000,1.10039892578125,1.1890034483402967,0.41477556387782094,-0.03127983497662935
1772556660181383000,1.1103828125,1.0932371354997157,0.3904775734454393,0.018700147592439317
1772556660191367000,1.120366943359375,1.0026163688540457,0.34568566103875636,0.015513950737798586
1772556660201352000,1.13035205078125,0.8850584954440593,0.2759340794205665,0.05087543357145041
1772556660211336000,1.1403359375,0.7699766567587852,0.168840901401639,0.03242978589646518
1772556660221320000,1.15031982421875,0.7308160282373428,-0.0736643711477518,-0.09307407808192074
1772556660231304000,1.160303955078125,0.6509586476683616,-0.4426549199283123,-0.20375892391726375
1772556660241289000,1.1702890625,0.4764771100312471,-0.8717349034905433,-0.23958193244859574
1772556660251273000,1.18027294921875,0.18722002317905426,-1.2680728934019803,-0.16359817844256758
1772556660261257000,1.190257080078125,-0.15205869342684744,-1.5838894858777521,0.0037968806654680516
1772556660271241000,1.200240966796875,-0.4224304625451564,-1.7509762370884419,0.11800216484507545
1772556660281226000,1.21022607421875,-0.5824550202846527,-1.762397210291028,0.1342397171496879
1772556660291210000,1.2202099609375,-0.5498059656143188,-1.8484563681095838,0.020575604341807774
1772556660301194000,1.230194091796875,-0.4117722904086113,-2.0632015270739794,-0.011908268095762469
1772556660311178000,1.240177978515625,-0.5896247657835483,-2.172334686487913,0.12633589435573667
1772556660321162000,1.250161865234375,-1.6645260341256856,-1.6564911962300537,0.45340029542427507
1772556660331147000,1.26014697265625,-3.569417990684509,-0.9597925416499375,1.0168208352953194
1772556660341131000,1.270131103515625,-5.189834249448776,-0.9029413581371307,1.1164371746275574
1772556660351115000,1.280114990234375,-5.986044248616695,-0.8163935400187968,0.8062398833382874
1772556660361098800,1.2900986328125,-5.738166050857306,-0.14506342771202324,0.25357191588897254
1772556660371084000,1.300083984375,-5.097105696868896,0.656547261455655,-0.5227566306471825
1772556660381067800,1.31006787109375,-4.274411010879278,1.5066218295410274,-1.223267317796126
1772556660391050500,1.320050537109375,-3.0590374420076607,2.0383286593630907,-1.709126807874441
1772556660401034500,1.330034423828125,-1.7729162662178277,2.3649796573251485,-1.9492105523653327
1772556660411019500,1.34001953125,-0.8284434587746858,2.389645019765198,-1.9547171869575977
1772556660421003500,1.35000341796875,-0.46495150741040703,2.3733660851374268,-1.7746723161049187
1772556660430987500,1.359987548828125,-0.3676917411416769,2.0650173443242905,-1.5389410677351056
1772556660440971500,1.369971435546875,-0.2671592368125915,1.580171342137456,-1.2200730517994611
1772556660450956500,1.37995654296875,-0.04570493559837341,1.238011517137289,-0.8534948248576373
1772556660460940500,1.3899404296875,0.16173486878871918,0.8890461037755012,-0.6151286248743534
1772556660470924300,1.39992431640625,0.4456470874816179,0.48454058949947354,-0.47322135963831097
1772556660480908300,1.409908203125,0.7020867773592472,0.0753290894895792,-0.35928266310617324
1772556660490893600,1.4198935546875,0.7958294754177332,-0.2393804185271263,-0.27174760578246787
1772556660500877300,1.429877197265625,0.6534434502214193,-0.3841647370368242,-0.20884019097061826
1772556660510861300,1.439861328125,0.38505087222158907,-0.4063327297031879,-0.13163276778799482
1772556660520845300,1.44984521484375,0.29638883842825886,-0.2928291001200676,0.02723695736057125
1772556660530830300,1.459830322265625,0.44912148559391496,-0.1798848579853773,0.02519963371353224
1772556660540814300,1.469814453125,0.6108318044632672,-0.04126140019297599,-0.017219179186527617
1772556660550798300,1.47979833984375,0.6872264773577451,0.20988076779842377,0.06240221436922438
1772556660560782300,1.4897822265625,0.8580699507534504,0.5006158182486892,0.16035044695930553
1772556660570767400,1.499767333984375,1.0085603719502687,0.6702177671507,0.2551244973595254
1772556660580751400,1.50975146484375,1.039998297265172,0.627328181234002,0.33632629654109475
1772556660590735400,1.5197353515625,1.0725766247868538,0.525379672627151,0.34800665133222936
1772556660600719400,1.52971923828125,1.1773960126549006,0.3836918588280678,0.20393983344212174
1772556660610703400,1.539703369140625,1.307702893000841,0.25315847624987364,0.017960037848819044
1772556660620688400,1.5496884765625,1.4717255804657936,0.1299944533959031,-0.09931025992459618
1772556660630672400,1.55967236328125,1.6518571066886185,0.038947278031706806,-0.23188222652515394
1772556660640656400,1.569656494140625,1.7836849129915235,-0.07012041493058205,-0.31194311204329134
1772556660650640400,1.579640380859375,1.8439380139023065,-0.15523878476768732,-0.36438203207179903
1772556660660625400,1.58962548828125,1.938931004282832,-0.24103607677966354,-0.4157911706611514
1772556660670609400,1.599609375,2.048381559082866,-0.302740837803483,-0.44840241407174614
1772556660680593400,1.609593505859375,2.084022781306505,-0.33070816439837214,-0.5083510521432385
1772556660690578400,1.619578369140625,2.037110808005929,-0.3482683710083365,-0.4997744355211034
1772556660700562400,1.6295625,1.9857319184243678,-0.28319851746559144,-0.4099862472420558
1772556660710546400,1.63954638671875,1.9292899002343415,-0.1594470501124859,-0.32325708120744673
1772556660720530400,1.649530517578125,1.8871721754729747,-0.07633738974928855,-0.3101347474470734
1772556660730514400,1.659514404296875,1.781228167489171,-0.03490735499113798,-0.3892553381741047
1772556660740499500,1.66949951171875,1.6664374207049608,-0.01934007576406002,-0.4806362024720758
1772556660750483500,1.6794833984375,1.5116975253701208,-0.04806669629365205,-0.5468775474796072
1772556660760467500,1.689467529296875,1.3036644312649965,-0.12577683570086956,-0.6222851455654949
1772556660770451500,1.699451416015625,1.0628343984514474,-0.24078707045465705,-0.6658410133711993
1772556660780436500,1.7094365234375,0.788255825293064,-0.3301560834735632,-0.6159422793447971
1772556660790420500,1.71942041015625,0.3845423381775617,-0.4631529335558414,-0.5410087285114452
1772556660800404500,1.729404541015625,-0.030201076996326445,-0.5384986819192766,-0.4416795355575159
1772556660810388500,1.739388427734375,-0.4162696018278599,-0.543086009709537,-0.37157475658748296
1772556660820373500,1.74937353515625,-0.7579431046158075,-0.5315989855334162,-0.34001083027273415
1772556660830357500,1.759357421875,-1.0589864908516406,-0.5217217346414923,-0.29545086345840244
1772556660840341500,1.769341552734375,-1.1883224803388117,-0.5249117628544568,-0.2636856058852747
1772556660850325500,1.779325439453125,-1.060091821745038,-0.5586389681503177,-0.28862171155810357
1772556660860310500,1.789310546875,-0.777787622770667,-0.683271017730236,-0.27866226227544244
1772556660870294500,1.79929443359375,-0.36861294763982294,-1.1610270616561174,-0.40437940367832775
1772556660880278500,1.809278564453125,-0.031766426616907116,-1.7762056631520389,-0.6850675457581877
1772556660890263600,1.819263671875,-0.24826164411902427,-2.070549551749229,-0.62094432541579
1772556660900247600,1.82924755859375,-1.012092053207755,-2.0273259115725755,-0.32578806098978963
1772556660910231600,1.8392314453125,-1.8735130679547785,-1.9371920516610144,-0.12508348314184695
1772556660920215600,1.849215576171875,-2.7801263926029205,-1.6197399669378996,0.0019253968383185565
1772556660930199300,1.85919921875,-3.8392566758394238,-0.6568991436332464,0.27980191556354983
1772556660940184600,1.8691845703125,-4.704666467961669,0.4860498250186443,0.8273642121706157
1772556660950168600,1.87916845703125,-4.768965044870972,1.43201696267277,1.1855199170734734
1772556660960152300,1.88915234375,-4.421160491982102,2.197305169354379,1.1912933128431438
1772556660970137600,1.8991376953125,-3.5715737074136733,2.9624396467790004,1.1479568599417804
1772556660980121600,1.90912158203125,-2.253922836372256,3.4451009984031318,1.081223676296696
1772556660990105300,1.919105224609375,-0.951833691599965,3.3807980375796554,0.9720859868381172
1772556661000089300,1.92908935546875,-0.032521628898382185,2.8687849192649124,0.8766040438968687
1772556661010074600,1.93907470703125,0.388902286952734,2.1223311769127844,0.857493831365928
1772556661020058400,1.949058349609375,0.4526315395414829,1.2617875295221805,0.8529257927980274
1772556661030042400,1.95904248046875,0.26829145571291446,0.4484212283700704,0.7982229464255273
1772556661040026400,1.9690263671875,-0.03871522284150123,-0.2186713924974203,0.8144960358344018
1772556661050011400,1.979011474609375,-0.07860124302804469,-1.0080892473071812,0.7395927705414593
1772556661059995400,1.988995361328125,-0.2201169151306152,-1.666858276465535,0.7288774613901973
1772556661069979400,1.9989794921875,-0.4460182588815689,-1.8020599431157112,0.7467894040472806
1772556661079963400,2.00896337890625,-0.6003671090722084,-1.5068182288959622,0.7120387009225785
1772556661089948400,2.018948486328125,-0.46056876228153704,-1.079918511982262,0.6226705646865069
1772556661099932400,2.028932373046875,-0.254711258649826,-0.7816092268854379,0.44781895162798463
1772556661109916400,2.03891650390625,-0.11253098515868186,-0.5145888140216469,0.23136715314248577
1772556661119900400,2.048900390625,0.1513771409034729,-0.20049363851100205,-0.010654683271516113
1772556661129885400,2.058885498046875,0.45122167274355884,0.0788254071727395,-0.175598705098778
1772556661139869400,2.068869384765625,0.6494780537217855,0.29396774876117704,-0.16432541500488296
1772556661149853400,2.078853515625,0.7951753954231738,0.38157062889039517,-0.03235673892656341
1772556661159837400,2.08883740234375,0.9351765713095664,0.38607758492082356,0.12713012260650283
1772556661169822500,2.098822509765625,1.0572376013576983,0.34882249775975943,0.2537345408384688
1772556661179806500,2.108806396484375,1.172072187283635,0.3035881022825837,0.2715827158106491
1772556661189790500,2.11879052734375,1.3529887264043092,0.34707828444093464,0.24057108961641788
1772556661199774500,2.1287744140625,1.5884055019974708,0.4411331171885133,0.1845855464896187
1772556661209759500,2.138759521484375,1.8110265089035034,0.5403796733602881,0.10002952324301004
1772556661219743500,2.148743408203125,1.9593992072939872,0.6199453775063156,0.0014484269763343036
1772556661229727500,2.1587275390625,2.032061707922816,0.6761623547688126,-0.11580230758008546
1772556661239712500,2.16871240234375,2.090954041874409,0.7304746674537659,-0.1856083501987159
1772556661249696500,2.178696533203125,2.071522196173668,0.8164312416806817,-0.20557762724440543
1772556661259680500,2.188680419921875,1.9996669202744959,0.9007049773871898,-0.28160443494087084
1772556661269664500,2.19866455078125,1.9666741667330263,0.9082631376817822,-0.3407785632422194
1772556661279649500,2.2086494140625,1.9235674309343098,0.8323480649977922,-0.323422135576047
1772556661289633500,2.218633544921875,1.8863760566592216,0.7368804428428412,-0.28762751288898286
1772556661299617500,2.228617431640625,1.8302379898518324,0.6566627045288682,-0.30979594394676385
1772556661309601500,2.2386015625,1.6825754855573176,0.5339613307505846,-0.39897995578758416
1772556661319586600,2.248586669921875,1.4763772056639193,0.25361089619249105,-0.44971682113856076
1772556661329570600,2.258570556640625,1.2268407193034887,-0.14812749145776033,-0.4711994618892669
1772556661339554600,2.268554443359375,0.9208341577023267,-0.5567071233049035,-0.4110759787075221
1772556661349538600,2.27853857421875,0.6297562851637601,-0.9794503050610422,-0.2858527217688039
1772556661359523600,2.288523681640625,0.37376550809741016,-1.3495073140293359,-0.1826891748163849
1772556661369507600,2.298507568359375,0.1356172617137432,-1.528541984926164,-0.09124923727493732
1772556661379491600,2.30849169921875,-0.07634674209952354,-1.6005319931209085,0.008718765039183198
1772556661389476000,2.31847607421875,-0.27364567622244357,-1.6224907269507645,0.07800477497223764
1772556661399461000,2.328461181640625,-0.48567339292168615,-1.56106565965116,0.13712711828742175
1772556661409445000,2.338445068359375,-0.6290501827210188,-1.5361933764621614,0.2192423973184079
1772556661419429000,2.34842919921875,-0.7352987266093493,-1.670782464171946,0.28113172112889584
1772556661429414100,2.3584140625,-0.8523533266723156,-1.8570856647670269,0.3920953839056194
1772556661439398100,2.368398193359375,-1.2098252870947122,-1.7325076834619044,0.7459621594429016
1772556661449382100,2.378382080078125,-2.092525821235776,-1.2343304905369876,1.195629003959894
1772556661459366100,2.3883662109375,-2.9389854136943816,-0.9024714025378227,1.262889791675657
1772556661469351200,2.39835107421875,-3.239112854129076,-0.8115373321592807,0.8348832825638354
1772556661479335200,2.408335205078125,-3.3198288973540064,-0.47546179550886153,0.4887540424760431
1772556661489319200,2.418319091796875,-3.344022842890024,0.13606792809069157,0.23122619203552602
1772556661499303200,2.42830322265625,-3.220121153411269,0.7360159349679947,-0.18829210938997565
1772556661509288200,2.4382880859375,-2.8627503152757883,1.16277536662817,-0.8175602457106113
1772556661519272200,2.448272216796875,-2.3274147735625506,1.406136379224062,-1.497686389543861
1772556661529256200,2.458256103515625,-1.7446131317973135,1.5556220072925089,-1.983629977709055
1772556661539240000,2.468239990234375,-1.2838006238877773,1.7218766915932298,-2.1957953493133187
1772556661549225200,2.47822509765625,-1.007530444380641,1.8351392058968543,-2.234992656583339
1772556661559209200,2.488209228515625,-0.9210486772358417,1.8260621654719114,-2.1167662362620234
1772556661569193000,2.49819287109375,-0.8293582355320454,1.70206958283931,-1.8580081864394247
1772556661579178000,2.508177978515625,-0.6136164667457342,1.5174375303268433,-1.5686688281312584
1772556661589162000,2.518161865234375,-0.2101794584840536,1.3424860370904206,-1.3163646306231618
1772556661599146000,2.52814599609375,0.11001929459869861,1.1701765827953814,-1.0098807338338345
1772556661609130000,2.5381298828125,0.3226315331876278,0.9222750041604042,-0.6748207309015095
1772556661619115000,2.548114990234375,0.5363187075316905,0.6143477036297321,-0.4039461633602157
1772556661629099000,2.55809912109375,0.6671025577396154,0.33260493793040513,-0.16368381089940667
1772556661639083000,2.5680830078125,0.631949995815754,0.08557721952050924,0.0626259675219655
1772556661649067000,2.57806689453125,0.5861953758567572,-0.18183949918448924,0.16388839356079696
1772556661659051800,2.5880517578125,0.621173750257492,-0.28171295508295296,0.3076284637145698
1772556661669036000,2.5980361328125,0.6158259594887495,-0.19347762226909399,0.44000097135342653
1772556661679020000,2.60802001953125,0.5916273377776146,-0.12139321378916501,0.5063540696397424
1772556661689004800,2.6180048828125,0.6092576870143414,-0.050099663425981995,0.5046001751771196
1772556661698988800,2.62798876953125,0.6794166803896426,0.08907704433500767,0.410205004559271
1772556661708973000,2.63797314453125,0.7807628391891718,0.20336948620826004,0.2718161957729608
1772556661718957000,2.64795703125,0.8937585192501545,0.25121815583705903,0.0635346433321014
1772556661728941800,2.65794189453125,1.0126116931676865,0.20669424671679734,-0.21944884314332155
1772556661738925800,2.66792578125,1.1298983484208582,0.1175011747866869,-0.5024545049179345
1772556661748909800,2.677909912109375,1.2333861954241991,-0.013012626308202742,-0.727152829554677
1772556661758894000,2.68789404296875,1.2287129429161547,-0.21451865673214196,-0.9095809422820806
1772556661768878800,2.69787890625,1.1369541121512652,-0.45193391266614197,-1.0139968639157713
1772556661778862800,2.70786279296875,1.04695819940567,-0.6439858860462904,-1.0145245410516857
1772556661788846800,2.717846923828125,0.9895932211518287,-0.7961363494098186,-1.0211682168498635
1772556661798831000,2.7278310546875,0.961798620775342,-0.855619927252829,-0.9790653973966836
1772556661808815900,2.73781591796875,0.9906325010716914,-0.8193985670536756,-0.8987453677520155
1772556661818799900,2.7477998046875,1.0247247402876616,-0.7370406018406153,-0.7752274168938398
1772556661828783900,2.757783935546875,1.103009172451496,-0.6359066244870424,-0.6616093671508133
1772556661838769000,2.767768798828125,1.199226736190915,-0.4690037054106593,-0.6037935398569331
1772556661848753000,2.7777529296875,1.3411866449296475,-0.32024522257298227,-0.5778463574454188
1772556661858737000,2.78773681640625,1.4921768323421478,-0.2098857362344861,-0.5790168990621343
1772556661868721000,2.797720947265625,1.52361651122272,-0.07652706710249185,-0.5974281330108642
1772556661878706000,2.807705810546875,1.5817068811416626,0.03649959261864424,-0.6153147950962186
1772556661888690000,2.81768994140625,1.5602444063961505,0.13421820857077837,-0.6664758041433989
1772556661898674000,2.827673828125,1.4261989240437745,0.17096125455647707,-0.6767023068644106
1772556661908658000,2.837657958984375,1.2038175711125134,0.09471855735331773,-0.6207433960162103
1772556661918643000,2.847642822265625,0.8848755400925874,0.011814356434345245,-0.5891223692193627
1772556661928627000,2.857626953125,0.38662382062673567,-0.05405483079254627,-0.5392748904561624
1772556661938611000,2.86761083984375,-0.1611971086502075,-0.17755378468930721,-0.5107245032763108
1772556661948596000,2.877595947265625,-0.6203530815243721,-0.3441422309890389,-0.6150007607109844
1772556661958580000,2.887580078125,-1.1453519381403923,-0.47149932161867614,-0.7077210569191724
1772556661968564000,2.89756396484375,-1.546895680001378,-0.5415490094006061,-0.7102971910174936
1772556661978548000,2.9075478515625,-1.6950123578041791,-0.5281140660271049,-0.6625885874465107
1772556661988533000,2.917532958984375,-1.6054115818560122,-0.49531449697017665,-0.5282754306012765
1772556661998517000,2.92751708984375,-1.1928981176912783,-0.8701853359609841,-0.6263222190618515
1772556662008501000,2.9375009765625,-0.7225748541146516,-1.6454139218986032,-1.0037447883620858
1772556662018486000,2.947486083984375,-0.6405109034121036,-2.211931368339062,-1.0886164168965071
1772556662028470000,2.957469970703125,-1.2201467746227979,-2.298869647079706,-0.7370451318852603
1772556662038454000,2.9674541015625,-2.058919904232025,-2.13519913405329,-0.36130846984535453
1772556662048438000,2.97743798828125,-3.017167554527521,-1.7101058820396662,-0.14044965030625461
1772556662058423000,2.987423095703125,-4.2304602254718535,-0.7344862411826849,0.18800372090265155
1772556662068407000,2.997406982421875,-5.172095763662457,0.26975100687146186,0.6123837831456214
1772556662078391000,3.00739111328125,-5.222460507765412,1.139774138008058,0.9809208160050212
1772556662088375000,3.017375,-4.614783367940783,1.934046447111666,1.3450184781774879
1772556662098360000,3.027360107421875,-3.4557267295747995,2.5117504734769462,1.51936411447525
1772556662108344000,3.037343994140625,-1.9216426003515719,2.803817941574752,1.6162205606400966
1772556662118328000,3.047328125,-0.680288787049055,2.7017171650156375,1.6736643032185732
1772556662128313000,3.05731298828125,0.0037830256700515743,2.277751747988164,1.8016968088917433
1772556662138297000,3.067297119140625,0.36836043418347836,1.76330731087327,1.7797617481984198
1772556662148281000,3.077281005859375,0.45666649414598937,1.1679831644043326,1.6774859073333441
1772556662158265000,3.08726513671875,0.45323418160974976,0.5269111199781298,1.545694487518072
1772556662168250000,3.09725,0.43274493581056594,-0.004549333867430686,1.3965097420923411
1772556662178234000,3.107234130859375,0.43817748225331304,-0.3255617414206266,1.3178998773664234
1772556662188217900,3.1172177734375,0.5256213724285363,-0.5981582008510827,1.2025289926066993
1772556662198203100,3.127203125,0.5331576131522655,-0.7308622054666281,1.055222462143004
1772556662208187100,3.137187255859375,0.5423574031740427,-0.7215265141054987,1.0018721994232387
1772556662218171000,3.1471708984375,0.5893786820679903,-0.5331275102749466,0.9369030297759919
1772556662228155000,3.15715478515625,0.8231775010704994,-0.2557958390161395,0.6997105497471988
1772556662238140200,3.16714013671875,1.062635661008954,-0.06627046150416135,0.23198051753416657
1772556662248124000,3.1771240234375,1.2916495838224886,0.155860423797369,-0.15480888718413188
1772556662258108000,3.18710791015625,1.35744453676939,0.3118871440723538,-0.375275108942762
1772556662268092000,3.197091796875,1.329251292464137,0.3924237390771508,-0.41301491088084874
1772556662278077000,3.207076904296875,1.2872703458249568,0.4334671126052737,-0.2825070280700922
1772556662288061000,3.21706103515625,1.2371084308177231,0.46933951323628426,-0.10798742344491183
1772556662298045000,3.227044921875,1.1950140869319439,0.45914399017542595,-0.005202317883446812
1772556662308030000,3.237030029296875,1.20813251170218,0.45219431716799735,0.06713277742192149
1772556662318014000,3.247013916015625,1.3030559439778326,0.4665186105966568,0.10050167079940438
1772556662327998000,3.256998046875,1.4637655613720417,0.5026677823424339,0.07940956373624503
1772556662337982000,3.26698193359375,1.603313732793927,0.5293573440864682,0.08537541333809494
1772556662347967000,3.276967041015625,1.6550725616037845,0.47447015412300825,0.1389763628832996
1772556662357951000,3.286950927734375,1.702569641315937,0.36813773134350775,0.10548640040941536
1772556662367935000,3.29693505859375,1.733433566135168,0.3043704848319292,0.0056450932148844
1772556662377920000,3.306919921875,1.6970757200747728,0.3509957501456141,0.007821998862549662
1772556662387903500,3.316903564453125,1.5848346577733754,0.3943348333954811,0.06428250255733728
1772556662397887500,3.326887451171875,1.5175842453211545,0.3574842353820801,0.08525675539448857
1772556662407871500,3.33687158203125,1.5693617788314818,0.25882103205621243,0.04290894820429384
1772556662417856500,3.3468564453125,1.5842951440691948,0.13167641513347625,-0.02492050624489784
1772556662427840500,3.356840576171875,1.4791840797781943,0.05461743311136961,-0.04128193152435124
1772556662437824500,3.366824462890625,1.2626444386124611,0.00277151053994894,0.01579005513228476
1772556662447809500,3.3768095703125,1.0838923840492962,-0.144067986933887,0.04757452886253595
1772556662457793500,3.38679345703125,1.0455097541630267,-0.3244870979264378,0.014467720487341284
1772556662467777500,3.396777587890625,0.7223404608368873,-0.511034044149518,-0.0693613401915878
1772556662477761500,3.406761474609375,0.2779080098420381,-0.8148302362248301,-0.19879238755106926
1772556662487746600,3.41674658203125,-0.022926117557287216,-1.1873697096586227,-0.3620324732709676
1772556662497730600,3.42673046875,-0.2512602414131164,-1.4729840560942888,-0.4626802014775574
1772556662507714600,3.436714599609375,-0.6201958451360464,-1.5825553146645426,-0.43952370923049744
1772556662517699600,3.446699462890625,-0.9686158995747566,-1.6510148106455802,-0.34489779859669506
1772556662527683600,3.45668359375,-1.2036118194073437,-1.62979140535295,-0.3438921286854893
1772556662537667600,3.46666748046875,-1.3078659746080636,-1.5295356721386313,-0.39152613265030084
1772556662547651600,3.476651611328125,-1.141540270897746,-1.6332219643235206,-0.40929121418260034
1772556662557636600,3.48663671875,-0.9865244812309741,-1.9503741893172264,-0.3195776985749602
1772556662567620600,3.49662060546875,-1.4117092109203337,-1.7934160334110258,0.1545285176064819
1772556662577604600,3.5066044921875,-2.2331027511835098,-0.7964306561812758,0.7999806768130511
1772556662587589400,3.51658935546875,-2.933978983709216,0.04137041352540254,0.8100457053620368
1772556662597573600,3.52657373046875,-3.313065394568443,0.26525983293205496,0.2101396379303187
1772556662607557400,3.536557373046875,-3.4977918473660945,0.563321280747652,-0.3070795245949179
1772556662617541400,3.546541259765625,-3.4997120017737147,1.105553011715412,-0.4971604170978069
1772556662627526400,3.5565263671875,-3.096430476334691,1.5025693392798303,-0.6919904768891633
1772556662637510400,3.566510498046875,-2.3969904140919445,1.4824813677579163,-1.0717046642579138
1772556662647494400,3.576494384765625,-1.752180352181196,1.4957216653421521,-1.3004416698262096
1772556662657478400,3.586478515625,-0.9095832803696393,1.50118080753088,-1.279602879936993
1772556662667463400,3.59646337890625,-0.3318599647819996,1.330650345607102,-1.3703873127117752
1772556662677447400,3.606447509765625,0.052149289432168004,1.31403647993654,-1.317150081912428
1772556662687431400,3.616431396484375,0.4957394443839788,1.5932058880165219,-1.2013431438229978
1772556662697416200,3.626416259765625,0.4060895685970783,1.6707807106062769,-1.1442264412418006
1772556662707400400,3.636400390625,0.06418050348758697,1.5819760534718632,-1.1047636149033904
1772556662717384400,3.646384521484375,-0.16762041969597338,1.270776014880836,-1.0149778377771377
1772556662727368400,3.656368408203125,-0.15271160437762737,0.7632339045003056,-0.9314714331813156
1772556662737353200,3.666353271484375,0.11108487800359726,0.21390169387757776,-0.8446065119378269
1772556662747337200,3.676337158203125,0.2516483639478683,-0.07284107206612825,-0.7448468916773796
1772556662757321500,3.686321533203125,0.21871640068292617,-0.19987316852509973,-0.615975889353454
1772556662767306200,3.69630615234375,0.1848223143875599,-0.2886795792251825,-0.4813856325998902
1772556662777290200,3.706290283203125,0.2021539729386568,-0.3328749870434403,-0.3904787424892187
1772556662787274200,3.716274169921875,0.2194154888629913,-0.3010220511868596,-0.30283450743630524
1772556662797258500,3.726258544921875,0.29701310780644413,-0.15763298642784357,-0.18203487562611698
1772556662807243300,3.7362431640625,0.488769605371356,0.01699205133318901,-0.013002981697022914
1772556662817227300,3.746227294921875,0.6598369506508112,0.14723054261803625,0.12757774764299393
1772556662827211300,3.756211181640625,0.7873539080172777,0.25243133101910353,0.29775413543209434
1772556662837196300,3.7661962890625,1.0206535453259944,0.32091683822423217,0.3859576118029654
1772556662847180300,3.77618017578125,1.335002987858653,0.3926087402552366,0.3313222046434879
1772556662857164300,3.786164306640625,1.6194716713905333,0.3702963706821203,0.20784546257853506
1772556662867148300,3.796148193359375,1.873264061629772,0.2957593083530664,0.07358999073728918
1772556662877133300,3.80613330078125,2.057593624064326,0.17689795112907886,-0.05053294027671218
1772556662887117300,3.816117431640625,2.0874141773104666,0.01811579466611147,-0.1762359800890088
1772556662897101300,3.826101318359375,2.0061855083882807,-0.21417846499234436,-0.28195056323111056
1772556662907086300,3.83608642578125,1.877747344523668,-0.3937935661256313,-0.3583838145703077
1772556662917070300,3.8460703125,1.7510270904928444,-0.4664689262360334,-0.370378057616204
1772556662927054300,3.856054443359375,1.6819541387885808,-0.470580160947144,-0.3735176708161831
1772556662937039400,3.866039306640625,1.709764521256089,-0.4800038228526711,-0.3750052790254354
1772556662947023400,3.8760234375,1.6131418838471174,-0.39385377188026904,-0.26813100445419547
1772556662957007400,3.88600732421875,1.466935423579812,-0.32473376616388555,-0.04577785470411181
1772556662966991400,3.895991455078125,1.4387123686581849,-0.35420740566849707,0.0492814789108932
1772556662976976400,3.905976318359375,1.4525649529218674,-0.30778087779730556,0.10388298380076885
1772556662986960400,3.91596044921875,1.4725906728625298,-0.18200638018399476,0.1291018884703517
1772556662996944400,3.9259443359375,1.548656259933114,-0.02226180842965841,0.07396379248574375
1772556663006928400,3.935928466796875,1.572095587709546,0.05708031609356403,-0.012186696878075599
1772556663016913400,3.945913330078125,1.4606442144811154,0.06385229444652796,-0.07711568064540625
1772556663026897400,3.9558974609375,1.1892436868369578,0.04020020070225,-0.11051482303068041
1772556663036881400,3.96588134765625,0.801958187431097,-0.054262920585274696,-0.1628401996821165
1772556663046866400,3.975866455078125,0.34231823043227194,-0.17115648486763238,-0.27760274328514933
1772556663056850400,3.985850341796875,-0.15596096156239508,-0.24202976399213075,-0.4336515292614698
1772556663066834400,3.99583447265625,-0.5659487066417932,-0.34404169322401285,-0.5666613849557935
1772556663076818400,4.005818359375,-1.0321738872498274,-0.3549149694159627,-0.7453392052389681
1772556663086802400,4.015802490234375,-1.530371830701828,-0.2986693505808711,-0.8444086512781679
1772556663096786400,4.025786376953125,-1.9057091181606054,-0.32714930287301536,-0.8704642990328371
1772556663106770400,4.0357705078125,-2.066006647622585,-0.6244412276208401,-1.0253845193706452
1772556663116755500,4.04575537109375,-1.6645242805600164,-1.5293819428816438,-1.3517543623037636
1772556663126739500,4.055739501953125,-1.109516070127487,-2.253975443342328,-1.344097710070759
1772556663136723500,4.065723388671875,-1.0621651208877563,-2.2202733724877235,-1.1432087886318563
1772556663146708500,4.07570849609375,-1.3620003003776073,-2.0315257013499735,-1.1212279891006647
1772556663156692500,4.0856923828125,-1.9203174892276524,-1.677354536038637,-1.1645249867744742
1772556663166676500,4.095676513671875,-2.601839617463946,-1.165058216868341,-1.2545739448815583
1772556663176660200,4.10566015625,-3.153206841045618,-0.6337818874180317,-1.3237475804813206
1772556663186645500,4.1156455078125,-3.40546369228065,0.013868950876593589,-1.0484807327978312
1772556663196629500,4.12562939453125,-3.3338667750567197,0.5420391310051084,-0.6075890231497585
1772556663206613200,4.13561328125,-3.0066052439808844,0.9632637248918413,-0.2155661199584603
1772556663216598500,4.1455986328125,-2.3358616993904113,1.3684057835057377,0.23061814313977955
1772556663226582500,4.15558251953125,-1.4070827201634644,1.738062687240541,0.7393534088276327
1772556663236566300,4.165566162109375,-0.547884642162919,1.9962094732969997,1.097173890426755
1772556663246550300,4.17555029296875,0.09646598554253577,2.146343920662999,1.3675273932360112
1772556663256535600,4.18553564453125,0.2783580916970968,2.0789973543599247,1.5197985603697597
1772556663266519300,4.195519287109375,0.01588496687412262,1.8039198917686938,1.6427334506429732
1772556663276503300,4.20550341796875,0.4732967264294624,1.2632236998051405,1.7065676249109207
1772556663286488300,4.21548828125,0.4506570245981216,0.8182818379834293,1.71388905384019
1772556663296472300,4.225472412109375,0.13421674726605415,0.5172995342850685,1.6201932636633514
1772556663306456300,4.235456298828125,0.036066169637441636,0.25521219390928745,1.5026020725056528
1772556663316440300,4.2454404296875,-0.13117021917700766,0.111928343090415,1.2675889092773198
1772556663326425300,4.25542529296875,-0.21614158175885675,0.021393208901584148,0.9236299259006977
1772556663336409300,4.265409423828125,-0.1463221956014633,-0.05282967291176319,0.5625014887973666
1772556663346393300,4.275393310546875,0.033358664244413375,-0.11339520077258348,0.261596926510334
1772556663356378400,4.28537841796875,0.2563800686448812,-0.24147885211110115,0.010206775107234715
1772556663366362400,4.2953623046875,0.4211129502058029,-0.40387627646178004,-0.12739654585719107
1772556663376346400,4.305346435546875,0.6056523559987544,-0.6198018773823977,-0.1527969445735216
1772556663386331400,4.315331298828125,0.8183563645243644,-0.679826430234313,-0.11492869395017623
1772556663396316700,4.325316650390625,0.9532160858690738,-0.5905769519418478,-0.03033449411764741
1772556663406300700,4.33530078125,1.1332008970975875,-0.4939326872229576,-0.011399638153612612
1772556663416284700,4.34528466796875,1.4396324061125516,-0.37269934017062184,0.00982625135704875
1772556663426269700,4.355269775390625,1.5992437068760395,-0.22527035237103699,0.04740165651366114
1772556663436253700,4.365253662109375,1.5938187592178583,-0.09965104531943797,0.16991116098165512
1772556663446237700,4.37523779296875,1.560031055906415,0.017524258513748645,0.36597251613363624
1772556663456222700,4.38522265625,1.4994547143906354,0.041674949429929255,0.41920536301881073
1772556663466208800,4.395208740234375,1.5577613574087619,0.02480067925751209,0.4723411792702973
1772556663476192800,4.40519287109375,1.4551695824623108,-0.007620996397733688,0.6909694632783532
1772556663486177800,4.415177734375,1.1822913834810256,0.009702186585962771,0.8809744410008191
1772556663496161800,4.425161865234375,1.0326046798825264,-0.023887948326766488,0.943583895779401
1772556663506145800,4.435145751953125,0.9840618905097246,-0.0799737004250288,0.934892932062596
1772556663516129800,4.4451298828125,0.9935124404221772,-0.08846212730705738,0.7707751136600971
1772556663526114800,4.45511474609375,0.9754442842900752,-0.09469137708544731,0.5377938946507871
1772556663536098800,4.465098876953125,0.9873866510182618,-0.15428659860938787,0.32944851972609757
1772556663546082800,4.475082763671875,1.0401122790336608,-0.23169950863569974,0.12355506799817084
1772556663556067600,4.485067626953125,1.0091431402742863,-0.2636889303535223,0.008574205469340086
1772556663566051800,4.4950517578125,0.998199721455574,-0.2841822678059339,-0.020484861885011196
1772556663576035800,4.505035888671875,0.9165022659778594,-0.2510389998778701,-0.03730710960924625
1772556663586019800,4.515019775390625,0.7511947993993758,-0.21626696170419454,-0.07146306171119213
1772556663596004600,4.525004638671875,0.648610038715601,-0.24283611193895338,-0.21353972869738935
1772556663605988900,4.53498876953125,0.5621873082816601,-0.3154939363926649,-0.3711624859921634
1772556663615972900,4.544972900390625,0.40638241406381126,-0.4553121569275856,-0.5114724355667829
1772556663625957600,4.55495751953125,0.18701134886443613,-0.6663625530272722,-0.5563105252027511
1772556663635941600,4.564941650390625,-0.014071195450425147,-0.8112649449586867,-0.5026284732453524
1772556663645926000,4.57492578125,-0.09746201084256172,-0.8984954846441745,-0.44815322508364913
1772556663655910700,4.58491064453125,-0.13682780654728413,-0.9154112558707594,-0.46303427561223504
1772556663665894700,4.594894775390625,-0.19818740739524363,-1.0213619858562946,-0.4852708034701645
1772556663675878700,4.604878662109375,-0.18495500085651873,-1.4964713146656752,-0.3501158985711634
1772556663685862700,4.614862548828125,-0.2880488801062107,-1.9312083010762928,-0.05099398191720247
1772556663695847700,4.62484765625,-0.7788385931283235,-1.5821899884834885,0.3792366329848766
1772556663705831700,4.634831787109375,-1.3524270008683204,-1.0172826075881718,0.37242929105758665
1772556663715815700,4.644815673828125,-1.9086030860364436,-0.508216064119339,0.0963398749448359
1772556663725800700,4.65480078125,-2.4954659858912227,0.03630114743709564,-0.11154007442519068
1772556663735784700,4.66478466796875,-3.034258974581957,0.4596089773386717,-0.3288832870587706
1772556663745768700,4.674768798828125,-3.474123971530795,0.878294700397551,-0.5300128853857516
1772556663755752700,4.684752685546875,-3.5559506063461304,1.2278107333794235,-0.8359978196769953
1772556663765737700,4.69473779296875,-2.9936878947407006,1.2339832845345138,-1.1775918274879456
1772556663775721700,4.7047216796875,-2.029118640208244,0.7594444490894675,-1.392085057517886
1772556663785705700,4.714705810546875,-0.8102589827865362,0.9021358869731426,-1.2608359278857708
1772556663795690800,4.724690673828125,0.16397943284511565,1.1282248622506856,-1.017662108425051
1772556663805674800,4.7346748046875,0.44722588110566136,1.4254191718429325,-0.7424122118763625
1772556663815658800,4.74465869140625,0.47543256941437717,1.518388839702308,-0.63721653804183
1772556663825643800,4.754643798828125,0.3648322600573301,1.4303165884956717,-0.5314882186353206
1772556663835627800,4.764627685546875,0.2029202811360359,0.8753446184203029,-0.535503737886995
1772556663845611800,4.77461181640625,0.030597382837533948,0.09157733671814203,-0.4903310094691813
1772556663855595800,4.784595703125,-0.2916857753038406,-0.24789427211135626,-0.28560324051976205
1772556663865580800,4.794580810546875,-0.49137540395557877,-0.37295769884586333,-0.11767536230981349
1772556663875564800,4.804564697265625,-0.49500586941242214,-0.4774307574942708,-0.013027093224972485
1772556663885548800,4.814548828125,-0.5794803883880376,-0.5088309811472892,0.024419278724491594
1772556663895533800,4.824533935546875,-0.7189701076209545,-0.5147548182383179,0.030944150448590516
1772556663905517800,4.834517822265625,-0.7204109540790319,-0.5081996975064277,0.05076631064116954
1772556663915501800,4.844501708984375,-0.5421411300748586,-0.4796756138116121,0.09244491333290934
1772556663925485800,4.85448583984375,-0.20998481269478797,-0.3970096055626869,0.1641283397965133
1772556663935470800,4.864470947265625,0.24801497588157653,-0.262521932400763,0.20038710939660667
1772556663945454800,4.874454833984375,0.7973439716339111,-0.17636778977513312,0.1946745769686997
1772556663955438800,4.88443896484375,1.2790718418002127,-0.11724661550372838,0.19614947182685136
1772556663965423900,4.894423828125,1.6260376057773827,-0.05141191506832838,0.12046908468157053
1772556663975407900,4.904407958984375,1.8836627060472964,0.02002367411404848,0.011792436863481998
1772556663985391900,4.914391845703125,2.0345207915127275,0.05951192715466022,-0.15619769292771815
1772556663995377000,4.924376953125,2.200543128362298,0.06254881063252687,-0.36875863972082734
1772556664005361000,4.93436083984375,2.359254849937558,0.06765022542476654,-0.6796221398338675
1772556664015345000,4.944344970703125,2.1838561974555253,0.04653057276755571,-0.8833727343142032
1772556664025328600,4.95432861328125,2.069097599375248,-0.02213642848432064,-0.9948600556388497
1772556664035314000,4.96431396484375,2.2164152357548472,0.01606821448653936,-1.009580070386827
1772556664045298000,4.9742978515625,1.9292747026652097,0.1510004165455699,-0.7507234555605798
1772556664055281700,4.98428173828125,1.6401783593326806,0.08613719149082899,-0.5817571742136031
1772556664065267000,4.994266845703125,1.5235533828586338,-0.03518208027929067,-0.40832638773843644
1772556664075251000,5.0042509765625,1.6013772117733955,-0.03404255485534668,-0.46819063546210526
1772556664085234700,5.014234619140625,1.6294214029967784,0.1731926668703556,-0.5114285598924383
1772556664095218700,5.02421875,1.5223182881057262,0.28658728312104936,-0.4141659440794959
1772556664105203700,5.03420361328125,1.551229909813404,0.2544713124141097,-0.32328254444226623
1772556664115187700,5.044187744140625,1.6249410427123308,0.15637567984312772,-0.2034340758770704
1772556664125171700,5.054171630859375,1.542358036571741,-0.008888532115519047,0.048642687817011025
1772556664135156700,5.06415673828125,1.447041221064329,-0.13756927256435156,0.31287973530627783
1772556664145140700,5.074140625,1.262819795179367,-0.11394874300211667,0.47971740712672467
1772556664155124700,5.084124755859375,0.9149287330508231,-0.07727846999168396,0.5416690555837005
1772556664165109800,5.09410986328125,0.4687175819456577,-0.20967413931041956,0.6139944332126528
1772556664175093800,5.10409375,-0.18191607155203818,-0.4016901645943522,0.20320004792548715
1772556664185077800,5.114077880859375,-0.7207990766137838,-0.332000834557414,-0.06307327289804816
1772556664195061800,5.124061767578125,-1.3615402816504238,-0.2049731220126152,-0.03562112928368151
1772556664205046500,5.134046630859375,-1.848198593956232,-0.41745618126392364,-0.09573409107141197
1772556664215030800,5.14403076171875,-2.1484142971962688,-0.44967502782344815,-0.08063764422647654
1772556664225014800,5.154014892578125,-1.9781705432593821,-0.630789719864726,-0.4092869763989001
1772556664234999600,5.16399951171875,-1.4810194785118103,-0.6867875014185905,-0.48944838141575453
1772556664244983600,5.173983642578125,-1.0884060620814562,-1.0881658235847949,-0.6863807472486049
1772556664254967800,5.1839677734375,-0.934185222184658,-1.427857797166705,-1.1346423280775546
1772556664264952600,5.19395263671875,-1.6224071403205393,-1.7703367711186409,-1.2107402099825442
1772556664274936600,5.2039365234375,-2.646710440325737,-2.1686282331854105,-0.8782226580746472
1772556664284920600,5.213920654296875,-3.355822586277127,-2.646521639755368,-0.2063597540654242
1772556664294904800,5.22390478515625,-3.8453210904449224,-2.6915719108372924,0.29410306557863947
1772556664304889600,5.2338896484375,-4.054028138288856,-2.571859489741921,0.6020347500234842
1772556664314873600,5.24387353515625,-3.67973188431561,-2.0241683243244886,0.9382914884597062
1772556664324857600,5.253857666015625,-3.128295687150955,-1.221026772327721,1.2783121094740926
1772556664334842600,5.263842529296875,-2.5620588112175464,-0.3089963910669088,1.3741786678187549
1772556664344826600,5.27382666015625,-3.0925755544722078,0.9304401904374361,1.0063190227642655
1772556664354810600,5.283810546875,-0.8123316974073648,0.8078466609477997,0.8350012098550796
1772556664364794600,5.293794677734375,-0.2919698529422283,1.322391928088665,1.0385480984568596
1772556664374779600,5.303779541015625,-0.5975543897390365,1.4943039074987172,1.1759028514876961
1772556664384763600,5.313763671875,0.18652210404276848,1.3404834650963544,1.1749147172331809
1772556664394747100,5.3237470703125,0.7061077034384012,0.9841489842712878,1.2550181815177202
1772556664404732200,5.333732177734375,0.7883166155695914,0.7095289100587368,1.3122671321764587
1772556664414716200,5.343716064453125,0.9780062437325715,0.3559180089786649,1.3120692715167999
1772556664424700200,5.3537001953125,1.0085913516104221,0.19655513001829383,1.5042451635375618
1772556664434685200,5.363685302734375,0.9798749602138995,0.34774200904667374,1.7350316489815711
1772556664444669200,5.373669189453125,0.920833573180437,0.2816951271653175,1.8251836290717123
1772556664454653200,5.383653076171875,0.8496732938081025,0.43962914236634965,1.8576698943957686
1772556664464637200,5.39363720703125,0.7272562899291515,0.5278372949123382,1.757818358068168
1772556664474622200,5.403622314453125,0.34702713877558705,0.14520312844365835,1.7737445337355136
1772556664484606200,5.413606201171875,0.46997138139903544,0.15664280634671449,1.4201865318864584
1772556664494590200,5.423590087890625,0.8108774069458246,0.7651014519378543,0.8095189780741929
1772556664504575200,5.4335751953125,0.8674772460460662,0.896789849770069,0.29424188952744007
1772556664514559200,5.443559326171875,0.9930687883079051,1.0950777949303387,0.02153174058943987
1772556664524543000,5.45354296875,1.0640613098978995,1.1804378645688294,-0.11425123308002948
1772556664534528300,5.4635283203125,1.2149866153806448,1.0539444050312041,-0.5872074755087494
1772556664544512300,5.47351220703125,1.3639058417379855,1.038319550397992,-0.8478332188993692
1772556664554496000,5.48349609375,1.445396376466751,0.9260115603402257,-0.8788412283644079
1772556664564480000,5.49347998046875,1.5430992103278636,0.5540589468836784,-0.8725070569068193
1772556664574465300,5.50346533203125,1.5245114142358303,0.3062760261923074,-0.8285290912315249
1772556664584449000,5.513448974609375,1.4950380669921635,0.04625526295751333,-0.434151003216207
1772556664594433000,5.52343310546875,1.5008669192761181,-0.07680003882497549,-0.2588148945763707
1772556664604418300,5.533418212890625,1.5314321534097193,-0.13837766633778809,-0.47438043001294133
1772556664614402000,5.543402099609375,1.5447873095452784,-0.2198231928810477,-0.5843944639146328
1772556664624386000,5.553385986328125,1.6924924839377402,-0.1458712369635701,-0.6604273177593946
1772556664634371300,5.563371337890625,1.7724667688846587,-0.05158522580862045,-0.9307336204260587
1772556664644355000,5.57335498046875,1.71629012363255,-0.06326514220833777,-1.1865806051075458
1772556664654339000,5.583339111328125,1.6430951235622167,-0.1194596153780818,-1.1522907974928618
1772556664664323000,5.593322998046875,1.5562404314517975,-0.13863807083964347,-0.9628753100961446
1772556664674308000,5.60330810546875,1.440991419506073,-0.14858634114116429,-0.7617252535030246
1772556664684292000,5.6132919921875,1.3988240103840828,-0.10434709418117999,-0.5393208119571209
1772556664694276000,5.623276123046875,1.384863874092698,-0.032818273757398125,-0.3466466150254011
1772556664704261000,5.63326123046875,1.3049264140248298,-0.003945815016329288,-0.21776830617785453
1772556664714245000,5.6432451171875,0.9591326164364814,-0.006634323447942733,-0.002354161910712719
1772556664724229000,5.65322900390625,0.6114227560937404,-0.10202829584479331,0.2553486797705293
1772556664734214100,5.663214111328125,0.36889819432199,-0.24816753609478473,0.4392258222624659
1772556664744198100,5.6731982421875,0.2962204961240291,-0.38682431163489817,0.4375327546089887
1772556664754182100,5.68318212890625,0.34059389085769654,-0.4379968649893999,0.35974312022477384
1772556664764166100,5.693166259765625,0.2682020238637924,-0.4861164605140686,0.3142594261616468
1772556664774151200,5.703151123046875,0.11879822885990142,-0.4819236849993467,0.321924261701107
1772556664784135200,5.71313525390625,-0.012781155639886856,-0.6476099217623472,0.3784294082552194
1772556664794119200,5.723119140625,0.08754033628702163,-1.0523732101917267,0.542509671126306
1772556664804104200,5.733104248046875,0.21360767936706543,-1.372034787657857,0.7780348755300045
1772556664814088200,5.743088134765625,0.1408463945388794,-1.527656142002344,1.0419549842908977
1772556664824072200,5.753072265625,-0.11711539033949374,-1.7036387318521737,1.4258476263880728
1772556664834057200,5.76305712890625,-0.5969254441857338,-1.865199997639656,1.8850448080554603
1772556664844041200,5.773041259765625,-1.3270856388628482,-1.9700439354270696,2.479775664806366
1772556664854025200,5.783025146484375,-1.965259039238095,-2.0705062971293926,2.988759206166863
1772556664864009200,5.79300927734375,-2.1343132911294695,-1.8544792816609144,3.0310756683707236
1772556664873994200,5.802994140625,-2.0671113939940926,-1.3136059795647859,2.622547182188928
1772556664883978200,5.812978271484375,-1.8899100760042666,-0.6499310581862926,1.7888699144139886
1772556664893962200,5.822962158203125,-1.5411317096471786,-0.017820026589930055,1.0033478979989885
1772556664903947000,5.832947021484375,-1.243539340648055,0.5694885712057352,0.24991233393549916
1772556664913931000,5.842930908203125,-1.1267185493409633,0.958327729794383,-0.3814356043338775
1772556664923915300,5.852915283203125,-1.0902537357747555,1.209905951115489,-0.7691010429680347
1772556664933900000,5.862900146484375,-0.9611287586897611,1.400945824843645,-0.915977073059976
1772556664943884000,5.872884033203125,-0.9710235452383756,1.5932818758621812,-0.8062614375829696
1772556664953868000,5.882867919921875,-1.0334171653091906,1.6657503152236341,-0.5908367719218135
1772556664963852300,5.892852294921875,-1.0035492657899856,1.7053133870661257,-0.4042851495236158
1772556664973837000,5.902837158203125,-0.8912591036498546,1.673072620935738,-0.3308934578374028
1772556664983821000,5.912821044921875,-0.9373223511666059,1.525679288971424,-0.27303806571811434
1772556664993805000,5.92280517578125,-0.9522147998720407,1.3739169481426476,-0.1846031186789274
1772556665003790000,5.9327900390625,-0.7991805394113063,1.2515876225471496,-0.15392477955967188
1772556665013774000,5.942774169921875,-0.6402139662921428,1.1261208757087589,-0.21979221322089432
1772556665023758000,5.952758056640625,-0.42400165738463397,1.041415762847662,-0.35336335605978964
1772556665033743000,5.9627431640625,-0.1080763438373804,1.01631639290452,-0.5251759667485952
1772556665043727000,5.97272705078125,0.12066460725367069,0.9931403922393918,-0.7488885682836175
1772556665053711000,5.982711181640625,0.22493922072052955,0.9562012391597032,-1.007021033553779
1772556665063695000,5.992695068359375,0.3451128295868635,0.9038543813288211,-1.2613105596601963
1772556665073680100,6.00268017578125,0.46564708845913405,0.8471335461974143,-1.4417770169258117
1772556665083664100,6.0126640625,0.6322697292894125,0.8054398920670152,-1.5852026143029332
1772556665093648100,6.022648193359375,0.7821300358891486,0.7168997310876846,-1.7236986463233828
1772556665103633200,6.032633056640625,0.8463549630403518,0.5465072163298725,-1.7618796161577104
1772556665113617200,6.0426171875,0.886260272449255,0.32529607622176404,-1.659436017510295
1772556665123601200,6.05260107421875,0.9624123687595129,0.09056962098032235,-1.4952183919951318
1772556665133586200,6.062586181640625,1.0015385104894639,-0.15612901160568,-1.2796341518580914
1772556665143570200,6.072570068359375,0.9651438395500183,-0.4400225255981087,-1.0469821648031472
1772556665153554200,6.08255419921875,0.8605074070334434,-0.6717310943230986,-0.7870616470724344
1772556665163538200,6.0925380859375,0.7376373986899852,-0.8015633428946137,-0.5233291698381305
1772556665173523200,6.102523193359375,0.6287228504627943,-0.9094716366887092,-0.34033670122623444
1772556665183507200,6.112507080078125,0.5955751986205577,-0.974433938203752,-0.3100906160444021
1772556665193491200,6.1224912109375,0.569539424610138,-0.9272516235291958,-0.36246436188220976
1772556665203476200,6.132476318359375,0.5232482135564088,-0.8451809508249163,-0.48496992082744833
1772556665213460200,6.142460205078125,0.5226116692185402,-0.7172972059726714,-0.5621697726249695
1772556665223444200,6.1524443359375,0.6016887130647898,-0.5756187445238232,-0.6103934130460024
1772556665233429200,6.16242919921875,0.7834843731075525,-0.42184798648208377,-0.7133402850404381
1772556665243413200,6.172413330078125,0.9736422033041715,-0.2336447974845767,-0.8286486259579658
1772556665253397200,6.182397216796875,1.0475918211340904,-0.14219430201649666,-0.9070771427676081
1772556665263381200,6.19238134765625,1.0837971069812773,-0.18460253415703773,-0.8702280060589312
1772556665273366300,6.2023662109375,1.0004238272458315,-0.24143209035992622,-0.6939049322083592
1772556665283350300,6.212350341796875,0.7343570618450641,-0.26783640542179343,-0.4677221411675215
1772556665293334300,6.222334228515625,0.45214638637304305,-0.3146878807067871,-0.3281275002554059
1772556665303319300,6.2323193359375,0.15756547414958477,-0.31699908025860785,-0.17479425684809682
1772556665313303300,6.24230322265625,-0.21575170565843582,-0.2709972075402737,0.04369154994934797
1772556665323287300,6.252287353515625,-0.6070265669614077,-0.29107173505872486,0.2935281883001327
1772556665333272300,6.262272216796875,-0.8881827649444342,-0.34379414820373055,0.5003989606276155
1772556665343256300,6.27225634765625,-1.0761083060443402,-0.4012856754466891,0.5999716800138354
1772556665353240300,6.282240234375,-1.1020856278657913,-0.34110096359699965,0.561771420957148
1772556665363224300,6.292224365234375,-0.9834837983608246,-0.15036913290470838,0.36626287738233804
1772556665373209300,6.302209228515625,-0.8285019109636544,0.01360620828717947,0.028678981995582577
1772556665383193300,6.312193359375,-0.42904432772696016,-0.10458265650272369,-0.4591340533033013
1772556665393176800,6.3221767578125,0.14420213470757007,-0.42398733659833665,-0.9272051540389656
1772556665403161900,6.332161865234375,0.14434943422377108,-0.4372220812246203,-0.8211927569940686
1772556665413145900,6.342145751953125,-0.2288403198122978,-0.815865424491465,-0.25359423731863495
1772556665423129900,6.3521298828125,-0.6849480110317469,-1.3541662457510828,0.5664461347699165
1772556665433115000,6.362114990234375,-1.1523007343649863,-1.7652251271933317,1.4194053183808921
1772556665443099000,6.372098876953125,-1.3851631493002174,-1.8958055637836455,1.9897922997310757
1772556665453083000,6.382082763671875,-1.743840393859148,-1.60036131272912,2.4487802225619553
1772556665463067000,6.39206689453125,-1.6696172197848558,-1.3434288708984852,2.9417689069330692
1772556665473052000,6.402052001953125,-1.6794167292654514,-1.191371346515417,2.899252538242936
1772556665483036000,6.412035888671875,-1.4266349773734808,-0.7400684252291917,2.635501648569107
1772556665493020000,6.42202001953125,-1.244684419029951,-0.36506197715997696,2.0657447818160057
1772556665503004700,6.432004638671875,-0.9659235917508602,0.04421615834534168,1.5277005656659601
1772556665512989000,6.441989013671875,-0.645989627084136,0.5617442406892776,0.9723571319296955
1772556665522973000,6.451972900390625,-0.3033089930802583,1.017603217844665,0.43045682487338777
1772556665532957700,6.461957763671875,0.09244272137582302,1.324542091859877,0.03656593585312366
1772556665542941700,6.471941650390625,0.4356371501207351,1.5032427084967492,-0.1389955059751868
1772556665552926000,6.481926025390625,0.5656839182257652,1.485307823355496,-0.08186988943517208
1772556665562910000,6.491909912109375,0.5464104779571295,1.2862146992921828,0.24064853876680134
1772556665572894700,6.501894775390625,0.5639671774357558,0.9947603946566581,0.6183548934444785
1772556665582878700,6.511878662109375,0.6081149467200041,0.6980585447564721,0.8506979606807231
1772556665592862700,6.52186279296875,0.6146808811068535,0.44250148293226954,0.9052057959377765
1772556665602847700,6.53184765625,0.684268796595931,0.27281185574680566,0.8327499237969517
1772556665612831700,6.541831787109375,0.9162637810468673,0.17646540493071078,0.6663619685053825
1772556665622815700,6.551815673828125,1.1631161428898573,0.10522855319082737,0.4546975321605801
1772556665632800800,6.56180078125,1.3061375433802604,0.09532061489969491,0.2846107223510742
1772556665642784800,6.57178466796875,1.3877216016113758,0.07573240959346295,0.14863134932667016
1772556665652768800,6.581768798828125,1.4819389314442872,0.06889701061546802,0.0299590849339962
1772556665662752800,6.591752685546875,1.5746902803778648,0.13507979383617638,-0.1013815223738551
1772556665672737800,6.60173779296875,1.5597428866147993,0.2344301026433706,-0.22512071476727724
1772556665682721800,6.6117216796875,1.503209683009982,0.3553983690187335,-0.3165180187433958
1772556665692705800,6.621705810546875,1.5082202046483755,0.5029316939756274,-0.39653205117881296
1772556665702690800,6.63169091796875,1.5469535476684568,0.6129010119527578,-0.4465799844175577
1772556665712674800,6.6416748046875,1.4804115757465361,0.6986041959404945,-0.44880847412198777
1772556665722658800,6.651658935546875,1.4169909507155418,0.7516542336046695,-0.4355018333032727
1772556665732643800,6.661643798828125,1.3857038320481776,0.7839420537471771,-0.49027299567162985
1772556665742627800,6.6716279296875,1.2648083386480808,0.8183052188590169,-0.5633449538841844
1772556665752611800,6.68161181640625,1.0913596511900425,0.8521215637430548,-0.633693624612689
1772556665762595800,6.691595947265625,0.9590256489306688,0.868037218016386,-0.6430743241593241
1772556665772580900,6.701580810546875,0.8827069638818502,0.9077557726815343,-0.6283154387056827
1772556665782564900,6.71156494140625,0.8416945700138807,0.8768380718484521,-0.607684154087305
1772556665792548900,6.721548828125,0.8424749067366123,0.729109224319458,-0.6248211668491364
1772556665802534000,6.731533935546875,0.8441308572500944,0.5705266820818186,-0.5706745661199093
1772556665812518000,6.741517822265625,0.747518741235137,0.4258496233388781,-0.457726524592936
1772556665822502000,6.751501953125,0.6145265673279762,0.28706483750492334,-0.32733547309488054
1772556665832487000,6.76148681640625,0.4061474362641573,0.1520718451693654,-0.1900549543440342
1772556665842471000,6.771470947265625,0.2183756244212389,0.04229103550165891,-0.046394379167258734
1772556665852455000,6.781454833984375,-0.0026361937224864958,0.00993102690577507,0.10810440088808536
1772556665862439000,6.79143896484375,-0.0914192235469818,-0.021010639324784277,0.1251364919707179
1772556665872424000,6.801423828125,-0.08002396930754184,-0.09493483045250177,-0.008284721003472804
1772556665882408000,6.811407958984375,-0.0743009154856205,-0.20771277610957622,-0.1819952742680907
1772556665892392000,6.821391845703125,-0.11155249551534652,-0.3453533603444695,-0.31228286539167166
1772556665902377000,6.831376953125,-0.2611182030826807,-0.5411503654718399,-0.2812792398408055
1772556665912361000,6.84136083984375,-0.33662264913916584,-0.9939595996677875,-0.06976940953582525
1772556665922345000,6.851344970703125,-0.13172493045032024,-1.7734902667135,0.08905074084997176
1772556665932330000,6.861330078125,-0.17649638459086417,-2.126783480146527,0.38743104535639283
1772556665942314000,6.87131396484375,-0.798603031784296,-2.098995017249882,0.9763146373838185
1772556665952298000,6.881298095703125,-1.4191700483202934,-2.275219599162042,1.4269681548506021
1772556665962282000,6.891281982421875,-1.8384943615436553,-2.4294436539292334,1.693684616331756
1772556665972267000,6.90126708984375,-2.2398761908411977,-2.4097613405987617,1.7879937161013484
1772556665982251000,6.9112509765625,-2.208649862450361,-2.1138187846332785,1.784152238242328
1772556665992235000,6.921235107421875,-2.4618407796651125,-1.5140806211143731,1.5585086686447263
1772556666002220000,6.931219970703125,-2.5739865648984908,-0.9489069904983043,0.9878864172339439
1772556666012204000,6.9412041015625,-2.3356828356921673,-0.6763681064739823,0.22715981937944887
1772556666022188000,6.95118798828125,-2.220022320336103,-0.06503975066542625,-0.2485840079411864
1772556666032172800,6.9611728515625,-1.9990549258559942,0.6441212028637529,-0.665337301632762
1772556666042157000,6.971156982421875,-1.7138251948237417,1.1530904234379529,-0.963057388664782
1772556666052141000,6.98114111328125,-1.5674164899826049,1.482092076179385,-1.012109004342556
1772556666062125000,6.991125,-1.5139356596857307,1.5951839100912213,-0.9555623567342758
1772556666072109800,7.00110986328125,-1.4384464111983775,1.701353543524444,-0.8569996911734342
1772556666082094000,7.011093994140625,-1.3329986622989176,1.8394626220539212,-0.7360194420993328
1772556666092078000,7.021078125,-1.200780395373702,1.8826552825704217,-0.6316039588570594
1772556666102062800,7.031062744140625,-1.1609025584936141,1.8370844947457312,-0.536959635783732
1772556666112046800,7.041046875,-1.09332247569561,1.6670993917450307,-0.49260728383809327
1772556666122030800,7.05103076171875,-0.8532926533490419,1.3898650433808564,-0.46214609460085626
1772556666132015900,7.061015869140625,-0.5792512558072805,1.1371870441243053,-0.4662406704381108
1772556666141999900,7.070999755859375,-0.29283903699219227,0.927616657449305,-0.5415732670590281
1772556666151983900,7.08098388671875,0.007864157503843307,0.8150801193326711,-0.6821773772746325
1772556666161967900,7.0909677734375,0.22749825755357742,0.7129439791992306,-0.837132084403932
1772556666171953000,7.100952880859375,0.4060246866673231,0.5656970699682832,-0.9801938169047236
1772556666181937000,7.11093701171875,0.5356365704864263,0.42383477638512845,-1.0799249417230485
1772556666191920600,7.120920654296875,0.5994552549242973,0.3082899963632226,-1.1387915567114948
1772556666201906000,7.130906005859375,0.6279150412112474,0.20434242289364338,-1.1629498464122414
1772556666211890000,7.140889892578125,0.6670891137361527,0.05125350963622331,-1.180910742777586
1772556666221873700,7.150873779296875,0.7144839021176099,-0.023633096782863138,-1.1618699422210454
1772556666231857700,7.160857666015625,0.7676490905940532,-0.08073796279579401,-1.1370184095591307
1772556666241843000,7.170843017578125,0.8608733177363872,-0.1901151600986719,-1.1317407614171504
1772556666251826700,7.18082666015625,0.9322469475984573,-0.2908566310033202,-1.0918448043584823
1772556666261810700,7.190810791015625,0.9850094004929065,-0.37733226066827774,-1.0078092613220215
1772556666271796000,7.2007958984375,1.0415700766265392,-0.43351533566117284,-0.9779740950286387
1772556666281779700,7.21077978515625,1.0696657057762144,-0.44115532902032134,-0.9271163067117333
1772556666291763700,7.220763671875,1.0704489651083946,-0.45756022811532016,-0.8437170157521963
1772556666301748700,7.230748779296875,1.09960725505352,-0.514987750211358,-0.7852914225295186
1772556666311732700,7.240732666015625,1.1455869159400462,-0.495422048997879,-0.755888802434504
1772556666321716700,7.250716796875,1.1570657568097114,-0.4752691955462098,-0.6963008874341845
1772556666331700700,7.26070068359375,1.2249895384788512,-0.5280027146071196,-0.6656088120505214
1772556666341685800,7.270685791015625,1.3285937053382395,-0.5585460291698575,-0.6443111724779009
1772556666351669800,7.280669677734375,1.3946353265225886,-0.6168462424471974,-0.5916618245691061
1772556666361653800,7.29065380859375,1.3543120839625595,-0.6765265119060874,-0.4712815872147679
1772556666371638800,7.300638671875,1.2363526440143584,-0.7562605583563446,-0.314846578399837
1772556666381622800,7.310622802734375,1.1202274337559939,-0.8054930835589766,-0.15917203256338833
1772556666391610000,7.320610107421875,0.9965759196460247,-0.7874474315196275,-0.03480038748532534
1772556666401594000,7.330593994140625,0.9108703975707292,-0.8210238301679491,0.010289631085097789
1772556666411579100,7.3405791015625,0.7682084780424833,-0.8353700431674719,0.024441782817244528
1772556666421563100,7.350563232421875,0.5064496389687061,-0.8334794071152806,0.0337301279053092
1772556666431547100,7.360547119140625,0.18046704178750514,-0.8319301318466663,0.13048077560812235
1772556666441532200,7.3705322265625,-0.24608605364561079,-0.7858642539814115,0.3132151778057217
1772556666451516200,7.38051611328125,-0.702090869012475,-0.7447945769682526,0.5181953140810132
1772556666461500200,7.390500244140625,-1.019973746368289,-0.6281999956324696,0.6863891497507691
1772556666471485200,7.400485107421875,-1.1831558913558722,-0.4428928203374147,0.6853796804472804
1772556666481469200,7.41046923828125,-1.3077075691759585,-0.28246348118931053,0.5302253590926528
1772556666491453200,7.420453125,-1.2030547700464724,-0.47648353977203367,0.22591332644969223
1772556666501437200,7.430437255859375,-0.9521130930632352,-0.8879138848751783,-0.27392040151059627
1772556666511422200,7.440422119140625,-1.1417723260879515,-0.8128612742394209,-0.47790801961719986
1772556666521406200,7.45040625,-1.3667664918661118,-0.9991989616259932,-0.21988164507001637
1772556666531390200,7.46039013671875,-1.6511089186698198,-1.6366595375567674,0.2530719670102
1772556666541375200,7.470375244140625,-2.426551439619064,-1.7635808671176432,0.9974228918641805
1772556666551359200,7.480359130859375,-3.2875872544407843,-1.3651950047656893,2.0628172039315102
1772556666561343200,7.49034326171875,-3.7133635202825066,-1.2340510890737175,2.9333570524185895
1772556666571327200,7.5003271484375,-3.6440666966944932,-1.185888238929212,3.1562808416634796
1772556666581312300,7.510312255859375,-3.0567998922139403,-0.6630594198286534,2.7413451187878843
1772556666591296300,7.520296142578125,-2.2499644541352986,0.13424363527297972,2.07859578782171
1772556666601280300,7.5302802734375,-1.3196791619986294,0.9074760789573192,1.1367594663619995
1772556666611265300,7.540265380859375,-0.45159810484051705,1.5113719466775655,0.3590431552618742
1772556666621249300,7.550249267578125,0.2162222457796335,1.9115479073166846,-0.13129910625368357
1772556666631233300,7.5602333984375,0.6951485025286674,2.0682626098558305,-0.409465767031908
1772556666641217300,7.57021728515625,0.9012912528425454,1.991106597200036,-0.4289920130178332
1772556666651202300,7.580202392578125,0.8402624913841485,1.7560969411030412,-0.1451332780778408
1772556666661186300,7.590186279296875,0.7303034025400876,1.4549796128481625,0.23580285230129955
1772556666671170300,7.60017041015625,0.6270844356060028,1.0887798638299107,0.6039069736361503
1772556666681155300,7.6101552734375,0.4827957916587591,0.768535225778818,0.9892655966326593
1772556666691139300,7.620139404296875,0.32444179747998714,0.5742039092898369,1.3301038176402449
1772556666701123300,7.630123291015625,0.1755243246883154,0.43985593685954805,1.4629428468123078
1772556666711108000,7.640108154296875,-0.000751110628247261,0.15580664778351783,1.421278126515448
1772556666721092400,7.65009228515625,-0.0619049597710371,-0.132118898203969,1.2203528185889123
1772556666731076400,7.660076416015625,-0.04251987582147121,-0.3061582450315356,0.8202411553576588
1772556666741060000,7.67006005859375,0.08600538180470466,-0.30054098967164755,0.35433161657005546
1772556666751045000,7.680045166015625,0.3760965813934803,-0.11599953805208206,0.012050503277778625
1772556666761029000,7.690029052734375,0.6770540429115295,0.042184944778680795,-0.29243951628059145
1772556666771013000,7.70001318359375,0.9617337388455868,0.15304828898608683,-0.5379194207265973
1772556666780998100,7.709998046875,1.2336691040188072,0.19781214434206484,-0.701563045746088
1772556666790982000,7.71998193359375,1.3987941997677087,0.24807138224393127,-0.7451987738549709
1772556666800966100,7.729966064453125,1.4433482117652892,0.2584448922201991,-0.7112003504022956
1772556666810950100,7.7399501953125,1.4390572365731,0.270327053193748,-0.664919368481636
1772556666820935000,7.749934814453125,1.436681155091524,0.24787352158427237,-0.6997440136253833
1772556666830919000,7.7599189453125,1.4157026644706725,0.2718573315009475,-0.8098989173024892
1772556666840903200,7.769903076171875,1.3833072923004626,0.3136766578376293,-0.8948430996164679
1772556666850888000,7.779887939453125,1.325114631050825,0.3007493717253208,-0.9451616664901376
1772556666860872000,7.789871826171875,1.3042571364611386,0.25018618244081736,-0.9761346046417951
1772556666870856000,7.79985595703125,1.3910703275173901,0.231624397572875,-1.0564031963601708
1772556666880840000,7.80983984375,1.4516986914813517,0.25400632525086403,-1.085947855274379
1772556666890825000,7.819824951171875,1.3883423638582228,0.2900789246290922,-1.0597831941872835
1772556666900809000,7.82980908203125,1.3625444902569055,0.37494390422701834,-1.0533277344375849
1772556666910793000,7.83979296875,1.4298258823692798,0.4180854190781712,-1.1076388780787587
1772556666920778000,7.849778076171875,1.364100487527251,0.4652458141818642,-1.1378127748072147
1772556666930762000,7.859761962890625,1.2273439926505088,0.490946072627604,-1.074722696904838
1772556666940746000,7.86974609375,1.165250232309103,0.47334699531197544,-1.0188239918112754
1772556666950730000,7.87972998046875,1.0349509507477284,0.5086334127485752,-1.0277198304504156
1772556666960715000,7.889715087890625,0.7844634472727775,0.5425353900894523,-1.0006047367706894
1772556666970699000,7.899698974609375,0.5778729531913995,0.5256412461727857,-0.9309691827476024
1772556666980683000,7.90968310546875,0.3681973525762558,0.5126864875316619,-0.8725313145652412
1772556666990668000,7.91966796875,0.16256488987207413,0.4290720925167203,-0.732477239447832
1772556667000652000,7.929652099609375,0.04291910427212715,0.353584597595036,-0.6003858137726783
1772556667010636000,7.939635986328125,-0.17179682859778403,0.3163686734005809,-0.49234600255340333
1772556667020620000,7.9496201171875,-0.4576899919748306,0.14438509005904196,-0.3532935056939721
1772556667030605000,7.95960498046875,-0.4817582653045654,-0.4386559134200215,-0.270155496019125
1772556667040589000,7.969589111328125,-0.30913141562342644,-1.3717854890719055,-0.2202808735206723
1772556667050573000,7.979572998046875,-0.7120300792247056,-1.7376190351262688,0.14265344396084545
1772556667060558000,7.98955810546875,-1.4611013105988502,-1.626790762232244,0.8680927475959062
1772556667070542000,7.9995419921875,-1.9125772503644227,-1.6929577633619308,1.373990597900748
1772556667080524300,8.009524169921875,-2.3797224684268237,-1.7762068321958184,1.5974211676239967
1772556667090508300,8.01950830078125,-2.9824516304552553,-1.6109727231144904,1.8137655784785747
1772556667100493300,8.029493408203125,-3.2541116858184336,-1.2753013833507896,1.8763778097361326
1772556667110477300,8.039477294921875,-3.166778270280361,-0.9712547236457466,1.5760744282126427
1772556667120461300,8.04946142578125,-2.9506606539189812,-0.6628431467294693,1.0007605118542908
1772556667130446000,8.059446044921875,-2.5272610540807245,-0.20204642091095446,0.21627368370592592
1772556667140430300,8.069430419921876,-1.9756103373825549,0.3230138105034828,-0.4710492397636175
1772556667150414300,8.079414306640626,-1.4501087919414042,0.7336015673026443,-0.9519348138868808
1772556667160398000,8.089398193359376,-1.0005676196306943,0.9546019872695207,-1.2240399826690553
1772556667170383000,8.099383056640624,-0.7840250558555125,1.0247674103856086,-1.2306088396653532
1772556667180367000,8.1093671875,-0.794800132369995,1.058131627587974,-0.8859276794940233
1772556667190351000,8.11935107421875,-0.89596742747128,0.9896826530009507,-0.3639733051404357
1772556667200336100,8.129336181640625,-0.9300538214683532,0.813651840095222,0.02377630464583635
1772556667210320100,8.139320068359375,-0.7979074507355689,0.6927335503414273,0.2810650125682354
1772556667220304100,8.14930419921875,-0.5576011495351791,0.6803530844569206,0.3416147583380341
1772556667230288100,8.1592880859375,-0.28211189127266406,0.6466784861311317,0.25769816550612445
1772556667240273200,8.169273193359375,0.033760815304517744,0.5796297337308526,0.08327361875325441
1772556667250257000,8.1792568359375,0.3695879301518202,0.49471623881608245,-0.16004647731035948
1772556667260241200,8.1892412109375,0.7118851177960633,0.445523753362894,-0.3764329737409949
1772556667270226200,8.19922607421875,0.9463526298403739,0.36834085270017386,-0.5525011960476637
1772556667280210000,8.2092099609375,1.0111527265310287,0.2239370579406619,-0.6971025592058897
1772556667290194000,8.21919384765625,0.9975316129356622,0.06603811405301094,-0.7426438286751508
1772556667300178200,8.22917822265625,1.0640314992815256,-0.010693535710871218,-0.7170262800768017
1772556667310163000,8.239162841796874,1.1454080522418022,-0.06943798562437295,-0.7070628122061491
1772556667320147000,8.24914697265625,1.1139847399741412,-0.21534137129187583,-0.6712967945590614
1772556667330131000,8.259130859375,1.1472802758544682,-0.28297932175695895,-0.6452686193332076
1772556667340115000,8.269114990234375,1.1819780797481536,-0.21653788760006426,-0.7013195923790335
1772556667350100000,8.279099853515625,1.1524702457129954,-0.217860660636425,-0.7551812386870383
1772556667360084000,8.289083984375,1.0648796405434608,-0.23904928687661886,-0.8231006364420056
1772556667370068000,8.29906787109375,1.0415309136599302,-0.22793255731761455,-0.9492904368579387
1772556667380053000,8.309052978515625,1.0450661020487546,-0.176496676851809,-1.0235694327726959
1772556667390037000,8.319037109375,0.9215081114411353,-0.14398060091137885,-0.9728034143924713
1772556667400017200,8.32901708984375,0.7984189073890448,-0.19022826508432625,-0.8466907708659768
1772556667410002200,8.339002197265625,0.7495119608789682,-0.22391572289168835,-0.7216428339615464
1772556667419986200,8.348986083984375,0.7488888605445623,-0.21471301026046274,-0.6573927723690867
1772556667429970200,8.35897021484375,0.811534994071722,-0.20482173084318636,-0.6773629627302289
1772556667439954200,8.3689541015625,0.8480079909443855,-0.19518881010115147,-0.7596540001869201
1772556667449939200,8.378939208984375,0.8799462669968604,-0.2525339146107435,-0.8723618032172322
1772556667459923200,8.388923095703126,0.9162731333971023,-0.3620420448169112,-0.9882023513153195
1772556667469907200,8.3989072265625,0.9068447953164577,-0.463815781378746,-1.0326254304096103
1772556667479891200,8.40889111328125,0.8970850333243608,-0.5126087461203337,-0.9469421201661229
1772556667489879000,8.418879150390625,0.9704682494431733,-0.5343924156442285,-0.8510363988548517
1772556667499863000,8.428863037109375,0.9988882882416248,-0.5173717227384448,-0.8047410961478948
1772556667509847000,8.438846923828125,0.8236252448379993,-0.5568789727404714,-0.7117457093253732
1772556667519832000,8.44883203125,0.5755073931038379,-0.6877975552439689,-0.5433408612534404
1772556667529816000,8.458816162109375,0.26949323271811004,-0.7950716427877544,-0.34189562110602856
1772556667539800000,8.468800048828125,-0.11983517069220542,-0.9019099692627787,-0.1430579331085086
1772556667549785000,8.47878515625,-0.4862099840164184,-0.9460098077520728,0.042268239147961136
1772556667559769000,8.48876904296875,-0.9062000676721333,-0.8937088348895311,0.22971622586399315
1772556667569753000,8.498753173828124,-1.2035831778347492,-0.8039274416774511,0.29782208610177036
1772556667579737000,8.508737060546874,-1.5709961020350456,-0.5918062014758586,0.24364450571238994
1772556667589722000,8.51872216796875,-1.5448837556570767,-0.44771308010071514,0.06536971327215432
1772556667599706000,8.5287060546875,-1.2200824772149323,-0.9426111052244901,-0.1947428198993206
1772556667609690000,8.538690185546875,-1.5095646049946545,-0.8101078838780522,-0.13127806346565485
1772556667619675100,8.548675048828125,-1.6639298217982053,-0.8178802714452147,-0.07974515236616134
1772556667629659100,8.5586591796875,-1.8281945013254879,-1.0144619972094893,0.2500420977950096
1772556667639643100,8.56864306640625,-2.337135957109928,-0.9280755071327089,0.7046563355863094
1772556667649627100,8.578627197265625,-2.7726439278930424,-0.7531514864251018,1.253502223996818
1772556667659612200,8.588612060546875,-2.921378445333242,-0.6785659087792039,1.7607628870874643
1772556667669596200,8.59859619140625,-3.003528320753574,-0.61513505461514,2.126194574342668
1772556667679580200,8.608580078125,-3.0074913791656495,-0.44400604227632284,2.2779978317037224
1772556667689565200,8.618565185546874,-2.8605098428726197,-0.1132198442056775,2.133121450996399
1772556667699549200,8.628549072265624,-2.544862177222967,0.32661212725639344,1.810564736610651
1772556667709533200,8.638533203125,-2.0921254237413405,0.7452206934258341,1.5177710000649094
1772556667719517200,8.64851708984375,-1.5801351017802954,1.1303192041814327,1.107248417456448
1772556667729502200,8.658502197265625,-0.9854694192200899,1.3712708175480366,0.61197366797477
1772556667739486200,8.668486328125,-0.47089141885340213,1.4925225770398973,0.24580197600722312
1772556667749470200,8.67847021484375,-0.12897826209068297,1.4858248329669237,0.060895490467548365
1772556667759454200,8.6884541015625,-0.007364975810050964,1.3551619787901639,0.0816249747633934
1772556667769439200,8.698439208984375,0.030296938586235046,1.0271864542260765,0.3821048818975687
1772556667779423200,8.70842333984375,0.07669336358010768,0.7512865693360566,0.6987927042499185
1772556667789407200,8.7184072265625,0.11026713187992572,0.5519467770352959,0.8514820967957377
1772556667799392300,8.728392333984376,0.14833002829253672,0.26368805357068775,0.9659244685336947
1772556667809376300,8.738376220703126,0.15309738882482052,0.01545534328520298,0.9857058583244681
1772556667819360300,8.7483603515625,0.20786767441034315,-0.22854572077989577,0.9130661540493369
1772556667829344300,8.75834423828125,0.35392391255199906,-0.33016748165041204,0.6921636414989829
1772556667839329300,8.768329345703124,0.5392307955861091,-0.249946236205101,0.3895458455532789
1772556667849313300,8.778313232421874,0.7701999441206455,-0.07049772381037474,0.06267915901392698
1772556667859297300,8.78829736328125,0.964843979820609,0.06053074880838394,-0.20953648440539835
1772556667869282300,8.7982822265625,1.1056319221705198,0.12485446015894412,-0.3816623988270759
1772556667879266300,8.808266357421875,1.2727321173846722,0.22439444631934163,-0.4806891747683286
1772556667889250300,8.818250244140625,1.4339648818701505,0.31742724254280325,-0.5960238191708922
1772556667899234300,8.828234375,1.562914502388239,0.37251521577537056,-0.7089031793758273
1772556667909219300,8.83821923828125,1.6528239058941603,0.42157326119393107,-0.7751777325332164
1772556667919203300,8.848203369140625,1.7409610390305519,0.4489233326733112,-0.8029232330709696
1772556667929187300,8.858187255859375,1.754216826444864,0.46351738295406103,-0.8327882099807262
1772556667939171300,8.86817138671875,1.6585224097967146,0.42734512259364127,-0.8421922904029489
1772556667949156400,8.87815625,1.5697130764871834,0.36711511029750105,-0.8681208046466111
1772556667959140400,8.888140380859374,1.5153051944732665,0.35008448051959273,-0.9587444939017296
1772556667969124400,8.898124267578124,1.4714163683861494,0.331275442892313,-1.0504296749085187
1772556667979109400,8.908109375,1.395619076862931,0.2655859961465001,-1.086964338840544
1772556667989093400,8.91809326171875,1.2769792534351347,0.19136662146449088,-1.0205734658271073
1772556667999077400,8.928077392578125,1.1787684700518846,0.24761545516997574,-0.9635188686966896
1772556668009061400,8.938061279296875,1.1469570352494716,0.4117819350197911,-0.9275845087453722
1772556668019046400,8.94804638671875,1.2118290281325579,0.48854105731248854,-0.9945771470442414
1772556668029030400,8.958030517578125,1.243373336431384,0.49616088466644287,-1.102938737563789
1772556668039014400,8.968014404296875,1.236910862419009,0.45679099730849265,-1.1899059501379727
1772556668048998400,8.977998291015625,1.0887000765919685,0.44283845980167386,-1.1442813862994312
1772556668058983400,8.9879833984375,0.8284767765223979,0.45758360899090766,-0.963536696614325
1772556668068967400,8.997967529296876,0.5263818354070187,0.40979017668068407,-0.7560726345688105
1772556668078951400,9.007951416015626,0.2564128018707037,0.353321562744677,-0.567381369793415
1772556668088936400,9.0179365234375,0.10133037670850753,0.3417643959417939,-0.49948301482647656
1772556668098920400,9.02792041015625,-0.00229658650457859,0.3186936092168093,-0.5226502476632595
1772556668108904400,9.037904541015624,-0.16101532234251498,0.20184797572940588,-0.49176001935899255
1772556668118888200,9.04788818359375,-0.38889819529950614,-0.00438449869453907,-0.32271716564446684
1772556668128873500,9.05787353515625,-0.6351356401145458,-0.25362258663028475,-0.09663812723904848
1772556668138857500,9.067857421875,-0.820494545596838,-0.5554106537535787,0.14226502916514872
1772556668148841200,9.07784130859375,-0.7629927892208099,-1.1187269660651684,0.31352088275402784
1772556668158826200,9.087826171875,-0.5174374814510345,-1.91896987401098,0.4165408199846744
1772556668168810200,9.097810302734375,-0.7207604981690645,-2.1364786524698136,0.6890268047779798
1772556668178794200,9.107794189453125,-1.3413760300219058,-2.0439900461256504,1.17106534832865
1772556668188778200,9.1177783203125,-1.7348966244250534,-2.2299919256865977,1.5264835910916328
1772556668198763000,9.127762939453126,-2.047764888489246,-2.4987600590005514,1.679439817880094
1772556668208747300,9.137747314453126,-2.559498605340719,-2.45218447804749,2.0115794763863084
1772556668218731300,9.147731201171876,-3.0008009416162964,-2.1109210173651576,2.4172730314031243
1772556668228715300,9.15771533203125,-2.9728040966659783,-1.7617498522982,2.3721909038782116
1772556668238700000,9.167699951171874,-2.593513103145361,-1.3302651456817984,1.8568012948676942
1772556668248684300,9.177684326171875,-2.0297049156636,-0.7458633752435445,1.1144938585400581
1772556668258668300,9.187668212890625,-1.390612062355876,-0.09770254160016774,0.2755760597631335
1772556668268653000,9.197653076171875,-0.8269652029156684,0.5263850502774119,-0.48509091685861344
1772556668278637000,9.207636962890625,-0.5006447520822286,0.9941244348406791,-0.9538093755871057
1772556668288621300,9.217621337890625,-0.35945348962843415,1.2341823142379522,-1.031812360461056
1772556668298605300,9.227605224609375,-0.33139410083591936,1.2551277793720363,-0.7942386990949512
1772556668308590000,9.237590087890625,-0.33888357980847356,1.2657207773178816,-0.4273837010383606
1772556668318574000,9.247573974609375,-0.2816717462897301,1.233334172976017,-0.14227993447333573
1772556668328558000,9.25755810546875,-0.11041267783045768,1.1362775280639528,0.1613157665938139
1772556668338542300,9.267542236328126,0.1678980675935745,1.0822279579684138,0.29512013366669415
1772556668348527000,9.277527099609374,0.4669610936671495,1.0432765882834791,0.23741613271683454
1772556668358511000,9.287510986328124,0.6790139448076487,0.969195160767436,0.15892974824011324
1772556668368495000,9.2974951171875,0.8382540741711855,0.8503285428464412,0.09166296917498111
1772556668378480000,9.307480224609375,0.973316624611616,0.6840566151499747,0.021317513316869735
1772556668388464000,9.317464111328125,1.0920061324000359,0.5720709889143705,-0.10271627810895442
1772556668398448400,9.327448486328125,1.2385527844071387,0.4663724801242351,-0.22367753022164105
1772556668408432400,9.337432373046875,1.2871347367465495,0.30916327206641436,-0.250093535721302
1772556668418417400,9.34741748046875,1.2658178079515694,0.22284049487560986,-0.20886399197131394
1772556668428401400,9.3574013671875,1.2015367666989565,0.1692494822025299,-0.18538111731410026
1772556668438385400,9.367385498046875,1.1722539735913275,0.1170820725917816,-0.23660101694166658
1772556668448369400,9.377369384765625,1.1446288845628498,0.07370557994097471,-0.33723756616711614
1772556668458354400,9.3873544921875,1.0971201144129037,0.009943009604513645,-0.45050884829908605
1772556668468338400,9.39733837890625,1.1342489448457955,-0.09765607210993767,-0.6599050474509597
1772556668478322400,9.407322509765624,1.2649369334638119,-0.1886041710138321,-0.8988511662140488
1772556668488307500,9.417307373046874,1.2297387788325547,-0.1748284513786435,-0.9481526649996638
1772556668498291500,9.42729150390625,1.1379729338049889,-0.11199614762961864,-0.8469643271103501
1772556668508275500,9.437275390625,1.0387836607784031,-0.07995587250739336,-0.7146399694621562
1772556668518259500,9.447259521484375,0.9873106631726026,-0.050153147178888316,-0.6374003701761365
1772556668528244500,9.457244384765625,0.9547352582603692,-0.059465457664430135,-0.6044400575995444
1772556668538228500,9.467228515625,0.9052817837834358,-0.21210808845907447,-0.6567421995058655
1772556668548212500,9.47721240234375,0.8576233760297298,-0.3608876140847802,-0.7653644867882132
1772556668558196500,9.487196533203125,0.7806850977778435,-0.46369946152269836,-0.8428349722206592
1772556668568181500,9.497181396484375,0.8416419630438089,-0.5373293458789586,-0.9127999043285846
1772556668578165500,9.50716552734375,1.0127081392794848,-0.471665618096292,-1.0703481350824235
1772556668588149500,9.5171494140625,1.1212895100295543,-0.4333002316057682,-1.1609686094671487
1772556668598133500,9.527133544921876,1.131765895858407,-0.43542642997950315,-1.089320984969288
1772556668608118500,9.537118408203124,1.191791033232212,-0.4219456016376614,-0.9110540835745632
1772556668618102500,9.5471025390625,1.214661621209979,-0.4424912537992,-0.6747330526180565
1772556668628086500,9.55708642578125,1.2031933017343281,-0.5311532875925302,-0.43457390480339525
1772556668638071600,9.567071533203125,0.967992214718461,-0.6720937901556492,-0.04768865676149726
1772556668648055600,9.5770556640625,0.562312395966053,-0.7610264575839042,0.3361754898935556
1772556668658039600,9.58703955078125,0.2973375174552202,-0.6859907980829477,0.5215069228470325
1772556668668023600,9.5970234375,0.15137947899103163,-0.5578153768077493,0.36812297216579315
1772556668678008600,9.607008544921875,-0.18651216717064378,-0.4404691003218293,0.1614914154216647
1772556668687992600,9.61699267578125,-0.44666474009156226,-0.2901458523854613,-0.054849196040630335
1772556668697976600,9.6269765625,-0.7212608489066362,-0.17150924382805824,-0.2785416315704584
1772556668707960600,9.636960693359375,-0.9943412924617528,-0.13265665834248064,-0.4972510179907083
1772556668717945600,9.646945556640626,-0.9029694151878357,-0.22822744861096142,-0.5467183748625218
1772556668727929600,9.6569296875,-0.36451661823689935,-0.5928232695639133,-0.5237466645978391
1772556668737913600,9.66691357421875,-0.559113892185688,-0.6286056538239121,-0.40398207492381333
1772556668747898600,9.676898681640624,-1.1744225498020648,-0.7387906603783368,-0.12928513608276843
1772556668757882600,9.686882568359374,-1.4694231487423182,-1.118061780154705,0.197989985127002
1772556668767866600,9.69686669921875,-2.0536802500128744,-1.2425772176176308,0.41473435508459805
1772556668777850600,9.7068505859375,-2.6189596790909766,-1.272612582658231,0.5395126812674105
1772556668787835600,9.716835693359375,-2.959529020029306,-1.0530854501143097,0.799253896908462
1772556668797819600,9.726819580078125,-3.237193868765235,-0.7461699569746851,1.0887263800770044
1772556668807803600,9.7368037109375,-3.352342342945933,-0.32686756332218647,1.3216092532783745
1772556668817787600,9.74678759765625,-3.1196599607527253,0.25163638124912974,1.4763085243418812
1772556668827772700,9.756772705078125,-2.717708807134628,0.7709153989136218,1.4825066483296454
1772556668837756700,9.766756591796875,-2.137164588907361,1.1341057369828222,1.2466254700951278
1772556668847740700,9.77674072265625,-1.3574562272071837,1.3816022419482468,0.8815016797453165
1772556668857724400,9.786724365234376,-0.5724965208500623,1.490160524083674,0.4748813652724027
1772556668867709700,9.796709716796874,-0.1392816294401884,1.4263538223445416,0.17317600799649951
1772556668877693700,9.806693603515624,-0.1397650290429592,1.245874213336408,0.12918269862160087
1772556668887677400,9.816677490234374,-0.43677872137129303,0.9414391388356685,0.37018794187158344
1772556668897662700,9.826662841796875,-0.7515934433281422,0.5190478392571211,0.8166605203919112
1772556668907646700,9.836646728515625,-0.9309697672694921,0.14545213476866484,1.1955602495726196
1772556668917630500,9.84663037109375,-0.8841559936463832,-0.09107406337112188,1.3482985227614641
1772556668927614500,9.856614501953125,-0.6723264298677444,-0.34432927799373864,1.2108373867467046
1772556668937599500,9.866599609375,-0.4295341570705175,-0.5762897756531834,0.9056247520022094
1772556668947583500,9.87658349609375,-0.15719254918396472,-0.6714288965061307,0.5829128470547497
1772556668957567500,9.8865673828125,0.11644260564446449,-0.5574509274095296,0.30937866838276384
1772556668967551500,9.896551513671875,0.40519408106207844,-0.3325891558393836,0.006881283946335315
1772556668977536500,9.90653662109375,0.7098328614413738,-0.12526917843967675,-0.34829416303671895
1772556668987520500,9.9165205078125,0.9719406600832938,0.042130584242939945,-0.579304812625423
1772556668997504500,9.92650439453125,1.1341975069195032,0.1850391720086336,-0.6478835510719567
1772556669007488500,9.936488525390626,1.2271639599084854,0.25243162328004837,-0.534994253994897
1772556669017473500,9.9464736328125,1.2635796736359595,0.19413199452459812,-0.26413974286094305
1772556669027457500,9.95645751953125,1.355613229689002,0.1788762654647231,0.036814065395295616
1772556669037441500,9.966441650390625,1.4055886822134256,0.2507899935528636,0.2436111879646778
1772556669047426600,9.976426513671875,1.436718564492464,0.3693611356586218,0.36611630851849913
1772556669057410600,9.98641064453125,1.4912164628773927,0.5727569253519177,0.3908249986436218
1772556669067394600,9.99639453125,1.5185259100854396,0.7467918882653116,0.3041141719833016
1772556669077378600,10.006378662109375,1.4562942025780676,0.893403129941225,0.17206424736231565
1772556669087363600,10.016363525390625,1.3975538443177937,1.0142197128862143,-0.002779839976876974
1772556669097347600,10.02634765625,1.3446744870454073,1.0571668742090463,-0.14518902685306964
1772556669107331600,10.03633154296875,1.2876923706293106,1.065940547773242,-0.2111779680021107
1772556669117315600,10.046315673828126,1.2847393660426139,1.059563998478651,-0.22805158058740196
1772556669127300600,10.056300537109376,1.3294763333916664,0.9190762081190943,-0.2920635225750506
1772556669137284600,10.06628466796875,1.3809651130884886,0.714882838307321,-0.39048100751154124
1772556669147268600,10.0762685546875,1.406947111085057,0.5860775946959853,-0.42983460132181645
1772556669157252600,10.086252685546874,1.3628577939897775,0.4634627301573753,-0.4137106380600482
1772556669167237600,10.096237548828125,1.1973106734365224,0.3612786592289805,-0.39775567468963563
1772556669177221600,10.1062216796875,0.9686895493328571,0.412776206754148,-0.3640814416900277
1772556669187205600,10.11620556640625,0.7573474768102169,0.5921630520895124,-0.34908363291397687
1772556669197190400,10.1261904296875,0.725315677255392,0.8038868174061179,-0.4361786365862936
1772556669207174700,10.136174560546875,0.7690209634691476,0.886840118163824,-0.6106219611048698
1772556669217158700,10.14615869140625,0.7402420282304286,0.8134677156999707,-0.7463143338814378
1772556669227142700,10.156142578125,0.4403349525481462,0.5631579068794846,-0.7732682456500828
1772556669237127400,10.16612744140625,-0.09381284068524837,0.19062720127403734,-0.7131152441129088
1772556669247111700,10.176111572265626,-0.5297042578279971,-0.23060119200497864,-0.5128986689776182
1772556669257095700,10.186095703125,-0.7260837390184403,-0.8085112623363733,-0.2753422510072589
1772556669267079700,10.19607958984375,-0.3731862469047308,-1.8103019940212368,-0.18100655549168584
1772556669277064400,10.206064453125,-0.21419453934431074,-2.411980770213902,0.019329846630990504
1772556669287048700,10.216048583984374,-0.9825129075020551,-1.9536437125071882,0.48669002261832356
1772556669297032700,10.22603271484375,-1.5066589466810225,-1.6493173590779304,0.8448321373872458
1772556669307016700,10.2360166015625,-1.4850509259849787,-1.7816931546524166,0.7453706232905387
1772556669317001500,10.24600146484375,-1.4756921460092067,-1.9024892793312667,0.45689285024777054
1772556669326985500,10.2559853515625,-1.7874901504933833,-1.3154101063773036,0.3569191488452256
1772556669336969700,10.2659697265625,-2.3001205239236353,-0.3028475130483508,0.2419746728040278
1772556669346953700,10.27595361328125,-2.547083360403776,0.21491437805145977,-0.08278510458394885
1772556669356938500,10.2859384765625,-2.3652052827745673,0.2840437361180782,-0.5175063089035451
1772556669366922500,10.295922607421875,-1.9733838935047388,0.26224194641560317,-0.9271480170242488
1772556669376906800,10.30590673828125,-1.6515052245110273,0.39762627615630625,-1.116174724299088
1772556669386891500,10.3158916015625,-1.403161747327447,0.5450280836880207,-1.1539168643247335
1772556669396876300,10.325876220703124,-1.1926701541543006,0.4939943542823195,-1.120504424066469
1772556669406860300,10.3358603515625,-1.0622498765617607,0.4789057984828949,-0.9741398506280035
1772556669416844300,10.34584423828125,-0.8939894053965807,0.4664148579612374,-0.7135896566916257
1772556669426829300,10.355829345703125,-0.6860451586186885,0.386487042504549,-0.40388453283347187
1772556669436813300,10.365813232421875,-0.5053600901663303,0.31891865014433857,-0.08575118784792721
1772556669446797300,10.37579736328125,-0.3227396697372198,0.2463379825800657,0.14920790710560977
1772556669456781300,10.38578125,-0.11405775633454322,0.16278262427598236,0.23594182238057254
1772556669466766300,10.395766357421875,0.19579379025697707,0.0704056616127491,0.25836817372217774
1772556669476750300,10.405750244140625,0.5356722263216972,-0.0017465514063835143,0.264213538749516
1772556669486734300,10.415734375,0.8455360478729009,-0.01433773743212223,0.23220248972177504
1772556669496718300,10.42571826171875,1.0628466734111308,-0.0015720716223120688,0.15271803411841392
1772556669506703400,10.435703369140626,1.2288847923517225,0.04670797516107559,0.067417147321254
1772556669516687400,10.445687255859376,1.3233154726743697,0.07495762582868337,0.008700389132276177
1772556669526671400,10.45567138671875,1.3514075946927069,0.04244593380242586,-0.010155044919997453
1772556669536655400,10.4656552734375,1.3344459384977816,0.0668257572993636,-0.019533114118129014
1772556669546640400,10.475640380859375,1.3354378721445799,0.14209376425147055,-0.1119769314724952
1772556669556624400,10.485624267578125,1.2806833686500787,0.23516338535398243,-0.21754859901256857
1772556669566608400,10.4956083984375,1.1684838074028492,0.2752645095959306,-0.2697703691590577
1772556669576592400,10.50559228515625,1.0496768107146024,0.2809130368769169,-0.23650281726419925
1772556669586577400,10.515577392578125,1.0015426021426916,0.2660343244358897,-0.20601379017196594
1772556669596561400,10.5255615234375,0.9711427877038716,0.22577245667427778,-0.17469101566933096
1772556669606545400,10.53554541015625,0.9551397474080323,0.22091624881476163,-0.14889643000364303
1772556669616529400,10.545529296875,0.9243675925254822,0.14392156420052052,-0.14034217134378849
1772556669626514400,10.555514404296876,0.9969991134941577,0.030142332546412944,-0.1444926420867443
1772556669636498400,10.56549853515625,1.1112971083253622,-0.0702896340176463,-0.14436857731565833
1772556669646482400,10.575482421875,1.192930266395211,-0.19632775100320576,-0.13476875512562692
1772556669656467500,10.585467529296874,1.2339093425154686,-0.2995940642103553,-0.11127703957483172
1772556669666451500,10.595451416015624,1.362826814329624,-0.40241701756417747,-0.0835152454894036
1772556669676435500,10.605435546875,1.589658132407069,-0.47099429470598697,-0.095525124495849
1772556669686419500,10.61541943359375,1.7579384773164985,-0.5030091431260109,-0.11242854769751429
1772556669696404500,10.625404541015625,1.8265613471657036,-0.5424179011896252,-0.06525638909079134
1772556669706388500,10.635388427734375,1.8400620492517947,-0.6217433668389916,0.07372077751010656
1772556669716372500,10.64537255859375,1.6326432876527308,-0.7368933023244142,0.262546190059185
1772556669726356200,10.655356201171875,1.2051707392871378,-0.8292743566408753,0.4379172238819301
1772556669736341500,10.665341552734375,0.6932108124643563,-0.9034113137364387,0.6174293030321598
1772556669746325200,10.6753251953125,0.2779898429065943,-0.9187406925544143,0.7258778411827981
1772556669756309200,10.685309326171875,0.05186696535944938,-0.8466048461481929,0.6930832405619323
1772556669766293200,10.695293212890626,-0.15662147129774093,-0.7972662302225828,0.5972263268284499
1772556669776278300,10.7052783203125,-0.5475438659012317,-0.6751914639100433,0.4482387114100158
1772556669786262300,10.71526220703125,-0.9948118325829506,-0.4846785366654396,0.1582455653682351
1772556669796246300,10.725246337890624,-1.2367495343774557,-0.332013986299932,-0.17138108740374444
1772556669806230300,10.735230224609374,-1.2106681676596402,-0.34420068317800756,-0.5123407428339123
1772556669816215300,10.74521533203125,-0.7875608287662267,-0.9074380850344895,-0.7985983556091785
1772556669826199300,10.75519921875,-0.6567641190767288,-1.3469468158915638,-0.613285773486644
1772556669836183300,10.765183349609375,-1.288174601188302,-1.4500287124425173,-0.0419945367731154
1772556669846167300,10.775167236328125,-1.8117875564038752,-1.744496519680321,0.4645211531691253
1772556669856152300,10.78515234375,-2.5797148794174194,-1.5010586424559353,0.8053583512634038
1772556669866136300,10.79513623046875,-2.5325538997918366,-1.4398580315619707,0.9732206168912351
1772556669876120300,10.805120361328125,-2.272913952568173,-1.3559665731713175,1.08711193061769
1772556669886105300,10.815105224609376,-2.505418640106916,-0.6666770258039235,1.3298631407521664
1772556669896089300,10.82508935546875,-2.353277529093623,-0.4043476933658123,1.4558973122149705
1772556669906073300,10.8350732421875,-2.3548452168017624,0.1719634173363447,1.5374324167378246
1772556669916057300,10.845057373046876,-2.163692530348897,0.5251838577941059,1.502154328738153
1772556669926042400,10.85504248046875,-1.9415747967898844,0.7160206101655959,1.4611957108840345
1772556669936026400,10.8650263671875,-1.4403028527200221,0.9032076078578829,1.3659041759483515
1772556669946010400,10.87501025390625,-0.7561661580711603,1.0915519588917493,1.1890619005292653
1772556669955994400,10.884994384765625,-0.2605997321665287,1.2985472343817352,1.0751911911994219
1772556669965979400,10.8949794921875,-0.05240355645418167,1.4369766309067606,1.0680483337074518
1772556669975963400,10.90496337890625,-0.12438508908152579,1.4057833280026912,1.2088598030634223
1772556669985947400,10.914947509765625,-0.25854981389939785,1.1619093974485992,1.5041940178722142
1772556669995931400,10.924931396484375,-0.3254530203491449,0.8981462328150868,1.8049680856473742
1772556670005916400,10.93491650390625,-0.278167537561059,0.7046671492412686,2.01220169993788
1772556670015900400,10.944900390625,-0.1307902799487114,0.5424670010283589,2.1050151543222366
1772556670025884400,10.954884521484376,0.11102525677084922,0.4511360402867198,1.9747433452896772
1772556670035868400,10.964868408203126,0.3813865044951439,0.41732203349024055,1.6276986708573995
1772556670045853400,10.974853515625,0.6544570111781358,0.37095658815652127,1.2897433118097483
1772556670055837400,10.98483740234375,0.8951075957715511,0.30194793386012314,0.9634332362398504
1772556670065821400,10.994821533203124,1.1492103671342133,0.31184564301818607,0.6237548527918756
1772556670075805400,11.004805419921874,1.4068459887981415,0.4255807432696223,0.3064985829018056
1772556670085790500,11.01479052734375,1.6319459530383347,0.5038265969887376,0.035326164925098415
1772556670095774500,11.0247744140625,1.7059546075791119,0.45864831561297176,-0.15774755271822213
1772556670105758500,11.034758544921875,1.7103525502771137,0.3803673905804753,-0.23662293651252983
1772556670115742500,11.044742431640625,1.723905274811387,0.30358430289030075,-0.20824410650730132
1772556670125727500,11.0547275390625,1.7078396906733513,0.21549626959264276,-0.08538228147029876
1772556670135711500,11.06471142578125,1.6127467470496892,0.07746522473543882,0.15946049411594868
1772556670145695500,11.074695556640625,1.535932971960306,-0.011769348248839377,0.370860142044723
1772556670155679500,11.084679443359375,1.5402490815937517,-0.034012159717082976,0.4162859684407711
1772556670165664500,11.09466455078125,1.4568664495080708,-0.06987199312746524,0.339746334117651
1772556670175648500,11.1046484375,1.2923702993124722,-0.15932079338431357,0.23371406332850456
1772556670185632500,11.114632568359376,1.231532676512003,-0.3328855084374547,0.07715104421973228
1772556670195617500,11.124617431640624,1.2656278383374213,-0.41852293371260163,-0.12720862206965683
1772556670205601500,11.1346015625,1.2413392002552748,-0.2424804303690791,-0.41547903597205876
1772556670215585500,11.14458544921875,1.1807137589007615,0.010881459498405455,-0.6886766761660575
1772556670225569500,11.154569580078125,1.1181132180809974,0.04619739529043436,-0.9041936962857842
1772556670235554600,11.164554443359375,1.110687451994419,-0.009271393953263759,-0.9308122386202216
1772556670245538600,11.17453857421875,0.8812906673431395,-0.21159195563048122,-0.7555953724458814
1772556670255522600,11.1845224609375,0.43910394944846626,-0.4687525071285665,-0.3954357803747058
1772556670265506300,11.19450634765625,-0.2112070479661226,-0.6157393041186034,-0.048920975035429
1772556670275491600,11.20449169921875,-0.8432295244961977,-0.6991825803503394,0.21109569654613733
1772556670285475300,11.214475341796875,-1.0249117872923612,-0.554673279389739,0.4850991001650691
1772556670295459300,11.224459228515625,-0.9511533081203698,-0.20341946282982826,0.7924252199321985
1772556670305443300,11.234443359375,-0.8784434612184763,0.08231266476660966,0.7715238862007856
1772556670315428400,11.244428466796874,-0.6390636272132396,0.016369097129255532,0.4118804269582033
1772556670325412400,11.254412353515624,-0.7327730075240135,0.12474705426171422,-0.07902005296200514
1772556670335396400,11.264396240234374,-0.6904407632291316,-0.10771642448380589,-0.6622489802286029
1772556670345380400,11.27438037109375,-0.37347441619634625,-0.6462251894056796,-1.1330176494851707
1772556670355365400,11.284365478515625,-0.27819617913365363,-1.2736226364836096,-1.1913760226905346
1772556670365349400,11.294349365234375,-0.6819084972053766,-1.1725234381824732,-0.46763358610123396
1772556670375333400,11.30433349609375,-1.2563543985575436,-0.8725751537069678,0.5943798513561487
1772556670385317400,11.3143173828125,-1.95480603428483,-0.5999873159743845,1.455872177773714
1772556670395305200,11.32430517578125,-2.85075417253375,-0.20685805897638201,1.939162182690203
1772556670405289200,11.334289306640626,-3.1345576701551674,-0.07579583021849394,1.8401947357207535
1772556670415273200,11.344273193359374,-2.8939170224338766,0.13973478003516793,1.2119193367645145
1772556670425257200,11.35425732421875,-2.352801728275418,0.07353577633202076,0.4000543800860643
1772556670435242200,11.3642421875,-1.7791548683464526,0.0966274597145617,-0.260164555619657
1772556670445226200,11.374226318359375,-1.4286048161417244,0.20032617298960684,-0.9883864757105707
1772556670455210200,11.384210205078125,-1.1974620646059513,0.1398319567993283,-1.716963785110414
1772556670465194200,11.3941943359375,-0.9950935721337795,0.20896891365051268,-2.01818778861016
1772556670475179300,11.40417919921875,-0.8920230737596749,0.3479857546746731,-1.9055489591628312
1772556670485163300,11.414163330078125,-0.8162742975533008,0.34478009050115943,-1.6249904348120092
1772556670495147300,11.424147216796875,-1.0384002144187687,0.42155134162306784,-1.0136319761261343
1772556670505131300,11.43413134765625,-1.1693377938836813,0.5194596349284053,-0.24251842429190873
1772556670515116300,11.4441162109375,-0.7577800230085849,0.7393557469151913,0.05790741456747055
1772556670525100300,11.454100341796876,-0.26687515917420385,0.9736601773522794,-0.06724310592859983
1772556670535084300,11.464084228515626,-0.0112280809789896,1.1686558029688894,-0.37647505931705233
1772556670545068300,11.474068359375,0.21855215003192424,1.246423810043186,-0.8006175864771008
1772556670555053300,11.48405322265625,0.33498014262914655,1.3504234059609472,-1.0135247163593768
1772556670565037300,11.494037353515624,0.4089467115938663,1.4003165870293974,-1.1463286742180585
1772556670575021300,11.504021240234374,0.4570838427752256,1.475503053177893,-1.2935688614472747
1772556670585005300,11.51400537109375,0.498014403578639,1.491471314421296,-1.2594631782278418
1772556670594990300,11.523990234375,0.5692436565339565,1.344088357720524,-1.0652154483690857
1772556670604974300,11.533974365234375,0.5692787278473377,1.151549623736739,-0.8795204428002238
1772556670614958300,11.543958251953125,0.45456513795256615,0.8272709078639745,-0.8153133435666561
1772556670624943400,11.553943359375,0.40118426089882847,0.40656799976378677,-0.7919330525010824
1772556670634927400,11.56392724609375,0.5330360325992107,0.12871522724032403,-0.8200430024370551
1772556670644911400,11.573911376953125,0.8067261324852705,0.041617666284739965,-0.8633589970722794
1772556670654895400,11.583895263671875,1.0448428146868944,-0.012244126153737305,-0.9203896288052201
1772556670664880400,11.59388037109375,1.2155986097991467,-0.11146043331772089,-0.9095105073943733
1772556670674864400,11.603864501953124,1.4096283129930496,-0.17299100681841373,-0.8458280165567994
1772556670684848400,11.613848388671874,1.6733745264917612,-0.20044716902077198,-0.772619864743948
1772556670694832400,11.623832275390624,1.8686399089604615,-0.30147885504364963,-0.6525266276374458
1772556670704817400,11.6338173828125,2.0167542486757037,-0.30229134047031403,-0.47634793069362635
1772556670714801400,11.643801513671875,2.090300546401739,-0.33789924494624135,-0.32721506158560515
1772556670724785400,11.653785400390625,1.9664035330981016,-0.3344032195240259,-0.1396563079714775
1772556670734769400,11.663769287109375,1.7813596849143505,-0.2632610603302717,0.14300561839938164
1772556670744754400,11.67375439453125,1.6575550260692833,-0.23204408428966997,0.3707467447981238
1772556670754738400,11.683738525390625,1.6095657789260147,-0.17692483913600443,0.5206805550254882
1772556670764722400,11.693722412109375,1.6478192294746636,-0.25046061546802517,0.5977189326509833
1772556670774706400,11.70370654296875,1.6945973472625016,-0.36103929751515385,0.6652082684256136
1772556670784691500,11.71369140625,1.494845174768567,-0.45309155826866626,0.6998346145182848
1772556670794675500,11.723675537109376,1.2264473360717296,-0.5125868265494704,0.9293348595440387
1772556670804659200,11.7336591796875,1.060278284227848,-0.5366287963941693,0.9325925461657345
1772556670814643200,11.743643310546876,0.9193827898502349,-0.5641673761829733,0.5977146948672831
1772556670824628500,11.75362841796875,0.8886842847257852,-0.6171256439104675,0.37300796772837636
1772556670834612200,11.7636123046875,0.7918009505540132,-0.690300185714662,0.27301570775583384
1772556670844596200,11.77359619140625,0.5687941592007875,-0.7899830874770879,0.18280103769302367
1772556670854580200,11.783580322265625,0.29082302099466323,-0.8493658352941275,0.2619271813780069
1772556670864565200,11.793565185546875,0.07672960393726826,-0.797782363051176,0.23705621336326002
1772556670874549200,11.80354931640625,-0.1696416963905096,-0.6119020640432834,0.19861878454983234
1772556670884533200,11.813533203125,-0.5146569108217954,-0.41472909438759087,0.15318565163016318
1772556670894517200,11.823517333984375,-0.6215817465364932,-0.18039777594357728,-0.03704246732369065
1772556670904502300,11.833502197265625,-0.3494476439207792,-0.23416882135868072,-0.08672112885862589
1772556670914486300,11.843486328125,0.25264029759466644,-0.83638068151474,0.009255904123187065
1772556670924470300,11.85347021484375,0.17031155847609042,-0.9052189476802944,0.2489376436844468
1772556670934454300,11.863454345703126,-0.2778799527913332,-0.6117842828825116,0.5904242455981672
1772556670944439300,11.873439208984376,-0.5881137766987085,-0.36769758636057376,0.6837690303802489
1772556670954423300,11.88342333984375,-1.1498276222497223,-0.21253332813382148,0.6487246050059795
1772556670964407300,11.8934072265625,-1.9268653034359216,-0.23167642002105712,0.6436952325366437
1772556670974391300,11.903391357421874,-2.6796003180146215,-0.003881809869408607,0.9260815568365156
1772556670984376300,11.913376220703125,-3.0766566853284836,0.2224599711254239,1.4308601938530803
1772556670994360300,11.9233603515625,-2.6431243985325095,0.3390741339445114,2.2002681108132003
1772556671004344300,11.93334423828125,-3.320066797763109,0.3638578620672226,2.7879589859247207
1772556671014328300,11.943328369140625,-2.717846754300594,0.7171598433285952,2.2525231987074017
1772556671024313000,11.95331298828125,-2.010298788926005,1.16189858379364,1.4129872680321336
1772556671034297300,11.96329736328125,-1.2120698511511088,0.9448319961443543,1.1339116757154464
1772556671044281300,11.97328125,-0.8759797014534473,1.223848551750183,0.8461170626312494
1772556671054265300,11.983265380859375,-0.16797171735167502,1.2066107089623808,0.6651485010623932
1772556671064250000,11.99325,-0.5753372972339391,0.9427353161260486,0.6857195799261331
