time,seconds_elapsed,z,y,x
1772556659143025000,0.07202490234375,-0.19611936807632446,-0.05558735132217407,0.345470130443573
1772556659153009000,0.0820087890625,-0.1476357877254486,-0.20855653285980225,0.4111548960208893
1772556659162994000,0.091993896484375,-0.10266271233558655,-0.3224010765552521,0.49466630816459656
1772556659172978000,0.10197802734375,-0.07989868521690369,-0.3463385999202728,0.5552706718444824
1772556659182962000,0.1119619140625,-0.05889593064785004,-0.30829933285713196,0.5558121204376221
1772556659192946000,0.12194580078125,-0.02941107004880905,-0.250313937664032,0.4873017966747284
1772556659202931000,0.131930908203125,-0.02043941244482994,-0.15735363960266113,0.3346629738807678
1772556659212915000,0.1419150390625,-0.03415239602327347,-0.06264476478099823,0.06647384911775589
1772556659222899000,0.15189892578125,-0.060369350016117096,0.045161593705415726,-0.27448534965515137
1772556659232883000,0.161883056640625,-0.08361104130744934,0.16976819932460785,-0.5930222272872925
1772556659242867000,0.171866943359375,-0.0721282958984375,0.24930217862129211,-0.7985434532165527
1772556659252852000,0.18185205078125,-0.009033527225255966,0.2673569619655609,-0.8391960263252258
1772556659262836000,0.1918359375,0.0889979675412178,0.2117360383272171,-0.6945856213569641
1772556659272820000,0.201820068359375,0.18699949979782104,0.0963769406080246,-0.3915676176548004
1772556659282804000,0.211803955078125,0.2137427031993866,-0.0765056237578392,-0.00012288615107536316
1772556659292789000,0.2217890625,0.2142280489206314,-0.28269630670547485,0.3940967917442322
1772556659302773000,0.23177294921875,0.18522143363952637,-0.39478451013565063,0.7165765762329102
1772556659312757000,0.241757080078125,0.15460997819900513,-0.44159993529319763,0.9094720482826233
1772556659322741000,0.251740966796875,0.10960947722196579,-0.41495445370674133,0.9834277629852295
1772556659332726000,0.26172607421875,0.043738774955272675,-0.27374789118766785,0.9636795520782471
1772556659342710000,0.2717099609375,-0.04329359531402588,-0.05921029672026634,0.8738798499107361
1772556659352694000,0.281694091796875,-0.13471777737140656,0.13264057040214539,0.7361997365951538
1772556659362678000,0.291677978515625,-0.28941893577575684,0.2867012321949005,0.56434166431427
1772556659372662000,0.301662109375,-0.36531567573547363,0.4751521050930023,0.41937118768692017
1772556659382647000,0.31164697265625,-0.39638039469718933,0.6249986290931702,0.2760925889015198
1772556659392629000,0.32162890625,-0.37721171975135803,0.7268010377883911,0.1426699012517929
1772556659402613000,0.331613037109375,-0.3563767373561859,0.7582945227622986,0.017297346144914627
1772556659412597000,0.341596923828125,-0.27906399965286255,0.7417901158332825,-0.033931318670511246
1772556659422582000,0.35158203125,-0.20920899510383606,0.6172778010368347,-0.040725573897361755
1772556659432566000,0.36156591796875,-0.13360127806663513,0.5745887756347656,0.037284523248672485
1772556659442550000,0.371550048828125,-0.08226245641708374,0.42549940943717957,0.1331271529197693
1772556659452534000,0.381533935546875,-0.0650453045964241,0.3507864475250244,0.2532641291618347
1772556659462519000,0.39151904296875,-0.06894391030073166,0.31432244181632996,0.3555111587047577
1772556659472503000,0.4015029296875,-0.12457723170518875,0.2511509358882904,0.42255324125289917
1772556659482487000,0.411487060546875,-0.1855955719947815,0.28881868720054626,0.47963011264801025
1772556659492471000,0.421470947265625,-0.268070787191391,0.33990171551704407,0.48723161220550537
1772556659502454800,0.431454833984375,-0.35855862498283386,0.42752131819725037,0.45577433705329895
1772556659512440000,0.441440185546875,-0.44531115889549255,0.5577945113182068,0.38319072127342224
1772556659522424000,0.451424072265625,-0.5082336664199829,0.6954700946807861,0.2890985906124115
1772556659532407800,0.46140771484375,-0.5229638814926147,0.8140242099761963,0.19245105981826782
1772556659542391800,0.471391845703125,-0.5003411173820496,0.9069517850875854,0.09742814302444458
1772556659552377000,0.481377197265625,-0.44352206587791443,1.027909278869629,-0.012992212548851967
1772556659562360800,0.49136083984375,-0.36811864376068115,1.0849307775497437,-0.09921525418758392
1772556659572344800,0.5013447265625,-0.2889586389064789,1.0641443729400635,-0.13616664707660675
1772556659582328800,0.511328857421875,-0.20379073917865753,1.0049878358840942,-0.13138388097286224
1772556659592312800,0.521312744140625,-0.141349196434021,0.9277310967445374,-0.09626130014657974
1772556659602297900,0.5312978515625,-0.10819045454263687,0.8306003212928772,-0.039292290806770325
1772556659612281900,0.54128173828125,-0.07474107295274734,0.7403764724731445,0.029275445267558098
1772556659622265900,0.551265869140625,-0.05664142966270447,0.6712623834609985,0.10713616013526917
1772556659632249900,0.561249755859375,-0.04681523144245148,0.5941914319992065,0.19350969791412354
1772556659642235000,0.57123486328125,-0.040250007063150406,0.5455783605575562,0.279359370470047
1772556659652219000,0.581218994140625,-0.010807299986481667,0.5198999047279358,0.34747442603111267
1772556659662203000,0.591202880859375,0.056402627378702164,0.4477836489677429,0.37844061851501465
1772556659672187000,0.601186767578125,0.1273512840270996,0.30863282084465027,0.3922971785068512
1772556659682172000,0.611171875,0.16782067716121674,0.1061154156923294,0.3706243634223938
1772556659692156000,0.621156005859375,0.19488488137722015,-0.13625341653823853,0.33616581559181213
1772556659702140000,0.631139892578125,0.15337899327278137,-0.3551500737667084,0.24506254494190216
1772556659712124000,0.6411240234375,0.07437241822481155,-0.4957260191440582,0.10220581293106079
1772556659722108000,0.65110791015625,-0.0015838667750358582,-0.5385278463363647,-0.04967106506228447
1772556659732093000,0.661093017578125,-0.05760437995195389,-0.5049144625663757,-0.141032874584198
1772556659742077000,0.671076904296875,-0.0869516134262085,-0.39385268092155457,-0.1305842250585556
1772556659752061000,0.68106103515625,-0.08786378800868988,-0.22478581964969635,0.024234050884842873
1772556659762045000,0.691044921875,-0.0489715151488781,-0.0025636693462729454,0.30423346161842346
1772556659772030000,0.701030029296875,0.024839552119374275,0.22263437509536743,0.6255174875259399
1772556659782014000,0.711013916015625,0.13407468795776367,0.35678577423095703,0.8665593862533569
1772556659791998000,0.720998046875,0.28003546595573425,0.3882538080215454,0.967308759689331
1772556659801982000,0.73098193359375,0.4243830442428589,0.32402342557907104,0.9157030582427979
1772556659811967000,0.740967041015625,0.535802960395813,0.1545194685459137,0.7034419775009155
1772556659821951000,0.750950927734375,0.5713268518447876,-0.11865507811307907,0.32724729180336
1772556659831935000,0.76093505859375,0.5329739451408386,-0.42857736349105835,-0.152559295296669
1772556659841919000,0.7709189453125,0.44024962186813354,-0.6889311671257019,-0.6266730427742004
1772556659851903000,0.780903076171875,0.31979385018348694,-0.81366366147995,-0.9790905117988586
1772556659861888000,0.790887939453125,0.20484966039657593,-0.7367801070213318,-1.119947075843811
1772556659871872000,0.8008720703125,0.10344458371400833,-0.5522162914276123,-1.0388071537017822
1772556659881856000,0.81085595703125,0.05346769839525223,-0.3155084550380707,-0.7474197149276733
1772556659891840000,0.820840087890625,0.08259856700897217,-0.051923684775829315,-0.28979402780532837
1772556659901825000,0.830824951171875,0.17305947840213776,0.17272993922233582,0.17986027896404266
1772556659911809000,0.84080908203125,0.2721642553806305,0.2949242889881134,0.4947684407234192
1772556659921793000,0.85079296875,0.34019735455513,0.3519478738307953,0.5745580792427063
1772556659931776800,0.86077685546875,0.38496869802474976,0.4193500578403473,0.43815305829048157
1772556659941762000,0.870761962890625,0.3795044422149658,0.5047826170921326,0.13666725158691406
1772556659951746000,0.88074609375,0.3165052533149719,0.5987945795059204,-0.28045257925987244
1772556659961729800,0.890729736328125,0.25813648104667664,0.6318835616111755,-0.7031497955322266
1772556659971713800,0.9007138671875,0.2374293953180313,0.5566052794456482,-1.033232569694519
1772556659981697800,0.91069775390625,0.2512669265270233,0.41019347310066223,-1.184774398803711
1772556659991682800,0.920682861328125,0.2854994535446167,0.2429804503917694,-1.1586837768554688
1772556660001666800,0.930666748046875,0.3307500183582306,0.07835528254508972,-0.9756559133529663
1772556660011650800,0.94065087890625,0.3630084991455078,-0.055345240980386734,-0.6734482049942017
1772556660021634800,0.950634765625,0.3716432452201843,-0.13504992425441742,-0.30327388644218445
1772556660031619800,0.960619873046875,0.3531233072280884,-0.15239277482032776,0.0525655522942543
1772556660041603800,0.970603759765625,0.3024630546569824,-0.11561264842748642,0.3351905941963196
1772556660051587800,0.980587890625,0.23811577260494232,-0.05843675881624222,0.5247952938079834
1772556660061571800,0.99057177734375,0.16139009594917297,0.022583525627851486,0.600505530834198
1772556660071556900,1.000556884765625,0.06820287555456161,0.10265867412090302,0.5892658233642578
1772556660081540900,1.010540771484375,-0.027175839990377426,0.18595516681671143,0.5118932723999023
1772556660091524900,1.02052490234375,-0.11122960597276688,0.2531059980392456,0.3890998363494873
1772556660101508900,1.0305087890625,-0.1671336144208908,0.28822988271713257,0.24971157312393188
1772556660111494000,1.040493896484375,-0.19589689373970032,0.2680627107620239,0.1093558669090271
1772556660121478000,1.050477783203125,-0.2162114828824997,0.22409789264202118,-0.03486495837569237
1772556660131462000,1.0604619140625,-0.2365846037864685,0.16451092064380646,-0.16774296760559082
1772556660141446000,1.07044580078125,-0.2523078918457031,0.09042682498693466,-0.2848493456840515
1772556660151430000,1.080429931640625,-0.26040858030319214,0.0077697583474218845,-0.3717760145664215
1772556660161415000,1.090414794921875,-0.25942695140838623,-0.07865727692842484,-0.41706812381744385
1772556660171399000,1.10039892578125,-0.25621020793914795,-0.18128648400306702,-0.4046386778354645
1772556660181383000,1.1103828125,-0.2497349977493286,-0.28029242157936096,-0.3364734947681427
1772556660191367000,1.120366943359375,-0.25899580121040344,-0.3773432672023773,-0.21656633913516998
1772556660201352000,1.13035205078125,-0.28154638409614563,-0.4353857934474945,-0.0858972817659378
1772556660211336000,1.1403359375,-0.30595797300338745,-0.4188837707042694,0.02979416772723198
1772556660221320000,1.15031982421875,-0.3224807679653168,-0.2958739697933197,0.08834002912044525
1772556660231304000,1.160303955078125,-0.32862842082977295,-0.10666508972644806,0.08335139602422714
1772556660241289000,1.1702890625,-0.31794407963752747,0.10541920363903046,0.02304145134985447
1772556660251273000,1.18027294921875,-0.2978746294975281,0.2695245146751404,-0.05753796175122261
1772556660261257000,1.190257080078125,-0.24842773377895355,0.35904720425605774,-0.11098653823137283
1772556660271241000,1.200240966796875,-0.16541790962219238,0.37698647379875183,-0.11708134412765503
1772556660281226000,1.21022607421875,-0.04876319319009781,0.3798235356807709,-0.04962027445435524
1772556660291210000,1.2202099609375,0.06763550639152527,0.38085275888442993,0.09369706362485886
1772556660301194000,1.230194091796875,0.11950882524251938,0.3315104842185974,0.24158693850040436
1772556660311178000,1.240177978515625,0.05553823709487915,0.17513683438301086,0.24422787129878998
1772556660321162000,1.250161865234375,-0.10542722046375275,-0.04837189242243767,-0.01913772150874138
1772556660331147000,1.26014697265625,-0.24187815189361572,-0.23744884133338928,-0.4883367419242859
1772556660341131000,1.270131103515625,-0.31894123554229736,-0.3241586983203888,-1.002594232559204
1772556660351115000,1.280114990234375,-0.3425155580043793,-0.23218399286270142,-1.3583070039749146
1772556660361098800,1.2900986328125,-0.2799437940120697,-0.10704977810382843,-1.4300717115402222
1772556660371084000,1.300083984375,-0.15666739642620087,-0.08245255798101425,-1.198763132095337
1772556660381067800,1.31006787109375,0.003184588858857751,-0.13053779304027557,-0.7126426696777344
1772556660391050500,1.320050537109375,0.1464276909828186,-0.20745058357715607,-0.08218799531459808
1772556660401034500,1.330034423828125,0.2589249610900879,-0.28263506293296814,0.5528504848480225
1772556660411019500,1.34001953125,0.3175671100616455,-0.3628980219364166,1.0236009359359741
1772556660421003500,1.35000341796875,0.33054229617118835,-0.39452117681503296,1.281457543373108
1772556660430987500,1.359987548828125,0.29587817192077637,-0.3921056091785431,1.3278486728668213
1772556660440971500,1.369971435546875,0.19602908194065094,-0.3277604579925537,1.2100318670272827
1772556660450956500,1.37995654296875,0.055542271584272385,-0.2189902663230896,0.9785376787185669
1772556660460940500,1.3899404296875,-0.0810355469584465,-0.07384585589170456,0.6746821999549866
1772556660470924300,1.39992431640625,-0.18675149977207184,0.11535796523094177,0.3180020749568939
1772556660480908300,1.409908203125,-0.23842720687389374,0.2981562614440918,-0.06053964048624039
1772556660490893600,1.4198935546875,-0.23393075168132782,0.412367582321167,-0.43432483077049255
1772556660500877300,1.429877197265625,-0.19086556136608124,0.43788251280784607,-0.7774875164031982
1772556660510861300,1.439861328125,-0.13915866613388062,0.4098590910434723,-1.041047215461731
1772556660520845300,1.44984521484375,-0.0659363865852356,0.3725050389766693,-1.1882284879684448
1772556660530830300,1.459830322265625,0.012371283024549484,0.3001619875431061,-1.2155681848526
1772556660540814300,1.469814453125,0.07329508662223816,0.16573414206504822,-1.123149037361145
1772556660550798300,1.47979833984375,0.1021810919046402,0.01956143043935299,-0.9254623055458069
1772556660560782300,1.4897822265625,0.09615728259086609,-0.11703476309776306,-0.6746556162834167
1772556660570767400,1.499767333984375,0.0691259354352951,-0.2528943717479706,-0.4169239103794098
1772556660580751400,1.50975146484375,0.027240533381700516,-0.3626812994480133,-0.18105199933052063
1772556660590735400,1.5197353515625,-0.00821490678936243,-0.4196239709854126,0.009644617326557636
1772556660600719400,1.52971923828125,-0.036612190306186676,-0.4233776926994324,0.13907743990421295
1772556660610703400,1.539703369140625,-0.06215682625770569,-0.375960111618042,0.21306510269641876
1772556660620688400,1.5496884765625,-0.07721087336540222,-0.30139559507369995,0.23309767246246338
1772556660630672400,1.55967236328125,-0.08684887737035751,-0.199803426861763,0.21608391404151917
1772556660640656400,1.569656494140625,-0.09237121045589447,-0.10525695234537125,0.16426758468151093
1772556660650640400,1.579640380859375,-0.09609178453683853,-0.012077740393579006,0.09667176008224487
1772556660660625400,1.58962548828125,-0.09611761569976807,0.0780220627784729,0.03726702556014061
1772556660670609400,1.599609375,-0.09698709845542908,0.16131500899791718,-0.007551246322691441
1772556660680593400,1.609593505859375,-0.08746363967657089,0.2231123298406601,-0.0310528427362442
1772556660690578400,1.619578369140625,-0.07863005250692368,0.2557445764541626,-0.02695024572312832
1772556660700562400,1.6295625,-0.0823342427611351,0.2697906196117401,0.006396258249878883
1772556660710546400,1.63954638671875,-0.07648324221372604,0.2921621799468994,0.0587068609893322
1772556660720530400,1.649530517578125,-0.04704039916396141,0.3306001126766205,0.11699653416872025
1772556660730514400,1.659514404296875,-0.003727525472640991,0.3718617260456085,0.1683933138847351
1772556660740499500,1.66949951171875,0.04588716849684715,0.4074738025665283,0.21744313836097717
1772556660750483500,1.6794833984375,0.10430893301963806,0.4117329716682434,0.25032758712768555
1772556660760467500,1.689467529296875,0.17348308861255646,0.3715522587299347,0.2666020393371582
1772556660770451500,1.699451416015625,0.2383987456560135,0.29873254895210266,0.2569199204444885
1772556660780436500,1.7094365234375,0.29470062255859375,0.18831950426101685,0.22169028222560883
1772556660790420500,1.71942041015625,0.30299171805381775,0.06939416378736496,0.16512054204940796
1772556660800404500,1.729404541015625,0.25907567143440247,-0.025650324299931526,0.07808896154165268
1772556660810388500,1.739388427734375,0.19185197353363037,-0.07082248479127884,-0.024648800492286682
1772556660820373500,1.74937353515625,0.11703205853700638,-0.06354539841413498,-0.1326833963394165
1772556660830357500,1.759357421875,0.049704086035490036,0.009839200414717197,-0.21021758019924164
1772556660840341500,1.769341552734375,0.01524597592651844,0.1408984214067459,-0.2053043097257614
1772556660850325500,1.779325439453125,0.0295438002794981,0.30607834458351135,-0.07726232707500458
1772556660860310500,1.789310546875,0.10213518142700195,0.44518163800239563,0.17414221167564392
1772556660870294500,1.79929443359375,0.19800004363059998,0.5407867431640625,0.4862715005874634
1772556660880278500,1.809278564453125,0.2651202380657196,0.5693363547325134,0.7404704689979553
1772556660890263600,1.819263671875,0.33684009313583374,0.5113087296485901,0.8288188576698303
1772556660900247600,1.82924755859375,0.42445623874664307,0.37918612360954285,0.7394990921020508
1772556660910231600,1.8392314453125,0.4680287539958954,0.17156846821308136,0.49103546142578125
1772556660920215600,1.849215576171875,0.4081355929374695,-0.10755158215761185,0.126113161444664
1772556660930199300,1.85919921875,0.24071861803531647,-0.41261640191078186,-0.273510217666626
1772556660940184600,1.8691845703125,0.05059501901268959,-0.6226657629013062,-0.5997706055641174
1772556660950168600,1.87916845703125,-0.10437827557325363,-0.7128695249557495,-0.7905308604240417
1772556660960152300,1.88915234375,-0.2387683093547821,-0.6562792062759399,-0.7859297394752502
1772556660970137600,1.8991376953125,-0.3181418180465698,-0.472082257270813,-0.5611675381660461
1772556660980121600,1.90912158203125,-0.3081269860267639,-0.20738454163074493,-0.17447122931480408
1772556660990105300,1.919105224609375,-0.23029933869838715,0.03134928643703461,0.2506538927555084
1772556661000089300,1.92908935546875,-0.14207200706005096,0.16495369374752045,0.5853285789489746
1772556661010074600,1.93907470703125,-0.08299930393695831,0.22447122633457184,0.7501579523086548
1772556661020058400,1.949058349609375,-0.06918788701295853,0.21963384747505188,0.716364860534668
1772556661030042400,1.95904248046875,-0.105756975710392,0.15511935949325562,0.5069980621337891
1772556661040026400,1.9690263671875,-0.14185239374637604,0.13849112391471863,0.17677092552185059
1772556661050011400,1.979011474609375,-0.1565539389848709,0.15902692079544067,-0.22801318764686584
1772556661059995400,1.988995361328125,-0.14472417533397675,0.18437515199184418,-0.6432018280029297
1772556661069979400,1.9989794921875,-0.10397351533174515,0.16852238774299622,-0.9758185148239136
1772556661079963400,2.00896337890625,-0.05332232639193535,0.132415771484375,-1.1636477708816528
1772556661089948400,2.018948486328125,0.02318422868847847,0.0703410804271698,-1.1988478899002075
1772556661099932400,2.028932373046875,0.12645947933197021,-0.022360628470778465,-1.0906362533569336
1772556661109916400,2.03891650390625,0.23218053579330444,-0.12073209881782532,-0.8485510945320129
1772556661119900400,2.048900390625,0.3154202997684479,-0.20388583838939667,-0.5245354175567627
1772556661129885400,2.058885498046875,0.3619321882724762,-0.27727198600769043,-0.16809503734111786
1772556661139869400,2.068869384765625,0.38304170966148376,-0.33295175433158875,0.13870565593242645
1772556661149853400,2.078853515625,0.3723517060279846,-0.3531878590583801,0.3640749752521515
1772556661159837400,2.08883740234375,0.33810532093048096,-0.3586662709712982,0.5015715956687927
1772556661169822500,2.098822509765625,0.2917478084564209,-0.3279464542865753,0.5585970878601074
1772556661179806500,2.108806396484375,0.23512287437915802,-0.24790753424167633,0.5542369484901428
1772556661189790500,2.11879052734375,0.1668989360332489,-0.1375010907649994,0.5140883326530457
1772556661199774500,2.1287744140625,0.09874678403139114,-0.027796436101198196,0.46280333399772644
1772556661209759500,2.138759521484375,0.03404093533754349,0.06242283433675766,0.3922414779663086
1772556661219743500,2.148743408203125,-0.023299848660826683,0.12022621184587479,0.3145520091056824
1772556661229727500,2.1587275390625,-0.07737889885902405,0.15250524878501892,0.23234789073467255
1772556661239712500,2.16871240234375,-0.13996663689613342,0.1626628190279007,0.1491249054670334
1772556661249696500,2.178696533203125,-0.20285463333129883,0.15816254913806915,0.06628226488828659
1772556661259680500,2.188680419921875,-0.2607525587081909,0.1449684500694275,-0.003873119130730629
1772556661269664500,2.19866455078125,-0.32185134291648865,0.11558078229427338,-0.04191584885120392
1772556661279649500,2.2086494140625,-0.3882378339767456,0.08064250648021698,-0.033594004809856415
1772556661289633500,2.218633544921875,-0.45491647720336914,0.05135305970907211,0.004166691098362207
1772556661299617500,2.228617431640625,-0.5186547040939331,0.03082674741744995,0.03551076725125313
1772556661309601500,2.2386015625,-0.5600900053977966,0.04064437747001648,0.031205901876091957
1772556661319586600,2.248586669921875,-0.5726545453071594,0.09278587251901627,-0.026999082416296005
1772556661329570600,2.258570556640625,-0.5633753538131714,0.18539272248744965,-0.15032316744327545
1772556661339554600,2.268554443359375,-0.531364381313324,0.3072206377983093,-0.3073066771030426
1772556661349538600,2.27853857421875,-0.47819921374320984,0.42513662576675415,-0.4581202268600464
1772556661359523600,2.288523681640625,-0.4068549871444702,0.5284030437469482,-0.574485182762146
1772556661369507600,2.298507568359375,-0.3233790099620819,0.600482165813446,-0.6360713839530945
1772556661379491600,2.30849169921875,-0.22204521298408508,0.6277171969413757,-0.6192678809165955
1772556661389476000,2.31847607421875,-0.1198149174451828,0.6012295484542847,-0.539979875087738
1772556661399461000,2.328461181640625,-0.016530606895685196,0.5435255169868469,-0.3945859372615814
1772556661409445000,2.338445068359375,0.07116027176380157,0.46330195665359497,-0.20446807146072388
1772556661419429000,2.34842919921875,0.10664689540863037,0.3411448895931244,0.011760897003114223
1772556661429414100,2.3584140625,0.030622191727161407,0.17462003231048584,0.17511723935604095
1772556661439398100,2.368398193359375,-0.12553970515727997,-0.03970823436975479,0.20148971676826477
1772556661449382100,2.378382080078125,-0.2739325761795044,-0.24606983363628387,0.08473743498325348
1772556661459366100,2.3883662109375,-0.36253514885902405,-0.3840247690677643,-0.0776490792632103
1772556661469351200,2.39835107421875,-0.4297943413257599,-0.4514906108379364,-0.21773667633533478
1772556661479335200,2.408335205078125,-0.4888496696949005,-0.48480889201164246,-0.2881826162338257
1772556661489319200,2.418319091796875,-0.5051165819168091,-0.49200356006622314,-0.2711636424064636
1772556661499303200,2.42830322265625,-0.4528706967830658,-0.4858045279979706,-0.1602025330066681
1772556661509288200,2.4382880859375,-0.3519895672798157,-0.4615006148815155,0.037215568125247955
1772556661519272200,2.448272216796875,-0.23923905193805695,-0.41473814845085144,0.2853127419948578
1772556661529256200,2.458256103515625,-0.15500731766223907,-0.34687086939811707,0.5326881408691406
1772556661539240000,2.468239990234375,-0.09891928732395172,-0.2716575860977173,0.7230064272880554
1772556661549225200,2.47822509765625,-0.06839889287948608,-0.2061673253774643,0.8012301325798035
1772556661559209200,2.488209228515625,-0.06952834129333496,-0.137636199593544,0.7752283811569214
1772556661569193000,2.49819287109375,-0.081732377409935,-0.03421081230044365,0.6619332432746887
1772556661579178000,2.508177978515625,-0.09449131041765213,0.1188458502292633,0.5093684792518616
1772556661589162000,2.518161865234375,-0.10901696979999542,0.2712097764015198,0.34577783942222595
1772556661599146000,2.52814599609375,-0.10973895341157913,0.38501569628715515,0.18204884231090546
1772556661609130000,2.5381298828125,-0.0818910151720047,0.4412594139575958,0.03181165084242821
1772556661619115000,2.548114990234375,-0.04360221326351166,0.44731730222702026,-0.1182207241654396
1772556661629099000,2.55809912109375,0.004593727644532919,0.39051756262779236,-0.2668057978153229
1772556661639083000,2.5680830078125,0.06371111422777176,0.29703980684280396,-0.407940536737442
1772556661649067000,2.57806689453125,0.11423635482788086,0.1728520542383194,-0.5176221132278442
1772556661659051800,2.5880517578125,0.14184027910232544,0.00945300329476595,-0.5960253477096558
1772556661669036000,2.5980361328125,0.1493491530418396,-0.17622701823711395,-0.6417655348777771
1772556661679020000,2.60802001953125,0.14125607907772064,-0.34358325600624084,-0.6476995944976807
1772556661689004800,2.6180048828125,0.10030382871627808,-0.45681869983673096,-0.6158072352409363
1772556661698988800,2.62798876953125,0.038318224251270294,-0.4960622489452362,-0.5545241832733154
1772556661708973000,2.63797314453125,-0.04190739616751671,-0.48710787296295166,-0.4719989001750946
1772556661718957000,2.64795703125,-0.10618864744901657,-0.43506091833114624,-0.36890900135040283
1772556661728941800,2.65794189453125,-0.1389111429452896,-0.35028162598609924,-0.27790409326553345
1772556661738925800,2.66792578125,-0.14243903756141663,-0.2424190789461136,-0.20948293805122375
1772556661748909800,2.677909912109375,-0.1256425529718399,-0.11858700960874557,-0.17281758785247803
1772556661758894000,2.68789404296875,-0.0958670824766159,-0.0019227162702009082,-0.1682840883731842
1772556661768878800,2.69787890625,-0.06439557671546936,0.10014057159423828,-0.2003699392080307
1772556661778862800,2.70786279296875,-0.03267014026641846,0.1973544806241989,-0.24012641608715057
1772556661788846800,2.717846923828125,0.00020297407172620296,0.2666800320148468,-0.26530325412750244
1772556661798831000,2.7278310546875,0.03186636045575142,0.31010234355926514,-0.2583601176738739
1772556661808815900,2.73781591796875,0.0610540509223938,0.31632110476493835,-0.21443596482276917
1772556661818799900,2.7477998046875,0.08895253390073776,0.2886676490306854,-0.13058313727378845
1772556661828783900,2.757783935546875,0.11446667462587357,0.2527006268501282,-0.01659802719950676
1772556661838769000,2.767768798828125,0.14070813357830048,0.22255951166152954,0.12283017486333847
1772556661848753000,2.7777529296875,0.1700967699289322,0.1989535242319107,0.2695758044719696
1772556661858737000,2.78773681640625,0.19884106516838074,0.16870081424713135,0.4124687612056732
1772556661868721000,2.797720947265625,0.21772567927837372,0.14469501376152039,0.5472323894500732
1772556661878706000,2.807705810546875,0.2320987582206726,0.11417997628450394,0.6616442203521729
1772556661888690000,2.81768994140625,0.2464480996131897,0.07149630039930344,0.7464380264282227
1772556661898674000,2.827673828125,0.2545877695083618,0.014860454015433788,0.7708163261413574
1772556661908658000,2.837657958984375,0.2596152722835541,-0.02016589045524597,0.7258016467094421
1772556661918643000,2.847642822265625,0.2464965283870697,-0.053570184856653214,0.6044954657554626
1772556661928627000,2.857626953125,0.20275865495204926,-0.09374004602432251,0.43078911304473877
1772556661938611000,2.86761083984375,0.13457481563091278,-0.13949261605739594,0.23657062649726868
1772556661948596000,2.877595947265625,0.03541392460465431,-0.20014698803424835,0.03980366885662079
1772556661958580000,2.887580078125,-0.07025578618049622,-0.25042158365249634,-0.11409907788038254
1772556661968564000,2.89756396484375,-0.1515030860900879,-0.2630210816860199,-0.17829099297523499
1772556661978548000,2.9075478515625,-0.18011422455310822,-0.23425522446632385,-0.11904444545507431
1772556661988533000,2.917532958984375,-0.13837876915931702,-0.16048404574394226,0.09104031324386597
1772556661998517000,2.92751708984375,-0.04843875765800476,-0.08985673636198044,0.4037899672985077
1772556662008501000,2.9375009765625,0.03674980252981186,-0.05370147526264191,0.7038176655769348
1772556662018486000,2.947486083984375,0.10759308189153671,-0.1108904704451561,0.8675400018692017
1772556662028470000,2.957469970703125,0.17891466617584229,-0.23706568777561188,0.8305694460868835
1772556662038454000,2.9674541015625,0.20895379781723022,-0.40345489978790283,0.5958868861198425
1772556662048438000,2.97743798828125,0.1505482792854309,-0.5822404623031616,0.18293629586696625
1772556662058423000,2.987423095703125,0.03687019646167755,-0.7025407552719116,-0.30902037024497986
1772556662068407000,2.997406982421875,-0.09363272786140442,-0.7181030511856079,-0.7290393710136414
1772556662078391000,3.00739111328125,-0.20535340905189514,-0.6582351922988892,-0.9515009522438049
1772556662088375000,3.017375,-0.26069751381874084,-0.512695848941803,-0.8999558687210083
1772556662098360000,3.027360107421875,-0.2526877820491791,-0.3247613310813904,-0.5803507566452026
1772556662108344000,3.037343994140625,-0.17487601935863495,-0.15998022258281708,-0.10503729432821274
1772556662118328000,3.047328125,-0.06853652745485306,-0.09796958416700363,0.3809256851673126
1772556662128313000,3.05731298828125,0.03713048994541168,-0.10168890655040741,0.7533361315727234
1772556662138297000,3.067297119140625,0.10840839892625809,-0.1470814198255539,0.9393091797828674
1772556662148281000,3.077281005859375,0.12278685718774796,-0.20171180367469788,0.9229136109352112
1772556662158265000,3.08726513671875,0.08967044949531555,-0.2515225112438202,0.7439502477645874
1772556662168250000,3.09725,0.015900466591119766,-0.2980175018310547,0.4536670744419098
1772556662178234000,3.107234130859375,-0.06361007690429688,-0.30892714858055115,0.09531398862600327
1772556662188217900,3.1172177734375,-0.1221933513879776,-0.30038291215896606,-0.28741657733917236
1772556662198203100,3.127203125,-0.15131768584251404,-0.3161163330078125,-0.6325185894966125
1772556662208187100,3.137187255859375,-0.14293135702610016,-0.3685804307460785,-0.859561026096344
1772556662218171000,3.1471708984375,-0.10148536413908005,-0.4393102824687958,-0.9425123333930969
1772556662228155000,3.15715478515625,-0.010101376101374626,-0.5035414695739746,-0.8862531781196594
1772556662238140200,3.16714013671875,0.0989454835653305,-0.5445666313171387,-0.7348026633262634
1772556662248124000,3.1771240234375,0.20453450083732605,-0.5695631504058838,-0.5479568243026733
1772556662258108000,3.18710791015625,0.2813347280025482,-0.5919408798217773,-0.37303876876831055
1772556662268092000,3.197091796875,0.30605199933052063,-0.6188455820083618,-0.2291085422039032
1772556662278077000,3.207076904296875,0.2937586009502411,-0.6508485078811646,-0.1253344714641571
1772556662288061000,3.21706103515625,0.25331148505210876,-0.6742679476737976,-0.06931239366531372
1772556662298045000,3.227044921875,0.19916753470897675,-0.6895853877067566,-0.048454511910676956
1772556662308030000,3.237030029296875,0.1483890414237976,-0.7008053064346313,-0.04633595049381256
1772556662318014000,3.247013916015625,0.10384927690029144,-0.6805269122123718,-0.037841796875
1772556662327998000,3.256998046875,0.06268896907567978,-0.6362148523330688,-0.0272626094520092
1772556662337982000,3.26698193359375,0.0180493276566267,-0.5767654180526733,-0.02105185203254223
1772556662347967000,3.276967041015625,-0.01232149451971054,-0.5062915086746216,-0.02238794043660164
1772556662357951000,3.286950927734375,-0.038512084633111954,-0.4421018958091736,-0.03162698075175285
1772556662367935000,3.29693505859375,-0.07455404102802277,-0.3879101872444153,-0.05980614945292473
1772556662377920000,3.306919921875,-0.11742827296257019,-0.35577699542045593,-0.10207051038742065
1772556662387903500,3.316903564453125,-0.16822056472301483,-0.35565268993377686,-0.1416916400194168
1772556662397887500,3.326887451171875,-0.22532778978347778,-0.3651620149612427,-0.1603873074054718
1772556662407871500,3.33687158203125,-0.29784679412841797,-0.39101114869117737,-0.14936240017414093
1772556662417856500,3.3468564453125,-0.37932857871055603,-0.4297391176223755,-0.12832342088222504
1772556662427840500,3.356840576171875,-0.4734761416912079,-0.48734089732170105,-0.11221235990524292
1772556662437824500,3.366824462890625,-0.5769088268280029,-0.521618664264679,-0.10279862582683563
1772556662447809500,3.3768095703125,-0.6776826977729797,-0.49127402901649475,-0.09706226736307144
1772556662457793500,3.38679345703125,-0.756255567073822,-0.41974949836730957,-0.12668727338314056
1772556662467777500,3.396777587890625,-0.7913663387298584,-0.29416701197624207,-0.19151267409324646
1772556662477761500,3.406761474609375,-0.7672980427742004,-0.15812024474143982,-0.2568274736404419
1772556662487746600,3.41674658203125,-0.6997297406196594,-0.007847631350159645,-0.31235039234161377
1772556662497730600,3.42673046875,-0.6147668957710266,0.09883354604244232,-0.3599831759929657
1772556662507714600,3.436714599609375,-0.5014129877090454,0.13021856546401978,-0.3848927319049835
1772556662517699600,3.446699462890625,-0.36648741364479065,0.10214857012033463,-0.3611319959163666
1772556662527683600,3.45668359375,-0.219376340508461,0.047027964144945145,-0.27169737219810486
1772556662537667600,3.46666748046875,-0.06670397520065308,0.0064211515709757805,-0.11180408298969269
1772556662547651600,3.476651611328125,0.060567401349544525,-0.044552456587553024,0.08552684634923935
1772556662557636600,3.48663671875,0.06775953620672226,-0.1340852528810501,0.22013472020626068
1772556662567620600,3.49662060546875,-0.059489406645298004,-0.2754164934158325,0.2375488132238388
1772556662577604600,3.5066044921875,-0.22516731917858124,-0.42480891942977905,0.14921176433563232
1772556662587589400,3.51658935546875,-0.339724600315094,-0.5713212490081787,-0.010383369401097298
1772556662597573600,3.52657373046875,-0.4057198762893677,-0.6905531287193298,-0.1974983960390091
1772556662607557400,3.536557373046875,-0.4371092915534973,-0.7731725573539734,-0.3655056059360504
1772556662617541400,3.546541259765625,-0.4279046058654785,-0.8029517531394958,-0.4512050449848175
1772556662627526400,3.5565263671875,-0.35579824447631836,-0.8380504250526428,-0.4307101368904114
1772556662637510400,3.566510498046875,-0.25256532430648804,-0.889517068862915,-0.32682156562805176
1772556662647494400,3.576494384765625,-0.16610069572925568,-0.8524110913276672,-0.16075262427330017
1772556662657478400,3.586478515625,-0.0868293046951294,-0.8149881362915039,-0.012363690882921219
1772556662667463400,3.59646337890625,-0.033266857266426086,-0.7176051139831543,0.11473583430051804
1772556662677447400,3.606447509765625,-0.05282004922628403,-0.5010581612586975,0.19672659039497375
1772556662687431400,3.616431396484375,-0.13357292115688324,-0.3092174530029297,0.1966228187084198
1772556662697416200,3.626416259765625,-0.2361094057559967,-0.16456042230129242,0.12683308124542236
1772556662707400400,3.636400390625,-0.3246583938598633,-0.07148781418800354,0.010160082951188087
1772556662717384400,3.646384521484375,-0.36960482597351074,0.009128465317189693,-0.11711078882217407
1772556662727368400,3.656368408203125,-0.35137566924095154,0.11383575946092606,-0.22050872445106506
1772556662737353200,3.666353271484375,-0.29340052604675293,0.21992865204811096,-0.3111502230167389
1772556662747337200,3.676337158203125,-0.21682432293891907,0.2856060862541199,-0.4000312387943268
1772556662757321500,3.686321533203125,-0.12439079582691193,0.29187676310539246,-0.47056132555007935
1772556662767306200,3.69630615234375,-0.01579856500029564,0.24938499927520752,-0.5187460780143738
1772556662777290200,3.706290283203125,0.0866393968462944,0.16664618253707886,-0.5354369282722473
1772556662787274200,3.716274169921875,0.16820764541625977,0.0585249587893486,-0.5123327970504761
1772556662797258500,3.726258544921875,0.21466276049613953,-0.050367701798677444,-0.4473077058792114
1772556662807243300,3.7362431640625,0.22910629212856293,-0.18106529116630554,-0.34626102447509766
1772556662817227300,3.746227294921875,0.20983779430389404,-0.31914034485816956,-0.23034510016441345
1772556662827211300,3.756211181640625,0.16105680167675018,-0.4204091429710388,-0.09801849722862244
1772556662837196300,3.7661962890625,0.1038755476474762,-0.45436471700668335,0.018902001902461052
1772556662847180300,3.77618017578125,0.041907183825969696,-0.43316397070884705,0.11702936887741089
1772556662857164300,3.786164306640625,-0.012449264526367188,-0.3523261249065399,0.18907107412815094
1772556662867148300,3.796148193359375,-0.06184994429349899,-0.23053233325481415,0.22755764424800873
1772556662877133300,3.80613330078125,-0.09220492094755173,-0.10737444460391998,0.233494371175766
1772556662887117300,3.816117431640625,-0.10111920535564423,0.0038671796210110188,0.20368915796279907
1772556662897101300,3.826101318359375,-0.09006362408399582,0.09419760853052139,0.1465984433889389
1772556662907086300,3.83608642578125,-0.07829540967941284,0.1780637949705124,0.07798884063959122
1772556662917070300,3.8460703125,-0.061877019703388214,0.22329731285572052,0.010267847217619419
1772556662927054300,3.856054443359375,-0.026125214993953705,0.2683238387107849,-0.03660091012716293
1772556662937039400,3.866039306640625,0.007784815039485693,0.26593017578125,-0.06713805347681046
1772556662947023400,3.8760234375,0.032155778259038925,0.2156565934419632,-0.06677943468093872
1772556662957007400,3.88600732421875,0.059419356286525726,0.157373309135437,-0.030213965103030205
1772556662966991400,3.895991455078125,0.08121436089277267,0.11300167441368103,0.033714327961206436
1772556662976976400,3.905976318359375,0.09446651488542557,0.10142677277326584,0.12205510586500168
1772556662986960400,3.91596044921875,0.10932624340057373,0.1321326345205307,0.21242748200893402
1772556662996944400,3.9259443359375,0.12429800629615784,0.20755921304225922,0.2975407838821411
1772556663006928400,3.935928466796875,0.1374056339263916,0.2884485423564911,0.3732607960700989
1772556663016913400,3.945913330078125,0.15488289296627045,0.3328498303890228,0.4322167932987213
1772556663026897400,3.9558974609375,0.18953634798526764,0.3372744023799896,0.4673619568347931
1772556663036881400,3.96588134765625,0.2207331508398056,0.3469296991825104,0.4764185845851898
1772556663046866400,3.975866455078125,0.22773948311805725,0.2828280031681061,0.44632747769355774
1772556663056850400,3.985850341796875,0.20228470861911774,0.21893636882305145,0.3857325613498688
1772556663066834400,3.99583447265625,0.14590255916118622,0.14181973040103912,0.2937258183956146
1772556663076818400,4.005818359375,0.07459402829408646,0.044498760253190994,0.17454804480075836
1772556663086802400,4.015802490234375,0.005302104167640209,-0.0714666098356247,0.06587723642587662
1772556663096786400,4.025786376953125,-0.029395954683423042,-0.19225534796714783,0.008515407331287861
1772556663106770400,4.0357705078125,-0.013991676270961761,-0.2562743127346039,0.036630310118198395
1772556663116755500,4.04575537109375,-0.0036389038432389498,-0.24746590852737427,0.14246192574501038
1772556663126739500,4.055739501953125,-0.01995394565165043,-0.1961660385131836,0.26382794976234436
1772556663136723500,4.065723388671875,-0.030385812744498253,-0.1802283525466919,0.3298269212245941
1772556663146708500,4.07570849609375,-0.028422189876437187,-0.22729744017124176,0.2871580421924591
1772556663156692500,4.0856923828125,-0.011600067839026451,-0.2915712296962738,0.12551482021808624
1772556663166676500,4.095676513671875,0.03407350182533264,-0.3307097554206848,-0.1170893982052803
1772556663176660200,4.10566015625,0.066575787961483,-0.2905617952346802,-0.3721720278263092
1772556663186645500,4.1156455078125,0.09030497074127197,-0.20166656374931335,-0.5803855061531067
1772556663196629500,4.12562939453125,0.1166771873831749,-0.1099422350525856,-0.7088180184364319
1772556663206613200,4.13561328125,0.14614619314670563,-0.012605985626578331,-0.703039288520813
1772556663216598500,4.1455986328125,0.15917570888996124,0.13921016454696655,-0.564970076084137
1772556663226582500,4.15558251953125,0.1641189455986023,0.31362396478652954,-0.330748051404953
1772556663236566300,4.165566162109375,0.15475395321846008,0.5066248774528503,-0.07010927051305771
1772556663246550300,4.17555029296875,0.13209842145442963,0.6484752893447876,0.1301908791065216
1772556663256535600,4.18553564453125,0.0954943373799324,0.6239762902259827,0.24197573959827423
1772556663266519300,4.195519287109375,0.05233484506607056,0.6819050908088684,0.3129701018333435
1772556663276503300,4.20550341796875,0.004291418008506298,0.6534316539764404,0.30520379543304443
1772556663286488300,4.21548828125,-0.04753449931740761,0.5393478274345398,0.22330209612846375
1772556663296472300,4.225472412109375,-0.0856134369969368,0.41086626052856445,0.08529388159513474
1772556663306456300,4.235456298828125,-0.10867100954055786,0.2862951159477234,-0.09781023114919662
1772556663316440300,4.2454404296875,-0.10621371120214462,0.16130150854587555,-0.2944149076938629
1772556663326425300,4.25542529296875,-0.07372178137302399,0.07057427614927292,-0.47289180755615234
1772556663336409300,4.265409423828125,-0.027248024940490723,0.015601571649312973,-0.6180732250213623
1772556663346393300,4.275393310546875,0.04386092349886894,-0.023120339959859848,-0.7133631110191345
1772556663356378400,4.28537841796875,0.12847967445850372,-0.07730714976787567,-0.7619263529777527
1772556663366362400,4.2953623046875,0.21990689635276794,-0.14153242111206055,-0.7634543776512146
1772556663376346400,4.305346435546875,0.3117430806159973,-0.2162572592496872,-0.705891489982605
1772556663386331400,4.315331298828125,0.39225009083747864,-0.2988321781158447,-0.6004018187522888
1772556663396316700,4.325316650390625,0.4595401883125305,-0.35442808270454407,-0.4556076228618622
1772556663406300700,4.33530078125,0.5049018859863281,-0.3428385853767395,-0.2904619574546814
1772556663416284700,4.34528466796875,0.5263442993164062,-0.2845577001571655,-0.1422882229089737
1772556663426269700,4.355269775390625,0.5239776372909546,-0.22150510549545288,-0.018363259732723236
1772556663436253700,4.365253662109375,0.48626747727394104,-0.16823549568653107,0.08039341121912003
1772556663446237700,4.37523779296875,0.4348352253437042,-0.13779771327972412,0.13606564700603485
1772556663456222700,4.38522265625,0.37458866834640503,-0.07478225976228714,0.16156062483787537
1772556663466208800,4.395208740234375,0.281077116727829,-0.014748793095350266,0.13749194145202637
1772556663476192800,4.40519287109375,0.16247136890888214,0.009178911335766315,0.08048991113901138
1772556663486177800,4.415177734375,0.03433666005730629,-0.0026195934042334557,0.01912446692585945
1772556663496161800,4.425161865234375,-0.0894678384065628,-0.012559575960040092,-0.02487974427640438
1772556663506145800,4.435145751953125,-0.20096798241138458,-0.03493419289588928,-0.03646964207291603
1772556663516129800,4.4451298828125,-0.2881383001804352,-0.07856476306915283,-0.009937101043760777
1772556663526114800,4.45511474609375,-0.3538917005062103,-0.11183199286460876,0.04854413866996765
1772556663536098800,4.465098876953125,-0.4002717137336731,-0.12976624071598053,0.1277630627155304
1772556663546082800,4.475082763671875,-0.44341132044792175,-0.14827919006347656,0.22987425327301025
1772556663556067600,4.485067626953125,-0.4859132468700409,-0.17039142549037933,0.3432929813861847
1772556663566051800,4.4950517578125,-0.5347811579704285,-0.18158766627311707,0.43996667861938477
1772556663576035800,4.505035888671875,-0.582648515701294,-0.16548459231853485,0.49974772334098816
1772556663586019800,4.515019775390625,-0.6214295029640198,-0.12591485679149628,0.5192084312438965
1772556663596004600,4.525004638671875,-0.6373381614685059,-0.06426028162240982,0.5051493048667908
1772556663605988900,4.53498876953125,-0.624936044216156,0.00959336943924427,0.4499559998512268
1772556663615972900,4.544972900390625,-0.5797169208526611,0.06566809117794037,0.37023746967315674
1772556663625957600,4.55495751953125,-0.5086039304733276,0.08346455544233322,0.2777480483055115
1772556663635941600,4.564941650390625,-0.41801461577415466,0.10561592876911163,0.19096359610557556
1772556663645926000,4.57492578125,-0.310168594121933,0.12486974149942398,0.12696217000484467
1772556663655910700,4.58491064453125,-0.18526311218738556,0.11170893162488937,0.10174895077943802
1772556663665894700,4.594894775390625,-0.06811504811048508,0.08528496325016022,0.12446588277816772
1772556663675878700,4.604878662109375,-0.010011529549956322,0.02055097371339798,0.15774928033351898
1772556663685862700,4.614862548828125,-0.027723344042897224,-0.06075146421790123,0.14842048287391663
1772556663695847700,4.62484765625,-0.08280470222234726,-0.12576057016849518,0.06346990913152695
1772556663705831700,4.634831787109375,-0.16084693372249603,-0.19434727728366852,-0.0916985422372818
1772556663715815700,4.644815673828125,-0.2414693385362625,-0.2865355312824249,-0.2990754544734955
1772556663725800700,4.65480078125,-0.2977224290370941,-0.3867967426776886,-0.5216349959373474
1772556663735784700,4.66478466796875,-0.3155621290206909,-0.4998420774936676,-0.7306534647941589
1772556663745768700,4.674768798828125,-0.2904963493347168,-0.6183463335037231,-0.8817146420478821
1772556663755752700,4.684752685546875,-0.22759085893630981,-0.6902815103530884,-0.9165647625923157
1772556663765737700,4.69473779296875,-0.09660853445529938,-0.725372850894928,-0.8194912672042847
1772556663775721700,4.7047216796875,-0.01930016092956066,-0.6213039755821228,-0.5897665023803711
1772556663785705700,4.714705810546875,0.005823131185024977,-0.45167461037635803,-0.2906637489795685
1772556663795690800,4.724690673828125,-0.03059213235974312,-0.30425480008125305,-0.022373182699084282
1772556663805674800,4.7346748046875,-0.10460388660430908,-0.16876757144927979,0.1727280467748642
1772556663815658800,4.74465869140625,-0.20288918912410736,-0.030680004507303238,0.26705026626586914
1772556663825643800,4.754643798828125,-0.2707456350326538,0.11321625113487244,0.2716537415981293
1772556663835627800,4.764627685546875,-0.28914034366607666,0.2700612545013428,0.20438921451568604
1772556663845611800,4.77461181640625,-0.3057175576686859,0.36967095732688904,0.07427583634853363
1772556663855595800,4.784595703125,-0.3129693567752838,0.41973623633384705,-0.08867020905017853
1772556663865580800,4.794580810546875,-0.29871225357055664,0.4609868824481964,-0.2558073401451111
1772556663875564800,4.804564697265625,-0.2579461932182312,0.4633997082710266,-0.4198620319366455
1772556663885548800,4.814548828125,-0.18868166208267212,0.41189345717430115,-0.5662992000579834
1772556663895533800,4.824533935546875,-0.09156816452741623,0.31638211011886597,-0.6652686595916748
1772556663905517800,4.834517822265625,0.004857735708355904,0.20708757638931274,-0.7017048597335815
1772556663915501800,4.844501708984375,0.09074921160936356,0.08975403010845184,-0.6639984846115112
1772556663925485800,4.85448583984375,0.16079795360565186,-0.007906108163297176,-0.5495138764381409
1772556663935470800,4.864470947265625,0.20623548328876495,-0.06049048900604248,-0.3650473654270172
1772556663945454800,4.874454833984375,0.22145940363407135,-0.05728030204772949,-0.1518183797597885
1772556663955438800,4.88443896484375,0.2035035789012909,-0.013796472921967506,0.054690584540367126
1772556663965423900,4.894423828125,0.16964595019817352,0.06828424334526062,0.23244579136371613
1772556663975407900,4.904407958984375,0.1391836404800415,0.1660344898700714,0.3642565608024597
1772556663985391900,4.914391845703125,0.10859498381614685,0.2985842525959015,0.4461071193218231
1772556663995377000,4.924376953125,0.09006337821483612,0.4721973240375519,0.5017775893211365
1772556664005361000,4.93436083984375,0.08478891849517822,0.6246294379234314,0.5162937641143799
1772556664015345000,4.944344970703125,0.10329069942235947,0.772456169128418,0.5155318379402161
1772556664025328600,4.95432861328125,0.11213523149490356,0.9709225296974182,0.5242391228675842
1772556664035314000,4.96431396484375,0.08451639115810394,1.1201940774917603,0.5131784677505493
1772556664045298000,4.9742978515625,0.06447804719209671,1.2386534214019775,0.4988361895084381
1772556664055281700,4.98428173828125,0.06418296694755554,1.3497107028961182,0.5018367767333984
1772556664065267000,4.994266845703125,0.09634949266910553,1.484117865562439,0.5363385677337646
1772556664075251000,5.0042509765625,0.13316157460212708,1.615320086479187,0.588749349117279
1772556664085234700,5.014234619140625,0.17196792364120483,1.7032734155654907,0.6353182196617126
1772556664095218700,5.02421875,0.20902980864048004,1.7621403932571411,0.6844133734703064
1772556664105203700,5.03420361328125,0.22537919878959656,1.8046578168869019,0.7434661388397217
1772556664115187700,5.044187744140625,0.23556633293628693,1.8088606595993042,0.8040114641189575
1772556664125171700,5.054171630859375,0.24330151081085205,1.7876039743423462,0.8843293786048889
1772556664135156700,5.06415673828125,0.2528494596481323,1.7323052883148193,0.9820929765701294
1772556664145140700,5.074140625,0.28163856267929077,1.654636263847351,1.059483528137207
1772556664155124700,5.084124755859375,0.38421207666397095,1.5421457290649414,1.0744905471801758
1772556664165109800,5.09410986328125,0.5102852582931519,1.2835792303085327,1.0719234943389893
1772556664175093800,5.10409375,0.5940192937850952,1.053224802017212,0.9995744228363037
1772556664185077800,5.114077880859375,0.6142887473106384,0.8709168434143066,0.8269159197807312
1772556664195061800,5.124061767578125,0.5829188227653503,0.7773498296737671,0.5832691788673401
1772556664205046500,5.134046630859375,0.5460555553436279,0.7497602105140686,0.32500216364860535
1772556664215030800,5.14403076171875,0.4989072382450104,0.7554745674133301,0.19299328327178955
1772556664225014800,5.154014892578125,0.4486197233200073,0.8847270607948303,0.19881859421730042
1772556664234999600,5.16399951171875,0.4074895977973938,1.0875872373580933,0.3217298686504364
1772556664244983600,5.173983642578125,0.42193761467933655,1.3444112539291382,0.48753196001052856
1772556664254967800,5.1839677734375,0.49358996748924255,1.5572402477264404,0.5391243100166321
1772556664264952600,5.19395263671875,0.5487688779830933,1.6243191957473755,0.3854125440120697
1772556664274936600,5.2039365234375,0.49714934825897217,1.6124305725097656,0.04832157492637634
1772556664284920600,5.213920654296875,0.3893716037273407,1.5250437259674072,-0.3593199849128723
1772556664294904800,5.22390478515625,0.2182038575410843,1.3795714378356934,-0.7171169519424438
1772556664304889600,5.2338896484375,0.01340198703110218,1.2486494779586792,-0.9276347756385803
1772556664314873600,5.24387353515625,-0.1936103254556656,1.1646970510482788,-0.9476301074028015
1772556664324857600,5.253857666015625,-0.3705522418022156,1.121678352355957,-0.7875846028327942
1772556664334842600,5.263842529296875,-0.4325559437274933,1.3036614656448364,-0.6887208819389343
1772556664344826600,5.27382666015625,-0.3837747275829315,1.8318958282470703,-0.3957210183143616
1772556664354810600,5.283810546875,-0.2701033055782318,2.4666178226470947,-0.22020353376865387
1772556664364794600,5.293794677734375,-0.12075812369585037,2.8960306644439697,-0.14068703353405
1772556664374779600,5.303779541015625,0.022328995168209076,3.2410976886749268,-0.09988421201705933
1772556664384763600,5.313763671875,0.1392151117324829,3.417895555496216,-0.08770016580820084
1772556664394747100,5.3237470703125,0.23640930652618408,3.367319107055664,-0.08013385534286499
1772556664404732200,5.333732177734375,0.3457932770252228,3.171600818634033,-0.08429417759180069
1772556664414716200,5.343716064453125,0.43638497591018677,2.823594331741333,-0.07395658642053604
1772556664424700200,5.3537001953125,0.4975385367870331,2.3602843284606934,0.004660839214920998
1772556664434685200,5.363685302734375,0.5124716758728027,1.8136889934539795,0.12305273115634918
1772556664444669200,5.373669189453125,0.46621063351631165,1.3041635751724243,0.22260622680187225
1772556664454653200,5.383653076171875,0.4068021774291992,0.8012844920158386,0.3065461218357086
1772556664464637200,5.39363720703125,0.33562877774238586,0.3600703477859497,0.2836150527000427
1772556664474622200,5.403622314453125,0.25937420129776,-0.001227151951752603,0.26823049783706665
1772556664484606200,5.413606201171875,0.22853730618953705,-0.0921274721622467,0.2232884168624878
1772556664494590200,5.423590087890625,0.24362865090370178,-0.04617222771048546,0.15067119896411896
1772556664504575200,5.4335751953125,0.2669556438922882,0.12161655724048615,0.06135500594973564
1772556664514559200,5.443559326171875,0.2838171720504761,0.4051249921321869,-0.07520443946123123
1772556664524543000,5.45354296875,0.33440661430358887,0.7227993607521057,-0.21256104111671448
1772556664534528300,5.4635283203125,0.37861669063568115,1.0724624395370483,-0.3562106490135193
1772556664544512300,5.47351220703125,0.389438658952713,1.3739193677902222,-0.4967730641365051
1772556664554496000,5.48349609375,0.37706348299980164,1.5676614046096802,-0.6094884276390076
1772556664564480000,5.49347998046875,0.3515786826610565,1.6110126972198486,-0.6799048185348511
1772556664574465300,5.50346533203125,0.2766932547092438,1.5202276706695557,-0.7055034041404724
1772556664584449000,5.513448974609375,0.18432310223579407,1.3290647268295288,-0.6873583793640137
1772556664594433000,5.52343310546875,0.12325867265462875,1.063590168952942,-0.6253048777580261
1772556664604418300,5.533418212890625,0.09344582259654999,0.756354033946991,-0.5334941744804382
1772556664614402000,5.543402099609375,0.0771946832537651,0.5010202527046204,-0.4213183522224426
1772556664624386000,5.553385986328125,0.09318703413009644,0.3115052282810211,-0.3057556450366974
1772556664634371300,5.563371337890625,0.14967641234397888,0.1395324170589447,-0.20856039226055145
1772556664644355000,5.57335498046875,0.20880302786827087,-0.01608966663479805,-0.11424167454242706
1772556664654339000,5.583339111328125,0.2687537372112274,-0.1725437194108963,-0.025909677147865295
1772556664664323000,5.593322998046875,0.3246747553348541,-0.34250208735466003,0.08123736828565598
1772556664674308000,5.60330810546875,0.37610676884651184,-0.5037629008293152,0.21841014921665192
1772556664684292000,5.6132919921875,0.40907761454582214,-0.6184806823730469,0.37031257152557373
1772556664694276000,5.623276123046875,0.42037901282310486,-0.667860209941864,0.49312344193458557
1772556664704261000,5.63326123046875,0.3879363536834717,-0.6729266047477722,0.5298565030097961
1772556664714245000,5.6432451171875,0.30598264932632446,-0.6043928265571594,0.470686137676239
1772556664724229000,5.65322900390625,0.19316741824150085,-0.4521017074584961,0.33809542655944824
1772556664734214100,5.663214111328125,0.08208455890417099,-0.24684949219226837,0.19284877181053162
1772556664744198100,5.6731982421875,-0.012663297355175018,0.01329055242240429,0.07807761430740356
1772556664754182100,5.68318212890625,-0.06279810518026352,0.24636055529117584,0.007858584634959698
1772556664764166100,5.693166259765625,-0.07713570445775986,0.39550328254699707,-0.01773919351398945
1772556664774151200,5.703151123046875,-0.030549827963113785,0.457412987947464,0.004767978563904762
1772556664784135200,5.71313525390625,0.059594981372356415,0.49255526065826416,0.08893931657075882
1772556664794119200,5.723119140625,0.15338273346424103,0.5350263118743896,0.21388551592826843
1772556664804104200,5.733104248046875,0.2054329812526703,0.5739306211471558,0.3303866386413574
1772556664814088200,5.743088134765625,0.18411198258399963,0.5724639892578125,0.38960710167884827
1772556664824072200,5.753072265625,0.0728570744395256,0.5218967199325562,0.3550494611263275
1772556664834057200,5.76305712890625,-0.13717180490493774,0.34977662563323975,0.2076946347951889
1772556664844041200,5.773041259765625,-0.40815168619155884,0.05587969720363617,-0.008610136806964874
1772556664854025200,5.783025146484375,-0.6730446219444275,-0.2752295434474945,-0.21102768182754517
1772556664864009200,5.79300927734375,-0.8584191799163818,-0.5968936085700989,-0.3457305431365967
1772556664873994200,5.802994140625,-0.9225350618362427,-0.8713986873626709,-0.40405136346817017
1772556664883978200,5.812978271484375,-0.8708962798118591,-1.0328614711761475,-0.38501787185668945
1772556664893962200,5.822962158203125,-0.7300099730491638,-1.0477421283721924,-0.3361257016658783
1772556664903947000,5.832947021484375,-0.5120833516120911,-0.9661245942115784,-0.2824903428554535
1772556664913931000,5.842930908203125,-0.27373600006103516,-0.8279169201850891,-0.23516783118247986
1772556664923915300,5.852915283203125,-0.0525745190680027,-0.6369454860687256,-0.19781512022018433
1772556664933900000,5.862900146484375,0.12254616618156433,-0.45388486981391907,-0.18186438083648682
1772556664943884000,5.872884033203125,0.24701516330242157,-0.3183042109012604,-0.17891964316368103
1772556664953868000,5.882867919921875,0.31402111053466797,-0.2032415270805359,-0.19767707586288452
1772556664963852300,5.892852294921875,0.3489990830421448,-0.07821528613567352,-0.2617734372615814
1772556664973837000,5.902837158203125,0.3425576984882355,0.04783133044838905,-0.3836687207221985
1772556664983821000,5.912821044921875,0.2922669053077698,0.17009113729000092,-0.5461456775665283
1772556664993805000,5.92280517578125,0.21318645775318146,0.29404476284980774,-0.7073166966438293
1772556665003790000,5.9327900390625,0.12365752458572388,0.3813559412956238,-0.8260237574577332
1772556665013774000,5.942774169921875,0.04194694757461548,0.41604334115982056,-0.8731457591056824
1772556665023758000,5.952758056640625,-0.025863461196422577,0.42485636472702026,-0.8390799164772034
1772556665033743000,5.9627431640625,-0.06611235439777374,0.39210081100463867,-0.7510337233543396
1772556665043727000,5.97272705078125,-0.07742622494697571,0.32071876525878906,-0.6425437927246094
1772556665053711000,5.982711181640625,-0.05806610733270645,0.24787412583827972,-0.5148449540138245
1772556665063695000,5.992695068359375,-0.024512233212590218,0.17334520816802979,-0.3805405795574188
1772556665073680100,6.00268017578125,0.026066254824399948,0.12767758965492249,-0.2506915032863617
1772556665083664100,6.0126640625,0.08352158218622208,0.10432427376508713,-0.14225323498249054
1772556665093648100,6.022648193359375,0.1455516666173935,0.0694909319281578,-0.06910791993141174
1772556665103633200,6.032633056640625,0.20979513227939606,0.0036224217619746923,-0.021681644022464752
1772556665113617200,6.0426171875,0.2588566839694977,-0.08072281628847122,0.009118610993027687
1772556665123601200,6.05260107421875,0.28971612453460693,-0.16878359019756317,0.0227366890758276
1772556665133586200,6.062586181640625,0.30666953325271606,-0.26433834433555603,0.019168321043252945
1772556665143570200,6.072570068359375,0.2835448682308197,-0.35614392161369324,-0.005229358561336994
1772556665153554200,6.08255419921875,0.21200837194919586,-0.4343548119068146,-0.04180974140763283
1772556665163538200,6.0925380859375,0.11079899966716766,-0.5104294419288635,-0.08068282902240753
1772556665173523200,6.102523193359375,-0.006597935222089291,-0.5734571218490601,-0.11344770342111588
1772556665183507200,6.112507080078125,-0.10686616599559784,-0.6168646216392517,-0.12962549924850464
1772556665193491200,6.1224912109375,-0.18090710043907166,-0.6601582765579224,-0.13249187171459198
1772556665203476200,6.132476318359375,-0.21869100630283356,-0.6954466700553894,-0.10590376704931259
1772556665213460200,6.142460205078125,-0.22173713147640228,-0.7095470428466797,-0.031842589378356934
1772556665223444200,6.1524443359375,-0.20836298167705536,-0.6570035815238953,0.08389206230640411
1772556665233429200,6.16242919921875,-0.1763339340686798,-0.5434482097625732,0.23157234489917755
1772556665243413200,6.172413330078125,-0.13077953457832336,-0.3843916058540344,0.3908032178878784
1772556665253397200,6.182397216796875,-0.0738600566983223,-0.188886821269989,0.5350661277770996
1772556665263381200,6.19238134765625,-0.02516649104654789,-0.004519800189882517,0.6529626250267029
1772556665273366300,6.2023662109375,0.010064734145998955,0.122719906270504,0.7224003076553345
1772556665283350300,6.212350341796875,0.0322384350001812,0.19609753787517548,0.7382788062095642
1772556665293334300,6.222334228515625,0.0340547114610672,0.208088681101799,0.7056335210800171
1772556665303319300,6.2323193359375,0.00977990310639143,0.1602419763803482,0.6265329122543335
1772556665313303300,6.24230322265625,-0.05548112466931343,0.05470222979784012,0.5060067772865295
1772556665323287300,6.252287353515625,-0.14392639696598053,-0.06953875720500946,0.3703266382217407
1772556665333272300,6.262272216796875,-0.23291540145874023,-0.2179308980703354,0.24935731291770935
1772556665343256300,6.27225634765625,-0.3057909607887268,-0.3628140091896057,0.1721891164779663
1772556665353240300,6.282240234375,-0.330882728099823,-0.4671984910964966,0.1505059152841568
1772556665363224300,6.292224365234375,-0.2871848940849304,-0.5182912945747375,0.18433961272239685
1772556665373209300,6.302209228515625,-0.1279352903366089,-0.402705579996109,0.2793782353401184
1772556665383193300,6.312193359375,0.12363936007022858,-0.049528032541275024,0.42188844084739685
1772556665393176800,6.3221767578125,0.3488919138908386,0.4017674922943115,0.5264912843704224
1772556665403161900,6.332161865234375,0.4913126528263092,0.8039590120315552,0.5478111505508423
1772556665413145900,6.342145751953125,0.5253592729568481,1.073027491569519,0.4736485183238983
1772556665423129900,6.3521298828125,0.4610097110271454,1.1151082515716553,0.3482835292816162
1772556665433115000,6.362114990234375,0.3068409264087677,0.9506449699401855,0.22749267518520355
1772556665443099000,6.372098876953125,0.07414329051971436,0.7201389074325562,0.10268548876047134
1772556665453083000,6.382082763671875,-0.23172660171985626,0.2865203320980072,0.012490347027778625
1772556665463067000,6.39206689453125,-0.531865119934082,-0.11661910265684128,-0.06800155341625214
1772556665473052000,6.402052001953125,-0.7368432879447937,-0.4489869475364685,-0.1320095658302307
1772556665483036000,6.412035888671875,-0.8413308262825012,-0.7320349216461182,-0.1864464432001114
1772556665493020000,6.42202001953125,-0.8299418091773987,-0.9261111617088318,-0.22121481597423553
1772556665503004700,6.432004638671875,-0.7209951281547546,-1.0249358415603638,-0.22232143580913544
1772556665512989000,6.441989013671875,-0.5292797684669495,-0.9988241195678711,-0.1973457783460617
1772556665522973000,6.451972900390625,-0.29898959398269653,-0.8255473375320435,-0.14549759030342102
1772556665532957700,6.461957763671875,-0.0657784715294838,-0.5301820039749146,-0.08309653401374817
1772556665542941700,6.471941650390625,0.1239098533987999,-0.2006807029247284,-0.041169289499521255
1772556665552926000,6.481926025390625,0.22986957430839539,0.1075010895729065,-0.03193185105919838
1772556665562910000,6.491909912109375,0.24823449552059174,0.3627590239048004,-0.059868089854717255
1772556665572894700,6.501894775390625,0.2146672159433365,0.5581231713294983,-0.11507035791873932
1772556665582878700,6.511878662109375,0.15319444239139557,0.6813144087791443,-0.1972542405128479
1772556665592862700,6.52186279296875,0.08787508308887482,0.7474824786186218,-0.27905377745628357
1772556665602847700,6.53184765625,0.03691848739981651,0.7860738039016724,-0.34146374464035034
1772556665612831700,6.541831787109375,-0.0013050655834376812,0.7914086580276489,-0.36838698387145996
1772556665622815700,6.551815673828125,-0.02536027505993843,0.7514652013778687,-0.3797396719455719
1772556665632800800,6.56180078125,-0.03720308467745781,0.661405086517334,-0.37887707352638245
1772556665642784800,6.57178466796875,-0.03442760184407234,0.5362206697463989,-0.3625457286834717
1772556665652768800,6.581768798828125,-0.015168419107794762,0.39221447706222534,-0.3381810188293457
1772556665662752800,6.591752685546875,0.014088804833590984,0.21708571910858154,-0.31609368324279785
1772556665672737800,6.60173779296875,0.061290938407182693,0.017801638692617416,-0.2906511723995209
1772556665682721800,6.6117216796875,0.10520560294389725,-0.16602475941181183,-0.2628602683544159
1772556665692705800,6.621705810546875,0.1457413136959076,-0.3124280571937561,-0.22622555494308472
1772556665702690800,6.63169091796875,0.16453461349010468,-0.4319395422935486,-0.20331180095672607
1772556665712674800,6.6416748046875,0.15765060484409332,-0.49879926443099976,-0.19900307059288025
1772556665722658800,6.651658935546875,0.14168888330459595,-0.49903836846351624,-0.2122662514448166
1772556665732643800,6.661643798828125,0.13353535532951355,-0.46030643582344055,-0.24557654559612274
1772556665742627800,6.6716279296875,0.14214342832565308,-0.42000439763069153,-0.28859829902648926
1772556665752611800,6.68161181640625,0.15866169333457947,-0.38561099767684937,-0.2979063093662262
1772556665762595800,6.691595947265625,0.1800864338874817,-0.3565319776535034,-0.27234670519828796
1772556665772580900,6.701580810546875,0.20798863470554352,-0.3255394399166107,-0.21805152297019958
1772556665782564900,6.71156494140625,0.24154961109161377,-0.29374995827674866,-0.14377062022686005
1772556665792548900,6.721548828125,0.2690776288509369,-0.24452783167362213,-0.0638078823685646
1772556665802534000,6.731533935546875,0.26839151978492737,-0.20866771042346954,0.017698951065540314
1772556665812518000,6.741517822265625,0.22870776057243347,-0.18944767117500305,0.08289580047130585
1772556665822502000,6.751501953125,0.1562555879354477,-0.19960345327854156,0.13670745491981506
1772556665832487000,6.76148681640625,0.046822041273117065,-0.22603878378868103,0.18218865990638733
1772556665842471000,6.771470947265625,-0.08306047320365906,-0.28693467378616333,0.22792015969753265
1772556665852455000,6.781454833984375,-0.19793806970119476,-0.3358350992202759,0.27806296944618225
1772556665862439000,6.79143896484375,-0.27190789580345154,-0.3310834765434265,0.3247489929199219
1772556665872424000,6.801423828125,-0.3008013069629669,-0.2453768402338028,0.3446941375732422
1772556665882408000,6.811407958984375,-0.2911090850830078,-0.1098158210515976,0.33482038974761963
1772556665892392000,6.821391845703125,-0.2664937376976013,0.031900834292173386,0.30347099900245667
1772556665902377000,6.831376953125,-0.2233823984861374,0.17715130746364594,0.27200615406036377
1772556665912361000,6.84136083984375,-0.1361902505159378,0.39018234610557556,0.29095029830932617
1772556665922345000,6.851344970703125,-0.08090446144342422,0.5735335350036621,0.3338255286216736
1772556665932330000,6.861330078125,-0.12775027751922607,0.5885281562805176,0.3391459882259369
1772556665942314000,6.87131396484375,-0.2520032227039337,0.48970717191696167,0.3081532418727875
1772556665952298000,6.881298095703125,-0.42476460337638855,0.36169037222862244,0.23978349566459656
1772556665962282000,6.891281982421875,-0.6183184385299683,0.2884305417537689,0.14508311450481415
1772556665972267000,6.90126708984375,-0.8625668287277222,0.11273730546236038,0.0520639531314373
1772556665982251000,6.9112509765625,-1.0845590829849243,-0.03023550845682621,-0.050840236246585846
1772556665992235000,6.921235107421875,-1.1938978433609009,-0.07220426201820374,-0.1593504697084427
1772556666002220000,6.931219970703125,-1.16599440574646,-0.07151322811841965,-0.23615053296089172
1772556666012204000,6.9412041015625,-1.036354899406433,-0.05534464865922928,-0.27400869131088257
1772556666022188000,6.95118798828125,-0.8472826480865479,-0.01910472847521305,-0.24782493710517883
1772556666032172800,6.9611728515625,-0.6268032789230347,0.03891836106777191,-0.17531612515449524
1772556666042157000,6.971156982421875,-0.4083976447582245,0.10927226394414902,-0.08477877825498581
1772556666052141000,6.98114111328125,-0.2084009051322937,0.16777285933494568,-0.0013491329737007618
1772556666062125000,6.991125,-0.044477593153715134,0.20124377310276031,0.06556200236082077
1772556666072109800,7.00110986328125,0.061293575912714005,0.21583311259746552,0.10872332751750946
1772556666082094000,7.011093994140625,0.1029551550745964,0.22350960969924927,0.11314168572425842
1772556666092078000,7.021078125,0.09857558459043503,0.21133044362068176,0.06091310456395149
1772556666102062800,7.031062744140625,0.07290726155042648,0.1775401085615158,-0.02424541488289833
1772556666112046800,7.041046875,0.021001987159252167,0.1566886156797409,-0.12029711902141571
1772556666122030800,7.05103076171875,-0.03791295737028122,0.14777687191963196,-0.19639380276203156
1772556666132015900,7.061015869140625,-0.1031673327088356,0.1409922093153,-0.23116803169250488
1772556666141999900,7.070999755859375,-0.15999670326709747,0.12895721197128296,-0.22539252042770386
1772556666151983900,7.08098388671875,-0.21590417623519897,0.10491713136434555,-0.1908356100320816
1772556666161967900,7.0909677734375,-0.2643803060054779,0.0687132328748703,-0.1449814736843109
1772556666171953000,7.100952880859375,-0.2930292785167694,0.022782225161790848,-0.09817961603403091
1772556666181937000,7.11093701171875,-0.31237879395484924,-0.044897835701704025,-0.055407654494047165
1772556666191920600,7.120920654296875,-0.3188936710357666,-0.1343936324119568,-0.02535388059914112
1772556666201906000,7.130906005859375,-0.309489905834198,-0.22043053805828094,0.0024997529108077288
1772556666211890000,7.140889892578125,-0.2964779734611511,-0.30129531025886536,0.023819955065846443
1772556666221873700,7.150873779296875,-0.28109195828437805,-0.3730371296405792,0.04129214212298393
1772556666231857700,7.160857666015625,-0.2584279179573059,-0.4331265687942505,0.05804289132356644
1772556666241843000,7.170843017578125,-0.23210084438323975,-0.4843524992465973,0.07815777510404587
1772556666251826700,7.18082666015625,-0.19671009480953217,-0.5255537033081055,0.0950307697057724
1772556666261810700,7.190810791015625,-0.15860962867736816,-0.5674694776535034,0.11260541528463364
1772556666271796000,7.2007958984375,-0.12426843494176865,-0.600011944770813,0.13334238529205322
1772556666281779700,7.21077978515625,-0.09660787880420685,-0.6287834048271179,0.16021119058132172
1772556666291763700,7.220763671875,-0.06515514850616455,-0.6463775634765625,0.19848401844501495
1772556666301748700,7.230748779296875,-0.034956589341163635,-0.6567876935005188,0.24033807218074799
1772556666311732700,7.240732666015625,-0.0031360764987766743,-0.657974898815155,0.28329727053642273
1772556666321716700,7.250716796875,0.02916836366057396,-0.6195546984672546,0.32724934816360474
1772556666331700700,7.26070068359375,0.06800071150064468,-0.5311912894248962,0.3726687729358673
1772556666341685800,7.270685791015625,0.10117100179195404,-0.40200650691986084,0.3990474045276642
1772556666351669800,7.280669677734375,0.12184165418148041,-0.24404749274253845,0.40408289432525635
1772556666361653800,7.29065380859375,0.12299606949090958,-0.09220108389854431,0.38575130701065063
1772556666371638800,7.300638671875,0.10666290670633316,0.037140391767024994,0.3657344579696655
1772556666381622800,7.310622802734375,0.07166477292776108,0.12743498384952545,0.3428206145763397
1772556666391610000,7.320610107421875,0.046662479639053345,0.19585372507572174,0.3268807828426361
1772556666401594000,7.330593994140625,0.03090178780257702,0.22797170281410217,0.3066379725933075
1772556666411579100,7.3405791015625,0.02892971783876419,0.19152341783046722,0.271030992269516
1772556666421563100,7.350563232421875,0.028251171112060547,0.08759418874979019,0.22324413061141968
1772556666431547100,7.360547119140625,0.017771899700164795,-0.10700991749763489,0.16130858659744263
1772556666441532200,7.3705322265625,-0.005821852013468742,-0.3801492154598236,0.11236190795898438
1772556666451516200,7.38051611328125,-0.035438064485788345,-0.6820131540298462,0.09282336384057999
1772556666461500200,7.390500244140625,-0.06018070504069328,-0.9532431364059448,0.10994722694158554
1772556666471485200,7.400485107421875,-0.04966600984334946,-1.1445465087890625,0.13607123494148254
1772556666481469200,7.41046923828125,0.04410175234079361,-1.1537784337997437,0.1719227135181427
1772556666491453200,7.420453125,0.23985767364501953,-0.970186173915863,0.2224564552307129
1772556666501437200,7.430437255859375,0.4472585618495941,-0.7395639419555664,0.24268750846385956
1772556666511422200,7.440422119140625,0.6148949861526489,-0.48578548431396484,0.22714264690876007
1772556666521406200,7.45040625,0.7512938976287842,-0.25865569710731506,0.17017316818237305
1772556666531390200,7.46039013671875,0.7562055587768555,-0.26143762469291687,0.05729693919420242
1772556666541375200,7.470375244140625,0.5380712151527405,-0.5109676122665405,-0.09801352024078369
1772556666551359200,7.480359130859375,0.17347702383995056,-0.8502205014228821,-0.2712913155555725
1772556666561343200,7.49034326171875,-0.17825432121753693,-1.1552672386169434,-0.3996674120426178
1772556666571327200,7.5003271484375,-0.45646142959594727,-1.3252254724502563,-0.4273946285247803
1772556666581312300,7.510312255859375,-0.6128226518630981,-1.3391238451004028,-0.3541496694087982
1772556666591296300,7.520296142578125,-0.6341750621795654,-1.1864343881607056,-0.2001342922449112
1772556666601280300,7.5302802734375,-0.538009762763977,-0.8656678199768066,-0.004971644375473261
1772556666611265300,7.540265380859375,-0.3665378987789154,-0.41300952434539795,0.18994377553462982
1772556666621249300,7.550249267578125,-0.14814384281635284,0.12091386318206787,0.346632182598114
1772556666631233300,7.5602333984375,0.08926896750926971,0.6491270661354065,0.4451688826084137
1772556666641217300,7.57021728515625,0.281465083360672,1.1122164726257324,0.4668613374233246
1772556666651202300,7.580202392578125,0.413826048374176,1.4672198295593262,0.42633041739463806
1772556666661186300,7.590186279296875,0.47475042939186096,1.6927303075790405,0.33807867765426636
1772556666671170300,7.60017041015625,0.4558566212654114,1.7551941871643066,0.21804040670394897
1772556666681155300,7.6101552734375,0.3668743968009949,1.656659722328186,0.09790023416280746
1772556666691139300,7.620139404296875,0.2379411906003952,1.4224387407302856,-0.03700857609510422
1772556666701123300,7.630123291015625,0.13041265308856964,1.0875697135925293,-0.1731051653623581
1772556666711108000,7.640108154296875,0.08889583498239517,0.7115141153335571,-0.30172520875930786
1772556666721092400,7.65009228515625,0.13929301500320435,0.3280630111694336,-0.4172716736793518
1772556666731076400,7.660076416015625,0.2517434060573578,-0.019244348630309105,-0.4918260872364044
1772556666741060000,7.67006005859375,0.3822827935218811,-0.2872771620750427,-0.4998492896556854
1772556666751045000,7.680045166015625,0.516635000705719,-0.4620708227157593,-0.4469304382801056
1772556666761029000,7.690029052734375,0.6382307410240173,-0.5463179349899292,-0.3454526960849762
1772556666771013000,7.70001318359375,0.7269651293754578,-0.5393966436386108,-0.22127588093280792
1772556666780998100,7.709998046875,0.7722452282905579,-0.4604349136352539,-0.09531520307064056
1772556666790982000,7.71998193359375,0.7681301236152649,-0.33245885372161865,-0.0020835273899137974
1772556666800966100,7.729966064453125,0.7187243103981018,-0.16691002249717712,0.04544714838266373
1772556666810950100,7.7399501953125,0.6485377550125122,0.010907107032835484,0.04803627356886864
1772556666820935000,7.749934814453125,0.5698193311691284,0.16346831619739532,0.012163491919636726
1772556666830919000,7.7599189453125,0.48492732644081116,0.29861950874328613,-0.050960883498191833
1772556666840903200,7.769903076171875,0.3958476781845093,0.399934858083725,-0.12894152104854584
1772556666850888000,7.779887939453125,0.30409350991249084,0.47409456968307495,-0.20748692750930786
1772556666860872000,7.789871826171875,0.2127465307712555,0.5308959484100342,-0.2624019384384155
1772556666870856000,7.79985595703125,0.1265069842338562,0.5345330238342285,-0.2786911725997925
1772556666880840000,7.80983984375,0.04744281619787216,0.4506532549858093,-0.24300092458724976
1772556666890825000,7.819824951171875,-0.031369179487228394,0.30966126918792725,-0.15281963348388672
1772556666900809000,7.82980908203125,-0.08899268507957458,0.15560351312160492,-0.018303778022527695
1772556666910793000,7.83979296875,-0.13919273018836975,-0.005557410418987274,0.13490627706050873
1772556666920778000,7.849778076171875,-0.19052036106586456,-0.1496131271123886,0.27379775047302246
1772556666930762000,7.859761962890625,-0.24591757357120514,-0.24113425612449646,0.3881211280822754
1772556666940746000,7.86974609375,-0.3088611364364624,-0.27533552050590515,0.4600974917411804
1772556666950730000,7.87972998046875,-0.3911488354206085,-0.25952568650245667,0.45411548018455505
1772556666960715000,7.889715087890625,-0.4886782765388489,-0.19032703340053558,0.39594152569770813
1772556666970699000,7.899698974609375,-0.58783358335495,-0.09339649975299835,0.3018283545970917
1772556666980683000,7.90968310546875,-0.6697065830230713,-0.010861082002520561,0.20949316024780273
1772556666990668000,7.91966796875,-0.7243141531944275,0.046282365918159485,0.14010103046894073
1772556667000652000,7.929652099609375,-0.761265754699707,0.044457048177719116,0.09580983221530914
1772556667010636000,7.939635986328125,-0.7651355862617493,-0.013722101226449013,0.05525202304124832
1772556667020620000,7.9496201171875,-0.6979529857635498,-0.03495035693049431,0.05976895987987518
1772556667030605000,7.95960498046875,-0.538424551486969,0.01582201011478901,0.11719736456871033
1772556667040589000,7.969589111328125,-0.4081246554851532,-0.040253788232803345,0.16650059819221497
1772556667050573000,7.979572998046875,-0.39501363039016724,-0.2839580476284027,0.19631335139274597
1772556667060558000,7.98955810546875,-0.4843849539756775,-0.5571541786193848,0.2076425403356552
1772556667070542000,7.9995419921875,-0.6381790041923523,-0.8125054836273193,0.16947224736213684
1772556667080524300,8.009524169921875,-0.8615818619728088,-1.0713623762130737,0.06614799052476883
1772556667090508300,8.01950830078125,-1.105164647102356,-1.2752151489257812,-0.06519219279289246
1772556667100493300,8.029493408203125,-1.2830955982208252,-1.3700957298278809,-0.18112678825855255
1772556667110477300,8.039477294921875,-1.339586853981018,-1.3539295196533203,-0.26419609785079956
1772556667120461300,8.04946142578125,-1.2587400674819946,-1.2233166694641113,-0.28599151968955994
1772556667130446000,8.059446044921875,-1.084747314453125,-0.9688884019851685,-0.23841550946235657
1772556667140430300,8.069430419921876,-0.8629801869392395,-0.5988739132881165,-0.14595414698123932
1772556667150414300,8.079414306640626,-0.6150050163269043,-0.17005674540996552,-0.04326825588941574
1772556667160398000,8.089398193359376,-0.3790920674800873,0.22433286905288696,0.03876340761780739
1772556667170383000,8.099383056640624,-0.20906440913677216,0.4989575147628784,0.08608831465244293
1772556667180367000,8.1093671875,-0.12081534415483475,0.6267990469932556,0.09503323584794998
1772556667190351000,8.11935107421875,-0.09984162449836731,0.6493788957595825,0.07319531589746475
1772556667200336100,8.129336181640625,-0.13172905147075653,0.6125257015228271,0.02848457731306553
1772556667210320100,8.139320068359375,-0.2022479623556137,0.548191487789154,-0.02374533750116825
1772556667220304100,8.14930419921875,-0.28388896584510803,0.47249552607536316,-0.06275655329227448
1772556667230288100,8.1592880859375,-0.3667322099208832,0.4072243869304657,-0.09141109883785248
1772556667240273200,8.169273193359375,-0.4181970953941345,0.35221782326698303,-0.10114824771881104
1772556667250257000,8.1792568359375,-0.44601887464523315,0.30869966745376587,-0.09385331720113754
1772556667260241200,8.1892412109375,-0.4556940495967865,0.26420682668685913,-0.0811876729130745
1772556667270226200,8.19922607421875,-0.4443444609642029,0.20187845826148987,-0.09450001269578934
1772556667280210000,8.2092099609375,-0.4274505376815796,0.120225690305233,-0.12035611271858215
1772556667290194000,8.21919384765625,-0.4317464828491211,0.03959156572818756,-0.15098325908184052
1772556667300178200,8.22917822265625,-0.44430726766586304,-0.045084819197654724,-0.1814473420381546
1772556667310163000,8.239162841796874,-0.4586939215660095,-0.13664989173412323,-0.2164766937494278
1772556667320147000,8.24914697265625,-0.4624522030353546,-0.22643320262432098,-0.24026547372341156
1772556667330131000,8.259130859375,-0.4570270776748657,-0.3023942708969116,-0.2612714171409607
1772556667340115000,8.269114990234375,-0.4341678321361542,-0.35728228092193604,-0.2788197696208954
1772556667350100000,8.279099853515625,-0.37901270389556885,-0.3742237091064453,-0.30461594462394714
1772556667360084000,8.289083984375,-0.29867732524871826,-0.3513561189174652,-0.3286057114601135
1772556667370068000,8.29906787109375,-0.1921815127134323,-0.30469539761543274,-0.3365184962749481
1772556667380053000,8.309052978515625,-0.08207474648952484,-0.25642073154449463,-0.332581490278244
1772556667390037000,8.319037109375,0.017424682155251503,-0.2023543119430542,-0.31983187794685364
1772556667400017200,8.32901708984375,0.09267056733369827,-0.1368895024061203,-0.2929536700248718
1772556667410002200,8.339002197265625,0.1354832798242569,-0.07086627930402756,-0.24926744401454926
1772556667419986200,8.348986083984375,0.15169666707515717,0.0015963157638907433,-0.19607983529567719
1772556667429970200,8.35897021484375,0.14971794188022614,0.07749427855014801,-0.1488952785730362
1772556667439954200,8.3689541015625,0.14871229231357574,0.16291818022727966,-0.12195908278226852
1772556667449939200,8.378939208984375,0.15628045797348022,0.2626487612724304,-0.09844816476106644
1772556667459923200,8.388923095703126,0.16999311745166779,0.35148292779922485,-0.06986597180366516
1772556667469907200,8.3989072265625,0.18380054831504822,0.41040298342704773,-0.011705197393894196
1772556667479891200,8.40889111328125,0.19378164410591125,0.4315115213394165,0.08587019890546799
1772556667489879000,8.418879150390625,0.20542125403881073,0.433156281709671,0.19423289597034454
1772556667499863000,8.428863037109375,0.21098682284355164,0.4075191915035248,0.27907097339630127
1772556667509847000,8.438846923828125,0.20873086154460907,0.3621775507926941,0.3249513804912567
1772556667519832000,8.44883203125,0.18694210052490234,0.3088516891002655,0.3210124671459198
1772556667529816000,8.458816162109375,0.1675867736339569,0.23611651360988617,0.27816885709762573
1772556667539800000,8.468800048828125,0.1461450457572937,0.11695297807455063,0.22462666034698486
1772556667549785000,8.47878515625,0.13314189016819,-0.050903938710689545,0.17924053966999054
1772556667559769000,8.48876904296875,0.1367955058813095,-0.23727034032344818,0.15664027631282806
1772556667569753000,8.498753173828124,0.16288995742797852,-0.3483225703239441,0.13164091110229492
1772556667579737000,8.508737060546874,0.2510962188243866,-0.5128076076507568,0.14491619169712067
1772556667589722000,8.51872216796875,0.3908224105834961,-0.5676923990249634,0.17656520009040833
1772556667599706000,8.5287060546875,0.552108108997345,-0.4916204512119293,0.20087310671806335
1772556667609690000,8.538690185546875,0.6944490075111389,-0.43587034940719604,0.20256741344928741
1772556667619675100,8.548675048828125,0.7981846332550049,-0.3526124656200409,0.19621026515960693
1772556667629659100,8.5586591796875,0.8201298713684082,-0.3697088956832886,0.1463305950164795
1772556667639643100,8.56864306640625,0.726000189781189,-0.47815966606140137,0.07392942160367966
1772556667649627100,8.578627197265625,0.5425637364387512,-0.5869479179382324,-0.008229099214076996
1772556667659612200,8.588612060546875,0.31653836369514465,-0.7046730518341064,-0.09022146463394165
1772556667669596200,8.59859619140625,0.09539321810007095,-0.8221001029014587,-0.16533006727695465
1772556667679580200,8.608580078125,-0.07990586757659912,-0.895534098148346,-0.21809910237789154
1772556667689565200,8.618565185546874,-0.2036730945110321,-0.9001911878585815,-0.24362869560718536
1772556667699549200,8.628549072265624,-0.27866965532302856,-0.8319413661956787,-0.22903984785079956
1772556667709533200,8.638533203125,-0.27853408455848694,-0.6863322257995605,-0.16181953251361847
1772556667719517200,8.64851708984375,-0.19890975952148438,-0.4770848751068115,-0.049117062240839005
1772556667729502200,8.658502197265625,-0.06232527643442154,-0.22854217886924744,0.09689900279045105
1772556667739486200,8.668486328125,0.09809655696153641,0.04420079290866852,0.23226162791252136
1772556667749470200,8.67847021484375,0.23355558514595032,0.2846384346485138,0.31445130705833435
1772556667759454200,8.6884541015625,0.304644912481308,0.4918491542339325,0.3494943678379059
1772556667769439200,8.698439208984375,0.2959587574005127,0.6557542085647583,0.34090858697891235
1772556667779423200,8.70842333984375,0.22971639037132263,0.7695232629776001,0.2877708971500397
1772556667789407200,8.7184072265625,0.133564293384552,0.8205209374427795,0.20359477400779724
1772556667799392300,8.728392333984376,0.04051085188984871,0.7977785468101501,0.09585925191640854
1772556667809376300,8.738376220703126,-0.013178477063775063,0.7109475135803223,-0.023553699254989624
1772556667819360300,8.7483603515625,-0.014595944434404373,0.5605545043945312,-0.12727689743041992
1772556667829344300,8.75834423828125,0.03441154584288597,0.3733521103858948,-0.19878941774368286
1772556667839329300,8.768329345703124,0.12062308937311172,0.20099616050720215,-0.2303759604692459
1772556667849313300,8.778313232421874,0.2202998846769333,0.06492674350738525,-0.24080808460712433
1772556667859297300,8.78829736328125,0.31677451729774475,-0.025598665699362755,-0.23248153924942017
1772556667869282300,8.7982822265625,0.3859037756919861,-0.07558726519346237,-0.20870643854141235
1772556667879266300,8.808266357421875,0.43629759550094604,-0.08504713326692581,-0.16312889754772186
1772556667889250300,8.818250244140625,0.45426276326179504,-0.05536407604813576,-0.11098021268844604
1772556667899234300,8.828234375,0.44741198420524597,-0.005167623050510883,-0.05552414059638977
1772556667909219300,8.83821923828125,0.41551288962364197,0.0613245815038681,-0.009353451430797577
1772556667919203300,8.848203369140625,0.36398035287857056,0.12370189279317856,0.017682982608675957
1772556667929187300,8.858187255859375,0.2997813820838928,0.18259531259536743,0.0014843051321804523
1772556667939171300,8.86817138671875,0.21671485900878906,0.24929259717464447,-0.05042138695716858
1772556667949156400,8.87815625,0.12801988422870636,0.32295486330986023,-0.12381517887115479
1772556667959140400,8.888140380859374,0.02423480711877346,0.40730640292167664,-0.21733038127422333
1772556667969124400,8.898124267578124,-0.09161242842674255,0.463915079832077,-0.2939218282699585
1772556667979109400,8.908109375,-0.18929821252822876,0.44010528922080994,-0.334469199180603
1772556667989093400,8.91809326171875,-0.2793431282043457,0.3104921579360962,-0.30734172463417053
1772556667999077400,8.928077392578125,-0.3538469076156616,0.11120801419019699,-0.21917888522148132
1772556668009061400,8.938061279296875,-0.3924656808376312,-0.09861711412668228,-0.07148396223783493
1772556668019046400,8.94804638671875,-0.3949492573738098,-0.2733329236507416,0.11218566447496414
1772556668029030400,8.958030517578125,-0.36462196707725525,-0.3793025016784668,0.29683008790016174
1772556668039014400,8.968014404296875,-0.3500461280345917,-0.43271902203559875,0.452065110206604
1772556668048998400,8.977998291015625,-0.37563323974609375,-0.4633840024471283,0.541437029838562
1772556668058983400,8.9879833984375,-0.4257270097732544,-0.470658540725708,0.5832784175872803
1772556668068967400,8.997967529296876,-0.49767792224884033,-0.46249088644981384,0.5823854207992554
1772556668078951400,9.007951416015626,-0.5609261393547058,-0.41039660573005676,0.5697020292282104
1772556668088936400,9.0179365234375,-0.5873066186904907,-0.3203814923763275,0.5541877746582031
1772556668098920400,9.02792041015625,-0.5830456614494324,-0.19429798424243927,0.5251632332801819
1772556668108904400,9.037904541015624,-0.5664214491844177,-0.06580526381731033,0.4614412188529968
1772556668118888200,9.04788818359375,-0.5527336597442627,0.0363796204328537,0.37162378430366516
1772556668128873500,9.05787353515625,-0.5328773856163025,0.0937824621796608,0.2884111702442169
1772556668138857500,9.067857421875,-0.4650903046131134,0.1475425362586975,0.2531774938106537
1772556668148841200,9.07784130859375,-0.3212428689002991,0.22016745805740356,0.30633339285850525
1772556668158826200,9.087826171875,-0.18678316473960876,0.18139232695102692,0.37738195061683655
1772556668168810200,9.097810302734375,-0.13402435183525085,-0.03645985201001167,0.415235310792923
1772556668178794200,9.107794189453125,-0.14913982152938843,-0.2869609594345093,0.411623477935791
1772556668188778200,9.1177783203125,-0.21097229421138763,-0.5089730024337769,0.3582683801651001
1772556668198763000,9.127762939453126,-0.36675944924354553,-0.7629193663597107,0.2397756725549698
1772556668208747300,9.137747314453126,-0.6248005628585815,-1.0455007553100586,0.08753953874111176
1772556668218731300,9.147731201171876,-0.8769965171813965,-1.2662503719329834,-0.02967192232608795
1772556668228715300,9.15771533203125,-1.0285362005233765,-1.353110432624817,-0.07349290698766708
1772556668238700000,9.167699951171874,-1.0522631406784058,-1.3010122776031494,-0.028507987037301064
1772556668248684300,9.177684326171875,-0.9571499824523926,-1.0952657461166382,0.08308912068605423
1772556668258668300,9.187668212890625,-0.7609145045280457,-0.7311699390411377,0.2122657150030136
1772556668268653000,9.197653076171875,-0.5257827043533325,-0.2573605477809906,0.30451682209968567
1772556668278637000,9.207636962890625,-0.29693278670310974,0.27740663290023804,0.3400069773197174
1772556668288621300,9.217621337890625,-0.11465699225664139,0.7848479747772217,0.305778443813324
1772556668298605300,9.227605224609375,-0.003736270358785987,1.1914311647415161,0.21890901029109955
1772556668308590000,9.237590087890625,0.04334175959229469,1.4701427221298218,0.11366141587495804
1772556668318574000,9.247573974609375,0.034284260123968124,1.6180882453918457,0.026889609172940254
1772556668328558000,9.25755810546875,-0.01176445558667183,1.6547623872756958,-0.02578824944794178
1772556668338542300,9.267542236328126,-0.07182781398296356,1.599818468093872,-0.04113968089222908
1772556668348527000,9.277527099609374,-0.13480038940906525,1.4611955881118774,-0.033223967999219894
1772556668358511000,9.287510986328124,-0.19669713079929352,1.2693822383880615,-0.01460096426308155
1772556668368495000,9.2974951171875,-0.24842825531959534,1.0213297605514526,0.014930562116205692
1772556668378480000,9.307480224609375,-0.29565051198005676,0.733022928237915,0.05136139690876007
1772556668388464000,9.317464111328125,-0.3313637673854828,0.40836629271507263,0.09026511758565903
1772556668398448400,9.327448486328125,-0.34563469886779785,0.014476467855274677,0.1381681263446808
1772556668408432400,9.337432373046875,-0.35191816091537476,-0.43742892146110535,0.18016643822193146
1772556668418417400,9.34741748046875,-0.3474036455154419,-0.9062226414680481,0.19774220883846283
1772556668428401400,9.3574013671875,-0.33644527196884155,-1.3174681663513184,0.1856735646724701
1772556668438385400,9.367385498046875,-0.3245069980621338,-1.6443527936935425,0.1308591067790985
1772556668448369400,9.377369384765625,-0.31179678440093994,-1.8686509132385254,0.04065464437007904
1772556668458354400,9.3873544921875,-0.27975618839263916,-1.9252667427062988,-0.08418986946344376
1772556668468338400,9.39733837890625,-0.21208128333091736,-1.8652340173721313,-0.19032295048236847
1772556668478322400,9.407322509765624,-0.12811794877052307,-1.8152309656143188,-0.2622418999671936
1772556668488307500,9.417307373046874,-0.03266732022166252,-1.8364958763122559,-0.27488043904304504
1772556668498291500,9.42729150390625,0.04802000895142555,-1.900038242340088,-0.2236827164888382
1772556668508275500,9.437275390625,0.11081229150295258,-1.9795359373092651,-0.10810606181621552
1772556668518259500,9.447259521484375,0.14166270196437836,-2.009432077407837,0.02324392832815647
1772556668528244500,9.457244384765625,0.16112694144248962,-1.965364933013916,0.11572859436273575
1772556668538228500,9.467228515625,0.18318890035152435,-1.846900224685669,0.15486371517181396
1772556668548212500,9.47721240234375,0.19522053003311157,-1.6932257413864136,0.15098774433135986
1772556668558196500,9.487196533203125,0.19853448867797852,-1.4875354766845703,0.13961610198020935
1772556668568181500,9.497181396484375,0.19836831092834473,-1.2486659288406372,0.14770707488059998
1772556668578165500,9.50716552734375,0.18977023661136627,-1.0056153535842896,0.1671685129404068
1772556668588149500,9.5171494140625,0.159662127494812,-0.8043485283851624,0.19870567321777344
1772556668598133500,9.527133544921876,0.10664477199316025,-0.6600385904312134,0.255118727684021
1772556668608118500,9.537118408203124,0.03323020786046982,-0.5840857625007629,0.3269529640674591
1772556668618102500,9.5471025390625,-0.04136015102267265,-0.5301687121391296,0.38955846428871155
1772556668628086500,9.55708642578125,-0.11279651522636414,-0.5297423005104065,0.4231222867965698
1772556668638071600,9.567071533203125,-0.18592877686023712,-0.5907518863677979,0.42820924520492554
1772556668648055600,9.5770556640625,-0.2642233073711395,-0.6197843551635742,0.42976853251457214
1772556668658039600,9.58703955078125,-0.3196309208869934,-0.5791203379631042,0.4278213083744049
1772556668668023600,9.5970234375,-0.36125344038009644,-0.501583993434906,0.4195026457309723
1772556668678008600,9.607008544921875,-0.3968864977359772,-0.3833625614643097,0.40371963381767273
1772556668687992600,9.61699267578125,-0.40906408429145813,-0.26050347089767456,0.3551792800426483
1772556668697976600,9.6269765625,-0.3739699125289917,-0.16253159940242767,0.29963040351867676
1772556668707960600,9.636960693359375,-0.2825084328651428,-0.028102155774831772,0.31260931491851807
1772556668717945600,9.646945556640626,-0.12708593904972076,0.22617214918136597,0.42490822076797485
1772556668727929600,9.6569296875,0.025153663009405136,0.38393619656562805,0.5288811922073364
1772556668737913600,9.66691357421875,0.16105590760707855,0.38042178750038147,0.5560141205787659
1772556668747898600,9.676898681640624,0.2765156626701355,0.37143734097480774,0.4803369641304016
1772556668757882600,9.686882568359374,0.3662235736846924,0.3323720097541809,0.2561348080635071
1772556668767866600,9.69686669921875,0.416243314743042,0.24649330973625183,-0.07703489810228348
1772556668777850600,9.7068505859375,0.3929520547389984,0.14231882989406586,-0.45116958022117615
1772556668787835600,9.716835693359375,0.3010370433330536,-0.03174484148621559,-0.7943003177642822
1772556668797819600,9.726819580078125,0.16197842359542847,-0.3166566789150238,-1.024084210395813
1772556668807803600,9.7368037109375,-0.01229217741638422,-0.6517789959907532,-1.0976992845535278
1772556668817787600,9.74678759765625,-0.17487603425979614,-0.979732871055603,-1.0191307067871094
1772556668827772700,9.756772705078125,-0.2663143277168274,-1.230048418045044,-0.807773232460022
1772556668837756700,9.766756591796875,-0.27054980397224426,-1.299710750579834,-0.4909149408340454
1772556668847740700,9.77674072265625,-0.18414351344108582,-1.1613483428955078,-0.13747136294841766
1772556668857724400,9.786724365234376,-0.040137823671102524,-0.9104863405227661,0.1775554120540619
1772556668867709700,9.796709716796874,0.11797138303518295,-0.6499945521354675,0.38399675488471985
1772556668877693700,9.806693603515624,0.22217178344726562,-0.4513072669506073,0.46117377281188965
1772556668887677400,9.816677490234374,0.25240665674209595,-0.32909345626831055,0.4247811436653137
1772556668897662700,9.826662841796875,0.2122051864862442,-0.2534181475639343,0.31474000215530396
1772556668907646700,9.836646728515625,0.12032560259103775,-0.1853562742471695,0.16109609603881836
1772556668917630500,9.84663037109375,0.036313410848379135,-0.11641374975442886,0.0035210626665502787
1772556668927614500,9.856614501953125,0.012737777084112167,-0.06698894500732422,-0.13339658081531525
1772556668937599500,9.866599609375,0.06105294078588486,-0.05929846316576004,-0.2225789725780487
1772556668947583500,9.87658349609375,0.15186353027820587,-0.08796978741884232,-0.23796750605106354
1772556668957567500,9.8865673828125,0.2787054777145386,-0.13093718886375427,-0.19456766545772552
1772556668967551500,9.896551513671875,0.41998618841171265,-0.16116753220558167,-0.09831064194440842
1772556668977536500,9.90653662109375,0.5606029629707336,-0.1749068945646286,0.027362745255231857
1772556668987520500,9.9165205078125,0.6640670299530029,-0.16615813970565796,0.15335316956043243
1772556668997504500,9.92650439453125,0.7066304087638855,-0.16128753125667572,0.26235121488571167
1772556669007488500,9.936488525390626,0.6747678518295288,-0.1532546430826187,0.34687408804893494
1772556669017473500,9.9464736328125,0.5834256410598755,-0.15571725368499756,0.41975516080856323
1772556669027457500,9.95645751953125,0.4546210765838623,-0.19163183867931366,0.48148855566978455
1772556669037441500,9.966441650390625,0.32034480571746826,-0.26091381907463074,0.5360028147697449
1772556669047426600,9.976426513671875,0.20043224096298218,-0.34122195839881897,0.5858356356620789
1772556669057410600,9.98641064453125,0.12370714545249939,-0.40283533930778503,0.6191681027412415
1772556669067394600,9.99639453125,0.08533685654401779,-0.4258815348148346,0.6068019866943359
1772556669077378600,10.006378662109375,0.09056301414966583,-0.40494102239608765,0.555396318435669
1772556669087363600,10.016363525390625,0.11400975286960602,-0.355339378118515,0.46939435601234436
1772556669097347600,10.02634765625,0.1154925525188446,-0.2582319378852844,0.36094048619270325
1772556669107331600,10.03633154296875,0.07804771512746811,-0.08418610692024231,0.22635790705680847
1772556669117315600,10.046315673828126,0.013782232068479061,0.16329091787338257,0.09230124205350876
1772556669127300600,10.056300537109376,-0.06393413990736008,0.43773871660232544,-0.028079237788915634
1772556669137284600,10.06628466796875,-0.15817105770111084,0.6892660856246948,-0.11501885950565338
1772556669147268600,10.0762685546875,-0.2654583752155304,0.8946740627288818,-0.1687406748533249
1772556669157252600,10.086252685546874,-0.36579054594039917,0.9921548962593079,-0.1873927116394043
1772556669167237600,10.096237548828125,-0.4638742506504059,0.9553273916244507,-0.16725042462348938
1772556669177221600,10.1062216796875,-0.5549582839012146,0.7876302599906921,-0.10795774310827255
1772556669187205600,10.11620556640625,-0.6348916888237,0.5812131762504578,-0.002002820372581482
1772556669197190400,10.1261904296875,-0.6716099977493286,0.3951641619205475,0.1158265769481659
1772556669207174700,10.136174560546875,-0.657830536365509,0.2898736894130707,0.21710260212421417
1772556669217158700,10.14615869140625,-0.6058312058448792,0.23382794857025146,0.23349888622760773
1772556669227142700,10.156142578125,-0.5498262643814087,0.19479292631149292,0.15983346104621887
1772556669237127400,10.16612744140625,-0.5196430683135986,0.19362671673297882,0.01563880406320095
1772556669247111700,10.176111572265626,-0.5005404949188232,0.26023051142692566,-0.1475711613893509
1772556669257095700,10.186095703125,-0.44063928723335266,0.47253870964050293,-0.2467968910932541
1772556669267079700,10.19607958984375,-0.40061649680137634,0.6871514320373535,-0.2865009307861328
1772556669277064400,10.206064453125,-0.4825650453567505,0.6183505654335022,-0.32854071259498596
1772556669287048700,10.216048583984374,-0.6259331107139587,0.35817140340805054,-0.3544956147670746
1772556669297032700,10.22603271484375,-0.7149690985679626,0.09950359165668488,-0.3162301480770111
1772556669307016700,10.2360166015625,-0.7137086391448975,-0.1488359123468399,-0.20926585793495178
1772556669317001500,10.24600146484375,-0.7054605484008789,-0.5165912508964539,-0.059773556888103485
1772556669326985500,10.2559853515625,-0.7158221006393433,-1.0326287746429443,0.08978797495365143
1772556669336969700,10.2659697265625,-0.6931155323982239,-1.5258939266204834,0.20694416761398315
1772556669346953700,10.27595361328125,-0.5929242372512817,-1.8077583312988281,0.32095515727996826
1772556669356938500,10.2859384765625,-0.44143012166023254,-1.8335111141204834,0.43053868412971497
1772556669366922500,10.295922607421875,-0.29270032048225403,-1.6813137531280518,0.5213785767555237
1772556669376906800,10.30590673828125,-0.1861678957939148,-1.4097830057144165,0.5659533143043518
1772556669386891500,10.3158916015625,-0.11486654728651047,-1.0312286615371704,0.5331609845161438
1772556669396876300,10.325876220703124,-0.0872378796339035,-0.6234139800071716,0.43595799803733826
1772556669406860300,10.3358603515625,-0.09983649849891663,-0.24450580775737762,0.29194754362106323
1772556669416844300,10.34584423828125,-0.14072604477405548,0.04991175979375839,0.12870995700359344
1772556669426829300,10.355829345703125,-0.20128393173217773,0.2555893063545227,-0.039195165038108826
1772556669436813300,10.365813232421875,-0.26985302567481995,0.3654457926750183,-0.2109447568655014
1772556669446797300,10.37579736328125,-0.32352715730667114,0.386086106300354,-0.36219340562820435
1772556669456781300,10.38578125,-0.3578386902809143,0.3408810794353485,-0.4692695736885071
1772556669466766300,10.395766357421875,-0.376467227935791,0.2461114376783371,-0.5112133026123047
1772556669476750300,10.405750244140625,-0.38252609968185425,0.10060171782970428,-0.4936080574989319
1772556669486734300,10.415734375,-0.38008663058280945,-0.08446480333805084,-0.42188405990600586
1772556669496718300,10.42571826171875,-0.369771808385849,-0.2811901271343231,-0.3371565341949463
1772556669506703400,10.435703369140626,-0.3539728820323944,-0.47009456157684326,-0.24388304352760315
1772556669516687400,10.445687255859376,-0.33471813797950745,-0.6221057176589966,-0.16181622445583344
1772556669526671400,10.45567138671875,-0.32310569286346436,-0.7146572470664978,-0.09821753948926926
1772556669536655400,10.4656552734375,-0.301052987575531,-0.7369399666786194,-0.05175049602985382
1772556669546640400,10.475640380859375,-0.2666257619857788,-0.7228694558143616,-0.03140181675553322
1772556669556624400,10.485624267578125,-0.21762539446353912,-0.6838369369506836,-0.0458846352994442
1772556669566608400,10.4956083984375,-0.14304809272289276,-0.6414996385574341,-0.08385678380727768
1772556669576592400,10.50559228515625,-0.056381650269031525,-0.5966530442237854,-0.12591874599456787
1772556669586577400,10.515577392578125,0.04040321707725525,-0.5383721590042114,-0.17095200717449188
1772556669596561400,10.5255615234375,0.12275327742099762,-0.45754989981651306,-0.21637016534805298
1772556669606545400,10.53554541015625,0.18703852593898773,-0.33412888646125793,-0.27067598700523376
1772556669616529400,10.545529296875,0.2109590619802475,-0.15750916302204132,-0.3236984610557556
1772556669626514400,10.555514404296876,0.19020451605319977,0.07113546878099442,-0.366489052772522
1772556669636498400,10.56549853515625,0.1314619928598404,0.3217860162258148,-0.40062904357910156
1772556669646482400,10.575482421875,0.05841362476348877,0.5515337586402893,-0.4077244997024536
1772556669656467500,10.585467529296874,-0.01554169412702322,0.7513861060142517,-0.3837064802646637
1772556669666451500,10.595451416015624,-0.06476863473653793,0.9331572651863098,-0.31999698281288147
1772556669676435500,10.605435546875,-0.08595345914363861,1.0845288038253784,-0.22808969020843506
1772556669686419500,10.61541943359375,-0.08411188423633575,1.2088313102722168,-0.13374347984790802
1772556669696404500,10.625404541015625,-0.0810089260339737,1.3208500146865845,-0.055843986570835114
1772556669706388500,10.635388427734375,-0.08074527233839035,1.4086695909500122,-0.023366736248135567
1772556669716372500,10.64537255859375,-0.09422360360622406,1.437562346458435,-0.06198132783174515
1772556669726356200,10.655356201171875,-0.11652065813541412,1.377940058708191,-0.14375795423984528
1772556669736341500,10.665341552734375,-0.1335172951221466,1.2361297607421875,-0.21628819406032562
1772556669746325200,10.6753251953125,-0.13507604598999023,1.0401291847229004,-0.24776703119277954
1772556669756309200,10.685309326171875,-0.11184656620025635,0.8277089595794678,-0.22895103693008423
1772556669766293200,10.695293212890626,-0.04961540922522545,0.6056370139122009,-0.21481098234653473
1772556669776278300,10.7052783203125,0.04285512492060661,0.413382351398468,-0.2323807328939438
1772556669786262300,10.71526220703125,0.1621580868959427,0.30267980694770813,-0.27521368861198425
1772556669796246300,10.725246337890624,0.32689446210861206,0.3474080264568329,-0.3037402629852295
1772556669806230300,10.735230224609374,0.5705412030220032,0.5987987518310547,-0.2583288252353668
1772556669816215300,10.74521533203125,0.7859821319580078,0.892576277256012,-0.18482275307178497
1772556669826199300,10.75519921875,0.9190706610679626,1.0001120567321777,-0.18195347487926483
1772556669836183300,10.765183349609375,0.970337450504303,0.956436812877655,-0.21612736582756042
1772556669846167300,10.775167236328125,0.9626523852348328,0.8815186619758606,-0.30442526936531067
1772556669856152300,10.78515234375,0.8918004035949707,0.592978298664093,-0.3691798746585846
1772556669866136300,10.79513623046875,0.7584452629089355,0.2844974994659424,-0.38681933283805847
1772556669876120300,10.805120361328125,0.5875371694564819,0.06474482268095016,-0.36236509680747986
1772556669886105300,10.815105224609376,0.3914867043495178,-0.23088683187961578,-0.294138103723526
1772556669896089300,10.82508935546875,0.21526195108890533,-0.5208024382591248,-0.20573842525482178
1772556669906073300,10.8350732421875,0.092169851064682,-0.7479847073554993,-0.12489497661590576
1772556669916057300,10.845057373046876,0.03727773204445839,-0.920727014541626,-0.0468020960688591
1772556669926042400,10.85504248046875,0.06004482880234718,-0.9765071868896484,0.07334854453802109
1772556669936026400,10.8650263671875,0.1472066342830658,-0.8970320820808411,0.23789462447166443
1772556669946010400,10.87501025390625,0.2674539387226105,-0.7165107727050781,0.41690537333488464
1772556669955994400,10.884994384765625,0.3820587992668152,-0.4787471294403076,0.5620445609092712
1772556669965979400,10.8949794921875,0.465266615152359,-0.2391928732395172,0.6103976964950562
1772556669975963400,10.90496337890625,0.5000360608100891,-0.015788031741976738,0.5582035779953003
1772556669985947400,10.914947509765625,0.47844019532203674,0.20027422904968262,0.42470622062683105
1772556669995931400,10.924931396484375,0.41142094135284424,0.4251377284526825,0.22954986989498138
1772556670005916400,10.93491650390625,0.3059600293636322,0.6625380516052246,0.0037953162100166082
1772556670015900400,10.944900390625,0.1926805078983307,0.8935533761978149,-0.2292536199092865
1772556670025884400,10.954884521484376,0.10806548595428467,1.1045012474060059,-0.4480895698070526
1772556670035868400,10.964868408203126,0.05655475705862045,1.285534381866455,-0.64317786693573
1772556670045853400,10.974853515625,0.056391239166259766,1.4220153093338013,-0.7981986403465271
1772556670055837400,10.98483740234375,0.09877373278141022,1.501273274421692,-0.9000289440155029
1772556670065821400,10.994821533203124,0.17368073761463165,1.5251506567001343,-0.964049756526947
1772556670075805400,11.004805419921874,0.28360751271247864,1.504298448562622,-0.9859511256217957
1772556670085790500,11.01479052734375,0.40840163826942444,1.450758457183838,-1.0017441511154175
1772556670095774500,11.0247744140625,0.5195205211639404,1.3772979974746704,-1.026544451713562
1772556670105758500,11.034758544921875,0.5938147306442261,1.2812689542770386,-1.0503771305084229
1772556670115742500,11.044742431640625,0.6129661202430725,1.168779969215393,-1.0706435441970825
1772556670125727500,11.0547275390625,0.5776374340057373,1.00919508934021,-1.0890865325927734
1772556670135711500,11.06471142578125,0.486735999584198,0.825499415397644,-1.088818907737732
1772556670145695500,11.074695556640625,0.3614012598991394,0.6402163505554199,-1.081639289855957
1772556670155679500,11.084679443359375,0.20766806602478027,0.45179039239883423,-1.0786234140396118
1772556670165664500,11.09466455078125,0.04303944855928421,0.3091011345386505,-1.1049431562423706
1772556670175648500,11.1046484375,-0.11753757297992706,0.252541720867157,-1.1293176412582397
1772556670185632500,11.114632568359376,-0.24877095222473145,0.29356878995895386,-1.1175110340118408
1772556670195617500,11.124617431640624,-0.3494829535484314,0.36703190207481384,-1.0397789478302002
1772556670205601500,11.1346015625,-0.4067334532737732,0.4277884364128113,-0.8971040844917297
1772556670215585500,11.14458544921875,-0.4096563756465912,0.4602496027946472,-0.7024965882301331
1772556670225569500,11.154569580078125,-0.39147496223449707,0.5056519508361816,-0.47850796580314636
1772556670235554600,11.164554443359375,-0.39632758498191833,0.5513958930969238,-0.2798890471458435
1772556670245538600,11.17453857421875,-0.46180298924446106,0.5877147316932678,-0.1597413271665573
1772556670255522600,11.1845224609375,-0.5641281604766846,0.4969589114189148,-0.13609462976455688
1772556670265506300,11.19450634765625,-0.6826494336128235,0.25866061449050903,-0.18819938600063324
1772556670275491600,11.20449169921875,-0.8122709393501282,-0.04073495790362358,-0.21877935528755188
1772556670285475300,11.214475341796875,-0.9464446902275085,-0.34980785846710205,-0.1792987883090973
1772556670295459300,11.224459228515625,-1.0462888479232788,-0.5910463929176331,-0.10376057028770447
1772556670305443300,11.234443359375,-1.0530328750610352,-0.7473033666610718,0.01439482718706131
1772556670315428400,11.244428466796874,-0.9830257296562195,-0.8538540601730347,0.10406449437141418
1772556670325412400,11.254412353515624,-0.8190903067588806,-0.7586840987205505,0.16120529174804688
1772556670335396400,11.264396240234374,-0.5543067455291748,-0.37178581953048706,0.2082459181547165
1772556670345380400,11.27438037109375,-0.256795197725296,0.19057337939739227,0.2530874013900757
1772556670355365400,11.284365478515625,-0.11078131943941116,0.7214562892913818,0.27441900968551636
1772556670365349400,11.294349365234375,-0.16599902510643005,1.0770231485366821,0.248390331864357
1772556670375333400,11.30433349609375,-0.3718419373035431,1.1401294469833374,0.15476050972938538
1772556670385317400,11.3143173828125,-0.6322788596153259,0.866996705532074,-0.023039568215608597
1772556670395305200,11.32430517578125,-0.843490481376648,0.4265236258506775,-0.21693827211856842
1772556670405289200,11.334289306640626,-0.8969334959983826,-0.038029931485652924,-0.35297277569770813
1772556670415273200,11.344273193359374,-0.7898284196853638,-0.38697361946105957,-0.3895520865917206
1772556670425257200,11.35425732421875,-0.5869552493095398,-0.5657247304916382,-0.32115599513053894
1772556670435242200,11.3642421875,-0.2951766550540924,-0.6240447163581848,-0.2025212049484253
1772556670445226200,11.374226318359375,0.05354989692568779,-0.586146891117096,-0.06524616479873657
1772556670455210200,11.384210205078125,0.34970688819885254,-0.46080684661865234,0.052557460963726044
1772556670465194200,11.3941943359375,0.5083003044128418,-0.27043503522872925,0.12548226118087769
1772556670475179300,11.40417919921875,0.5316072702407837,-0.07688461989164352,0.15772362053394318
1772556670485163300,11.414163330078125,0.4287591874599457,0.0013404067140072584,0.15804560482501984
1772556670495147300,11.424147216796875,0.21214711666107178,-0.03403090313076973,0.1670236736536026
1772556670505131300,11.43413134765625,-0.04075732082128525,-0.12211655080318451,0.23293238878250122
1772556670515116300,11.4441162109375,-0.25969237089157104,-0.2506493628025055,0.34605684876441956
1772556670525100300,11.454100341796876,-0.3830806314945221,-0.3987845182418823,0.46566206216812134
1772556670535084300,11.464084228515626,-0.40542447566986084,-0.5183179378509521,0.5760824680328369
1772556670545068300,11.474068359375,-0.35591286420822144,-0.5621389746665955,0.6758649945259094
1772556670555053300,11.48405322265625,-0.27025824785232544,-0.5395618081092834,0.747927725315094
1772556670565037300,11.494037353515624,-0.177021786570549,-0.4971200227737427,0.7732447981834412
1772556670575021300,11.504021240234374,-0.10592649132013321,-0.45577916502952576,0.761710524559021
1772556670585005300,11.51400537109375,-0.07818461209535599,-0.4307406544685364,0.7069641947746277
1772556670594990300,11.523990234375,-0.08784061670303345,-0.3692369759082794,0.5788763761520386
1772556670604974300,11.533974365234375,-0.09330542385578156,-0.30721408128738403,0.3757514953613281
1772556670614958300,11.543958251953125,-0.06382295489311218,-0.2931908071041107,0.14252199232578278
1772556670624943400,11.553943359375,0.00020928424783051014,-0.3075127601623535,-0.05962365120649338
1772556670634927400,11.56392724609375,0.08647137880325317,-0.3272191882133484,-0.1920745074748993
1772556670644911400,11.573911376953125,0.17630380392074585,-0.3660542070865631,-0.25464707612991333
1772556670654895400,11.583895263671875,0.26351112127304077,-0.42029157280921936,-0.24952590465545654
1772556670664880400,11.59388037109375,0.32902756333351135,-0.456783264875412,-0.1831631362438202
1772556670674864400,11.603864501953124,0.37506771087646484,-0.47320663928985596,-0.06265890598297119
1772556670684848400,11.613848388671874,0.40517929196357727,-0.47866106033325195,0.09829775989055634
1772556670694832400,11.623832275390624,0.4134129285812378,-0.47273409366607666,0.2755427062511444
1772556670704817400,11.6338173828125,0.4124440550804138,-0.4828373193740845,0.4507366120815277
1772556670714801400,11.643801513671875,0.4053248465061188,-0.5499632358551025,0.5949872732162476
1772556670724785400,11.653785400390625,0.38007354736328125,-0.6704174876213074,0.6976761221885681
1772556670734769400,11.663769287109375,0.33741793036460876,-0.807418704032898,0.7658453583717346
1772556670744754400,11.67375439453125,0.2933039963245392,-0.9195838570594788,0.8052132725715637
1772556670754738400,11.683738525390625,0.2593472898006439,-0.9426706433296204,0.8162469863891602
1772556670764722400,11.693722412109375,0.250182569026947,-0.8632330894470215,0.8014944195747375
1772556670774706400,11.70370654296875,0.25215551257133484,-0.7284397482872009,0.742980420589447
1772556670784691500,11.71369140625,0.22096723318099976,-0.526245653629303,0.6665825843811035
1772556670794675500,11.723675537109376,0.182332381606102,-0.26020893454551697,0.5560117959976196
1772556670804659200,11.7336591796875,0.16921845078468323,0.01097142044454813,0.430123895406723
1772556670814643200,11.743643310546876,0.18651920557022095,0.26862382888793945,0.32320985198020935
1772556670824628500,11.75362841796875,0.2276884913444519,0.4743170738220215,0.22998429834842682
1772556670834612200,11.7636123046875,0.3036617636680603,0.5770299434661865,0.1309724897146225
1772556670844596200,11.77359619140625,0.383708655834198,0.5467932224273682,0.05921681225299835
1772556670854580200,11.783580322265625,0.4667694568634033,0.40537509322166443,0.02780076116323471
1772556670864565200,11.793565185546875,0.5325391888618469,0.15737834572792053,0.032887931913137436
1772556670874549200,11.80354931640625,0.5808476805686951,-0.15696996450424194,0.05191050097346306
1772556670884533200,11.813533203125,0.6130352020263672,-0.4087316393852234,0.08987438678741455
1772556670894517200,11.823517333984375,0.6433469653129578,-0.46301454305648804,0.1721486747264862
1772556670904502300,11.833502197265625,0.7237747311592102,-0.2646934688091278,0.3024568557739258
1772556670914486300,11.843486328125,0.7876237034797668,-0.043968722224235535,0.4259059727191925
1772556670924470300,11.85347021484375,0.8107442259788513,0.08497274667024612,0.49477824568748474
1772556670934454300,11.863454345703126,0.8233938813209534,0.12620151042938232,0.5248503088951111
1772556670944439300,11.873439208984376,0.854723334312439,0.10934075713157654,0.45566776394844055
1772556670954423300,11.88342333984375,0.898609459400177,0.04568907245993614,0.26976266503334045
1772556670964407300,11.8934072265625,0.8844766020774841,-0.05269528552889824,-0.01888992264866829
1772556670974391300,11.903391357421874,0.7818178534507751,-0.15044903755187988,-0.3542105555534363
1772556670984376300,11.913376220703125,0.5945920348167419,-0.32710397243499756,-0.5352338552474976
1772556670994360300,11.9233603515625,0.4033779501914978,-0.7827755212783813,-0.724242627620697
1772556671004344300,11.93334423828125,0.27925732731819153,-1.0429376363754272,-0.7516263127326965
1772556671014328300,11.943328369140625,0.15371347963809967,-1.0921719074249268,-0.6030648946762085
1772556671024313000,11.95331298828125,0.04541310667991638,-0.8333230018615723,-0.28045010566711426
1772556671034297300,11.96329736328125,-0.05857633799314499,-0.566486656665802,0.02113957516849041
1772556671044281300,11.97328125,-0.034006547182798386,-0.16166673600673676,0.22355526685714722
1772556671054265300,11.983265380859375,0.03323637321591377,-0.06390122324228287,0.25461864471435547
1772556671064250000,11.99325,0.11606015264987946,-0.17760461568832397,0.2428024709224701
