time,seconds_elapsed,z,y,x
1772562221247460400,0.07346044921875,0.04907938046753406,-0.06888152078539132,-0.13246822309829293
1772562221257442300,0.0834423828125,0.06509118859171867,-0.057118017755448815,-0.18195779180191457
1772562221267425300,0.09342529296875,0.08914192626476287,-0.041973932376503945,-0.2029573252107948
1772562221277407500,0.103407470703125,0.06527414394319057,-0.03526566690951585,-0.1501897577498108
1772562221287390200,0.11339013671875,0.05213526090681553,-0.03092150022536516,-0.0934897462107241
1772562221297373200,0.123373291015625,0.12163491359055041,0.005765431658923625,-0.10386946673206984
1772562221307355400,0.13335546875,0.22915596163272856,0.07526713016927242,-0.10725779399611055
1772562221317338000,0.143338134765625,0.2040928320467472,0.12924129694104194,-0.051196153425797815
1772562221327320300,0.1533203125,0.13266601069271564,0.13118249413669109,0.028391324160620568
1772562221337303300,0.16330322265625,0.10656710831820965,0.1269032093822956,0.10723192890249192
1772562221347286300,0.173286376953125,0.05891337673962116,0.12289222017526626,0.1623554118398577
1772562221357268200,0.183268310546875,0.017542670953273772,0.12244798353910445,0.22911270701289177
1772562221367251500,0.19325146484375,0.0005383446604013442,0.16780191374272108,0.2758789882324636
1772562221377233200,0.203233154296875,0.02430442017316818,0.20018267286568878,0.280349557775259
1772562221387216400,0.21321630859375,0.06731821699142455,0.18324176719784735,0.20769874758422374
1772562221397198000,0.223197998046875,0.049587329989671705,0.1326286012917757,0.13305033383518455
1772562221407181300,0.233181396484375,-0.0041822541207075115,0.08274491870403289,0.094551603288576
1772562221417164300,0.243164306640625,-0.019500234761834143,0.06802578073889017,0.11216755867376924
1772562221427146200,0.253146240234375,-0.01441957049667835,0.035409751555323596,0.0924891178008169
1772562221437129200,0.263129150390625,0.022982231658697127,0.005352759204804897,0.03841039467602968
1772562221447111400,0.273111328125,0.04327449358105659,-0.0175894327044487,0.019668869327008724
1772562221457094100,0.28309423828125,0.003770750710368156,-0.02558072371929884,0.014171952411159872
1772562221467077400,0.293077392578125,-0.008995207360386849,-0.045458559621870516,0.024793153538182375
1772562221477059300,0.303059326171875,0.026653613647818562,-0.07524111894518136,0.026310864624753592
1772562221487042300,0.313042236328125,0.0056873979866504665,-0.09454846148341893,0.006195639769732952
1772562221497024300,0.323024169921875,-0.0083481416285038,-0.0662856590732932,0.021289529331400988
1772562221507007500,0.333007568359375,0.03660685238540173,-0.09301379926204681,0.010750672725588082
1772562221516990200,0.342990234375,0.11109013870060443,-0.10318594144731759,0.01536313495710492
1772562221526972400,0.352972412109375,0.04722001633644104,-0.08065788329690694,0.04707213229835033
1772562221536955400,0.362955322265625,-0.03283434810936451,-0.07557575772702693,0.02171907985508442
1772562221546937300,0.372937255859375,-0.06815349877178668,-0.08725129021257162,0.023451091279461978
1772562221556920300,0.38292041015625,-0.14226386012136935,-0.10552402900606393,0.044689767206460236
1772562221566903300,0.3929033203125,-0.19047522558271884,-0.047663668450713154,0.039454862227663395
1772562221576885200,0.40288525390625,-0.14872048891484738,0.09960720617771147,0.02937690113186836
1772562221586868200,0.4128681640625,-0.14525778124034405,0.1996568954259157,0.04054937946610152
1772562221596850400,0.422850341796875,-0.018079262048006056,0.22505817092508076,0.10985497088246046
1772562221606833200,0.432833251953125,0.16362813518941402,0.2630059165254235,0.3076291213016957
1772562221616816400,0.44281640625,0.29244214662909507,0.2570405783802271,0.3134984517265111
1772562221626798300,0.45279833984375,0.11519523593187332,0.15754472362250088,0.12415581037029623
1772562221636781300,0.46278125,-0.01187865384221077,-0.017803075455129144,-0.006510989329218864
1772562221646763300,0.47276318359375,-0.1283633450627327,-0.19514350965470073,0.018744009567052126
1772562221656746500,0.48274658203125,-0.16694997308850287,-0.2184770389690995,0.11182714773826301
1772562221666729200,0.492729248046875,-0.11460019264817237,-0.18523177197128532,0.06351261416338384
1772562221676711400,0.50271142578125,0.05661679023504257,-0.1539385158240795,-0.1777838671181351
1772562221686694400,0.5126943359375,0.25834698480367657,-0.22617110060304402,-0.4450337778888643
1772562221696676400,0.52267626953125,0.33782968684136866,-0.35188860733211036,-0.6552440699025989
1772562221706659300,0.532659423828125,0.44351767423748967,-0.4049161409035325,-0.6898027575865388
1772562221716642300,0.542642333984375,0.45900808883607386,-0.35748014372885223,-0.5953823063969612
1772562221726624300,0.552624267578125,0.44337563541829583,-0.24324089334756135,-0.4096514257971197
1772562221736607200,0.562607177734375,0.40857144854068755,-0.22565613681823013,-0.3775676037941128
1772562221746589200,0.572589111328125,0.26826164509654044,-0.2104907163903117,-0.36617666040360924
1772562221756572200,0.582572265625,0.18587562283277512,-0.19479630365222692,-0.3330195831459015
1772562221766555400,0.592555419921875,0.1460387024849653,-0.19773381840884685,-0.29450046739839014
1772562221776537000,0.602537109375,0.17624737826585768,-0.17764175523370504,-0.27194427913203834
1772562221786520300,0.612520263671875,0.20722353128790855,-0.1129369356110692,-0.23555954506471752
1772562221796502300,0.622502197265625,0.1604080040991306,-0.12007920858114957,-0.21752456054985522
1772562221806485200,0.6324853515625,0.15760463711619377,-0.1443473883971572,-0.17826215215437113
1772562221816467200,0.64246728515625,0.17422259443998336,-0.15240648395121098,-0.12751944158449768
1772562221826450400,0.652450439453125,0.18456103310286998,-0.12243892344981432,-0.11547880211360752
1772562221836433400,0.662433349609375,0.20492811382710932,-0.03827800046801567,-0.09614457156844436
1772562221846415400,0.672415283203125,0.20992986763715743,0.057527183078229426,-0.05743073696643114
1772562221856397800,0.682397705078125,0.17165654334425925,0.10493950711637735,-0.014128405530378222
1772562221866380000,0.692380126953125,0.1307990477770567,0.10447715030163526,0.01673566541932523
1772562221876362800,0.70236279296875,0.16262041945159433,0.11557166802883148,0.021353972869738936
1772562221886346000,0.712345947265625,0.20327742401063442,0.14307663780897856,0.013766513415426016
1772562221896328000,0.722327880859375,0.17502338942885398,0.12440204021632671,0.012902443931996821
1772562221906311000,0.732310791015625,0.15118366415798662,0.07949731508493423,0.025037995144724844
1772562221916292900,0.74229296875,0.1742909835010767,0.07312135031223296,0.051829044501855964
1772562221926276000,0.752276123046875,0.171140410515666,0.05977028582990169,0.07007233800515532
1772562221936258800,0.7622587890625,0.17661445801258085,0.04911620534658432,0.08907214896418154
1772562221946241000,0.772240966796875,0.2963525980710983,0.047940731826424596,0.1033230118304491
1772562221956224000,0.78222412109375,0.4070797486782074,0.03811638016551733,0.08634206641316414
1772562221966206000,0.7922060546875,0.484651648658514,0.053610886417329306,0.08683204188719391
1772562221976189000,0.80218896484375,0.5815548565745353,0.05753361281901598,0.12051526191085576
1772562221986172000,0.812171875,0.6872293999671936,0.10116028083860873,0.16583280562683939
1772562221996153900,0.82215380859375,0.7774018383234739,0.13155629588514567,0.19220124565772712
1772562222006136800,0.83213671875,0.8318710951358079,0.11893413019925356,0.20990458706542847
1772562222016118800,0.842118896484375,0.9194774823963642,0.11973755553662777,0.21943054030165074
1772562222026101800,0.852101806640625,0.980083050006628,0.11951602174043655,0.25025574054569005
1772562222036085000,0.8620849609375,1.0144529371201991,0.08484569037556648,0.26749599448628725
1772562222046066700,0.872066650390625,1.0368401254951953,0.035570202814042565,0.2990548427671194
1772562222056050000,0.8820498046875,1.0918173318296671,-0.013411270236968994,0.37804260089471936
1772562222066031900,0.892031982421875,1.1463017862111329,-0.05296908138245344,0.39307665002793074
1772562222076015000,0.90201513671875,1.289084701770544,-0.05829086092710495,0.39848318524658677
1772562222085997800,0.911997802734375,1.3056845389157532,-0.05720598829984665,0.4797398381542414
1772562222095980000,0.92197998046875,1.3345558286130428,-0.02541939567774534,0.5454082421120255
1772562222105963000,0.931962890625,1.4195692767709494,0.055172436645627015,0.5857948322318494
1772562222115945000,0.941945068359375,1.5007114364534615,0.16379823105931282,0.5701305954363197
1772562222125928000,0.951927978515625,1.5500281328082084,0.20560206756591795,0.5466632106091827
1772562222135911000,0.961910888671875,1.5428361754775046,0.1660468867689371,0.5569860133115202
1772562222145892900,0.971892822265625,1.487586581942439,0.020769816306233403,0.5972038227356969
1772562222155875800,0.981875732421875,1.6166981150239705,-0.09741028065532445,0.5386940583609044
1772562222165857800,0.99185791015625,2.081788738644123,-0.07292290513068438,0.43373453136980533
1772562222175840800,1.0018408203125,2.2461241453200578,-0.07780863134562968,0.4643121865935623
1772562222185824000,1.011823974609375,2.0452485217541456,-0.08761047891378403,0.37734804275929923
1772562222195805700,1.0218056640625,1.828455782610178,-0.10272855306863785,0.17244287141636014
1772562222205789000,1.031788818359375,1.7638959244161843,-0.15354513259232044,-0.08660320156738162
1772562222215771000,1.04177099609375,1.856928428378701,-0.10691606788635254,-0.3695343002684414
1772562222225753900,1.05175390625,2.0276853925347327,0.04754588728994131,-0.6533639552444219
1772562222235736800,1.06173681640625,2.125280674368143,0.202360601426661,-0.9366016356766224
1772562222245719000,1.071718994140625,2.1985779657691715,0.35853652091398835,-1.1514097768746316
1772562222255701800,1.08170166015625,2.3015017491489647,0.46209451054409145,-1.2673917792700231
1772562222265684000,1.09168408203125,2.492117844507098,0.4080925789825618,-1.3316878719612955
1772562222275667000,1.1016669921875,2.7342671432256695,0.36518297319114207,-1.3270447223305701
1772562222285649000,1.11164892578125,3.044943450203538,0.4256961863428354,-1.3260223935455082
1772562222295632000,1.1216318359375,3.473236667302251,0.6285033624932169,-1.3298743927985428
1772562222305614800,1.13161474609375,3.7424072439372535,0.8235650390833615,-1.3518977162972092
1772562222315596800,1.1415966796875,3.9077696555733676,0.9575567454218864,-1.357931443503499
1772562222325579800,1.151579833984375,3.862570915931463,0.98557624059543,-1.260376493680477
1772562222335562000,1.16156201171875,3.590082593050599,0.8429403322912752,-1.193909925082326
1772562222345544700,1.171544677734375,3.529481117093563,0.6969568671248852,-1.1559753312245011
1772562222355528000,1.18152783203125,3.3064275639891623,0.5697270561367273,-0.9411892557278275
1772562222365510000,1.191510009765625,2.639824772465229,0.38264746434167024,-0.5886614737093449
1772562222375492900,1.201492919921875,1.7798785064458846,0.08869082149639725,-0.1769353605300188
1772562222385474800,1.211474853515625,1.0992068575590848,-0.19979615776613355,0.15958207466900348
1772562222395458000,1.2214580078125,0.613389087730646,-0.42604353847578164,0.4160369621157646
1772562222405440800,1.231440673828125,-0.028277999979257583,-0.5746490227088332,0.7225435821935534
1772562222415423000,1.241423095703125,-1.0449521202802659,-0.8324833818152546,0.9579071662947535
1772562222425406000,1.251406005859375,-2.301801608878374,-1.1795163658097385,1.1178820396736264
1772562222435388000,1.261387939453125,-3.434747654432058,-1.3738877220481633,1.4746674791365861
1772562222445371000,1.271370849609375,-4.679036936664581,-1.4606640882253645,1.9588170234918594
1772562222455353900,1.281353759765625,-5.8279860225141045,-1.531162104296684,2.332493976522982
1772562222465335800,1.291335693359375,-6.7737944624751805,-1.6708043837428093,2.6480650698050856
1772562222475318800,1.30131884765625,-7.541184025350213,-1.7599433873981236,2.7952660940676926
1772562222485300700,1.31130078125,-8.324720420905948,-1.627296373666823,2.609906311802566
1772562222495284000,1.321283935546875,-9.166226190349459,-1.335898183132708,2.326179094287753
1772562222505267000,1.331266845703125,-10.437968712174891,-1.1565960934713482,2.1818226458013057
1772562222515249000,1.341248779296875,-11.626906109541654,-1.182624560958147,2.1731860426202414
1772562222525231900,1.35123193359375,-12.353360435438155,-1.2573361030712722,2.2707257948741315
1772562222535213800,1.3612138671875,-12.554919949615002,-1.1268524048537014,2.4546584669455886
1772562222545196800,1.37119677734375,-12.376446711993216,-0.9568006663575768,2.5702941401213404
1772562222555179800,1.3811796875,-11.847248650121688,-0.9106932874381541,2.574587745662033
1772562222565162000,1.391161865234375,-11.036818402421474,-0.9474828029140829,2.4859102220386267
1772562222575144700,1.401144775390625,-10.254929189550875,-1.0456865720346569,2.5262132985934613
1772562222585127000,1.411126953125,-9.471664596673845,-1.3124167697802185,2.6844959811016915
1772562222595110000,1.42110986328125,-8.69258751861453,-1.4929492780193685,2.806160413047671
1772562222605092900,1.4310927734375,-7.7048834722101684,-1.6286188544422386,2.8514848248958584
1772562222615074800,1.44107470703125,-6.665529318067431,-1.765476179344952,2.8724691607356068
1772562222625058000,1.45105810546875,-5.752870283514261,-1.8845310133144257,2.8438036227434873
1772562222635039700,1.461039794921875,-5.034481190651655,-1.956696962597966,2.739316827830672
1772562222645023000,1.47102294921875,-4.3705490796417,-1.9603958171159028,2.555997903743386
1772562222655006000,1.481005859375,-3.689181265184283,-1.8466297372043132,2.3601998757027087
1772562222664988000,1.49098779296875,-3.0635254010766744,-1.6842939799129961,2.167043448211998
1772562222674971000,1.500970947265625,-2.4720015236735344,-1.4894386395499108,1.9902379976719617
1772562222684953000,1.510953125,-1.701679998999834,-1.1605343097031116,1.755724016137421
1772562222694935800,1.520935791015625,-0.6493816076099872,-0.8565715288892388,1.47990070361495
1772562222704918800,1.530918701171875,0.500782114726305,-0.4121194964110851,1.1267799241393803
1772562222714901000,1.54090087890625,1.3505910176128149,-0.02682663212716579,0.9683071258865297
1772562222724883700,1.5508837890625,1.9929390733242034,0.19149200140982864,1.0836785951681434
1772562222734866000,1.560865966796875,2.267655593648553,0.3780632052913308,0.9873708689272404
1772562222744849000,1.570848876953125,2.418783728227019,0.48731180777847766,0.8136579045098274
1772562222754832000,1.580831787109375,2.797168128296733,0.5417074148327112,0.737100807595253
1772562222764813800,1.590813720703125,3.4158839640080925,0.6173588681444525,0.46911286487355824
1772562222774797000,1.600797119140625,4.26459805739522,0.6647825903594493,0.2462061728939414
1772562222784778800,1.61077880859375,4.993373519715666,0.6018155543148517,0.1843478287436068
1772562222794762000,1.620761962890625,5.4232864469707005,0.6026452831372618,0.22275559307113288
1772562222804745000,1.630744873046875,5.653788562515378,0.5232023285880685,0.34680114799998696
1772562222814727000,1.640726806640625,5.810120695477724,0.2542486095741391,0.49232547122202813
1772562222824710000,1.6507099609375,5.710843744167685,-0.032626258316636084,0.698744042802602
1772562222834691800,1.66069189453125,5.908683361038565,-0.3169575792044401,1.0208306554585695
1772562222844674800,1.6706748046875,7.053211707836389,-0.38099575161188837,1.1577318925682454
1772562222854657800,1.68065771484375,8.642934137651324,-0.023997253920137882,0.9697500912364572
1772562222864640000,1.690639892578125,9.52990051254332,0.636918139617145,0.559992465118505
1772562222874622700,1.700622802734375,9.713502345225214,1.1923586039870977,0.2178552538089454
1772562222884605000,1.71060498046875,9.523530392989516,1.434527484188974,0.13248837083717807
1772562222894588000,1.720587890625,9.139041246303915,1.4086816797927022,0.055784202735265714
1772562222904571000,1.73057080078125,8.62719997742474,1.4332561490789055,-0.08909359361100941
1772562222914552800,1.740552734375,8.050482039487362,1.5186565507277845,-0.18537768324799836
1772562222924536000,1.7505361328125,7.264737904754281,1.6464043942406772,-0.45507272214852273
1772562222934517800,1.760517822265625,7.0878668416321275,1.8593056789040565,-0.36725152309350667
1772562222944501000,1.7705009765625,7.435449276202917,2.039129746612906,-0.4844134559884667
1772562222954484000,1.78048388671875,7.85415516526699,2.297092700535059,-0.8140119055792688
1772562222964466000,1.7904658203125,7.926683225861192,2.574684191773832,-1.1700837899453937
1772562222974449000,1.800448974609375,7.820188013735413,2.8007825194016096,-1.472379368199408
1772562222984431000,1.81043115234375,7.626035560944676,2.9688834160909057,-1.639389693173021
1772562222994413800,1.820413818359375,7.246334233057499,3.0781150674432514,-1.6858026309102774
1772562223004396800,1.830396728515625,6.667142013961076,3.075853259991109,-1.6048416730135677
1772562223014379000,1.84037890625,6.150185009503364,3.017790362600982,-1.6042627040818334
1772562223024361700,1.85036181640625,5.8165977825373405,3.0459210630640388,-1.6560107192367315
1772562223034344000,1.860343994140625,5.653408623287081,3.1486145448192953,-1.7521562406532465
1772562223044327000,1.870326904296875,5.557502609714866,3.117364835552871,-1.8143904323786495
1772562223054310000,1.880309814453125,5.650726836857199,2.8569804997026917,-1.8383596292480826
1772562223064291800,1.890291748046875,5.5552451861768954,2.540654788661003,-1.7803009696416556
1772562223074275000,1.900275146484375,4.849160279092192,2.106661898615956,-1.4552897017106412
1772562223084256800,1.9102568359375,3.3586879125803706,1.4192954282656312,-0.9641513213813304
1772562223094240000,1.920239990234375,1.8094050451815127,0.36240824778079983,-0.2825435606881976
1772562223104223000,1.930222900390625,1.0352923115313053,-0.7092512621611357,0.3956470850378275
1772562223114205000,1.940204833984375,0.5697714798003435,-1.2684002256602047,0.713413350276649
1772562223124188000,1.95018798828125,-0.3197060011297464,-1.52816701413393,0.7937541304484009
1772562223134169900,1.960169921875,-1.3219599664121866,-2.00995450553298,0.9833236393630505
1772562223144152800,1.97015283203125,-2.7078642894685268,-2.3568355138361454,1.0454431186676025
1772562223154135000,1.980135009765625,-4.247105655324459,-2.4861773485422134,1.1913719310373068
1772562223164117800,1.99011767578125,-5.319821980842947,-2.5536808589726685,1.0953878837928175
1772562223174101000,2.00010107421875,-6.2480252060085535,-2.6438550508946177,0.6677645287796855
1772562223184083000,2.0100830078125,-7.066350590872764,-2.9225492426782846,0.5127411403283476
1772562223194066000,2.02006591796875,-7.400259889400005,-3.240867588841915,0.637240795700252
1772562223204049000,2.030048828125,-8.06719527387917,-3.4404742153853176,0.7004395946741103
1772562223214031000,2.040031005859375,-9.213675339266658,-3.568644083702564,1.0207049832522868
1772562223224013800,2.050013916015625,-10.17254433633089,-3.7719773295536636,1.4832406616926193
1772562223233996000,2.05999609375,-11.061860489219427,-3.893137903630733,2.221684116068482
1772562223243979000,2.06997900390625,-11.780636535573006,-4.031782988733053,2.9112378673300143
1772562223253961700,2.079961669921875,-12.315028658956289,-3.975327818800509,3.321372327403724
1772562223263944000,2.08994384765625,-12.875657631880044,-3.9206776524633167,3.5331060295924543
1772562223273927000,2.099927001953125,-13.01734924507141,-3.9788393340528008,3.4998116627559064
1772562223283908900,2.109908935546875,-12.501906152307987,-3.8437887663111088,3.4522070310160515
1772562223293891800,2.119891845703125,-11.613086843025684,-3.7108255262374876,3.4476217490524053
1772562223303874000,2.1298740234375,-10.352335086292028,-3.646155193406343,3.3597964583441615
1772562223313856800,2.139856689453125,-9.09845029271841,-3.5276854658484456,3.2966955667868256
1772562223323840000,2.149840087890625,-7.709847816619277,-3.4315783767461774,3.1284868258088827
1772562223333822000,2.159822021484375,-6.318134515023231,-3.183394181777537,2.802208752812445
1772562223343805000,2.169804931640625,-5.043772166088223,-2.9801687802150845,2.6520246210858223
1772562223353787000,2.179786865234375,-4.132789540314674,-2.8295018334075808,2.7783395091861487
1772562223363770000,2.18977001953125,-3.5676708547562357,-2.659981425309181,3.0556118514731523
1772562223373752800,2.1997529296875,-3.081733842462301,-2.4086630239680407,3.203791365379095
1772562223383735000,2.209735107421875,-2.6370459554016588,-1.9840034871965646,2.9775770101562142
1772562223393718000,2.219718017578125,-2.104347776454687,-1.3502370896086096,2.475243866595626
1772562223403700000,2.229699951171875,-1.310293494015932,-0.7505901115044951,1.8553792992405593
1772562223413683000,2.239682861328125,-0.5808920087516307,-0.2082858998224139,1.1854919330880045
1772562223423666000,2.249666015625,0.38875031126141546,0.4204939415246248,0.5550932583674788
1772562223433647900,2.25964794921875,1.2910533714950083,1.0866203477084635,-0.00322334596067667
1772562223443630800,2.269630859375,1.945417443692684,1.4856532757923007,-0.3552707971163094
1772562223453612800,2.27961279296875,2.5270658237695693,1.6910612820908426,-0.48145562909618017
1772562223463595800,2.289595703125,3.2414111941993236,1.896455552124977,-0.5336455427996813
1772562223473579000,2.2995791015625,3.857136615923047,2.1905811217963693,-0.4646636303797364
1772562223483560700,2.309560791015625,4.232534109136462,2.363184590601921,-0.38227921555116773
1772562223493544000,2.3195439453125,4.363587423935532,2.3876658286467194,-0.46220907683447
1772562223503526000,2.32952587890625,4.458799025502801,2.2554992919087407,-0.48918636947870253
1772562223513509000,2.339509033203125,4.8364334839880465,2.04827079218477,-0.5262245990186929
1772562223523491800,2.349491943359375,5.33037376999557,1.9585665558621286,-0.5706793884254991
1772562223533474000,2.35947412109375,5.956741581764817,1.9034449726209044,-0.6931995604179799
1772562223543457000,2.36945703125,6.611997634366154,1.842665217487514,-0.8379821253620088
1772562223553439000,2.37943896484375,7.098501048371196,1.778700987099111,-0.9135334793001413
1772562223563422000,2.389421875,7.4992445797652,1.6705612226366995,-0.9935179933801292
1772562223573405000,2.399405029296875,7.822401598131656,1.5177116710931062,-0.9830115046739578
1772562223583387000,2.409386962890625,8.01398683078289,1.2727692345246673,-0.9410239821635186
1772562223593369900,2.419369873046875,8.1049624022156,1.0562588194534182,-1.01457729415223
1772562223603351800,2.429351806640625,8.123822000986337,1.0230328416779637,-1.051950893126428
1772562223613334800,2.439334716796875,8.12079593116343,1.0413228238672017,-1.0211161944016813
1772562223623318000,2.449318115234375,8.119328196698426,1.0175400894805788,-1.047497128587961
1772562223633299700,2.4592998046875,8.251854506659507,1.018019397430122,-1.1978268062651156
1772562223643283000,2.469282958984375,8.410838615435361,1.2099623574778438,-1.4706278483569621
1772562223653265000,2.479264892578125,8.472059100073576,1.47850194273293,-1.793843026651442
1772562223663248000,2.489247802734375,8.398118834593891,1.729006105081737,-2.029232621976733
1772562223673230800,2.49923095703125,8.245622334271669,1.8825114901855586,-2.2139921002611516
1772562223683213000,2.509213134765625,7.998748929640651,2.0635016790643332,-2.3482497640594837
1772562223693195800,2.51919580078125,7.611150711023807,2.214453580293059,-2.4109338915094733
1772562223703178000,2.529177978515625,7.191905892777442,2.314692070111632,-2.364521976685524
1772562223713161000,2.539160888671875,6.901732860124111,2.380416588170826,-2.1918457349047062
1772562223723144000,2.54914404296875,6.544850097766518,2.4513100333005187,-2.1221745250463484
1772562223733126000,2.5591259765625,6.221113233685493,2.4124080557152627,-2.1364938500389457
1772562223743108900,2.56910888671875,6.123212246903777,2.3526219877943397,-2.1341566392630336
1772562223753090800,2.5790908203125,5.813153779563307,2.2916361886948344,-2.071241625666618
1772562223763074000,2.589073974609375,5.185023049774766,2.0153417515292764,-1.9014599362835287
1772562223773057000,2.59905712890625,4.512915231093764,1.4970052754119039,-1.5924366572096942
1772562223783039000,2.6090390625,3.8303123218834396,0.8065484378308058,-1.27932873917073
1772562223793022000,2.61902197265625,3.3959961912333965,0.14742138901501894,-0.8395841537311672
1772562223803004000,2.62900390625,2.847556837797165,-0.5169248557537793,-0.3473296288534999
1772562223812987000,2.63898681640625,1.8511948531627653,-1.2501125815585254,-0.08221358830630779
1772562223822969900,2.648969970703125,0.4541360988855362,-1.947537796847522,0.28835633862018584
1772562223832952000,2.6589521484375,-0.7144529224574565,-2.632126034656167,0.9373375487357377
1772562223842934800,2.668934814453125,-2.0089853682398795,-3.2574268017157912,1.7512614837706089
1772562223852918300,2.678918212890625,-3.2151316745609044,-3.855575357955694,2.316175002145767
1772562223862901200,2.6889013671875,-4.451146464923024,-4.158718931341171,2.3710554701074957
1772562223872884000,2.698884033203125,-6.1666802172303194,-4.201473784962296,2.060898218567669
1772562223882866200,2.7088662109375,-8.074146992713212,-4.553012848204374,1.5335899159654973
1772562223892849200,2.71884912109375,-10.11903486446142,-4.977350021153688,1.1028010826587675
1772562223902831000,2.7288310546875,-12.389815896654127,-5.41683624791801,1.5307868412435053
1772562223912814000,2.73881396484375,-14.608277543544768,-5.981230126333236,2.5889889037191867
1772562223922797300,2.74879736328125,-15.948604941296576,-6.154579445070028,3.692916652320325
1772562223932779000,2.758779052734375,-15.860452026069163,-5.768551836770772,3.9429780393376945
1772562223942762200,2.76876220703125,-15.19209566887617,-5.176036025720834,3.3942066774681208
1772562223952744200,2.778744140625,-14.595394681096076,-4.850941317290068,2.8703923544615506
1772562223962727200,2.78872705078125,-14.561721544075011,-4.542589069345593,2.966687075090408
1772562223972710100,2.798710205078125,-14.590098912775515,-4.475431888134778,3.6216263168275353
1772562223982692400,2.8086923828125,-14.152902258253096,-4.500817089281976,4.190048135584592
1772562223992675000,2.818675048828125,-13.143881867575645,-4.398248110689223,4.196152882200479
1772562224002657300,2.8286572265625,-11.805399220907688,-4.054591032868624,3.803701670594513
1772562224012640300,2.83864013671875,-10.395509042108058,-3.7394869725763797,3.4248803404122588
1772562224022623000,2.848623046875,-8.999770722779632,-3.547936811238527,3.2687185955807565
1772562224032605200,2.858605224609375,-7.544075070616603,-3.3266964450359344,3.4172982147201894
1772562224042588200,2.868588134765625,-6.280056421041488,-3.0219314079284665,3.6108053553447124
1772562224052570000,2.878570068359375,-5.237870842865109,-2.7615859427839515,3.5150799590364095
1772562224062553000,2.888552978515625,-4.27099389591217,-2.4695827720940113,3.3897464831888673
1772562224072536300,2.898536376953125,-3.239977362003922,-2.0772727225244045,3.3357068499654527
1772562224082518000,2.90851806640625,-2.2726246142327784,-1.4815081388115883,3.182177207203209
1772562224092501200,2.918501220703125,-1.2659072398006914,-0.8657230958551168,2.8835423434138296
1772562224102483000,2.92848291015625,-0.256197697815299,-0.21262159093916416,2.547682495340705
1772562224112466200,2.938466064453125,0.8863695780426263,0.4664402846634388,2.0991874710820615
1772562224122449200,2.94844921875,1.9918407566934824,1.135656473556161,1.555837257478386
1772562224132431000,2.95843115234375,2.969318592637777,1.605236809810996,0.9131842274710535
1772562224142414000,2.9684140625,3.714081313163042,1.9996803642779588,0.45373687043488026
1772562224152397000,2.97839697265625,4.423690302720666,2.374704932525754,0.430235437207669
1772562224162379000,2.98837890625,5.016656195625663,2.7512831599563357,0.5087574775196612
1772562224172362000,2.998362060546875,5.159190689381957,3.0571061816841363,0.32289274140708146
1772562224182344200,3.00834423828125,5.194336821565032,3.2162089484035965,-0.013827230626717209
1772562224192327000,3.018326904296875,5.2403918857753276,3.257143016338348,-0.36994076217748223
1772562224202310100,3.02831005859375,5.418110505637526,3.3591520229607816,-0.6549335426487028
1772562224212292000,3.0382919921875,5.810629229521751,3.4692513970583674,-0.8946329639971256
1772562224222275000,3.048275146484375,6.324128787001967,3.5490807205766437,-1.146640370515734
1772562224232257000,3.058257080078125,6.7938190133720635,3.5973949618905783,-1.4065937676027416
1772562224242240300,3.068240234375,7.250387307840585,3.585593172676861,-1.6725518119320273
1772562224252223000,3.078222900390625,7.635150010770559,3.522542842262983,-1.9166896541193126
1772562224262205200,3.088205078125,7.782507979160547,3.4467090181216595,-2.0927534925118088
1772562224272188200,3.098188232421875,7.8381129620045416,3.2129227663397786,-2.1630387426152824
1772562224282170000,3.108170166015625,8.12556913691461,2.949924740859866,-2.300585511086881
1772562224292153000,3.118153076171875,8.467322134679556,2.972527033290267,-2.5472280295714733
1772562224302136000,3.128135986328125,8.710002763795853,3.1011896535605192,-2.782409535104036
1772562224312118000,3.138117919921875,8.84383898731172,3.15042393232882,-2.9184461912736297
1772562224322101000,3.14810107421875,8.868561340636015,3.142444916273653,-3.0051413089081644
1772562224332083200,3.158083251953125,8.96900032146275,3.205978646290302,-3.0759780554145575
1772562224342066200,3.168066162109375,8.794620490634442,3.3396003502726552,-3.1226845692709086
1772562224352049200,3.178049072265625,8.378000175672769,3.386860114097595,-3.1766131433352824
1772562224362031000,3.188031005859375,7.695433506819605,3.394325627672672,-3.135350866359472
1772562224372014000,3.19801416015625,7.252045011919736,3.3129286164462566,-2.9900068681403993
1772562224381996000,3.20799609375,7.094129993680119,3.313951529753208,-2.802490200102329
1772562224391979300,3.217979248046875,6.896537045046687,3.450667400358617,-2.72182734836936
1772562224401962000,3.2279619140625,6.738940006715059,3.54624374358505,-2.8338568137466904
1772562224411944200,3.237944091796875,6.472347756135464,3.6155443665653464,-2.874000900347531
1772562224421927200,3.24792724609375,5.95653115388453,3.5399253542184828,-2.7846684199467298
1772562224431909000,3.2579091796875,5.418894934013486,3.120186322714388,-2.6409216277912257
1772562224441892000,3.26789208984375,4.887866734105348,2.665075241316855,-2.3548642137631774
1772562224451875300,3.277875244140625,4.216151129612326,2.248426869304478,-2.0014061651572583
1772562224461857000,3.28785693359375,3.8119407988905905,1.6974673497408628,-1.5810130536586045
1772562224471840300,3.29784033203125,3.507052427664399,1.1097282515734435,-1.2730661716446279
1772562224481822000,3.307822021484375,3.0738065565943717,0.6243173089802265,-1.0850459379985928
1772562224491805200,3.31780517578125,2.430579964482784,-0.021648352706432342,-0.8982160831809043
1772562224501788200,3.3277880859375,1.482715176513791,-0.9448030623108148,-0.8764268606990575
1772562224511770000,3.33777001953125,0.5104945304453372,-1.859661068212986,-0.7983078482300042
1772562224521753000,3.347753173828125,-0.8091255948424338,-2.6488462833106516,-0.4359682817712426
1772562224531735300,3.3577353515625,-1.9647908372044562,-3.4045056609034536,0.19492197585850954
1772562224541718300,3.36771826171875,-2.746995691895485,-4.298885526922345,1.0555646997094155
1772562224551701000,3.377700927734375,-3.2645839799940584,-5.127006329613923,1.8402505575612187
1772562224561683200,3.38768310546875,-4.58888378753066,-5.658068431791663,1.8955314230173825
1772562224571666200,3.397666259765625,-7.046800671750307,-6.333031639903783,1.583106518806517
1772562224581648100,3.407648193359375,-9.196589179909228,-7.519453839579224,1.6690315288513897
1772562224591631000,3.417631103515625,-10.287699824774265,-8.181244846907257,1.993053639614582
1772562224601614300,3.4276142578125,-11.258700573658942,-7.9364494175940745,2.159024246276915
1772562224611596000,3.437595947265625,-12.34425124630928,-7.639419943174719,2.0436133217677472
1772562224621579300,3.447579345703125,-12.399513114804028,-7.403627320006489,1.7115005512684582
1772562224631561000,3.45756103515625,-11.827966442024707,-6.882312704861164,1.2353802918508647
1772562224641544200,3.467544189453125,-11.719829892432688,-6.014938334667682,0.8101710122421384
1772562224651527200,3.477527099609375,-12.431620902204513,-5.354470684897899,1.0024299063712359
1772562224661509000,3.487509033203125,-13.504711906254292,-5.4901908224642275,1.7858111113652586
1772562224671492000,3.4974921875,-14.1481582785964,-5.821328318190575,2.7016087362051007
1772562224681474300,3.507474365234375,-13.674421991705893,-5.758147931656241,3.4465468132972714
1772562224691457000,3.51745703125,-12.355244934010505,-5.361812864354253,3.6622464965075254
1772562224701440000,3.52743994140625,-10.640816512596606,-4.860290744915604,3.3658351539865135
1772562224711422200,3.537422119140625,-8.798727341431379,-4.476184460067749,3.058486822387576
1772562224721405000,3.547405029296875,-6.946071183544397,-4.151330574655533,2.8969264333829283
1772562224731387100,3.55738720703125,-5.040426947313547,-3.6869390392154453,2.8871476744294164
1772562224741370000,3.5673701171875,-3.285242152619362,-3.0641420716702936,2.9312328998714685
1772562224751353000,3.57735302734375,-1.931014239808917,-2.4979496194005013,2.9593080707550046
1772562224761335000,3.5873349609375,-1.150404545354843,-2.0297692130714653,2.9382971391692756
1772562224771318300,3.597318359375,-0.8173872272312641,-1.5213327841997146,2.7792420109838245
1772562224781300000,3.607300048828125,-0.48969782613217827,-0.8382669336527585,2.729434316241741
1772562224791283200,3.617283203125,-0.07122749938964844,-0.11999942134320735,2.575354346120357
1772562224801266200,3.62726611328125,0.6215525204420089,0.820339647296071,2.345966621558368
1772562224811248000,3.637248046875,1.4969365940898656,1.771427488964796,2.122488997823
1772562224821231000,3.647231201171875,2.30714296990633,2.4386843604832884,1.7171563850730656
1772562224831213300,3.65721337890625,3.2428695763140913,2.960083731302619,1.2505122484005986
1772562224841196000,3.667196044921875,4.1245010199189185,3.4492572412997484,0.7823788960836827
1772562224851179300,3.67717919921875,4.554278338095545,3.8451848968446254,0.563888266980648
1772562224861161500,3.687161376953125,4.807387422245741,4.019349623617529,0.5681548383839428
1772562224871144200,3.697144287109375,5.030005506542325,4.06090211571157,0.5692146496351808
1772562224881126400,3.70712646484375,4.8424517213642595,4.074769313022494,0.5776444051325321
1772562224891109400,3.717109375,4.370514592850208,3.92595003990829,0.6347985171146691
1772562224901092400,3.72709228515625,4.321837947964668,3.6046979783803224,0.5505731505945325
1772562224911074300,3.73707421875,5.206072267544269,3.3608091425180433,0.29620507935918866
1772562224921057500,3.7470576171875,6.121433546793461,3.4311233264550562,-0.1683449345782399
1772562224931039200,3.757039306640625,6.774796917515992,3.7102272680833934,-0.5634958335969596
1772562224941022500,3.7670224609375,7.303099491852522,3.933341903725266,-0.9583611936725676
1772562224951005400,3.77700537109375,7.686125580248236,3.948462023706734,-1.2946909973450005
1772562224960987400,3.7869873046875,8.042211054748297,3.832583481685817,-1.4466099900402127
1772562224970970400,3.796970458984375,8.358905599102377,3.5624832229852674,-1.3617622538380325
1772562224980952300,3.806952392578125,8.433605158516764,3.21648192012608,-1.157430498468876
1772562224990935300,3.816935302734375,8.2118246940881,2.9464538498789072,-0.8973400309987366
1772562225000918300,3.826918212890625,7.92597712341845,2.7745234580293294,-0.8492588677883147
1772562225010900200,3.836900146484375,7.877826548233628,2.8746152328535914,-0.8782282110325992
1772562225020883200,3.84688330078125,7.846257105493545,3.1173829557314514,-0.7740870146870613
1772562225030865400,3.856865478515625,7.985457486391067,3.2447777480229734,-0.6336854413062334
1772562225040848400,3.866848388671875,7.916804805925488,3.354216904646158,-0.6521794216349721
1772562225050831400,3.876831298828125,7.649047603219747,3.2464372056677937,-0.9941767495498061
1772562225060813300,3.886813232421875,7.3533835719347,3.0970933241575955,-1.3520894394770264
1772562225070796500,3.896796630859375,6.87344200066328,3.2061388052880764,-1.50354929022789
1772562225080778200,3.9067783203125,6.087196930670738,3.5806641918420787,-1.4223977781951427
1772562225090761500,3.916761474609375,5.091320099204778,3.8580011237978935,-1.1022007786780594
1772562225100744400,3.926744384765625,4.118614884489775,3.6446427430167794,-0.7910241209626198
1772562225110726400,3.936726318359375,3.5402637923926115,3.208918791395426,-0.49235301681607957
1772562225120709400,3.94670947265625,3.9835254460424183,2.7886642115846274,-0.37456250369399785
1772562225130692600,3.956692626953125,4.909985042411089,2.6031539149329066,-0.6798438197605311
1772562225140674300,3.96667431640625,5.845008468985557,2.4185963889613746,-1.0020542049266397
1772562225150657500,3.976657470703125,6.496214369413257,1.879325553625822,-1.3012823584340512
1772562225160639200,3.98663916015625,6.040663143032789,0.9606994273617863,-1.1052066824957727
1772562225170622500,3.99662255859375,5.29161821514368,0.3016518735229969,-0.7903694564461707
1772562225180604400,4.0066044921875,5.245555552148819,0.2940226938188076,-0.9529498361483216
1772562225190586400,4.01658642578125,4.304661772236228,0.05452186378240585,-0.8799126569882034
1772562225200569300,4.0265693359375,1.699701392403245,-0.09496054941564798,-0.4553820072934031
1772562225210552600,4.036552490234375,-1.639673916941881,-1.599039708736539,0.6331380365565419
1772562225220534300,4.0465341796875,-3.7496629141539333,-4.956716398447751,1.7333204611495137
1772562225230517500,4.056517578125,-4.929014152529835,-5.767410850042104,2.227882093925774
1772562225240499500,4.06649951171875,-5.320054620555043,-5.641303759473562,2.7570503451809287
1772562225250482400,4.076482421875,-5.628802589818835,-5.3654982748687265,3.21527926633805
1772562225260465400,4.08646533203125,-5.528303403237461,-5.183376451611519,3.1979394244804977
1772562225270447600,4.096447509765625,-5.414053339201212,-5.043672212845086,3.0079110658824444
1772562225280430300,4.106430419921875,-6.385708752602339,-5.257043745368719,2.7621657884985207
1772562225290412500,4.11641259765625,-9.31874373345971,-5.642403829669952,2.8256922119915484
1772562225300395500,4.1263955078125,-13.408152397209404,-5.839586443936825,3.456342815646529
1772562225310378200,4.136378173828125,-14.001791659331321,-5.849943002778291,4.434443459664285
1772562225320360400,4.1463603515625,-12.004272272479534,-4.872352938631177,4.497324863252043
1772562225330343400,4.156343505859375,-10.994911690062283,-3.983190514999628,2.802027843287587
1772562225340325400,4.166325439453125,-11.028875918984413,-3.8525811445757743,1.0708218900740145
1772562225350308400,4.176308349609375,-11.677931363379955,-3.9055429194346067,0.36398031940311193
1772562225360291600,4.18629150390625,-12.071889764678478,-4.025254171486199,0.4657958492800593
1772562225370273300,4.196273193359375,-12.144634682893752,-4.209356939427554,1.2833850288242101
1772562225380256500,4.206256591796875,-12.608548663949966,-4.648771854521334,2.9634003085047005
1772562225390238200,4.21623828125,-11.965403904902935,-4.517835736361146,3.762968385928869
1772562225400221400,4.226221435546875,-10.521717839485406,-3.6115330850973724,3.742323365046084
1772562225410204400,4.236204345703125,-9.197072579512,-2.84184021371603,3.3835417833298442
1772562225420186400,4.246186279296875,-8.211655767261982,-2.28063168733865,3.1000662024885415
1772562225430169300,4.25616943359375,-7.239353872650861,-1.715113481068611,2.781393636059761
1772562225440151600,4.266151611328125,-6.146932729709148,-1.287441610738635,2.301344512760639
1772562225450134300,4.27613427734375,-4.988160168981552,-0.8380974223047495,1.8468536090880632
1772562225460117200,4.2861171875,-3.759234460097551,-0.43673546675145625,1.4583885445088147
1772562225470099500,4.296099365234375,-2.5767244654297827,-0.2994318593859672,1.2703347008541226
1772562225480082200,4.306082275390625,-1.594768607288599,-0.19243863461017607,1.1622186825934797
1772562225490064400,4.316064453125,-0.6299515154749155,0.09910393283069133,1.1085771087769418
1772562225500047400,4.32604736328125,0.15404840593934058,0.3901654387563467,1.0502698081716895
1772562225510030300,4.3360302734375,0.7600316013276577,0.729677964118123,0.870998698170483
1772562225520012300,4.34601220703125,1.5119319186478852,1.119355911618471,0.6729707191206514
1772562225529995500,4.35599560546875,2.4564883127212522,1.5074462976664305,0.5528744132742286
1772562225539977200,4.365977294921875,3.3880794267594814,1.8794108938217162,0.47319556760992854
1772562225549960400,4.37596044921875,4.147091037389636,2.2174819882035255,0.4182971986653283
1772562225559943400,4.385943359375,4.7364258803159,2.4622896924763915,0.3910675021626055
1772562225569925400,4.39592529296875,5.171263404491543,2.6524773332893847,0.3419095765661448
1772562225579908400,4.405908447265625,5.379761778020859,2.7328450014680623,0.28384183860411866
1772562225589890600,4.415890625,5.403087124028802,2.7762410756021736,0.146011558749713
1772562225599873300,4.425873291015625,5.451407795083522,2.834914798367023,0.15184618318732826
1772562225609856300,4.435856201171875,5.684746595358848,2.8792075290799137,0.2617991528178565
1772562225619838500,4.44583837890625,6.059710957852006,2.838870550255477,0.15303314621588215
1772562225629821200,4.4558212890625,6.497260663595795,2.7895497622475025,-0.058524139960017055
1772562225639804400,4.465804443359375,6.9203948904961345,2.8760917351469395,-0.27334899483080954
1772562225649786400,4.475786376953125,7.377597975736856,3.047453094936907,-0.46552127012237904
1772562225659769300,4.485769287109375,7.8895847905665635,3.1834114251732823,-0.5948968975001946
1772562225669751300,4.495751220703125,8.258138116973639,3.2009254545539614,-0.6376734880290925
1772562225679734500,4.505734619140625,8.451640581423044,3.075224898959696,-0.5894190871436149
1772562225689717200,4.51571728515625,8.449045888754725,2.8955811562538147,-0.4846077364515513
1772562225699699500,4.525699462890625,8.191971992626785,2.599851950778067,-0.3783347887743264
1772562225709682400,4.535682373046875,7.765729862838983,2.2764438802599907,-0.29838688037768
1772562225719664400,4.545664306640625,7.501295082554221,2.1218243964344263,-0.26599881473109127
1772562225729647400,4.5556474609375,7.446566882544755,2.1229992854326962,-0.2527789754129946
1772562225739630300,4.56563037109375,7.5519871589154,2.1829183320835233,-0.2919920647740364
1772562225749612300,4.5756123046875,7.673016507828235,2.247513261590898,-0.4430563403360545
1772562225759595500,4.585595458984375,7.618944725900888,2.3326216945558786,-0.5974762099362909
1772562225769577200,4.5955771484375,7.387234988132119,2.4412112486124036,-0.6328779243156314
1772562225779560400,4.605560546875,7.1177668898552655,2.5414377557322383,-0.6257559634812175
1772562225789543400,4.61554345703125,6.858153246116638,2.5963538795292376,-0.6176837161846459
1772562225799525400,4.625525390625,6.640156391879916,2.6802432920932766,-0.552265999052301
1772562225809508400,4.63550830078125,6.440292575705051,2.8286425862297415,-0.5017872001156211
1772562225819493400,4.645493408203125,5.8990685604751105,2.6114731227278707,-0.023187179646268485
1772562225829475300,4.655475341796875,5.509300012081861,2.1001763359889387,0.36453203500173986
1772562225839458600,4.66545849609375,4.894797410151362,1.4298872571676968,0.7123531736992299
1772562225849440500,4.6754404296875,4.043527202540636,0.86269585698843,0.8217909420829266
1772562225859422700,4.685422607421875,3.0324206532388924,0.35165684440284967,0.850047753143683
1772562225869405700,4.69540576171875,2.168872563335299,-0.3163923465371132,0.9601695582687855
1772562225879387600,4.7053876953125,1.704014579427242,-1.0524088660269975,0.924628873810172
1772562225889370600,4.71537060546875,1.014886067840457,-1.2083733347207306,0.7596263084623962
1772562225899353900,4.725353759765625,-0.4541577261954546,-1.003751510363817,0.8316052107412367
1772562225909335600,4.73533544921875,-1.6909557758897542,-1.5371476084470748,1.1869877976689487
1772562225919318800,4.74531884765625,-2.383500233399868,-2.8595301841855045,1.9237527243733406
1772562225929300700,4.75530078125,-3.007109101849794,-3.7892005592942235,2.5532892293065785
1772562225939283700,4.76528369140625,-3.803569860908389,-3.6652602913707493,2.6172902845740316
1772562225949266700,4.7752666015625,-5.021112590512633,-2.887355764222145,2.0010782483771443
1772562225959249000,4.785248779296875,-6.683284170466661,-2.36068692856729,0.8824717668864875
1772562225969231600,4.795231689453125,-8.21661777358353,-2.7394933534413575,-0.2516008715443313
1772562225979214600,4.805214599609375,-9.633295420566201,-3.5339468643307685,-1.2684597007624805
1772562225989196800,4.81519677734375,-10.71845037189722,-3.998994233331084,-1.6605547924071549
1772562225999179500,4.825179443359375,-10.813543900042772,-4.169381779652833,-1.4887803217716513
1772562226009161700,4.83516162109375,-9.99717607898712,-4.188682107928395,-1.400846017730981
1772562226019144700,4.845144775390625,-9.421986081269383,-3.98931308953315,-1.5324271557964384
1772562226029127700,4.855127685546875,-9.64426338930428,-3.8109932889074085,-1.6665476030811666
1772562226039109600,4.865109619140625,-10.506280616378783,-3.884539002111554,-1.6446334390453994
1772562226049092900,4.8750927734375,-11.52534543120861,-4.065886041603982,-1.2494351206883787
1772562226059074600,4.885074462890625,-11.930727728319168,-4.249240913787484,-0.5404952625639736
1772562226069057800,4.895057861328125,-11.480186439055204,-4.5078471340492365,0.10310790777504443
1772562226079040800,4.905040771484375,-10.549093337666987,-4.59993563515991,0.49405222194939846
1772562226089022700,4.915022705078125,-9.470645775020122,-4.429039554794133,0.6690061994038522
1772562226099005700,4.925005615234375,-8.555819917821884,-4.155816780158877,0.7462620191723108
1772562226108987600,4.934987548828125,-7.753518031519651,-3.9099978530168533,0.9368858594454824
1772562226118970600,4.944970703125,-6.776147163081169,-3.6313971847355364,1.1752760978914796
1772562226128953600,4.95495361328125,-5.601127231907844,-3.2578415199965236,1.4555071438536047
1772562226138935600,4.964935546875,-4.589304058769345,-2.8655121812045574,1.7871170793972908
1772562226148918500,4.97491845703125,-4.044165500444174,-2.390963993409276,1.8208925077490508
1772562226158900700,4.984900634765625,-3.7936148686051365,-1.9771365240365266,1.480490486201644
1772562226168883500,4.994883544921875,-3.348159504303336,-1.6712696631669997,1.004031496348977
1772562226178866700,5.00486669921875,-2.7680747202813625,-1.145437862858176,0.6394225967187434
1772562226188848600,5.0148486328125,-2.058530612653494,-0.372801631501317,0.4304130587968975
1772562226198831600,5.02483154296875,-1.1185188762724398,0.35068624580502505,0.3424650915570557
1772562226208813600,5.0348134765625,-0.09518705164790153,0.8706400939911604,0.371759136711061
1772562226218796800,5.044796875,0.9324141208589076,1.2456839514613152,0.34961204070225355
1772562226228779500,5.054779541015625,1.972698833850026,1.5638497374117373,0.18931962580680847
1772562226238761700,5.06476171875,3.061981678766012,1.825350217810273,0.06192907129898667
1772562226248744700,5.07474462890625,4.009772232455015,2.198621804910898,0.09344400737285613
1772562226258727400,5.0847275390625,4.5418508181989194,2.6783523637801405,0.2932857578463852
1772562226268709600,5.094709716796875,4.586346378007531,2.9885800502076743,0.4683623387672007
1772562226278692600,5.104692626953125,4.364474728164076,3.0126097450926896,0.2916809529982507
1772562226288674600,5.114674560546875,4.374354317143559,2.9531255827277896,-0.026947774288803336
1772562226298657500,5.124657470703125,4.549219301140308,2.927997863472998,-0.27698468445204194
1772562226308640800,5.134640869140625,4.836842649310827,2.906522236984968,-0.5567320385504514
1772562226318622500,5.14462255859375,5.249201799696683,2.913298014730215,-0.7798789690267294
1772562226328605700,5.154605712890625,5.658583395576477,2.9285590044870973,-0.9177369223393499
1772562226338587600,5.164587646484375,6.05379208919704,2.956752541053295,-1.0312748925834894
1772562226348570600,5.174570556640625,6.391242421332001,2.936244590553641,-1.1012082605093716
1772562226358553600,5.1845537109375,6.7083531452715395,2.8742411388441917,-1.1193421753540636
1772562226368535800,5.194535888671875,6.967721874338388,2.7966759608656164,-1.018199284041673
1772562226378518500,5.2045185546875,7.170266892421245,2.731260654886067,-0.9067258451119065
1772562226388500700,5.214500732421875,7.312937579777836,2.646911515855789,-0.8908058069244027
1772562226398483700,5.224483642578125,7.393463653388619,2.5030919507250187,-0.8822776325538754
1772562226408466700,5.234466796875,7.448020588484406,2.382709667544067,-0.8551727680072188
1772562226418448600,5.24444873046875,7.4343544667035335,2.2849057113960383,-0.889042888905108
1772562226428432000,5.254431884765625,7.392657013180852,2.225477955393493,-0.9506018117174506
1772562226438413600,5.26441357421875,7.276665658435225,2.2192706251859664,-1.0011423507787287
1772562226448396800,5.274396728515625,7.265039518049359,2.30708744032681,-1.1099136911429464
1772562226458379800,5.2843798828125,7.263314009431004,2.487378541025519,-1.2617134413726627
1772562226468361700,5.29436181640625,7.201008652165532,2.701651698563993,-1.3097073646910489
1772562226478344700,5.3043447265625,7.013935343980789,2.879819231237471,-1.3531750427566467
1772562226488327000,5.314326904296875,6.792473443982005,3.0597014588743447,-1.4178364616289734
1772562226498309600,5.3243095703125,6.551055382147431,3.2104595910966394,-1.4705872240856288
1772562226508292600,5.334292724609375,6.185519942256808,3.260472453022003,-1.5102728993944823
1772562226518274800,5.34427490234375,5.6185348783046,3.1617981437802314,-1.4270068794257937
1772562226528257500,5.354257568359375,5.291663223329186,2.937315434655547,-1.2672703448474407
1772562226538239700,5.36423974609375,4.752692539983988,2.6197002683252095,-1.0794548399932682
1772562226548222700,5.37422265625,3.9531121876001354,2.2764231297329065,-0.9048116820536554
1772562226558205700,5.384205810546875,3.1688983311742542,1.9520354005277156,-0.8065517988316714
1772562226568187600,5.394187744140625,2.3844226089417933,1.6798469373762606,-0.6414284566484392
1772562226578171000,5.4041708984375,1.6002204429537057,1.289255966684222,-0.47048459161818024
1772562226588153600,5.414153564453125,0.9398013085007667,0.4747451716721058,-0.1662020773306489
1772562226598135800,5.4241357421875,0.02353109771311283,-0.4858458268791437,0.15842559811025858
1772562226608118800,5.434118896484375,-1.5531477261334656,-1.3175456571012734,0.4889133977562189
1772562226618100700,5.444100830078125,-3.5412627403020855,-2.2777619771212336,0.9638182900346816
1772562226628083700,5.454083740234375,-4.768193475976586,-3.253976661261916,1.4302327096045016
1772562226638066700,5.464066650390625,-4.57596000854969,-3.8881858341813085,1.5269797040455042
1772562226648048600,5.474048583984375,-4.286508275908232,-4.032052453324199,0.7881121790386736
1772562226658031600,5.484031494140625,-5.165124171084165,-4.018729445892572,-0.20833397674784063
1772562226668013600,5.494013671875,-6.360441040354967,-4.308655810308456,-0.8392213117681443
1772562226677996500,5.50399658203125,-7.486941563031077,-4.916252286112308,-0.8160086323544382
1772562226687979800,5.513979736328125,-8.740738678321241,-5.333026914852857,-0.26598727042376996
1772562226697961500,5.52396142578125,-9.540408462554216,-5.236074022576212,0.46365942177325487
1772562226707944700,5.53394482421875,-9.642238020956515,-5.061984699127078,1.1739216145426035
1772562226717926700,5.5439267578125,-9.529884145930408,-5.0213832241475576,1.3031539975248276
1772562226727909600,5.55390966796875,-9.557059737625718,-4.82501309530735,1.0924454006001352
1772562226737892600,5.563892578125,-9.624266895458101,-4.557071768206358,1.1912706626199185
1772562226747874800,5.573874755859375,-9.451796697643399,-4.449198253464698,1.4444411215685307
1772562226757857500,5.583857421875,-9.349603566625714,-4.443271786025166,1.7095643225088715
1772562226767839700,5.59383984375,-9.226347189313172,-4.516256358215212,1.9211089318662882
1772562226777822700,5.60382275390625,-8.875273990017176,-4.61059351503551,2.0572008253544567
1772562226787805400,5.613805419921875,-8.030538152611255,-4.529249110779166,2.1007412763953206
1772562226797787600,5.62378759765625,-7.041766184714436,-4.2355666087001556,2.225415849942714
1772562226807770600,5.6337705078125,-6.2186757774055,-3.880417538267374,2.3994556351616976
1772562226817752600,5.643752685546875,-5.34046320233345,-3.472639285930991,2.2802898881636557
1772562226827735600,5.653735595703125,-4.317875474074483,-2.9703023429781195,1.8803166104897855
1772562226837718800,5.66371875,-3.1884768918693065,-2.3408055855333805,1.4764111079335211
1772562226847700500,5.673700439453125,-2.057768980631232,-1.6936112588346004,1.168292157288268
1772562226857683500,5.683683349609375,-1.0826561202526093,-1.046710362124443,0.9444352519117295
1772562226867666400,5.69366650390625,-0.2799246103614568,-0.4390782304853201,0.7811885903205722
1772562226877648400,5.7036484375,0.48205987859964367,0.19223522099256515,0.5227082614608108
1772562226887631400,5.71363134765625,1.1614525935918092,0.8076765650779009,0.40114159080088135
1772562226897613600,5.723613525390625,1.6628028635948895,1.3539596172630786,0.40573750375639644
1772562226907596300,5.73359619140625,1.9795552756160497,1.7285650833159685,0.28204163904804735
1772562226917579500,5.74357958984375,2.2065403229504823,1.9730057078421115,0.16625325952861458
1772562226927561500,5.7535615234375,2.591489488363266,2.346688798353076,-0.1145578878764063
1772562226937544400,5.76354443359375,3.1456542337089775,2.6644752295970915,-0.47070210682637986
1772562226947526400,5.7735263671875,3.6555537208706137,2.754203139056265,-0.8332957211114466
1772562226957509600,5.783509521484375,4.155810350418091,2.7569144438415765,-1.1699996918585152
1772562226967492400,5.793492431640625,4.622178154367208,2.8186332333907482,-1.4895723489321768
1772562226977474600,5.803474609375,5.105011939948797,2.923090802209079,-1.7749553708299994
1772562226987457500,5.81345751953125,5.643839415431023,2.923510196664929,-1.8558929478511212
1772562226997439500,5.823439453125,6.133133921459317,2.8457220235854384,-1.75221980740875
1772562227007422500,5.83342236328125,6.477750491961836,2.6990958766013384,-1.5885488559909164
1772562227017405400,5.843405517578125,6.640006169754266,2.425209085099399,-1.357642105168104
1772562227027387400,5.853387451171875,6.641908203983307,2.0985057724282146,-1.179137011103332
1772562227037370400,5.863370361328125,6.679855949583649,1.7274559530302882,-1.0608571070291102
1772562227047352300,5.873352294921875,6.796169960412382,1.3999804869428276,-0.9108042004667222
1772562227057335300,5.883335205078125,6.767347770553827,1.1618339941248297,-0.7252041797049343
1772562227067318500,5.893318603515625,6.71661477766037,0.9638567223489284,-0.6153920981161296
1772562227077300200,5.90330029296875,6.970592461338639,0.8442848787680268,-0.8032111101016401
1772562227087283500,5.913283447265625,7.16414051849544,0.8726923503458499,-1.0876881230704485
1772562227097265400,5.923265380859375,7.250925067979097,0.9196949245393276,-1.325554776033759
1772562227107248400,5.933248291015625,7.2650003550827496,0.9002072569981217,-1.4449905721448362
1772562227117231400,5.9432314453125,7.20515115879774,0.9589490765631198,-1.4496888129636645
1772562227127213600,5.953213623046875,7.138908462083339,1.1444357000783085,-1.3844691756866871
1772562227137196300,5.9631962890625,7.037635953041911,1.3054030916258692,-1.3004225267343221
1772562227147179300,5.97317919921875,6.814412304067611,1.4327905773937701,-1.2336723188892007
1772562227157161500,5.983161376953125,6.346136036148667,1.5174018744915723,-1.1611148860700429
1772562227167144400,5.99314453125,5.8479316629558795,1.568695716138184,-1.2235014918781817
1772562227177126400,6.00312646484375,5.651999341011047,1.7072069457277654,-1.3560703258067368
1772562227187109400,6.013109375,5.5731584440082305,1.7899024723321197,-1.4219194931589065
1772562227197092600,6.023092529296875,5.251052395999431,1.5803858616709707,-1.3522675725229083
1772562227207074300,6.03307421875,4.792559855470061,1.084606962059438,-1.1297715071707963
1772562227217057500,6.0430576171875,4.368949243229627,0.3802124922797084,-0.8426210372090339
1772562227227039200,6.053039306640625,3.5516438490629194,-0.36261575305163857,-0.4348657273568213
1772562227237022500,6.0630224609375,2.222296110486984,-0.9329340530797838,0.06394947121068835
1772562227247005400,6.07300537109375,0.6130512340784072,-1.326953536915779,0.6390975294828415
1772562227256987400,6.0829873046875,-0.5712304464370012,-1.7548238524273037,1.2223116975717245
1772562227266970400,6.092970458984375,-1.2975672834336758,-2.39386556006968,1.713807951427996
1772562227276952600,6.10295263671875,-1.938149498516321,-3.060212038744986,2.075705034816265
1772562227286935300,6.112935302734375,-2.2576707907289264,-3.2348128188475966,1.9625746224597096
1772562227296918300,6.122918212890625,-2.864718400478363,-2.9024668241143226,1.5465286002546548
1772562227306900500,6.132900390625,-4.058878500929475,-2.945114710229635,0.9844394916504621
1772562227316883200,6.14288330078125,-5.335080924773216,-3.499195284423232,0.7254673606857657
1772562227326865400,6.152865478515625,-6.56215486831069,-4.193903057447075,0.8687263693243265
1772562227336848400,6.162848388671875,-8.02786279592216,-4.834440264344215,1.221744857469201
1772562227346831400,6.172831298828125,-9.264839709314703,-5.174703900334238,1.487057735762745
1772562227356813300,6.182813232421875,-9.864211377608775,-5.138671632966399,1.334642191722244
1772562227366796500,6.192796630859375,-9.838651404416561,-4.748129762113094,0.8037566151551901
1772562227376778200,6.2027783203125,-9.763255679431557,-4.588149043515324,0.32896818886324763
1772562227386761500,6.212761474609375,-10.28528458032608,-4.7879362873226405,0.22279460990726946
1772562227396744400,6.222744384765625,-10.756053834104538,-4.9013744504541155,0.36381577649116514
1772562227406726400,6.232726318359375,-11.095499723970889,-4.832355859285593,0.5879610703550279
1772562227416709400,6.24270947265625,-11.557024179542063,-4.936192081335187,0.9324895241826772
1772562227426692600,6.252692626953125,-11.596219879376887,-5.159246218961477,1.2425560286991297
1772562227436674300,6.26267431640625,-11.234129611504077,-5.217893638241291,1.4662778364539146
1772562227446657500,6.272657470703125,-10.601508584558964,-5.153350146660208,1.6277428022600708
1772562227456639500,6.282639404296875,-9.78936218059063,-5.144437356886267,1.736327095619589
1772562227466622500,6.29262255859375,-8.825822269105911,-5.144944721886516,1.8841142492070793
1772562227476605400,6.30260546875,-7.807433161580562,-5.0524739434599875,2.083848301522434
1772562227486587600,6.312587646484375,-6.706977765265107,-4.8251662400424475,2.334112225374579
1772562227496570400,6.3225703125,-5.625227653941511,-4.448711931252479,2.608518364575505
1772562227506552600,6.332552490234375,-4.689257886427641,-4.063179997515678,2.7814374752014874
1772562227516535600,6.34253564453125,-3.871948400607705,-3.5301328590005636,2.673220846110582
1772562227526518300,6.352518310546875,-2.6762323028862474,-2.6566350374907253,2.20697286914885
1772562227536500500,6.36250048828125,-1.3786860622406005,-1.7217951507896183,1.6091602668650447
1772562227546483500,6.3724833984375,-0.44499885270595546,-0.9723650229752063,1.0563446711059659
1772562227556465400,6.38246533203125,0.3070990330129862,-0.4489736015558243,0.6952466291408985
1772562227566448400,6.392448486328125,1.2048375618100167,-0.014357026654481887,0.4325334484843537
1772562227576431600,6.402431640625,2.1434335861742495,0.4370774120569229,0.3053012628760189
1772562227586413300,6.412413330078125,2.939564090365171,0.8348240997225046,0.30503643792737273
1772562227596396500,6.422396484375,3.520937160632014,1.181581773906946,0.4067144224971533
1772562227606379500,6.432379638671875,4.01207583322227,1.5031623367369173,0.5017059881055728
1772562227616361500,6.442361572265625,4.452075270205736,1.7954408172369003,0.5762495897732675
1772562227626344400,6.452344482421875,4.836253451246023,2.0838228748202323,0.665219155145809
1772562227636326400,6.462326416015625,5.1041737355589865,2.3776927161648866,0.7559247505307197
1772562227646309400,6.472309326171875,5.206795321121811,2.6547853179708123,0.8597052238050847
1772562227656292400,6.482292236328125,5.205743181720376,2.7884137439548966,0.8088115604571998
1772562227666274300,6.4922744140625,5.478115769267082,2.711703429239988,0.5434505687056109
1772562227676257300,6.50225732421875,6.048787412777543,2.6510321029171346,0.173774357482139
1772562227686239500,6.512239501953125,6.646368690523505,2.578658648362756,-0.17091418227804825
1772562227696222200,6.52222216796875,7.244536828246712,2.4083795308515428,-0.3748558240847662
1772562227706205400,6.532205322265625,7.820265755146742,2.248845386977494,-0.44051542368158697
1772562227716187400,6.5421875,8.257393436086177,2.138982744245231,-0.43782570967357604
1772562227726170400,6.55217041015625,8.345179271566867,1.9209028879001735,-0.4309024497490376
1772562227736152300,6.56215234375,8.026465788605808,1.5130463096305726,-0.4660764928523451
1772562227746135600,6.572135498046875,7.4613283983469,1.0557950013339519,-0.4484125336069613
1772562227756118500,6.582118408203125,6.940249930045009,0.7242512628942728,-0.45249695337638257
1772562227766100500,6.5921005859375,6.838900264114141,0.6813759977638721,-0.4677480062611401
1772562227776083500,6.60208349609375,7.124627423274517,0.9346823580518364,-0.519020074467361
1772562227786065400,6.6120654296875,7.41272774130702,1.3016340944811702,-0.7727366229914129
1772562227796048400,6.62204833984375,7.324915602341294,1.677169827121496,-1.1202962612085043
1772562227806031400,6.63203125,7.113464224225282,2.0501646431073546,-1.4955737813040613
1772562227816013300,6.642013427734375,7.079300088816881,2.400547814312577,-1.7325972614414988
1772562227825996300,6.651996337890625,7.087960365134477,2.7448937511801716,-1.8824200125098227
1772562227835978500,6.661978515625,7.007366486984491,3.0619436848431825,-1.9992095318958163
1772562227845961200,6.671961181640625,6.659037617960572,3.271496535861492,-2.0860528258293867
1772562227855944200,6.681944091796875,6.334872299334407,3.4145527154043314,-2.1533181435897943
1772562227865926100,6.691926025390625,6.107511988946795,3.558537700229883,-2.2646375610016287
1772562227875909000,6.7019091796875,5.892438913202286,3.6233065249994394,-2.448802580524236
1772562227885891000,6.71189111328125,5.664430952560902,3.5830934648156165,-2.6735949401199814
1772562227895874000,6.7218740234375,5.535374364537001,3.3698616330236195,-2.8138100510179993
1772562227905857000,6.73185693359375,5.517653998929262,2.7956019018933174,-2.8254648329764604
1772562227915839000,6.7418388671875,5.1044589822411535,1.8852119813159107,-2.5788918725967407
1772562227925822000,6.751822021484375,4.411700005197525,0.88321082175076,-2.096421075108647
1772562227935805200,6.76180517578125,3.391517584514618,-0.14067980580031872,-1.2489414919525383
1772562227945787000,6.771786865234375,1.8958534945785999,-1.1396353140592574,-0.08811857456639409
1772562227955770000,6.78177001953125,0.38782793571949004,-1.941847768512368,0.9809934428498148
1772562227965752000,6.791751953125,-0.6177250711083412,-2.3583698837965725,1.4849128326885401
1772562227975735000,6.801735107421875,-1.4873656326681375,-2.5158348201811314,1.325292033444345
1772562227985718000,6.811718017578125,-2.6974650605291126,-2.7567653907597065,0.8687463891990482
1772562227995700200,6.8217001953125,-3.6781694573044774,-3.025390608471632,0.6130410049453378
1772562228005683000,6.831682861328125,-4.269155574569106,-3.239219237112999,0.6778945853888988
1772562228015665200,6.8416650390625,-4.814619127064943,-3.5870506780087945,0.8409789690904319
1772562228025648000,6.851648193359375,-5.362691400754452,-4.148789658001065,1.1355544744864106
1772562228035630800,6.861630859375,-6.533845888671278,-5.101427651721239,1.8222817701503633
1772562228045613000,6.871613037109375,-8.086476897454261,-6.304406433922052,2.6370108840882778
1772562228055596000,6.881595947265625,-9.324054114827513,-7.1903241765439505,3.1520453960508106
1772562228065578000,6.891577880859375,-10.587551370877026,-7.468487622451782,2.981814793856442
1772562228075561000,6.90156103515625,-11.342521012639999,-6.860739170956611,2.341933274389058
1772562228085544200,6.911544189453125,-11.036605636453627,-5.949317569243908,1.696639520614594
1772562228095526000,6.92152587890625,-10.263264471697807,-5.245349800443649,0.8696497677795588
1772562228105509000,6.931509033203125,-9.176472274553776,-4.5585582073718305,-0.0526144227258861
1772562228115492000,6.9414921875,-8.574359783118963,-3.902610665374994,-0.7137044421777129
1772562228125474000,6.95147412109375,-9.229453338634967,-3.8960453155100345,-0.6139326930880546
1772562228135457000,6.96145703125,-10.230809478294848,-4.548222691318393,0.44646761008426544
1772562228145439200,6.971439208984375,-10.833362699234485,-5.007446468731761,2.0919437835641204
1772562228155422000,6.981421875,-10.258682989126443,-5.130968803504109,3.4248417619675395
1772562228165405000,6.991405029296875,-8.569958917811512,-5.003816587796807,3.9828640595242377
1772562228175387100,7.00138720703125,-6.855120746552943,-4.635107778567075,3.8948911770388484
1772562228185369900,7.011369873046875,-5.473131551113724,-4.156766628229618,3.4837989778488874
1772562228195352000,7.02135205078125,-4.402549315014482,-3.674766955384612,3.180881614434719
1772562228205335000,7.0313349609375,-3.5895384031713005,-3.2306776187390085,3.0927555872142314
1772562228215318000,7.041318115234375,-2.9903385843127963,-2.6969074266463515,3.0374875812396405
1772562228225300000,7.051300048828125,-2.2841724286854266,-2.018857358434796,2.823508730472624
1772562228235283200,7.061283203125,-1.2240952199876307,-1.1533037739276886,2.413263357370347
1772562228245265000,7.071264892578125,-0.03507248242497444,-0.17668284707367418,2.001880504670739
1772562228255248100,7.081248046875,1.0373884070277213,0.7953945911318063,1.6780566929586231
1772562228265231000,7.091231201171875,1.9824311233133076,1.6631354565501213,1.5350462522536514
1772562228275213000,7.101213134765625,2.7309049733161923,2.3599977772593497,1.5730398828223346
1772562228285196000,7.111196044921875,3.3177538446456194,2.9392168843626973,1.7490030373193322
1772562228295179000,7.121178955078125,3.6525071927815675,3.449341412451863,2.032841460123658
1772562228305161000,7.131160888671875,3.748686178076267,3.8112820427209138,2.307228602363169
1772562228315144000,7.14114404296875,3.6516625586509703,3.8763989502757785,2.4715964500039815
1772562228325126000,7.1511259765625,3.4581863976866005,3.762845051810145,2.4860107598036527
1772562228335109000,7.161109130859375,3.42105464464426,3.6580151425480842,2.4073997260339555
1772562228345092000,7.171092041015625,3.583866202753782,3.6063615276783705,2.127364641035348
1772562228355074000,7.181073974609375,3.8988779085874556,3.4603257478028535,1.7174134285740554
1772562228365057000,7.19105712890625,4.55852196701467,3.342532896593213,1.2360934085562825
1772562228375039000,7.2010390625,5.591538734829426,3.363251274973154,0.8335647473111748
1772562228385022200,7.211022216796875,6.6763634312927715,3.4294676682025194,0.5802699313305318
1772562228395005000,7.2210048828125,7.62274528722763,3.481697621655464,0.4828144963592291
1772562228404987100,7.230987060546875,8.305704754790662,3.4269840346932408,0.5580857181817293
1772562228414970000,7.24097021484375,8.5668878398031,3.212722275331616,0.6567812163420021
1772562228424952000,7.2509521484375,8.247837672233581,2.6760920176327225,0.6458700192924589
1772562228434935000,7.26093505859375,7.1323986417978995,2.045804109810293,0.6499655449777841
1772562228444918300,7.270918212890625,5.165626275387406,1.5526336391314863,0.7695191953148692
1772562228454900000,7.28089990234375,3.788036191689968,1.2117650229856372,0.9914018780089914
1772562228464883200,7.29088330078125,4.618617831537128,1.061281616051495,1.1850195663359016
1772562228474865000,7.300864990234375,5.985975275033712,1.1995499767959117,1.2524373712442816
1772562228484848000,7.31084814453125,6.731105659827589,1.5847157075688243,0.7869054335974156
1772562228494831000,7.3208310546875,6.774509917268157,2.028729056368768,0.09069390494711696
1772562228504813000,7.33081298828125,6.4568351297050715,2.3567186094582078,-0.5023613102091476
1772562228514796000,7.340796142578125,6.2614037430197,2.5129548808306454,-0.9379996659062803
1772562228524779000,7.350779052734375,6.068806702977419,2.5587410649716853,-1.1695616657674313
1772562228534761000,7.360760986328125,5.899587031391262,2.605836285884678,-1.2860238528952002
1772562228544744000,7.370743896484375,5.725553237521648,2.695319572933018,-1.2458920412540435
1772562228554726100,7.38072607421875,5.463118691143393,2.868048713944852,-1.059868315187469
1772562228564708900,7.390708984375,5.237573321223259,3.025071459519863,-1.0004830831523983
1772562228574692000,7.400692138671875,5.10795208505392,3.053362026719749,-1.0483720847915858
1772562228584674000,7.410674072265625,5.050906255751848,2.962470918700099,-1.2300938758805393
1772562228594657000,7.420656982421875,5.127217342016101,2.7478707211643454,-1.4783274629488588
1772562228604639000,7.430638916015625,5.155863006263971,2.3507111857369543,-1.7407912354215977
1772562228614622200,7.440622314453125,4.876867785707116,1.693537316815555,-1.87412140911147
1772562228624605000,7.45060498046875,4.097795383822918,0.7106453468680382,-1.6555993619568645
1772562228634587100,7.460587158203125,2.4160703776150942,-0.40655572480410335,-1.1420369683735072
1772562228644570000,7.470570068359375,0.5198077177137136,-1.5100792765185236,-0.5126128377735615
1772562228654552000,7.480552001953125,-0.5588976190865039,-2.4123849671006203,0.2788900066167116
1772562228664535000,7.49053515625,-1.6117594895780085,-3.0357308007001875,0.7228358431383967
1772562228674518000,7.50051806640625,-2.9870483105957506,-3.5424358757346868,0.39425957620218394
1772562228684500000,7.5105,-4.068703729373216,-4.198278788313269,-0.03601823884248733
1772562228694483000,7.52048291015625,-4.400429838642478,-4.684757067877054,-0.07626958521008491
1772562228704465200,7.530465087890625,-4.518748759552836,-4.861705287888646,0.5360089109301567
1772562228714448000,7.54044775390625,-5.799893900495768,-5.444032882401347,1.444878197811544
1772562228724431000,7.55043115234375,-7.79464265359044,-6.4299442001700395,1.8546914631068705
1772562228734413000,7.5604130859375,-10.398487765657901,-7.770137742409109,1.865056497515738
1772562228744396000,7.57039599609375,-13.877073392772674,-8.940323093032836,2.4506978927515446
1772562228754379000,7.58037890625,-17.04773756457567,-9.326817149800062,2.8726076924234625
1772562228764361200,7.590361328125,-18.603726651614902,-8.491414957928656,2.3133158133223652
1772562228774344000,7.600343994140625,-18.21582740422487,-6.869135243380069,0.9609365971185266
1772562228784326100,7.610326171875,-16.493351285433768,-5.192322559133172,-0.6702886404298245
1772562228794309000,7.62030908203125,-14.865274282783268,-3.6666795105189083,-1.6015896854802965
1772562228804291800,7.630291748046875,-14.467657943499088,-3.22744871982038,-1.2858815218150614
1772562228814274000,7.640274169921875,-15.15524273277521,-4.090811516284942,0.7457970320090651
1772562228824257000,7.650257080078125,-15.234510915279387,-5.818496894156932,2.6757676079839467
1772562228834239000,7.660239013671875,-14.283077621173858,-5.967727086159586,4.085139023606479
1772562228844222000,7.670221923828125,-12.14283201738596,-5.28827942610979,4.629748297360539
1772562228854206000,7.6802060546875,-9.786685070335864,-5.1297962525933976,4.375400611326098
1772562228864187600,7.690187744140625,-7.599044093644618,-4.96632360022664,3.818963829395175
1772562228874171000,7.7001708984375,-5.86663811699152,-4.323632430166006,2.917492836071551
1772562228884153900,7.71015380859375,-4.407835146462917,-3.5134430054843424,1.9949603500187396
1772562228894135800,7.7201357421875,-2.806224710455537,-2.9144571216374633,1.1246268377587199
1772562228904118800,7.730118896484375,-1.7098025151789187,-2.1641706692546605,0.8210035910975187
1772562228914100700,7.740100830078125,-1.0678840830564498,-1.241782267847657,1.0817945349872111
1772562228924083700,7.750083740234375,-0.5207780240505934,-0.27976035971045493,1.5128002259150146
1772562228934066700,7.760066650390625,0.33607904378175735,0.56082595680058,1.9318097741007805
1772562228944048600,7.770048583984375,1.3730278903484343,1.3612106113046407,2.1276205154925583
1772562228954031600,7.780031494140625,2.4406302338540553,2.2255565735876557,2.1526988426476716
1772562228964013800,7.790013916015625,3.303024477547407,3.0733465378671885,1.9090584285885095
1772562228973996500,7.79999658203125,4.067929822391271,3.924722543939948,1.4233625315740703
1772562228983979800,7.809979736328125,4.658817155456543,4.66171287689805,0.9002951544772833
1772562228993961700,7.819961669921875,4.634840067541599,5.165204835104942,0.5493305301222949
1772562229003944700,7.82994482421875,4.703291672477126,5.57118276002109,0.16290800422132015
1772562229013926700,7.8399267578125,5.049267256373167,5.871114970144629,-0.26150537576936184
1772562229023910000,7.849909912109375,5.513823042464256,5.959482989427447,-0.4989246502913534
1772562229033892900,7.859892822265625,6.132412621447443,5.951557457125187,-0.5873977373838425
1772562229043874800,7.869874755859375,6.867153129652142,5.745197849190235,-0.6398794005755335
1772562229053857800,7.87985791015625,7.648610965368151,5.4198775153100485,-0.6735352942008525
1772562229063840800,7.8898408203125,8.20175396645069,5.198135629326105,-0.7302573714412748
1772562229073822700,7.89982275390625,8.619239958330988,4.829576457700133,-0.7327453888647257
1772562229083805700,7.9098056640625,9.069144703257084,4.219266046762466,-0.5547771781556308
1772562229093787600,7.91978759765625,9.420216148987413,3.689459497603774,-0.49192733874991534
1772562229103770600,7.9297705078125,9.47729003534019,3.39744405195415,-0.6069217914126813
1772562229113753900,7.93975390625,9.244673704120515,3.2409558516472576,-0.9469381746433675
1772562229123735600,7.949735595703125,9.128443864443899,3.1421146614059805,-1.3424977275282144
1772562229133718800,7.95971875,9.279184461009502,3.0647035049453377,-1.6774620880663393
1772562229143700700,7.96970068359375,9.193791073623299,3.0260291986361145,-2.058464853940904
1772562229153683700,7.97968359375,8.832544855359195,2.957830107156932,-2.5042747307688
1772562229163666700,7.989666748046875,8.513777011862397,2.998192804944515,-2.7925319929286836
1772562229173646600,7.999646484375,8.500670862051845,2.9256761425271627,-2.93471781937778
1772562229183628800,8.00962890625,8.369600596117973,3.2128020625695584,-3.0191043678089975
1772562229193611800,8.01961181640625,8.437184186047315,3.4039217235356567,-3.0802272372916337
1772562229203594800,8.0295947265625,8.460539342671632,3.5751407522454857,-3.26538302141726
1772562229213576700,8.03957666015625,8.341177050188183,3.828696995641291,-3.471337847943604
1772562229223560000,8.049559814453126,8.313367252242564,4.046894340886175,-3.5801463054478164
1772562229233541600,8.059541748046875,8.315883618977665,4.188518734060228,-3.624289983078837
1772562229243524900,8.06952490234375,8.183862920451164,4.313896341310441,-3.5644051309585567
1772562229253507800,8.0795078125,8.261089952516555,4.291964495487511,-3.4595486259505153
1772562229263489800,8.08948974609375,8.380320143052936,4.30645830026418,-3.372112042298913
1772562229273472800,8.09947265625,8.183449078953265,4.335915280894935,-3.225912011772394
1772562229283455700,8.109455810546875,7.85574097315371,4.167257919366658,-3.069990505437553
1772562229293437700,8.119437744140624,7.549291928482055,3.8380250882178544,-3.1181466335803267
1772562229303420700,8.129420654296876,7.680400772860645,3.575060088224709,-3.1850892952576277
1772562229313402600,8.139402587890626,7.684554969930648,3.267355782794952,-3.041735301811993
1772562229323385600,8.149385498046875,7.434326994174718,2.666523978820443,-2.6685180752471087
1772562229333368800,8.159368896484375,7.311389181292056,1.8684303578630088,-2.18699917165637
1772562229343350500,8.1693505859375,6.779858877080678,1.1520903064846992,-1.7606921599388121
1772562229353333800,8.179333740234375,5.440291942307352,0.57138183760643,-1.3709274109378455
1772562229363315700,8.189315673828125,3.5890760463565585,-0.05805120695233345,-0.6733472973480821
1772562229373298700,8.199298583984374,1.6428683290690183,-0.6702630675971507,0.7154208907067775
1772562229383281700,8.20928173828125,0.2727630481690168,-1.1083537483498453,1.466310861940682
1772562229393263900,8.219263916015626,-0.873984728243947,-1.2519751605600118,1.1868449551321565
1772562229403246600,8.22924658203125,-2.496853640857339,-1.121250931584835,0.29226372132226824
1772562229413229800,8.239229736328125,-4.217752135068178,-1.7626649213165044,-0.011860679794102906
1772562229423211800,8.249211669921875,-6.818091284841299,-2.3114681396290657,0.2644051157988608
1772562229433194800,8.25919482421875,-8.296192245557904,-2.4011639003843066,0.3849005039654672
1772562229443176700,8.2691767578125,-9.522676991030574,-2.8912545252263544,0.44184404193684457
1772562229453160000,8.279159912109375,-11.27254439009428,-4.0305286047577855,0.4494868117749691
1772562229463143000,8.289142822265624,-13.176598726785182,-5.211493708071112,0.8626833628330379
1772562229473124900,8.299124755859374,-14.820094247841833,-6.341394979101419,1.2496636687472462
1772562229483107800,8.30910791015625,-16.128520778942107,-7.164978138363361,1.251225218975544
1772562229493089800,8.31908984375,-17.470337538468836,-7.331120886722207,0.8075838452931493
1772562229503072800,8.32907275390625,-19.094013091289995,-7.066956740072369,0.1490131151858717
1772562229513055700,8.3390556640625,-20.241366432380676,-6.408446654111146,-0.4415285462468862
1772562229523037700,8.34903759765625,-20.823101321697234,-5.67825372620821,-0.565778464641422
1772562229533020700,8.359020751953125,-21.280774947059154,-5.389870499581098,-0.40501792077757415
1772562229543003000,8.3690029296875,-21.36330476170778,-5.599800367218256,-0.0822886263038963
1772562229552985600,8.378985595703124,-20.84228533011675,-5.923448968493938,0.5599817610614002
1772562229562968800,8.38896875,-19.72348705238104,-6.106268126365542,1.313497550754249
1772562229572950800,8.39895068359375,-17.939016541969774,-6.201840962460636,1.886959847896546
1772562229582933800,8.408933837890626,-15.717155315768718,-6.0299155390471215,2.157981166964769
1772562229592916700,8.418916748046875,-13.391037596279382,-5.661867239552736,2.269372918960452
1772562229602900700,8.428900634765625,-9.018670069038867,-5.1028544696539635,2.2510160090148448
1772562229612883000,8.438883056640625,-7.510496041619777,-4.5758869433134794,2.261886070336401
1772562229622865700,8.44886572265625,-6.25989275393486,-3.898690277060866,2.118866423411667
1772562229632848600,8.4588486328125,-4.948486330240964,-3.1212481067270037,1.8781845668971537
1772562229642830800,8.468830810546875,-3.6148218975096937,-2.3387182578653096,1.484123582006991
1772562229652813600,8.4788134765625,-2.35979144103229,-1.5439035124480724,1.2064262923061846
1772562229662795800,8.488795654296876,-0.9556412671893835,-0.6775847887873649,1.1472864863995462
1772562229672778800,8.49877880859375,0.5299707998096943,0.23956045126914977,1.390573922302574
1772562229682761700,8.50876171875,1.6652853280603885,1.190959258583188,1.433773743212223
1772562229692743700,8.51874365234375,2.467166358602047,2.015368347275257,1.209906608702615
1772562229702727000,8.528726806640625,3.4833278532058,2.8890929632782933,0.8686582725241779
1772562229712709600,8.538709716796875,4.327687843036651,3.7779958591908214,0.5723525458021089
1772562229722691800,8.54869189453125,4.639115260642766,4.375290136688948,0.15679386872258036
1772562229732674800,8.5586748046875,5.0277223640412085,4.735908578443527,-0.12408954020105302
1772562229742656800,8.56865673828125,5.519383599200845,5.017125566703081,-0.3228822930783033
1772562229752639700,8.5786396484375,5.895858366256952,5.074870484185219,-0.64779112354815
1772562229762622700,8.588622802734376,6.520567304903269,5.000180277121067,-0.909517302461341
1772562229772604700,8.598604736328125,7.156411970070004,4.846331193146109,-1.0482933204669505
1772562229782587600,8.608587646484375,7.708929532730579,4.58412811743617,-1.171658053524792
1772562229792569600,8.618569580078125,8.17025525085926,4.31502592986226,-1.3576571566067634
1772562229802552600,8.628552490234375,8.662546600615977,4.0688077742695805,-1.6183660482361912
1772562229812535800,8.638535888671875,9.121846365875005,3.9995349160790443,-1.9212841423027216
1772562229822517800,8.648517822265624,9.25865546772182,3.9527135436713694,-2.091937353823334
1772562229832500700,8.658500732421874,9.297918387573956,3.882778129918873,-2.0609631004974243
1772562229842482700,8.668482666015626,9.022731911650299,3.887985343173146,-2.0667206411108374
1772562229852466000,8.6784658203125,8.635484406167269,3.820188695015013,-2.1349568497300146
1772562229862447900,8.68844775390625,8.360256429189443,3.7688381547451018,-2.2597937742322682
1772562229872430000,8.69843017578125,8.035830413800477,3.771200792223215,-2.5283552790582178
1772562229882413000,8.7084130859375,7.67684921785891,3.783880825576186,-2.7929759373039005
1772562229892396000,8.71839599609375,7.54068659722209,3.803435420873761,-2.96971460621804
1772562229902378000,8.7283779296875,7.563160879358649,3.8935552522599695,-3.1879163353770967
1772562229912361200,8.738361328125,7.327689158707857,3.9394717847824094,-3.4101603256642816
1772562229922343000,8.748343017578126,7.350547471725941,3.9564194124519823,-3.506052310711145
1772562229932326100,8.758326171875,7.505483181893825,4.099082501024007,-3.701999537964165
1772562229942309000,8.76830908203125,7.493080796438455,4.302256464660167,-3.9074370626181363
1772562229952291000,8.778291015625,7.3726926680386065,4.462255887958407,-3.9150808553695677
1772562229962274000,8.788274169921875,7.24614367892146,4.6280350637018675,-3.8378789577454326
1772562229972256000,8.798256103515625,7.314935475596785,4.837954994466901,-3.8037829191371797
1772562229982239000,8.808239013671875,7.491916428834199,5.050217688965797,-3.7911549082323908
1772562229992222000,8.818221923828125,7.687283518111705,5.300834371778369,-3.7248803550750016
1772562230002204000,8.828203857421874,7.7068726002007715,5.427945086431503,-3.7887335263043638
1772562230012187000,8.838186767578126,7.468698050332069,5.39363423602879,-3.826313023114204
1772562230022170000,8.848170166015626,7.12309129974842,5.251575543090701,-3.736870944859087
1772562230032152000,8.858152099609375,6.704480103230476,5.08693326242268,-3.5159991197079417
1772562230042135000,8.868135009765625,6.33896862873733,4.820211832505464,-3.237877467115223
1772562230052117000,8.878116943359375,5.792282256448268,4.3525154103010895,-2.994421469712257
1772562230062100000,8.888099853515625,5.258801987212896,3.806220083156228,-2.5618866695210336
1772562230072083000,8.8980830078125,4.814236849749088,3.3286621921509503,-1.9753838351503012
1772562230082065200,8.908065185546874,4.382105077400803,2.8977298587203024,-1.2851251504898071
1772562230092048000,8.9180478515625,3.4962188989609477,2.6689550053596496,-0.7092717204272747
1772562230102030000,8.928030029296876,2.5108657995969055,2.118229586812854,-0.2799228567957878
1772562230112013000,8.938012939453126,2.0868384232491253,1.0457827258855104,0.314317001567781
1772562230121996000,8.94799609375,1.6337047794044017,0.35880057867765425,0.6622130321323871
1772562230131978000,8.95797802734375,1.0443722745656967,0.14122341115772724,0.5237731142133474
1772562230141961200,8.967961181640625,0.7602361839890479,-0.31502514983713625,0.4053603775396943
1772562230151944200,8.977944091796875,-0.8522107033312321,-0.7002788511544465,0.8374152852594852
1772562230161926100,8.987926025390625,-3.3502199439644813,-1.5256851341903208,1.1602896872922777
1772562230171909000,8.9979091796875,-6.483568238329887,-2.8332822287291286,1.8135003516711294
1772562230181891000,9.00789111328125,-9.094479635521768,-4.126760781544447,2.3727657811567187
1772562230191874000,9.0178740234375,-10.565420203089714,-5.016258720740676,2.0564643277734516
1772562230201857000,9.02785693359375,-11.828679558730125,-5.8050032063335175,0.9537740120127797
1772562230211839000,9.0378388671875,-13.018508936500549,-6.616702451056241,-0.22536796752661464
1772562230221822000,9.047822021484375,-14.732303736186026,-7.018034011471271,-1.1528250505000353
1772562230231804200,9.05780419921875,-16.174258447766302,-5.932000523740053,-1.5595070320323108
1772562230241787000,9.067786865234375,-16.16398489103317,-5.394855302256345,-1.0955587103150783
1772562230251770000,9.07777001953125,-17.310774753022194,-5.93312397481203,-0.0021841391060501334
1772562230261752000,9.087751953125,-18.99560532402992,-6.622560529434681,1.1796966177474706
1772562230271735000,9.097735107421874,-19.807534285855294,-6.779843679511547,1.8330650299713014
1772562230281717000,9.107717041015626,-19.99501383675337,-6.761347068834304,2.2008898959733543
1772562230291700200,9.1177001953125,-19.749096125411985,-6.902737068730592,2.42270309362784
1772562230301683000,9.127682861328125,-19.003022906810045,-6.645160483777523,2.18266348053962
1772562230311665200,9.1376650390625,-17.924204757285118,-6.252986043286323,2.019502378340065
1772562230321648000,9.147648193359375,-16.744076104795933,-5.871894137823581,1.8407731201305984
1772562230331630800,9.157630859375,-15.491361524045466,-5.365346299177408,1.7521416276060044
1772562230341613000,9.167613037109374,-13.964147280591725,-4.900703419324755,1.7017783448077737
1772562230351596000,9.177595947265624,-12.143676066994667,-4.41382561904937,1.5394459485173224
1772562230361578000,9.187577880859376,-10.085894811403751,-3.957305839897692,1.246517771936953
1772562230371561000,9.19756103515625,-7.952182993298768,-3.456605850496888,1.112782451512292
1772562230381544200,9.207544189453126,-5.909796875238418,-2.941593550366163,1.0728108719341456
1772562230391526000,9.21752587890625,-3.937138373398781,-2.256288396459818,0.8901236698791384
1772562230401509000,9.227509033203125,-1.827847295323014,-1.6218886694043875,0.5773491485130041
1772562230411491000,9.237490966796875,-0.03204232094883919,-0.8761544734984635,0.7152668691888451
1772562230421474000,9.24747412109375,0.7935743899673223,-0.06357727689743041,0.7908527099184691
1772562230431457000,9.25745703125,1.167784719222784,0.5642851573437452,0.5027481175696477
1772562230441439200,9.267439208984374,0.8893816193401813,1.0846990242570638,0.24885478770658373
1772562230451422000,9.277421875,1.2186872234642505,1.4674720146745444,0.08248060521204024
1772562230461405000,9.287405029296876,2.4666928958714007,2.28810100030601,-0.17719697060827164
1772562230471387100,9.29738720703125,3.01452083941102,3.171905111774802,-0.4579880981385708
1772562230481369900,9.307369873046875,3.418475149545073,3.559216330143809,-0.6712101391889155
1772562230491352000,9.31735205078125,4.604408104398846,4.096780069300532,-0.7163244154177606
1772562230501335000,9.3273349609375,5.272156558826565,4.922325468546152,-0.9138263247668743
1772562230511318000,9.337318115234375,5.973312192815542,4.981942609640956,-0.7644790822558104
1772562230521300000,9.347300048828124,7.022627769002318,5.2802399120390415,-0.5808079106647521
1772562230531283200,9.357283203125,7.876110976487397,5.545948365521431,-0.6525425558589398
1772562230541265000,9.367264892578126,8.702779242283105,5.479787501871585,-0.6730177731327712
1772562230551248100,9.377248046875,9.252561827021836,5.2879187761038535,-0.7002005982864647
1772562230561231000,9.387231201171875,9.545290389376879,5.103845818778872,-0.8520332278724759
1772562230571213000,9.397213134765625,9.618090252649784,5.0019800200194116,-0.8278066221758723
1772562230581196000,9.407196044921875,9.587426234316826,4.570805694526434,-0.7239496495991945
1772562230591179000,9.417178955078125,9.415603102234005,4.239443157872557,-0.6250061680272221
1772562230601161000,9.427160888671875,9.18834391413331,4.193655220165849,-0.6424915558353066
1772562230611144200,9.437144287109374,8.77140386569798,4.141238804230094,-0.7442787364006042
1772562230621126000,9.4471259765625,8.206354153722524,4.030508731013536,-0.6782739400953054
1772562230631109000,9.457109130859376,7.9050453945487735,3.881660816326737,-0.5786205566883087
1772562230641092000,9.467092041015626,7.815668490484357,3.7755320994257926,-0.519495583024621
1772562230651074000,9.477073974609375,8.054273248463868,3.839989081767201,-0.6403989674702286
1772562230661057000,9.48705712890625,8.298276066094637,4.12302451762557,-0.8418997371971607
1772562230671039200,9.497039306640625,8.261842816710471,4.329333856678009,-1.025686278796196
1772562230681022000,9.50702197265625,8.324774196919797,4.488731806951761,-1.0968548876054585
1772562230691005000,9.5170048828125,8.552598033165932,4.6346313932269805,-1.1162276965953408
1772562230700987100,9.526987060546874,8.719737975868583,4.864339143523574,-1.2590996056124568
1772562230710970000,9.53697021484375,8.622129834553599,5.050474878597259,-1.3134605797447263
1772562230720952000,9.5469521484375,8.535055946734547,5.336612956646085,-1.0897617144741116
1772562230730935000,9.55693505859375,8.247790910482406,5.578118112242222,-0.9959886212773621
1772562230740918300,9.566918212890625,8.03403534707725,5.616454564899206,-1.1975612871967256
1772562230750900000,9.57689990234375,7.9091230192512265,5.969775835382938,-1.553318406525254
1772562230760883200,9.58688330078125,7.641219686073065,6.3380386544108385,-1.7801061777219176
1772562230770866200,9.5968662109375,7.522085357126593,6.177425483128428,-1.7945304243937135
1772562230780848000,9.60684814453125,7.414462602275609,5.71325957313776,-1.726252568589896
1772562230790831000,9.6168310546875,7.292178284865617,4.960123576542735,-1.424446819679439
1772562230800813000,9.62681298828125,7.159187280002236,4.011915089702606,-0.8786965591967105
1772562230810796000,9.636796142578126,6.533537845635414,3.1928216430753467,-0.4506583397723734
1772562230820779000,9.646779052734376,5.637329595145583,2.3629858531594277,-0.19315277422890065
1772562230830761000,9.656760986328125,4.962646957540512,1.708556314510107,0.0174706286303699
1772562230840744000,9.666743896484375,4.604209366956353,0.7733662991970777,0.10470116831585764
1772562230850726100,9.67672607421875,3.9769250248640775,-0.03676350425183773,-0.23764979534223674
1772562230860709000,9.686709228515625,2.782449282592535,-0.42033904322385784,-0.6215659644454717
1772562230870692000,9.696692138671875,0.8861579811185598,-0.9447124614179134,-0.3466796405121684
1772562230880674000,9.706674072265624,-1.4190373618513346,-1.6010937186568974,0.35211700926050543
1772562230890657300,9.7166572265625,-3.1843735482037068,-1.9019997422486543,0.9110456080071627
1772562230900640000,9.726639892578126,-4.332115011829138,-2.023608352354169,0.5143785322718322
1772562230910622200,9.736622314453125,-5.063525498828292,-2.327062891384959,-0.36890440486706794
1772562230920605200,9.746605224609375,-6.271703603237867,-2.8091730388671157,-0.921291034624353
1772562230930587100,9.756587158203125,-7.377013453847169,-3.543874384105205,-0.9138155111119151
1772562230940570000,9.766570068359375,-8.588155668759345,-4.1897424306362865,-0.8546358846515416
1772562230950553000,9.776552978515625,-10.258758976972102,-5.193902521800995,-0.5025241360880435
1772562230960535000,9.78653515625,-11.88476911022067,-6.433644223731756,0.065756374502182
1772562230970518000,9.79651806640625,-13.126777588039635,-7.257658175626397,0.4042829575665295
1772562230980500200,9.806500244140626,-13.92780872375369,-7.707277673870324,0.46374739231765266
1772562230990483000,9.81648291015625,-14.861677135074137,-7.876312052017449,0.4649783223520964
1772562231000466200,9.826466064453125,-15.713540632402896,-7.784083265653252,0.14746727398335932
1772562231010448100,9.8364482421875,-15.997295614707468,-7.456766789519786,-0.5065376825783402
1772562231020431000,9.84643115234375,-15.916055255347489,-6.948664122647046,-1.078361710994318
1772562231030414000,9.8564140625,-16.100425149792432,-6.65661711281538,-1.278574559802562
1772562231040396300,9.866396240234375,-16.236484310054777,-6.548770486080646,-1.003952074437216
1772562231050379000,9.87637890625,-16.01799236577749,-6.278322729116677,-0.4265408204734325
1772562231060361200,9.886361328125,-15.126920309132336,-6.028361295342445,0.06950615548975765
1772562231070344200,9.89634423828125,-13.919073628634214,-5.567099874621629,0.33545543199069794
1772562231080327000,9.906326904296876,-12.494605473905802,-5.096900529685616,0.49630803805217144
1772562231090309000,9.91630908203125,-10.835448273336887,-4.710119472670555,0.7213268998801707
1772562231100292000,9.9262919921875,-9.094673696789146,-4.269724314367771,0.935481034148857
1772562231110274000,9.936274169921875,-7.390467978703975,-3.7009634729146956,1.1366479688115416
1772562231120257000,9.946257080078125,-5.746247650504112,-3.096065150153637,1.1450016633979976
1772562231130240300,9.956240234375,-4.253358285978436,-2.455735448527336,1.0576795729715376
1772562231140222000,9.966221923828124,-3.103946258792281,-1.710149136659503,1.1535221659187227
1772562231150205200,9.976205078125,-2.2311182993680236,-0.9749234752863645,0.9424345796138047
1772562231160188200,9.986188232421876,-1.3764356529653072,-0.26875439704954623,0.36785427475962784
1772562231170170000,9.996170166015625,-0.24804069484472274,0.4516816914707422,-0.08813316934732719
1772562231180153000,10.006153076171875,0.796236302652955,1.214152502644062,-0.2939134978232905
1772562231190135300,10.01613525390625,1.594587405502796,1.8812264188110828,-0.27280027490686626
1772562231200118000,10.026117919921875,2.1315268752813337,2.4549323154509066,-0.19357653433261438
1772562231210101200,10.036101318359375,2.577152919974923,3.0267303326427935,-0.26270132582196964
1772562231220083200,10.046083251953124,2.895395862814784,3.4611002393066883,-0.3902556377904489
1772562231230066200,10.056066162109374,3.303940423348546,3.7376854761123655,-0.5761680489696562
1772562231240048000,10.066048095703126,3.940997971436381,3.931281464064121,-0.7522282341003418
1772562231250031400,10.07603125,4.700668922758102,3.973303911757469,-0.5731563729982823
1772562231260014000,10.08601416015625,5.383401011306047,3.8954946958899495,-0.43251134625039994
1772562231269996300,10.095996337890625,5.992922902214527,3.8308430677592753,-0.36683432059474286
1772562231279979300,10.105979248046875,6.684359106221795,3.8391882867783305,-0.2586746823880821
1772562231289962000,10.1159619140625,7.3736734957695,3.8708378090173006,-0.04755439938995987
1772562231299944200,10.125944091796875,8.081472805556654,3.824784498372674,0.20846761306487022
1772562231309927200,10.13592724609375,8.563126441442966,3.7370880947411056,0.2762565163079649
1772562231319909000,10.1459091796875,8.784799353843926,3.6660412126153705,0.23848098546937108
1772562231329892000,10.15589208984375,8.870164684179425,3.5237738453626632,0.22457725554034114
1772562231339875300,10.165875244140626,8.982151479458809,3.392828082591295,0.27352994088828564
1772562231349857000,10.17585693359375,9.134867175489664,3.477003326359391,0.18568331513106823
1772562231359840300,10.18584033203125,9.128840754806994,3.5036288829565048,-0.0949086730979383
1772562231369822000,10.195822021484375,9.203706902959942,3.2134079195082186,-0.39906712261438365
1772562231379805200,10.20580517578125,8.998114187744259,3.3643244571626183,-0.726608055153489
1772562231389788200,10.2157880859375,8.839322386670112,3.4336768103301525,-0.957765273606032
1772562231399770000,10.22577001953125,8.548622115272282,3.3827935953110453,-1.049305493184179
1772562231409753000,10.235753173828124,8.183146296614408,3.4233757810682057,-1.155777762825787
1772562231419736000,10.245736083984376,7.949685915786027,3.643514323508739,-1.2493050645679236
1772562231429718000,10.255718017578126,7.682828876790404,3.8869694441288707,-1.308304512155801
1772562231439701000,10.265700927734375,7.718436196744442,3.9464451309263704,-1.5081247814498842
1772562231449683200,10.27568310546875,7.756306785455346,4.214622897131741,-1.819365298181772
1772562231459666000,10.285666015625,7.480067001086473,4.448940187050402,-2.078389597725123
1772562231469649200,10.295649169921875,7.221950317907333,4.356870975162089,-2.1230014773897827
1772562231479631000,10.305631103515625,6.779376061999797,4.049394341008365,-2.012427617648244
1772562231489614000,10.315614013671874,6.307914149782061,3.6832197264313695,-1.7294306141041218
1772562231499596000,10.325595947265626,5.709849472433328,3.2792113480225202,-1.3791452041849492
1772562231509579300,10.335579345703126,5.38026154423654,2.6705253234162925,-0.9348343337431549
1772562231519562200,10.345562255859376,5.121768428960443,2.0116133786559103,-0.4554942354962229
1772562231529544200,10.355544189453125,4.398776226216555,1.3931938955426215,-0.02981967646330595
1772562231539527200,10.365527099609375,2.763931044605374,0.5949912612527608,0.6709149556346238
1772562231549510100,10.37551025390625,0.5189502241015433,-0.431523285061121,1.5055898561447858
1772562231559492000,10.3854921875,-1.6767659224957228,-1.4559189395248888,1.8724825558632612
1772562231569475000,10.39547509765625,-3.0602731212824583,-2.2950293382644653,1.987729668112844
1772562231579457000,10.40545703125,-2.760542571210861,-2.703608385589719,1.3544843717895447
1772562231589440000,10.41543994140625,-3.9448768586963414,-2.1910487393081186,0.7487813815820962
1772562231599423200,10.42542333984375,-6.86917206825912,-1.2624790189176798,0.7148392183613032
1772562231609405000,10.435405029296875,-8.484673082453012,-1.009449429744482,-0.03316175343282521
1772562231619388200,10.44538818359375,-8.191677978116273,-1.1212965242922306,-0.7298088239561766
1772562231629370000,10.4553701171875,-8.046320243632794,-0.9633540335237979,-1.1156881828911602
1772562231639353000,10.46535302734375,-8.178318145805596,-0.7360249950572848,-1.1591792418323457
1772562231649336000,10.475336181640625,-8.05751617590785,-1.0748168049290776,-1.0111387710709123
1772562231659318300,10.485318359375,-7.900649205416441,-1.8930992274343967,-0.8964851677350699
1772562231669301000,10.495301025390624,-8.5769194044739,-2.12686209834069,-0.0296654357496649
1772562231679284000,10.505283935546874,-8.742824836945534,-2.6446485393598675,0.09263860927410424
1772562231689266200,10.51526611328125,-8.40453805398643,-3.3345439436659214,-0.06927910526823253
1772562231699249200,10.525249267578126,-8.26274122685492,-3.583213291803002,-0.16667031589690595
1772562231709231000,10.535231201171875,-7.74395291531682,-3.458041728518903,-0.21684547397820278
1772562231719214000,10.545214111328125,-6.982373500025272,-3.0194138721495865,-0.2335884824537672
1772562231729197000,10.555197021484375,-6.454944201391935,-2.4513909895822406,-0.3695375151388347
1772562231739179000,10.565178955078125,-6.356211439961195,-2.102956614357233,-0.7516969767678529
1772562231749162200,10.575162353515625,-6.523983835348487,-2.2124521773427723,-1.0338356829822062
1772562231759144200,10.585144287109374,-6.575439297297597,-2.6085551894545556,-1.0291644032355398
1772562231769127200,10.595127197265626,-6.2847980626106255,-2.873210042230785,-0.8296225124914198
1772562231779110100,10.605110107421876,-5.819530913379788,-2.961943972216546,-0.6106119511675089
1772562231789092000,10.615092041015625,-5.17679064348042,-2.98897986318022,-0.4682017779106274
1772562231799075000,10.625074951171875,-4.416619925943016,-2.873074725413322,-0.41432939101289956
1772562231809058300,10.635058349609375,-3.7162452131986616,-2.564157537062466,-0.40127252370417116
1772562231819040000,10.6450400390625,-3.114455377846956,-2.1297616191744804,-0.39613826608825475
1772562231829023200,10.655023193359375,-2.5030852287232874,-1.6275114777222275,-0.3462541816417128
1772562231839005200,10.665005126953124,-2.033606599277258,-1.1800173010691999,-0.22767717605074866
1772562231848988200,10.67498828125,-1.793319002777338,-0.8329495380222797,-0.13241295838025396
1772562231858971600,10.6849716796875,-1.5524930616170167,-0.4793254851996898,-0.18035253029605372
1772562231868953300,10.694953369140626,-1.1950222702383995,-0.06976210301220416,-0.25400749429464337
1772562231878936600,10.7049365234375,-0.7590706473410129,0.3607897066682577,-0.2871928477987647
1772562231888918500,10.71491845703125,-0.2246802775233984,0.7019885776817798,-0.2387022818035446
1772562231898901500,10.724901611328125,0.24767829127311705,0.9458511100590229,-0.18020672861719503
1772562231908884500,10.734884521484375,0.5729904418468476,1.1718559141844511,-0.12655121760684995
1772562231918866700,10.74486669921875,0.9036626581490039,1.3526502882301807,-0.04363496092390269
1772562231928849400,10.754849365234374,1.2735060243666172,1.4491349784731864,0.019685418603010475
1772562231938832600,10.76483251953125,1.587002649462223,1.4669547128021716,0.023962876726500687
1772562231948814600,10.774814697265626,1.7656044818997383,1.5256909794092177,0.05564772600717842
1772562231958797600,10.784797607421876,1.895459526824951,1.5904899070560932,0.052325668912380933
1772562231968779500,10.794779541015625,2.0417560034632682,1.6051397791773079,-0.015924787427857516
1772562231978762800,10.8047626953125,2.217669035208225,1.601833138847351,-0.09994001832865178
1772562231988745500,10.814745361328125,2.378842762982845,1.60905256870687,-0.13017463226839898
1772562231998727700,10.824727783203125,2.4534523060262203,1.5856827990353106,-0.21017690120078622
1772562232008710700,10.834710693359375,2.471950085747242,1.5131716895759104,-0.21760653974488375
1772562232018692600,10.844692626953124,2.49204010309577,1.4792588985800743,-0.16151143529638648
1772562232028675600,10.854675537109374,2.542401924589276,1.5092004478573797,-0.10662680261619388
1772562232038658600,10.864658447265626,2.5356220551908013,1.5070803869634866,-0.0008979352204129099
1772562232048640500,10.874640625,2.6503613640487194,1.4312994620531796,0.21623152506463228
1772562232058623500,10.88462353515625,4.135010723495483,1.4035855256974696,0.8385771686457097
1772562232068606700,10.894606689453125,3.071681819525361,1.3768851502984762,1.5069816027641296
1772562232078588400,10.90458837890625,2.5844559364646673,1.238192718923092,1.5544380582049488
1772562232088571600,10.914571533203125,2.0446014560222623,0.8576520176023245,0.9710960259526967
1772562232098553600,10.9245537109375,1.5617606561779975,0.5663374136984348,0.8770651586025953
1772562232108536600,10.93453662109375,0.818940886414051,0.37569676842093463,0.8731631827279925
1772562232118519600,10.94451953125,0.2893459341794252,0.2467605919063091,0.8977591331936419
1772562232128501800,10.954501708984376,0.4149029896497726,0.3666746730536222,1.0165679565127939
1772562232138484500,10.964484375,1.1939894200593233,0.7452537189126014,1.174299215683341
1772562232148466700,10.974466796875,1.8372089979082344,1.1136673445880412,0.9173455849342048
1772562232158449700,10.98444970703125,1.7338918312966822,1.5462994676738977,0.5887392881859094
