time,seconds_elapsed,z,y,x
1772562221247460400,0.07346044921875,0.037823885679244995,-0.11737284809350967,0.054735809564590454
1772562221257442300,0.0834423828125,0.0660330206155777,-0.09650487452745438,0.03504456579685211
1772562221267425300,0.09342529296875,0.08794151246547699,-0.06775977462530136,-0.010061129927635193
1772562221277407500,0.103407470703125,0.09516341984272003,-0.043281491845846176,-0.06668553501367569
1772562221287390200,0.11339013671875,0.10671035200357437,-0.021601762622594833,-0.12297649681568146
1772562221297373200,0.123373291015625,0.11562519520521164,0.006691803690046072,-0.15690767765045166
1772562221307355400,0.13335546875,0.11688274145126343,0.02485829032957554,-0.17485205829143524
1772562221317338000,0.143338134765625,0.10785629600286484,0.023258456960320473,-0.1863769292831421
1772562221327320300,0.1533203125,0.10626665502786636,0.01613609865307808,-0.1910073608160019
1772562221337303300,0.16330322265625,0.09321929514408112,0.0021256343461573124,-0.19203408062458038
1772562221347286300,0.173286376953125,0.08258529007434845,-0.013987288810312748,-0.19227510690689087
1772562221357268200,0.183268310546875,0.06658570468425751,-0.022688250988721848,-0.19110232591629028
1772562221367251500,0.19325146484375,0.0481899194419384,-0.031470559537410736,-0.18807777762413025
1772562221377233200,0.203233154296875,0.03246507793664932,-0.024179361760616302,-0.1807638555765152
1772562221387216400,0.21321630859375,0.02443884126842022,-0.015451649203896523,-0.176761656999588
1772562221397198000,0.223197998046875,0.025993002578616142,-0.005566788837313652,-0.17637105286121368
1772562221407181300,0.233181396484375,0.022445673123002052,-0.011678744107484818,-0.17699769139289856
1772562221417164300,0.243164306640625,0.02050117775797844,-0.01671210490167141,-0.1767142117023468
1772562221427146200,0.253146240234375,0.02014351449906826,-0.014061993919312954,-0.18036088347434998
1772562221437129200,0.263129150390625,0.027569206431508064,-0.0046277460642158985,-0.191493958234787
1772562221447111400,0.273111328125,0.028057098388671875,0.0033819773234426975,-0.2034483551979065
1772562221457094100,0.28309423828125,0.03759130463004112,0.0056885057128965855,-0.2203936129808426
1772562221467077400,0.293077392578125,0.0433671697974205,0.008875243365764618,-0.2348356693983078
1772562221477059300,0.303059326171875,0.05111202225089073,0.01802590861916542,-0.24087011814117432
1772562221487042300,0.313042236328125,0.056663915514945984,0.0334666483104229,-0.23638081550598145
1772562221497024300,0.323024169921875,0.06134739890694618,0.0491911843419075,-0.23173494637012482
1772562221507007500,0.333007568359375,0.06634961068630219,0.05991600081324577,-0.21033990383148193
1772562221516990200,0.342990234375,0.06794490665197372,0.07068927586078644,-0.18988275527954102
1772562221526972400,0.352972412109375,0.05914289131760597,0.09420392662286758,-0.19306443631649017
1772562221536955400,0.362955322265625,0.049928415566682816,0.11918613314628601,-0.21157978475093842
1772562221546937300,0.372937255859375,0.041695255786180496,0.14522704482078552,-0.24264289438724518
1772562221556920300,0.38292041015625,0.03854900971055031,0.15322881937026978,-0.2658739686012268
1772562221566903300,0.3929033203125,0.029499052092432976,0.15116193890571594,-0.272813618183136
1772562221576885200,0.40288525390625,0.005707439035177231,0.1329953521490097,-0.25855061411857605
1772562221586868200,0.4128681640625,-0.023813702166080475,0.10569582134485245,-0.2247588336467743
1772562221596850400,0.422850341796875,-0.06156414747238159,0.07225149869918823,-0.17151261866092682
1772562221606833200,0.432833251953125,-0.1072208434343338,0.06691212207078934,-0.11588983237743378
1772562221616816400,0.44281640625,-0.1323186308145523,0.0651620402932167,-0.08470839262008667
1772562221626798300,0.45279833984375,-0.13109010457992554,0.06310821324586868,-0.08749938756227493
1772562221636781300,0.46278125,-0.10083266347646713,0.020841563120484352,-0.12102032452821732
1772562221646763300,0.47276318359375,-0.06337369978427887,-0.0660960003733635,-0.17109762132167816
1772562221656746500,0.48274658203125,-0.04157133027911186,-0.16681213676929474,-0.2211131453514099
1772562221666729200,0.492729248046875,-0.05686480179429054,-0.27531224489212036,-0.2597295045852661
1772562221676711400,0.50271142578125,-0.10427306592464447,-0.32561591267585754,-0.29055824875831604
1772562221686694400,0.5126943359375,-0.11559895426034927,-0.30908459424972534,-0.2972579598426819
1772562221696676400,0.52267626953125,-0.1039828360080719,-0.2667900323867798,-0.284241259098053
1772562221706659300,0.532659423828125,-0.08890002965927124,-0.18893997371196747,-0.24985665082931519
1772562221716642300,0.542642333984375,-0.11023703962564468,-0.14918772876262665,-0.2150188684463501
1772562221726624300,0.552624267578125,-0.14896446466445923,-0.09410078078508377,-0.1730586439371109
1772562221736607200,0.562607177734375,-0.18265117704868317,-0.07621736824512482,-0.13463976979255676
1772562221746589200,0.572589111328125,-0.21262557804584503,-0.0872575044631958,-0.1071343794465065
1772562221756572200,0.582572265625,-0.23337718844413757,-0.12604118883609772,-0.08404835313558578
1772562221766555400,0.592555419921875,-0.24128064513206482,-0.1659899353981018,-0.05844205245375633
1772562221776537000,0.602537109375,-0.2530621886253357,-0.1975349634885788,-0.038166534155607224
1772562221786520300,0.612520263671875,-0.2697035074234009,-0.22917625308036804,-0.027593255043029785
1772562221796502300,0.622502197265625,-0.2873603403568268,-0.26188337802886963,-0.025216953828930855
1772562221806485200,0.6324853515625,-0.30536943674087524,-0.2846539318561554,-0.027268918231129646
1772562221816467200,0.64246728515625,-0.3167189061641693,-0.2880105972290039,-0.03289199620485306
1772562221826450400,0.652450439453125,-0.324358195066452,-0.2865924835205078,-0.03483610227704048
1772562221836433400,0.662433349609375,-0.32779520750045776,-0.28445902466773987,-0.0397477000951767
1772562221846415400,0.672415283203125,-0.321612149477005,-0.28719836473464966,-0.04229288175702095
1772562221856397800,0.682397705078125,-0.306338369846344,-0.29843172430992126,-0.055758047848939896
1772562221866380000,0.692380126953125,-0.2833307683467865,-0.29520848393440247,-0.06757902354001999
1772562221876362800,0.70236279296875,-0.26177579164505005,-0.24943095445632935,-0.09244198352098465
1772562221886346000,0.712345947265625,-0.24792151153087616,-0.1662873476743698,-0.1325920671224594
1772562221896328000,0.722327880859375,-0.22661983966827393,-0.08881520479917526,-0.1817924827337265
1772562221906311000,0.732310791015625,-0.215966135263443,-0.011554770171642303,-0.2364184409379959
1772562221916292900,0.74229296875,-0.20650848746299744,0.051700834184885025,-0.29526466131210327
1772562221926276000,0.752276123046875,-0.19753789901733398,0.0963551253080368,-0.34914839267730713
1772562221936258800,0.7622587890625,-0.19326044619083405,0.13250604271888733,-0.39828404784202576
1772562221946241000,0.772240966796875,-0.17961761355400085,0.17094877362251282,-0.4339570999145508
1772562221956224000,0.78222412109375,-0.16401904821395874,0.19653664529323578,-0.4553997814655304
1772562221966206000,0.7922060546875,-0.14565148949623108,0.20557701587677002,-0.4555971324443817
1772562221976189000,0.80218896484375,-0.12519098818302155,0.20636971294879913,-0.44853660464286804
1772562221986172000,0.812171875,-0.1114589273929596,0.19334951043128967,-0.4284835457801819
1772562221996153900,0.82215380859375,-0.08864869922399521,0.1607905626296997,-0.40582284331321716
1772562222006136800,0.83213671875,-0.0657857283949852,0.1328209787607193,-0.38135746121406555
1772562222016118800,0.842118896484375,-0.04227389022707939,0.10995001345872879,-0.35796675086021423
1772562222026101800,0.852101806640625,-0.02137952670454979,0.0982065349817276,-0.3370361626148224
1772562222036085000,0.8620849609375,0.003428748343139887,0.09142940491437912,-0.313735693693161
1772562222046066700,0.872066650390625,0.02906540222465992,0.10167219489812851,-0.2861831486225128
1772562222056050000,0.8820498046875,0.05069918558001518,0.12774674594402313,-0.2546921372413635
1772562222066031900,0.892031982421875,0.07980114966630936,0.18257030844688416,-0.22211073338985443
1772562222076015000,0.90201513671875,0.11321115493774414,0.25183433294296265,-0.1848635971546173
1772562222085997800,0.911997802734375,0.13502271473407745,0.3152846693992615,-0.15603674948215485
1772562222095980000,0.92197998046875,0.1508379578590393,0.3780447244644165,-0.13136275112628937
1772562222105963000,0.931962890625,0.1580362170934677,0.45439380407333374,-0.10484698414802551
1772562222115945000,0.941945068359375,0.15632401406764984,0.5397757291793823,-0.09044267237186432
1772562222125928000,0.951927978515625,0.1480322629213333,0.6252427101135254,-0.09981992840766907
1772562222135911000,0.961910888671875,0.12879452109336853,0.7119080424308777,-0.1318204402923584
1772562222145892900,0.971892822265625,0.11715438216924667,0.7860448360443115,-0.1778624951839447
1772562222155875800,0.981875732421875,0.09118453413248062,0.9113237261772156,-0.22661525011062622
1772562222165857800,0.99185791015625,0.036925818771123886,1.0761926174163818,-0.3030626177787781
1772562222175840800,1.0018408203125,-0.05588240548968315,1.1772881746292114,-0.41075918078422546
1772562222185824000,1.011823974609375,-0.1720668077468872,1.187882423400879,-0.590455949306488
1772562222195805700,1.0218056640625,-0.29053795337677,1.1466208696365356,-0.8134848475456238
1772562222205789000,1.031788818359375,-0.3845563530921936,1.110939860343933,-1.0516974925994873
1772562222215771000,1.04177099609375,-0.4527360200881958,1.105448603630066,-1.262110710144043
1772562222225753900,1.05175390625,-0.4904751479625702,1.097015380859375,-1.424386978149414
1772562222235736800,1.06173681640625,-0.4941301941871643,1.056381106376648,-1.5107523202896118
1772562222245719000,1.071718994140625,-0.46249502897262573,0.9810370206832886,-1.519930362701416
1772562222255701800,1.08170166015625,-0.39928245544433594,0.8662989139556885,-1.432752251625061
1772562222265684000,1.09168408203125,-0.30167412757873535,0.7301916480064392,-1.248745322227478
1772562222275667000,1.1016669921875,-0.1939317137002945,0.6074452996253967,-0.9842161536216736
1772562222285649000,1.11164892578125,-0.09223517775535583,0.5437728762626648,-0.6704156398773193
1772562222295632000,1.1216318359375,-0.01321517862379551,0.551707923412323,-0.3563033640384674
1772562222305614800,1.13161474609375,0.04262944310903549,0.5858222246170044,-0.05430779978632927
1772562222315596800,1.1415966796875,0.0932474359869957,0.6497169137001038,0.19289730489253998
1772562222325579800,1.151579833984375,0.15168625116348267,0.701261043548584,0.3823167681694031
1772562222335562000,1.16156201171875,0.22871896624565125,0.7396925687789917,0.5242909789085388
1772562222345544700,1.171544677734375,0.3249184489250183,0.7698789834976196,0.6260389089584351
1772562222355528000,1.18152783203125,0.4093964695930481,0.7101781964302063,0.6869080662727356
1772562222365510000,1.191510009765625,0.4914498031139374,0.4959556460380554,0.7125998139381409
1772562222375492900,1.201492919921875,0.5734986066818237,0.21248158812522888,0.7258586883544922
1772562222385474800,1.211474853515625,0.646919846534729,0.02288447879254818,0.7134661674499512
1772562222395458000,1.2214580078125,0.6963039636611938,0.006504521239548922,0.693591833114624
1772562222405440800,1.231440673828125,0.7118352651596069,0.1370987594127655,0.6215314865112305
1772562222415423000,1.241423095703125,0.7209984064102173,0.3037432134151459,0.5161899328231812
1772562222425406000,1.251406005859375,0.7192643880844116,0.4286332130432129,0.42171511054039
1772562222435388000,1.261387939453125,0.6819936037063599,0.4125307500362396,0.3772064447402954
1772562222445371000,1.271370849609375,0.6227289438247681,0.1768614947795868,0.4176388382911682
1772562222455353900,1.281353759765625,0.5767408013343811,-0.19265252351760864,0.5333384871482849
1772562222465335800,1.291335693359375,0.534524142742157,-0.48375895619392395,0.6878412365913391
1772562222475318800,1.30131884765625,0.4884272515773773,-0.5488885641098022,0.815500795841217
1772562222485300700,1.31130078125,0.4443674087524414,-0.3807690441608429,0.8543916940689087
1772562222495284000,1.321283935546875,0.3881605565547943,-0.10060868412256241,0.7544236183166504
1772562222505267000,1.331266845703125,0.33189329504966736,0.11814922094345093,0.5111952424049377
1772562222515249000,1.341248779296875,0.3006224036216736,0.23411481082439423,0.19312672317028046
1772562222525231900,1.35123193359375,0.28635743260383606,0.2850179374217987,-0.07427063584327698
1772562222535213800,1.3612138671875,0.29830726981163025,0.2889171540737152,-0.20727981626987457
1772562222545196800,1.37119677734375,0.3740944564342499,0.2897438108921051,-0.20205868780612946
1772562222555179800,1.3811796875,0.5182570815086365,0.33575019240379333,-0.06351157277822495
1772562222565162000,1.391161865234375,0.6874879002571106,0.36826181411743164,0.16114337742328644
1772562222575144700,1.401144775390625,0.8308271765708923,0.30645063519477844,0.40943461656570435
1772562222585127000,1.411126953125,0.9340097308158875,0.10849333554506302,0.6123605370521545
1772562222595110000,1.42110986328125,0.9954943060874939,-0.21886134147644043,0.730704128742218
1772562222605092900,1.4310927734375,1.0329655408859253,-0.6150225400924683,0.7687843441963196
1772562222615074800,1.44107470703125,1.0600390434265137,-1.0493719577789307,0.7368922233581543
1772562222625058000,1.45105810546875,1.0906288623809814,-1.4491853713989258,0.6380990743637085
1772562222635039700,1.461039794921875,1.1222871541976929,-1.8016029596328735,0.49337926506996155
1772562222645023000,1.47102294921875,1.1519874334335327,-2.0936155319213867,0.3437524735927582
1772562222655006000,1.481005859375,1.1790672540664673,-2.32283091545105,0.2172817438840866
1772562222664988000,1.49098779296875,1.219360113143921,-2.544766664505005,0.13012154400348663
1772562222674971000,1.500970947265625,1.2710248231887817,-2.8132948875427246,0.10490041971206665
1772562222684953000,1.510953125,1.3426384925842285,-3.1001365184783936,0.1823829561471939
1772562222694935800,1.520935791015625,1.4114052057266235,-3.2600021362304688,0.3489525020122528
1772562222704918800,1.530918701171875,1.4565439224243164,-3.2911486625671387,0.5533649921417236
1772562222714901000,1.54090087890625,1.4243814945220947,-3.1035783290863037,0.7009760141372681
1772562222724883700,1.5508837890625,1.3129103183746338,-2.7154362201690674,0.6836798191070557
1772562222734866000,1.560865966796875,1.1861385107040405,-2.2964768409729004,0.47605201601982117
1772562222744849000,1.570848876953125,1.0703445672988892,-1.8780958652496338,0.09705036878585815
1772562222754832000,1.580831787109375,0.9458116292953491,-1.4436509609222412,-0.39892807602882385
1772562222764813800,1.590813720703125,0.7963140606880188,-0.9855208396911621,-0.9409481883049011
1772562222774797000,1.600797119140625,0.6311169266700745,-0.46590813994407654,-1.4737093448638916
1772562222784778800,1.61077880859375,0.4361540973186493,0.033173318952322006,-1.9398152828216553
1772562222794762000,1.620761962890625,0.19583216309547424,0.4256160259246826,-2.2925240993499756
1772562222804745000,1.630744873046875,-0.06510435789823532,0.6916058659553528,-2.462460517883301
1772562222814727000,1.640726806640625,-0.3400701582431793,0.8113313913345337,-2.443831443786621
1772562222824710000,1.6507099609375,-0.5777391195297241,0.7517980337142944,-2.234099864959717
1772562222834691800,1.66069189453125,-0.7477980852127075,0.7056712508201599,-1.8361600637435913
1772562222844674800,1.6706748046875,-0.8760420680046082,0.8515216708183289,-1.2577475309371948
1772562222854657800,1.68065771484375,-0.9602388143539429,1.1868178844451904,-0.5825697183609009
1772562222864640000,1.690639892578125,-1.0003480911254883,1.6234468221664429,0.036787260323762894
1772562222874622700,1.700622802734375,-0.9923045039176941,1.9961351156234741,0.5448775291442871
1772562222884605000,1.71060498046875,-0.9479982852935791,2.27160382270813,0.8861275315284729
1772562222894588000,1.720587890625,-0.85216224193573,2.297189235687256,1.1048601865768433
1772562222904571000,1.73057080078125,-0.7403243780136108,2.153183698654175,1.1837235689163208
1772562222914552800,1.740552734375,-0.626644492149353,1.8265118598937988,1.1183300018310547
1772562222924536000,1.7505361328125,-0.5208736062049866,1.3335200548171997,0.9684129953384399
1772562222934517800,1.760517822265625,-0.4599571228027344,0.927212119102478,0.8125369548797607
1772562222944501000,1.7705009765625,-0.39755046367645264,0.70723956823349,0.7272042036056519
1772562222954484000,1.78048388671875,-0.3482280969619751,0.7099835276603699,0.6822121143341064
1772562222964466000,1.7904658203125,-0.3063368499279022,0.8486796021461487,0.6556779742240906
1772562222974449000,1.800448974609375,-0.2732522189617157,1.0460774898529053,0.6324058175086975
1772562222984431000,1.81043115234375,-0.25173893570899963,1.2269694805145264,0.6264240741729736
1772562222994413800,1.820413818359375,-0.2510865330696106,1.2980036735534668,0.6351788640022278
1772562223004396800,1.830396728515625,-0.26339805126190186,1.2906336784362793,0.6490158438682556
1772562223014379000,1.84037890625,-0.2676401138305664,1.2363675832748413,0.6855978965759277
1772562223024361700,1.85036181640625,-0.26921772956848145,1.1892701387405396,0.7504999041557312
1772562223034344000,1.860343994140625,-0.2595673203468323,1.2032757997512817,0.862851083278656
1772562223044327000,1.870326904296875,-0.2274184376001358,1.3659403324127197,1.0206823348999023
1772562223054310000,1.880309814453125,-0.14419277012348175,1.6998608112335205,1.2047576904296875
1772562223064291800,1.890291748046875,-0.018902497366070747,2.051325798034668,1.3684183359146118
1772562223074275000,1.900275146484375,0.12850400805473328,2.192349672317505,1.455305576324463
1772562223084256800,1.9102568359375,0.29256245493888855,1.9631420373916626,1.4425960779190063
1772562223094240000,1.920239990234375,0.4723546504974365,1.4803637266159058,1.351173996925354
1772562223104223000,1.930222900390625,0.5843418836593628,1.026755452156067,1.2555001974105835
1772562223114205000,1.940204833984375,0.549461841583252,0.6544275879859924,1.1432842016220093
1772562223124188000,1.95018798828125,0.3836771547794342,0.41321393847465515,0.9822229146957397
1772562223134169900,1.960169921875,0.1942279040813446,0.24667517840862274,0.7898902297019958
1772562223144152800,1.97015283203125,0.022262802347540855,-0.003248916007578373,0.5963985323905945
1772562223154135000,1.980135009765625,-0.11694139987230301,-0.2938326597213745,0.42763054370880127
1772562223164117800,1.99011767578125,-0.20330318808555603,-0.4366617202758789,0.25378260016441345
1772562223174101000,2.00010107421875,-0.2504115104675293,-0.4239823520183563,0.06834712624549866
1772562223184083000,2.0100830078125,-0.3055194914340973,-0.20709210634231567,-0.07681246101856232
1772562223194066000,2.02006591796875,-0.36578279733657837,0.19929395616054535,-0.17437508702278137
1772562223204049000,2.030048828125,-0.4172726273536682,0.5579469203948975,-0.2379189133644104
1772562223214031000,2.040031005859375,-0.4436389207839966,0.7829864025115967,-0.25537213683128357
1772562223224013800,2.050013916015625,-0.44224849343299866,0.8964354395866394,-0.20904937386512756
1772562223233996000,2.05999609375,-0.4516240358352661,0.8929356932640076,-0.12413306534290314
1772562223243979000,2.06997900390625,-0.47981709241867065,0.847472608089447,-0.059854213148355484
1772562223253961700,2.079961669921875,-0.5202940106391907,0.7207340002059937,-0.08830384910106659
1772562223263944000,2.08994384765625,-0.5204010605812073,0.5059117078781128,-0.21913030743598938
1772562223273927000,2.099927001953125,-0.45960330963134766,0.31623950600624084,-0.3779580593109131
1772562223283908900,2.109908935546875,-0.36543339490890503,0.19013243913650513,-0.46357017755508423
1772562223293891800,2.119891845703125,-0.2224522829055786,0.17188391089439392,-0.42119234800338745
1772562223303874000,2.1298740234375,-0.039550382643938065,0.20717930793762207,-0.29449379444122314
1772562223313856800,2.139856689453125,0.19410733878612518,0.21997547149658203,-0.13827240467071533
1772562223323840000,2.149840087890625,0.47024598717689514,0.17195655405521393,0.025391364470124245
1772562223333822000,2.159822021484375,0.7506353259086609,-0.0339101105928421,0.1781487911939621
1772562223343805000,2.169804931640625,0.9488896131515503,-0.42161551117897034,0.29398536682128906
1772562223353787000,2.179786865234375,1.002132534980774,-0.9754025340080261,0.30799785256385803
1772562223363770000,2.18977001953125,0.8857612609863281,-1.5599490404129028,0.16532696783542633
1772562223373752800,2.1997529296875,0.6684436202049255,-2.085068464279175,-0.13242417573928833
1772562223383735000,2.209735107421875,0.4318534731864929,-2.455481767654419,-0.5325348377227783
1772562223393718000,2.219718017578125,0.1758699119091034,-2.593757152557373,-0.9253493547439575
1772562223403700000,2.229699951171875,-0.07582065463066101,-2.5499465465545654,-1.251976490020752
1772562223413683000,2.239682861328125,-0.32000115513801575,-2.312605619430542,-1.48838472366333
1772562223423666000,2.249666015625,-0.5471035838127136,-1.942656397819519,-1.6285312175750732
1772562223433647900,2.25964794921875,-0.7147216200828552,-1.6042442321777344,-1.6670005321502686
1772562223443630800,2.269630859375,-0.7958233952522278,-1.4356136322021484,-1.6110121011734009
1772562223453612800,2.27961279296875,-0.782360851764679,-1.4450526237487793,-1.4488730430603027
1772562223463595800,2.289595703125,-0.7286528944969177,-1.5073388814926147,-1.223082184791565
1772562223473579000,2.2995791015625,-0.7090064883232117,-1.473910927772522,-1.0223294496536255
1772562223483560700,2.309560791015625,-0.7161738872528076,-1.3007175922393799,-0.9068321585655212
1772562223493544000,2.3195439453125,-0.7327446937561035,-1.0607527494430542,-0.881276547908783
1772562223503526000,2.32952587890625,-0.7503343820571899,-0.7591519355773926,-0.9048638939857483
1772562223513509000,2.339509033203125,-0.7552744150161743,-0.39249905943870544,-0.9293335676193237
1772562223523491800,2.349491943359375,-0.7574587464332581,-0.008873664774000645,-0.9355558156967163
1772562223533474000,2.35947412109375,-0.7477266788482666,0.3948858976364136,-0.9101397395133972
1772562223543457000,2.36945703125,-0.7211400866508484,0.7796540856361389,-0.8762808442115784
1772562223553439000,2.37943896484375,-0.6831849813461304,1.0990452766418457,-0.8349941968917847
1772562223563422000,2.389421875,-0.6511425971984863,1.3409998416900635,-0.7808345556259155
1772562223573405000,2.399405029296875,-0.621837317943573,1.5002825260162354,-0.7128679752349854
1772562223583387000,2.409386962890625,-0.5906285047531128,1.5561341047286987,-0.6193185448646545
1772562223593369900,2.419369873046875,-0.5537354350090027,1.497145652770996,-0.4955161213874817
1772562223603351800,2.429351806640625,-0.5167350769042969,1.3390673398971558,-0.3366146385669708
1772562223613334800,2.439334716796875,-0.48145073652267456,1.1057920455932617,-0.14928697049617767
1772562223623318000,2.449318115234375,-0.43207013607025146,0.8726773262023926,0.053301554173231125
1772562223633299700,2.4592998046875,-0.36462876200675964,0.7091139554977417,0.2560964822769165
1772562223643283000,2.469282958984375,-0.29516899585723877,0.624660849571228,0.44058936834335327
1772562223653265000,2.479264892578125,-0.22895100712776184,0.587248682975769,0.595050573348999
1772562223663248000,2.489247802734375,-0.16711799800395966,0.5543370842933655,0.7173716425895691
1772562223673230800,2.49923095703125,-0.10934267193078995,0.526367723941803,0.8088828921318054
1772562223683213000,2.509213134765625,-0.0666964128613472,0.44055429100990295,0.873988151550293
1772562223693195800,2.51919580078125,-0.03745837137103081,0.2933253347873688,0.9241742491722107
1772562223703178000,2.529177978515625,-0.038039203733205795,0.15741276741027832,0.9641687870025635
1772562223713161000,2.539160888671875,-0.06527359038591385,0.10349232703447342,0.9878885746002197
1772562223723144000,2.54914404296875,-0.09217311441898346,0.1318022608757019,1.0026103258132935
1772562223733126000,2.5591259765625,-0.08715802431106567,0.3058137595653534,1.014304280281067
1772562223743108900,2.56910888671875,-0.04365715757012367,0.5735005736351013,1.030884861946106
1772562223753090800,2.5790908203125,0.032223690301179886,0.8032380938529968,1.0269293785095215
1772562223763074000,2.589073974609375,0.12862984836101532,0.953184187412262,0.9841211438179016
1772562223773057000,2.59905712890625,0.2616383731365204,0.9637601375579834,0.9200877547264099
1772562223783039000,2.6090390625,0.40347594022750854,0.8761778473854065,0.8681941628456116
1772562223793022000,2.61902197265625,0.5147057771682739,0.7436637878417969,0.8273956775665283
1772562223803004000,2.62900390625,0.6003208160400391,0.5503348112106323,0.8054400086402893
1772562223812987000,2.63898681640625,0.6441960334777832,0.1910974085330963,0.7884079813957214
1772562223822969900,2.648969970703125,0.6152756810188293,-0.2500144839286804,0.7897006869316101
1772562223832952000,2.6589521484375,0.5078732371330261,-0.6560301184654236,0.8015364408493042
1772562223842934800,2.668934814453125,0.36106353998184204,-0.929003894329071,0.8138695359230042
1772562223852918300,2.678918212890625,0.2435881495475769,-0.9538673758506775,0.8104273676872253
1772562223862901200,2.6889013671875,0.15876220166683197,-0.686414897441864,0.7148014903068542
1772562223872884000,2.698884033203125,0.13810622692108154,-0.19640092551708221,0.46501055359840393
1772562223882866200,2.7088662109375,0.2673209607601166,0.38741376996040344,0.09942378103733063
1772562223892849200,2.71884912109375,0.43972447514533997,0.7713367938995361,-0.2853327989578247
1772562223902831000,2.7288310546875,0.5546140074729919,0.6834258437156677,-0.5820862054824829
1772562223912814000,2.73881396484375,0.5733377933502197,0.13962890207767487,-0.6701148152351379
1772562223922797300,2.74879736328125,0.5382226705551147,-0.38371741771698,-0.48222827911376953
1772562223932779000,2.758779052734375,0.48354318737983704,-0.4104178547859192,-0.07411963492631912
1772562223942762200,2.76876220703125,0.48011064529418945,0.0730990320444107,0.39693284034729004
1772562223952744200,2.778744140625,0.5045190453529358,0.675116240978241,0.8231344819068909
1772562223962727200,2.78872705078125,0.5190537571907043,0.9472138285636902,1.1346561908721924
1772562223972710100,2.798710205078125,0.5441076159477234,0.8017786741256714,1.2953484058380127
1772562223982692400,2.8086923828125,0.6348223090171814,0.4475020468235016,1.3525382280349731
1772562223992675000,2.818675048828125,0.818324863910675,0.12683027982711792,1.3606188297271729
1772562224002657300,2.8286572265625,1.0726596117019653,-0.0926341712474823,1.387154221534729
1772562224012640300,2.83864013671875,1.3621069192886353,-0.327790230512619,1.458787202835083
1772562224022623000,2.848623046875,1.6087595224380493,-0.6325013637542725,1.5854229927062988
1772562224032605200,2.858605224609375,1.7214001417160034,-0.9356043934822083,1.6839665174484253
1772562224042588200,2.868588134765625,1.6959980726242065,-1.124146580696106,1.6344988346099854
1772562224052570000,2.878570068359375,1.564366102218628,-1.1384046077728271,1.3655394315719604
1772562224062553000,2.888552978515625,1.3694936037063599,-1.0262919664382935,0.920783281326294
1772562224072536300,2.898536376953125,1.1418063640594482,-0.8815616369247437,0.36714404821395874
1772562224082518000,2.90851806640625,0.9169588088989258,-0.7627913355827332,-0.23460012674331665
1772562224092501200,2.918501220703125,0.7023971080780029,-0.6978187561035156,-0.7981604933738708
1772562224102483000,2.92848291015625,0.5113976001739502,-0.6843817830085754,-1.23618483543396
1772562224112466200,2.938466064453125,0.35832399129867554,-0.7041862607002258,-1.482118844985962
1772562224122449200,2.94844921875,0.2695864140987396,-0.7740183472633362,-1.5445936918258667
1772562224132431000,2.95843115234375,0.23826280236244202,-0.9095730781555176,-1.463659644126892
1772562224142414000,2.9684140625,0.19936174154281616,-1.0700894594192505,-1.2720119953155518
1772562224152397000,2.97839697265625,0.04931814968585968,-1.0483654737472534,-1.0317565202713013
1772562224162379000,2.98837890625,-0.19256238639354706,-0.8366335034370422,-0.8526684641838074
1772562224172362000,2.998362060546875,-0.4597094655036926,-0.5070601105690002,-0.7881901860237122
1772562224182344200,3.00834423828125,-0.7016424536705017,-0.15841425955295563,-0.8268265128135681
1772562224192327000,3.018326904296875,-0.8944405913352966,0.1560315042734146,-0.9392982721328735
1772562224202310100,3.02831005859375,-1.0442575216293335,0.45346933603286743,-1.0856337547302246
1772562224212292000,3.0382919921875,-1.1418063640594482,0.7336552739143372,-1.2099624872207642
1772562224222275000,3.048275146484375,-1.1977537870407104,0.9848698973655701,-1.2840197086334229
1772562224232257000,3.058257080078125,-1.2072780132293701,1.209731936454773,-1.291204810142517
1772562224242240300,3.068240234375,-1.178442120552063,1.3902801275253296,-1.241065502166748
1772562224252223000,3.078222900390625,-1.1176502704620361,1.5078622102737427,-1.139055609703064
1772562224262205200,3.088205078125,-1.0523180961608887,1.5092438459396362,-0.9990488886833191
1772562224272188200,3.098188232421875,-0.9658745527267456,1.442193865776062,-0.8099227547645569
1772562224282170000,3.108170166015625,-0.8620746731758118,1.354782223701477,-0.5656022429466248
1772562224292153000,3.118153076171875,-0.7566549777984619,1.275676965713501,-0.29086869955062866
1772562224302136000,3.128135986328125,-0.6376476287841797,1.2209300994873047,-0.019315462559461594
1772562224312118000,3.138117919921875,-0.5231238603591919,1.1965655088424683,0.23159529268741608
1772562224322101000,3.14810107421875,-0.39008963108062744,1.2333112955093384,0.45698845386505127
1772562224332083200,3.158083251953125,-0.23049435019493103,1.3186743259429932,0.6440147161483765
1772562224342066200,3.168066162109375,-0.05493691563606262,1.3815257549285889,0.7722405791282654
1772562224352049200,3.178049072265625,0.11940966546535492,1.3383370637893677,0.839966356754303
1772562224362031000,3.188031005859375,0.2725885510444641,1.1559873819351196,0.8551522493362427
1772562224372014000,3.19801416015625,0.39757040143013,0.9531785845756531,0.8517864942550659
1772562224381996000,3.20799609375,0.46973860263824463,0.760944128036499,0.8353023529052734
1772562224391979300,3.217979248046875,0.48537570238113403,0.6174541711807251,0.8084847331047058
1772562224401962000,3.2279619140625,0.4611441195011139,0.5052112340927124,0.7633407115936279
1772562224411944200,3.237944091796875,0.40173107385635376,0.36101752519607544,0.6979865431785583
1772562224421927200,3.24792724609375,0.3412567973136902,0.1596926748752594,0.6150959134101868
1772562224431909000,3.2579091796875,0.2995365560054779,-0.06079671531915665,0.5338698029518127
1772562224441892000,3.26789208984375,0.2664417326450348,-0.292164146900177,0.4788936674594879
1772562224451875300,3.277875244140625,0.2351839691400528,-0.5002912282943726,0.45667675137519836
1772562224461857000,3.28785693359375,0.2125375121831894,-0.5882143974304199,0.4971165955066681
1772562224471840300,3.29784033203125,0.20205622911453247,-0.5764058828353882,0.5801898241043091
1772562224481822000,3.307822021484375,0.21702639758586884,-0.44991639256477356,0.6695636510848999
1772562224491805200,3.31780517578125,0.28881657123565674,-0.28052833676338196,0.741603434085846
1772562224501788200,3.3277880859375,0.417948454618454,-0.10903994739055634,0.7768911123275757
1772562224511770000,3.33777001953125,0.5443592071533203,-0.013181136921048164,0.7811939716339111
1772562224521753000,3.347753173828125,0.596834123134613,-0.020348768681287766,0.7746809720993042
1772562224531735300,3.3577353515625,0.5480918884277344,0.028600862249732018,0.7709715962409973
1772562224541718300,3.36771826171875,0.38615599274635315,0.2981971800327301,0.7400379180908203
1772562224551701000,3.377700927734375,0.156316876411438,0.6699171662330627,0.6628538370132446
1772562224561683200,3.38768310546875,-0.07383458316326141,0.6796460151672363,0.4637591242790222
1772562224571666200,3.397666259765625,-0.25901663303375244,0.14059874415397644,0.157922625541687
1772562224581648100,3.407648193359375,-0.39171797037124634,-0.6789714694023132,-0.12684598565101624
1772562224591631000,3.417631103515625,-0.5569403767585754,-1.4548728466033936,-0.3104088604450226
1772562224601614300,3.4276142578125,-0.7234643697738647,-2.1365506649017334,-0.3491365313529968
1772562224611596000,3.437595947265625,-0.8019906878471375,-2.5559194087982178,-0.16747191548347473
1772562224621579300,3.447579345703125,-0.7802606225013733,-2.358196973800659,0.2037423849105835
1772562224631561000,3.45756103515625,-0.7028947472572327,-1.5530016422271729,0.6505911350250244
1772562224641544200,3.467544189453125,-0.6228249669075012,-0.5121312737464905,1.0446926355361938
1772562224651527200,3.477527099609375,-0.5235594511032104,0.283094197511673,1.313726782798767
1772562224661509000,3.487509033203125,-0.3390008211135864,0.5793410539627075,1.407601237297058
1772562224671492000,3.4974921875,-0.07117713987827301,0.4663429856300354,1.3643443584442139
1772562224681474300,3.507474365234375,0.2527918815612793,0.17804327607154846,1.2737529277801514
1772562224691457000,3.51745703125,0.6090975403785706,-0.1691620945930481,1.2437961101531982
1772562224701440000,3.52743994140625,0.9883074164390564,-0.5888480544090271,1.314123511314392
1772562224711422200,3.537422119140625,1.3704326152801514,-1.0911390781402588,1.5084494352340698
1772562224721405000,3.547405029296875,1.724177598953247,-1.6081689596176147,1.7863719463348389
1772562224731387100,3.55738720703125,1.9460493326187134,-1.9387799501419067,2.043642997741699
1772562224741370000,3.5673701171875,1.974226951599121,-1.9547871351242065,2.138073444366455
1772562224751353000,3.57735302734375,1.7896710634231567,-1.7075694799423218,1.964215636253357
1772562224761335000,3.5873349609375,1.470633625984192,-1.376535415649414,1.4864733219146729
1772562224771318300,3.597318359375,1.0789282321929932,-1.088140606880188,0.7314289212226868
1772562224781300000,3.607300048828125,0.6630293130874634,-0.8575039505958557,-0.17932848632335663
1772562224791283200,3.617283203125,0.2505300045013428,-0.7284056544303894,-1.0880550146102905
1772562224801266200,3.62726611328125,-0.15875577926635742,-0.6382978558540344,-1.8658602237701416
1772562224811248000,3.637248046875,-0.5207849740982056,-0.5979551076889038,-2.440944194793701
1772562224821231000,3.647231201171875,-0.7837793231010437,-0.5932983160018921,-2.8060147762298584
1772562224831213300,3.65721337890625,-0.9588411450386047,-0.5813528299331665,-2.9914894104003906
1772562224841196000,3.667196044921875,-1.0934416055679321,-0.5919269323348999,-3.0405771732330322
1772562224851179300,3.67717919921875,-1.2267568111419678,-0.67963707447052,-3.004183053970337
1772562224861161500,3.687161376953125,-1.3621423244476318,-0.7645440101623535,-2.8845717906951904
1772562224871144200,3.697144287109375,-1.4900803565979004,-0.840088427066803,-2.7196898460388184
1772562224881126400,3.70712646484375,-1.6071654558181763,-0.9400249123573303,-2.539125442504883
1772562224891109400,3.717109375,-1.6673321723937988,-1.0888569355010986,-2.348827838897705
1772562224901092400,3.72709228515625,-1.6259649991989136,-1.1180931329727173,-2.1339917182922363
1772562224911074300,3.73707421875,-1.4940426349639893,-0.9065624475479126,-1.882850170135498
1772562224921057500,3.7470576171875,-1.3159536123275757,-0.513821542263031,-1.608278512954712
1772562224931039200,3.757039306640625,-1.1332002878189087,-0.03235103189945221,-1.3426469564437866
1772562224941022500,3.7670224609375,-0.9370684027671814,0.4647175967693329,-1.0737361907958984
1772562224951005400,3.77700537109375,-0.7185432314872742,0.9489365816116333,-0.8127454519271851
1772562224960987400,3.7869873046875,-0.4846961498260498,1.4006688594818115,-0.5542603731155396
1772562224970970400,3.796970458984375,-0.26043128967285156,1.7688862085342407,-0.30500078201293945
1772562224980952300,3.806952392578125,-0.055423274636268616,1.975241780281067,-0.09355910867452621
1772562224990935300,3.816935302734375,0.11825066059827805,2.015362501144409,0.08612614870071411
1772562225000918300,3.826918212890625,0.27007266879081726,1.9077016115188599,0.24973051249980927
1772562225010900200,3.836900146484375,0.3980160057544708,1.7308696508407593,0.4078529477119446
1772562225020883200,3.84688330078125,0.4900735020637512,1.5546882152557373,0.5472110509872437
1772562225030865400,3.856865478515625,0.5383419394493103,1.4626847505569458,0.6523545384407043
1772562225040848400,3.866848388671875,0.5473612546920776,1.3881317377090454,0.6993361711502075
1772562225050831400,3.876831298828125,0.5332621932029724,1.3032665252685547,0.6995128989219666
1772562225060813300,3.886813232421875,0.5066100358963013,1.1796164512634277,0.6585828065872192
1772562225070796500,3.896796630859375,0.4655977785587311,0.8962446451187134,0.5854814648628235
1772562225080778200,3.9067783203125,0.359241247177124,0.41344714164733887,0.4790399968624115
1772562225090761500,3.916761474609375,0.22764573991298676,-0.26926156878471375,0.33514344692230225
1772562225100744400,3.926744384765625,0.10907701402902603,-1.1144649982452393,0.17069301009178162
1772562225110726400,3.936726318359375,0.03860912099480629,-1.8135404586791992,0.0000708666630089283
1772562225120709400,3.94670947265625,-0.013416795060038567,-1.9570133686065674,-0.1582910716533661
1772562225130692600,3.956692626953125,-0.054486069828271866,-1.5305688381195068,-0.31547248363494873
1772562225140674300,3.96667431640625,-0.03235866501927376,-0.5246771574020386,-0.5109596848487854
1772562225150657500,3.976657470703125,0.12955248355865479,0.4774470925331116,-0.555410623550415
1772562225160639200,3.98663916015625,0.29305246472358704,1.3164149522781372,-0.4980224072933197
1772562225170622500,3.99662255859375,0.4149129092693329,1.9348335266113281,-0.2998506724834442
1772562225180604400,4.0066044921875,0.44189393520355225,2.3924665451049805,-0.1866772621870041
1772562225190586400,4.01658642578125,0.2798176407814026,2.5821850299835205,-0.4711345136165619
1772562225200569300,4.0265693359375,0.2368139922618866,2.4050557613372803,-0.7219654321670532
1772562225210552600,4.036552490234375,0.34919387102127075,1.9831526279449463,-0.892803966999054
1772562225220534300,4.0465341796875,0.5021426677703857,1.3758010864257812,-0.8865375518798828
1772562225230517500,4.056517578125,0.6156364679336548,0.9876716732978821,-0.7724660634994507
1772562225240499500,4.06649951171875,0.6453986167907715,1.0218058824539185,-0.6645151376724243
1772562225250482400,4.076482421875,0.5319646596908569,1.5331767797470093,-0.5470576882362366
1772562225260465400,4.08646533203125,0.22980692982673645,2.1593711376190186,-0.39204418659210205
1772562225270447600,4.096447509765625,-0.13059650361537933,2.3365304470062256,-0.1868826299905777
1772562225280430300,4.106430419921875,-0.47143611311912537,1.462589979171753,-0.05882452428340912
1772562225290412500,4.11641259765625,-0.7177455425262451,-0.2924357056617737,0.04658399894833565
1772562225300395500,4.1263955078125,-0.8836543560028076,-1.5932379961013794,0.3354016840457916
1772562225310378200,4.136378173828125,-1.000390887260437,-1.9244085550308228,0.7576872110366821
1772562225320360400,4.1463603515625,-0.9354782700538635,-1.7287408113479614,1.1701520681381226
1772562225330343400,4.156343505859375,-0.718338668346405,-1.2519792318344116,1.3703197240829468
1772562225340325400,4.166325439453125,-0.48194828629493713,-0.725857675075531,1.3015614748001099
1772562225350308400,4.176308349609375,-0.2868698835372925,-0.3414514660835266,1.0033882856369019
1772562225360291600,4.18629150390625,-0.14296038448810577,-0.30047607421875,0.5717745423316956
1772562225370273300,4.196273193359375,0.011168023571372032,-0.6717897653579712,0.2549014091491699
1772562225380256500,4.206256591796875,0.19341053068637848,-1.1451501846313477,0.22644181549549103
1772562225390238200,4.21623828125,0.36744293570518494,-1.6001354455947876,0.48621290922164917
1772562225400221400,4.226221435546875,0.5339256525039673,-2.0636961460113525,0.9589272141456604
1772562225410204400,4.236204345703125,0.6835739612579346,-2.5322344303131104,1.5175821781158447
1772562225420186400,4.246186279296875,0.8404352068901062,-2.892075777053833,2.0482873916625977
1772562225430169300,4.25616943359375,1.0231151580810547,-3.111276626586914,2.448725938796997
1772562225440151600,4.266151611328125,1.214301347732544,-3.2121310234069824,2.661440849304199
1772562225450134300,4.27613427734375,1.3884024620056152,-3.2163097858428955,2.6554672718048096
1772562225460117200,4.2861171875,1.4905126094818115,-3.106340169906616,2.4206173419952393
1772562225470099500,4.296099365234375,1.4831470251083374,-2.835284471511841,1.9444383382797241
1772562225480082200,4.306082275390625,1.3663476705551147,-2.401191473007202,1.2659517526626587
1772562225490064400,4.316064453125,1.1767051219940186,-1.8950334787368774,0.45364588499069214
1772562225500047400,4.32604736328125,0.9667572379112244,-1.3799363374710083,-0.40228715538978577
1772562225510030300,4.3360302734375,0.7548171281814575,-0.8851961493492126,-1.1951671838760376
1772562225520012300,4.34601220703125,0.5370901226997375,-0.4267529249191284,-1.8601361513137817
1772562225529995500,4.35599560546875,0.33036696910858154,-0.06285128742456436,-2.345918893814087
1772562225539977200,4.365977294921875,0.14870555698871613,0.1515800654888153,-2.6261658668518066
1772562225549960400,4.37596044921875,0.015066719613969326,0.19697023928165436,-2.703413963317871
1772562225559943400,4.385943359375,-0.09371302276849747,0.11339439451694489,-2.63266658782959
1772562225569925400,4.39592529296875,-0.18684343993663788,-0.09093444794416428,-2.4604790210723877
1772562225579908400,4.405908447265625,-0.27967458963394165,-0.3527463376522064,-2.2060534954071045
1772562225589890600,4.415890625,-0.3939970135688782,-0.5346827507019043,-1.9362753629684448
1772562225599873300,4.425873291015625,-0.5178260207176208,-0.5735276341438293,-1.6540511846542358
1772562225609856300,4.435856201171875,-0.6013441681861877,-0.4826851785182953,-1.3793290853500366
1772562225619838500,4.44583837890625,-0.6408628225326538,-0.2749101519584656,-1.1297507286071777
1772562225629821200,4.4558212890625,-0.6491966843605042,-0.0038525480777025223,-0.9068193435668945
1772562225639804400,4.465804443359375,-0.6309505701065063,0.2988798916339874,-0.7010230422019958
1772562225649786400,4.475786376953125,-0.6045690774917603,0.6232235431671143,-0.518416702747345
1772562225659769300,4.485769287109375,-0.5646024942398071,0.9389681816101074,-0.3503851294517517
1772562225669751300,4.495751220703125,-0.5229270458221436,1.209146499633789,-0.19803674519062042
1772562225679734500,4.505734619140625,-0.49457257986068726,1.3895362615585327,-0.07516035437583923
1772562225689717200,4.51571728515625,-0.469313383102417,1.4236116409301758,0.021228576079010963
1772562225699699500,4.525699462890625,-0.45217034220695496,1.2799428701400757,0.10547474771738052
1772562225709682400,4.535682373046875,-0.45285162329673767,1.0175795555114746,0.1987820863723755
1772562225719664400,4.545664306640625,-0.45860111713409424,0.717745840549469,0.29823437333106995
1772562225729647400,4.5556474609375,-0.4475063383579254,0.4486437439918518,0.40372028946876526
1772562225739630300,4.56563037109375,-0.4202060103416443,0.2185724675655365,0.5017397999763489
1772562225749612300,4.5756123046875,-0.39609295129776,-0.004442804958671331,0.5724411606788635
1772562225759595500,4.585595458984375,-0.39008858799934387,-0.2246428281068802,0.6048987507820129
1772562225769577200,4.5955771484375,-0.38048693537712097,-0.43854525685310364,0.6069851517677307
1772562225779560400,4.605560546875,-0.36372020840644836,-0.5937124490737915,0.6177136898040771
1772562225789543400,4.61554345703125,-0.3470152020454407,-0.655038595199585,0.6597976684570312
1772562225799525400,4.625525390625,-0.33051878213882446,-0.6472898125648499,0.7337014079093933
1772562225809508400,4.63550830078125,-0.3252435326576233,-0.5566803216934204,0.8321642875671387
1772562225819493400,4.645493408203125,-0.31415891647338867,-0.40509775280952454,0.9362930655479431
1772562225829475300,4.655475341796875,-0.2833215892314911,-0.2176615595817566,1.0302788019180298
1772562225839458600,4.66545849609375,-0.23747526109218597,-0.09016858786344528,1.0923054218292236
1772562225849440500,4.6754404296875,-0.16815191507339478,-0.08479051291942596,1.1008280515670776
1772562225859422700,4.685422607421875,-0.08207695186138153,-0.16461236774921417,1.0627920627593994
1772562225869405700,4.69540576171875,0.0048852041363716125,-0.19972097873687744,1.0402500629425049
1772562225879387600,4.7053876953125,0.025916187092661858,-0.13316859304904938,1.0177669525146484
1772562225889370600,4.71537060546875,-0.08792910724878311,-0.12615428864955902,0.8971514105796814
1772562225899353900,4.725353759765625,-0.29084068536758423,-0.19661061465740204,0.664497435092926
1772562225909335600,4.73533544921875,-0.4686775803565979,-0.13777081668376923,0.4146150052547455
1772562225919318800,4.74531884765625,-0.5443265438079834,0.06789525598287582,0.2734363079071045
1772562225929300700,4.75530078125,-0.520430862903595,0.24705618619918823,0.2781763970851898
1772562225939283700,4.76528369140625,-0.44997429847717285,0.22932831943035126,0.32010093331336975
1772562225949266700,4.7752666015625,-0.3630087673664093,-0.025272522121667862,0.2557739019393921
1772562225959249000,4.785248779296875,-0.28237250447273254,-0.34703007340431213,0.023322012275457382
1772562225969231600,4.795231689453125,-0.21877309679985046,-0.5906723737716675,-0.3270539939403534
1772562225979214600,4.805214599609375,-0.17925363779067993,-0.7597649693489075,-0.6860119104385376
1772562225989196800,4.81519677734375,-0.1955336034297943,-0.7639778256416321,-0.9178191423416138
1772562225999179500,4.825179443359375,-0.24577121436595917,-0.4897446632385254,-0.9269338250160217
1772562226009161700,4.83516162109375,-0.30053412914276123,0.05607275664806366,-0.7354869842529297
1772562226019144700,4.845144775390625,-0.3071446418762207,0.7167550921440125,-0.4628749191761017
1772562226029127700,4.855127685546875,-0.2318546622991562,1.2510708570480347,-0.2297963798046112
1772562226039109600,4.865109619140625,-0.10676945745944977,1.4610742330551147,-0.1227056086063385
1772562226049092900,4.8750927734375,0.0062897396273911,1.316308617591858,-0.11140800267457962
1772562226059074600,4.885074462890625,0.1080629751086235,0.981587827205658,-0.07145047187805176
1772562226069057800,4.895057861328125,0.23280948400497437,0.619449257850647,0.10252240300178528
1772562226079040800,4.905040771484375,0.3529564142227173,0.2551921606063843,0.42830610275268555
1772562226089022700,4.915022705078125,0.43578633666038513,-0.15654394030570984,0.8704259395599365
1772562226099005700,4.925005615234375,0.4808632731437683,-0.6632082462310791,1.3668181896209717
1772562226108987600,4.934987548828125,0.4792838394641876,-1.1963967084884644,1.8619463443756104
1772562226118970600,4.944970703125,0.430462509393692,-1.6024531126022339,2.3091297149658203
1772562226128953600,4.95495361328125,0.333488404750824,-1.6590038537979126,2.5797336101531982
1772562226138935600,4.964935546875,0.20667503774166107,-1.2825095653533936,2.5496387481689453
1772562226148918500,4.97491845703125,0.10455448925495148,-0.6225013136863708,2.1318037509918213
1772562226158900700,4.984900634765625,0.09875573217868805,0.14720016717910767,1.385203242301941
1772562226168883500,4.994883544921875,0.20017796754837036,0.873400866985321,0.4344252645969391
1772562226178866700,5.00486669921875,0.3534964323043823,1.4286131858825684,-0.5619602203369141
1772562226188848600,5.0148486328125,0.4951857924461365,1.7422558069229126,-1.471847414970398
1772562226198831600,5.02483154296875,0.5856856107711792,1.8232686519622803,-2.1924920082092285
1772562226208813600,5.0348134765625,0.6440528035163879,1.700763463973999,-2.66524600982666
1772562226218796800,5.044796875,0.6862452626228333,1.4008054733276367,-2.8676211833953857
1772562226228779500,5.054779541015625,0.7247243523597717,0.939754843711853,-2.7911436557769775
1772562226238761700,5.06476171875,0.746368408203125,0.4263894855976105,-2.458693265914917
1772562226248744700,5.07474462890625,0.677982747554779,-0.046884436160326004,-2.0125155448913574
1772562226258727400,5.0847275390625,0.4916493594646454,-0.41596126556396484,-1.5739678144454956
1772562226268709600,5.094709716796875,0.23632903397083282,-0.6879211068153381,-1.2443323135375977
1772562226278692600,5.104692626953125,-0.010194726288318634,-0.8640537858009338,-1.049033284187317
1772562226288674600,5.114674560546875,-0.21365176141262054,-0.8953356742858887,-0.960477888584137
1772562226298657500,5.124657470703125,-0.36266016960144043,-0.7908129692077637,-0.9488547444343567
1772562226308640800,5.134640869140625,-0.4493003785610199,-0.5716642737388611,-0.958305299282074
1772562226318622500,5.14462255859375,-0.4761783182621002,-0.2703414857387543,-0.9572432637214661
1772562226328605700,5.154605712890625,-0.45776501297950745,0.060487572103738785,-0.9248379468917847
1772562226338587600,5.164587646484375,-0.41091442108154297,0.39019304513931274,-0.8534197211265564
1772562226348570600,5.174570556640625,-0.3555300533771515,0.6988489031791687,-0.729629635810852
1772562226358553600,5.1845537109375,-0.3001094162464142,0.967141330242157,-0.5652691721916199
1772562226368535800,5.194535888671875,-0.2584303617477417,1.1899635791778564,-0.37744319438934326
1772562226378518500,5.2045185546875,-0.21930107474327087,1.3515501022338867,-0.18026433885097504
1772562226388500700,5.214500732421875,-0.17681004106998444,1.4428062438964844,0.009544452652335167
1772562226398483700,5.224483642578125,-0.12130443751811981,1.4640188217163086,0.17853720486164093
1772562226408466700,5.234466796875,-0.05501091852784157,1.4180865287780762,0.3053905963897705
1772562226418448600,5.24444873046875,0.020717663690447807,1.3177497386932373,0.3989458382129669
1772562226428432000,5.254431884765625,0.09007903933525085,1.1573193073272705,0.4620315432548523
1772562226438413600,5.26441357421875,0.1457982361316681,0.9626293778419495,0.5113027095794678
1772562226448396800,5.274396728515625,0.18226002156734467,0.7691664695739746,0.5620036125183105
1772562226458379800,5.2843798828125,0.19072088599205017,0.5972402095794678,0.6212341785430908
1772562226468361700,5.29436181640625,0.18325555324554443,0.42756468057632446,0.6957792043685913
1772562226478344700,5.3043447265625,0.17608526349067688,0.2431245595216751,0.7751837372779846
1772562226488327000,5.314326904296875,0.17554159462451935,0.06442176550626755,0.8482171297073364
1772562226498309600,5.3243095703125,0.19364923238754272,-0.09278702735900879,0.9082109928131104
1772562226508292600,5.334292724609375,0.23068994283676147,-0.23879605531692505,0.9500616192817688
1772562226518274800,5.34427490234375,0.2895364761352539,-0.3629201352596283,1.0288424491882324
1772562226528257500,5.354257568359375,0.38618358969688416,-0.4807794988155365,1.1716556549072266
1772562226538239700,5.36423974609375,0.5204564929008484,-0.6527422070503235,1.3845999240875244
1772562226548222700,5.37422265625,0.6896843910217285,-0.8974109888076782,1.6460686922073364
1772562226558205700,5.384205810546875,0.8371680974960327,-1.1075694561004639,1.9228543043136597
1772562226568187600,5.394187744140625,0.9134830832481384,-1.1203113794326782,2.1343183517456055
1772562226578171000,5.4041708984375,0.9119977951049805,-0.8672336339950562,2.2040088176727295
1772562226588153600,5.414153564453125,0.8403740525245667,-0.40362343192100525,2.1179635524749756
1772562226598135800,5.4241357421875,0.7087324261665344,0.06789937615394592,1.8135435581207275
1772562226608118800,5.434118896484375,0.515487015247345,0.29820215702056885,1.279836654663086
1772562226618100700,5.444100830078125,0.3113245666027069,0.2554027736186981,0.6349936127662659
1772562226628083700,5.454083740234375,0.12880520522594452,0.28222018480300903,0.007916710339486599
1772562226638066700,5.464066650390625,0.014108717441558838,0.6026235222816467,-0.5218430161476135
1772562226648048600,5.474048583984375,0.005132846534252167,0.9682374596595764,-0.9285069704055786
1772562226658031600,5.484031494140625,0.1072714701294899,1.1692405939102173,-1.197558045387268
1772562226668013600,5.494013671875,0.29964566230773926,1.1540387868881226,-1.28830087184906
1772562226677996500,5.50399658203125,0.4875332713127136,0.9079040288925171,-1.1884046792984009
1772562226687979800,5.513979736328125,0.5767266750335693,0.4973612129688263,-0.897922933101654
1772562226697961500,5.52396142578125,0.4853661358356476,0.19626019895076752,-0.4783828854560852
1772562226707944700,5.53394482421875,0.30180463194847107,0.11342193931341171,0.026304520666599274
1772562226717926700,5.5439267578125,0.13311389088630676,0.17733114957809448,0.5144656896591187
1772562226727909600,5.55390966796875,0.004035342484712601,0.22646330296993256,0.888029158115387
1772562226737892600,5.563892578125,-0.08191712200641632,0.2526320517063141,1.0791324377059937
1772562226747874800,5.573874755859375,-0.10936158150434494,0.22848960757255554,1.0603270530700684
1772562226757857500,5.583857421875,-0.054527100175619125,0.0990581139922142,0.8868463039398193
1772562226767839700,5.59383984375,0.08749596029520035,-0.14822304248809814,0.6356812715530396
1772562226777822700,5.60382275390625,0.3025672733783722,-0.4624589681625366,0.40534183382987976
1772562226787805400,5.613805419921875,0.5443750023841858,-0.798342764377594,0.28695812821388245
1772562226797787600,5.62378759765625,0.740117609500885,-1.174536943435669,0.26839643716812134
1772562226807770600,5.6337705078125,0.854883074760437,-1.5269067287445068,0.29338571429252625
1772562226817752600,5.643752685546875,0.8837743997573853,-1.7473034858703613,0.29963403940200806
1772562226827735600,5.653735595703125,0.8317632675170898,-1.7691783905029297,0.25841233134269714
1772562226837718800,5.66371875,0.715044379234314,-1.6093189716339111,0.12712089717388153
1772562226847700500,5.673700439453125,0.5636113286018372,-1.3546289205551147,-0.1024661734700203
1772562226857683500,5.683683349609375,0.42680153250694275,-1.1233973503112793,-0.41343364119529724
1772562226867666400,5.69366650390625,0.34308093786239624,-0.9906516075134277,-0.7533842325210571
1772562226877648400,5.7036484375,0.29342150688171387,-0.9446439146995544,-1.0901371240615845
1772562226887631400,5.71363134765625,0.22141216695308685,-0.9275904893875122,-1.4373774528503418
1772562226897613600,5.723613525390625,0.09545131027698517,-0.9062351584434509,-1.8143165111541748
1772562226907596300,5.73359619140625,-0.0662543773651123,-0.8325932025909424,-2.2193243503570557
1772562226917579500,5.74357958984375,-0.28744855523109436,-0.6645645499229431,-2.618849039077759
1772562226927561500,5.7535615234375,-0.5258401036262512,-0.40480902791023254,-2.964245319366455
1772562226937544400,5.76354443359375,-0.7436203956604004,-0.09288495779037476,-3.198803663253784
1772562226947526400,5.7735263671875,-0.8926116824150085,0.2043907642364502,-3.285374879837036
1772562226957509600,5.783509521484375,-0.9543389678001404,0.45378515124320984,-3.2006852626800537
1772562226967492400,5.793492431640625,-0.9290861487388611,0.6486135721206665,-2.971957206726074
1772562226977474600,5.803474609375,-0.8410047292709351,0.8254599571228027,-2.6297199726104736
1772562226987457500,5.81345751953125,-0.7301164865493774,1.0053070783615112,-2.206963062286377
1772562226997439500,5.823439453125,-0.6170591711997986,1.1780866384506226,-1.7490915060043335
1772562227007422500,5.83342236328125,-0.5126581788063049,1.3288910388946533,-1.3018735647201538
1772562227017405400,5.843405517578125,-0.41806507110595703,1.4251909255981445,-0.9026719927787781
1772562227027387400,5.853387451171875,-0.31429582834243774,1.4553989171981812,-0.5707927942276001
1772562227037370400,5.863370361328125,-0.20280231535434723,1.4347730875015259,-0.31314390897750854
1772562227047352300,5.873352294921875,-0.11257022619247437,1.3890137672424316,-0.13421717286109924
1772562227057335300,5.883335205078125,-0.05121765285730362,1.2970596551895142,-0.030601566657423973
1772562227067318500,5.893318603515625,0.015774430707097054,1.1746351718902588,0.040990330278873444
1772562227077300200,5.90330029296875,0.10033485293388367,1.0537800788879395,0.10905194282531738
1772562227087283500,5.913283447265625,0.19202856719493866,0.9383969902992249,0.16901832818984985
1772562227097265400,5.923265380859375,0.28142714500427246,0.8139240741729736,0.2316657304763794
1772562227107248400,5.933248291015625,0.3539341986179352,0.6680336594581604,0.30356326699256897
1772562227117231400,5.9432314453125,0.3695954382419586,0.513020396232605,0.38004231452941895
1772562227127213600,5.953213623046875,0.31107398867607117,0.37462368607521057,0.44944965839385986
1772562227137196300,5.9631962890625,0.18895049393177032,0.2435157299041748,0.5171812772750854
1772562227147179300,5.97317919921875,0.039085641503334045,0.11151731014251709,0.5756133198738098
1772562227157161500,5.983161376953125,-0.10517565906047821,0.014135637320578098,0.6421699523925781
1772562227167144400,5.99314453125,-0.20149806141853333,-0.005187180824577808,0.7304857969284058
1772562227177126400,6.00312646484375,-0.22682686150074005,0.09904202073812485,0.8475269079208374
1772562227187109400,6.013109375,-0.16786198318004608,0.2759574353694916,0.9838712215423584
1772562227197092600,6.023092529296875,-0.031245028600096703,0.42092636227607727,1.1433950662612915
1772562227207074300,6.03307421875,0.1730324774980545,0.5506945252418518,1.3195180892944336
1772562227217057500,6.0430576171875,0.42140766978263855,0.6681228876113892,1.4679970741271973
1772562227227039200,6.053039306640625,0.6429443955421448,0.6658214926719666,1.5565359592437744
1772562227237022500,6.0630224609375,0.780326783657074,0.37882062792778015,1.5724444389343262
1772562227247005400,6.07300537109375,0.8064879179000854,-0.18744078278541565,1.539540410041809
1772562227256987400,6.0829873046875,0.7695485353469849,-0.8530217409133911,1.539823293685913
1772562227266970400,6.092970458984375,0.6741629838943481,-1.383031964302063,1.5640045404434204
1772562227276952600,6.10295263671875,0.5300340056419373,-1.5603291988372803,1.5749309062957764
1772562227286935300,6.112935302734375,0.3568752706050873,-1.302817463874817,1.4996691942214966
1772562227296918300,6.122918212890625,0.17038555443286896,-0.7518568634986877,1.2606173753738403
1772562227306900500,6.132900390625,0.021143285557627678,-0.15992435812950134,0.9024100303649902
1772562227316883200,6.14288330078125,-0.041211966425180435,0.282084196805954,0.5363433361053467
1772562227326865400,6.152865478515625,-0.01910221576690674,0.3903180956840515,0.24785888195037842
1772562227336848400,6.162848388671875,0.0641106441617012,0.07223758101463318,0.09020401537418365
1772562227346831400,6.172831298828125,0.14587031304836273,-0.4303012192249298,0.04800266772508621
1772562227356813300,6.182813232421875,0.21094678342342377,-0.7583893537521362,0.10256551951169968
1772562227366796500,6.192796630859375,0.22189338505268097,-0.7347289323806763,0.20524322986602783
1772562227376778200,6.2027783203125,0.16920620203018188,-0.4456654489040375,0.28883612155914307
1772562227386761500,6.212761474609375,0.06016000732779503,-0.1093592718243599,0.3754684627056122
1772562227396744400,6.222744384765625,-0.054488811641931534,0.19018243253231049,0.47808751463890076
1772562227406726400,6.232726318359375,-0.13453049957752228,0.3448728024959564,0.5310279130935669
1772562227416709400,6.24270947265625,-0.12017153203487396,0.35168543457984924,0.5277660489082336
1772562227426692600,6.252692626953125,-0.029087597504258156,0.31336328387260437,0.466575562953949
1772562227436674300,6.26267431640625,0.09915878623723984,0.29916995763778687,0.3636680841445923
1772562227446657500,6.272657470703125,0.23029612004756927,0.29247233271598816,0.23098132014274597
1772562227456639500,6.282639404296875,0.36087706685066223,0.25389084219932556,0.10503298789262772
1772562227466622500,6.29262255859375,0.47761401534080505,0.14581692218780518,0.008974211290478706
1772562227476605400,6.30260546875,0.5801968574523926,-0.08219413459300995,-0.045485034584999084
1772562227486587600,6.312587646484375,0.6644958853721619,-0.42314866185188293,-0.06718834489583969
1772562227496570400,6.3225703125,0.7196938991546631,-0.8129249215126038,-0.08172627538442612
1772562227506552600,6.332552490234375,0.7184190154075623,-1.1804262399673462,-0.10578767210245132
1772562227516535600,6.34253564453125,0.6444723606109619,-1.4290539026260376,-0.12233255058526993
1772562227526518300,6.352518310546875,0.5284762382507324,-1.4653080701828003,-0.1571281999349594
1772562227536500500,6.36250048828125,0.41256430745124817,-1.3966059684753418,-0.22649821639060974
1772562227546483500,6.3724833984375,0.31493693590164185,-1.3437191247940063,-0.34879016876220703
1772562227556465400,6.38246533203125,0.23452864587306976,-1.313257098197937,-0.49893277883529663
1772562227566448400,6.392448486328125,0.16591495275497437,-1.2859704494476318,-0.6544564366340637
1772562227576431600,6.402431640625,0.09976069629192352,-1.253380298614502,-0.7983861565589905
1772562227586413300,6.412413330078125,0.017906323075294495,-1.2312787771224976,-0.9291278123855591
1772562227596396500,6.422396484375,-0.08123277127742767,-1.2381194829940796,-1.0429755449295044
1772562227606379500,6.432379638671875,-0.18917153775691986,-1.268782615661621,-1.1348236799240112
1772562227616361500,6.442361572265625,-0.30468350648880005,-1.2905880212783813,-1.204337477684021
1772562227626344400,6.452344482421875,-0.42970171570777893,-1.2922489643096924,-1.251913070678711
1772562227636326400,6.462326416015625,-0.5815892815589905,-1.2268452644348145,-1.2955803871154785
1772562227646309400,6.472309326171875,-0.7498924136161804,-1.0622166395187378,-1.3582321405410767
1772562227656292400,6.482292236328125,-0.8908319473266602,-0.7916507720947266,-1.4108039140701294
1772562227666274300,6.4922744140625,-0.9606488347053528,-0.3822419047355652,-1.4217320680618286
1772562227676257300,6.50225732421875,-0.962352454662323,0.15306733548641205,-1.381523609161377
1772562227686239500,6.512239501953125,-0.9133406281471252,0.7470998764038086,-1.3060401678085327
1772562227696222200,6.52222216796875,-0.8365345001220703,1.3547264337539673,-1.1983903646469116
1772562227706205400,6.532205322265625,-0.7556099891662598,1.915639042854309,-1.0658106803894043
1772562227716187400,6.5421875,-0.6921812295913696,2.3659701347351074,-0.9240450859069824
1772562227726170400,6.55217041015625,-0.628523051738739,2.618859052658081,-0.7819655537605286
1772562227736152300,6.56215234375,-0.5532886981964111,2.605712652206421,-0.6475451588630676
1772562227746135600,6.572135498046875,-0.46275824308395386,2.318269729614258,-0.5126851797103882
1772562227756118500,6.582118408203125,-0.3839086890220642,1.8436996936798096,-0.3667386770248413
1772562227766100500,6.5921005859375,-0.3400948941707611,1.384155511856079,-0.20500940084457397
1772562227776083500,6.60208349609375,-0.33089447021484375,1.0557408332824707,-0.004874186124652624
1772562227786065400,6.6120654296875,-0.34803661704063416,0.8290899991989136,0.2150026261806488
1772562227796048400,6.62204833984375,-0.36686065793037415,0.6227688193321228,0.4228493273258209
1772562227806031400,6.63203125,-0.37707749009132385,0.4348722994327545,0.599125325679779
1772562227816013300,6.642013427734375,-0.36842140555381775,0.3036341071128845,0.7491853833198547
1772562227825996300,6.651996337890625,-0.3551749587059021,0.22685936093330383,0.8617032170295715
1772562227835978500,6.661978515625,-0.32877105474472046,0.16159753501415253,0.9370879530906677
1772562227845961200,6.671961181640625,-0.283429354429245,0.11403776705265045,0.9787925481796265
1772562227855944200,6.681944091796875,-0.2301517277956009,0.13428285717964172,0.987038254737854
1772562227865926100,6.691926025390625,-0.1766870766878128,0.23055385053157806,0.955838143825531
1772562227875909000,6.7019091796875,-0.09839893877506256,0.376132607460022,0.8997879028320312
1772562227885891000,6.71189111328125,0.0024699519854038954,0.5036582946777344,0.8535839915275574
1772562227895874000,6.7218740234375,0.13607248663902283,0.6307438611984253,0.8655368089675903
1772562227905857000,6.73185693359375,0.2879646122455597,0.6809164881706238,0.9513678550720215
1772562227915839000,6.7418388671875,0.43359318375587463,0.6160317659378052,1.0883755683898926
1772562227925822000,6.751822021484375,0.5314186215400696,0.4540497064590454,1.2226579189300537
1772562227935805200,6.76180517578125,0.538264274597168,0.21999458968639374,1.312744379043579
1772562227945787000,6.771786865234375,0.43883010745048523,-0.12731343507766724,1.3644134998321533
1772562227955770000,6.78177001953125,0.2638183534145355,-0.5066530108451843,1.4121363162994385
1772562227965752000,6.791751953125,0.05673206225037575,-0.849536120891571,1.498990535736084
1772562227975735000,6.801735107421875,-0.10465150326490402,-1.1607091426849365,1.615919828414917
1772562227985718000,6.811718017578125,-0.186007559299469,-1.3554953336715698,1.7146397829055786
1772562227995700200,6.8217001953125,-0.1968439519405365,-1.2139922380447388,1.7520012855529785
1772562228005683000,6.831682861328125,-0.1685108095407486,-0.7126067280769348,1.668727993965149
1772562228015665200,6.8416650390625,-0.12435532361268997,-0.01857043243944645,1.4329620599746704
1772562228025648000,6.851648193359375,-0.07534781843423843,0.5809147953987122,1.039399266242981
1772562228035630800,6.861630859375,-0.0517578050494194,0.7350361943244934,0.556584358215332
1772562228045613000,6.871613037109375,-0.06716392189264297,0.32663804292678833,0.09662768244743347
1772562228055596000,6.881595947265625,-0.09929309785366058,-0.5829148292541504,-0.24401459097862244
1772562228065578000,6.891577880859375,-0.1585294008255005,-1.703255534172058,-0.411665141582489
1772562228075561000,6.90156103515625,-0.262869656085968,-2.5474448204040527,-0.36796000599861145
1772562228085544200,6.911544189453125,-0.40947747230529785,-2.7253012657165527,-0.13288837671279907
1772562228095526000,6.92152587890625,-0.5630673170089722,-2.1859469413757324,0.2207210808992386
1772562228105509000,6.931509033203125,-0.6251835227012634,-1.039002537727356,0.6016539931297302
1772562228115492000,6.9414921875,-0.5602700114250183,0.24150225520133972,0.8645987510681152
1772562228125474000,6.95147412109375,-0.36322736740112305,1.184084177017212,0.9342950582504272
1772562228135457000,6.96145703125,-0.1285218894481659,1.5092065334320068,0.8472232818603516
1772562228145439200,6.971439208984375,0.05352425202727318,1.2249205112457275,0.6582425832748413
1772562228155422000,6.981421875,0.2159789502620697,0.6348743438720703,0.4717651307582855
1772562228165405000,6.991405029296875,0.411163330078125,-0.016849976032972336,0.3414018452167511
1772562228175387100,7.00138720703125,0.6596115231513977,-0.6441716551780701,0.26663708686828613
1772562228185369900,7.011369873046875,0.9300891160964966,-1.223571538925171,0.21066853404045105
1772562228195352000,7.02135205078125,1.1660709381103516,-1.756043791770935,0.14379815757274628
1772562228205335000,7.0313349609375,1.304319143295288,-2.201657772064209,0.05284849554300308
1772562228215318000,7.041318115234375,1.3294806480407715,-2.5350794792175293,-0.060605358332395554
1772562228225300000,7.051300048828125,1.277986764907837,-2.7117950916290283,-0.16730356216430664
1772562228235283200,7.061283203125,1.181361436843872,-2.719667911529541,-0.2484000027179718
1772562228245265000,7.071264892578125,1.0708842277526855,-2.605131149291992,-0.30778002738952637
1772562228255248100,7.081248046875,0.9516220688819885,-2.4147369861602783,-0.3611697256565094
1772562228265231000,7.091231201171875,0.8460448980331421,-2.207524538040161,-0.4046543836593628
1772562228275213000,7.101213134765625,0.7499761581420898,-2.037846326828003,-0.4464223384857178
1772562228285196000,7.111196044921875,0.6461721062660217,-1.9718122482299805,-0.4739875793457031
1772562228295179000,7.121178955078125,0.5191124081611633,-2.0330817699432373,-0.5009728670120239
1772562228305161000,7.131160888671875,0.38065406680107117,-2.1833267211914062,-0.5499593615531921
1772562228315144000,7.14114404296875,0.2553882896900177,-2.302816152572632,-0.6436120867729187
1772562228325126000,7.1511259765625,0.12546375393867493,-2.237102508544922,-0.8015621304512024
1772562228335109000,7.161109130859375,-0.016965031623840332,-1.9413963556289673,-1.0086463689804077
1772562228345092000,7.171092041015625,-0.13695977628231049,-1.4482392072677612,-1.238737940788269
1772562228355074000,7.181073974609375,-0.19666598737239838,-0.8366711735725403,-1.468031406402588
1772562228365057000,7.19105712890625,-0.18178588151931763,-0.11620397865772247,-1.6564878225326538
1772562228375039000,7.2010390625,-0.12513326108455658,0.7180229425430298,-1.7829009294509888
1772562228385022200,7.211022216796875,-0.05415597930550575,1.6102046966552734,-1.8396337032318115
1772562228395005000,7.2210048828125,-0.013192301616072655,2.493851661682129,-1.8443913459777832
1772562228404987100,7.230987060546875,-0.02356075495481491,3.2852492332458496,-1.8117111921310425
1772562228414970000,7.24097021484375,-0.058315809816122055,3.8666491508483887,-1.7448227405548096
1772562228424952000,7.2509521484375,-0.08780644834041595,4.107448101043701,-1.6703053712844849
1772562228434935000,7.26093505859375,-0.1171792522072792,3.8540310859680176,-1.6121349334716797
1772562228444918300,7.270918212890625,-0.1752864420413971,2.9757349491119385,-1.594985008239746
1772562228454900000,7.28089990234375,-0.25857067108154297,1.9011212587356567,-1.5449681282043457
1772562228464883200,7.29088330078125,-0.36619773507118225,1.1281137466430664,-1.3627763986587524
1772562228474865000,7.300864990234375,-0.502543568611145,0.7363201379776001,-1.068581223487854
1772562228484848000,7.31084814453125,-0.6081171631813049,0.5780432820320129,-0.7332203388214111
1772562228494831000,7.3208310546875,-0.6663112044334412,0.46702834963798523,-0.4411000907421112
1772562228504813000,7.33081298828125,-0.6645151376724243,0.379147469997406,-0.20180776715278625
1772562228514796000,7.340796142578125,-0.6145777106285095,0.32594844698905945,0.002505156211555004
1772562228524779000,7.350779052734375,-0.5171973705291748,0.3063996434211731,0.17352931201457977
1772562228534761000,7.360760986328125,-0.4141330420970917,0.35272639989852905,0.33446890115737915
1772562228544744000,7.370743896484375,-0.3380100727081299,0.4720889925956726,0.48391735553741455
1772562228554726100,7.38072607421875,-0.30735069513320923,0.6114152073860168,0.6283532977104187
1772562228564708900,7.390708984375,-0.3022010326385498,0.7697806358337402,0.7475138902664185
1772562228574692000,7.400692138671875,-0.28625908493995667,0.9681427478790283,0.8382799625396729
1772562228584674000,7.410674072265625,-0.2422114908695221,1.2114033699035645,0.8882724046707153
1772562228594657000,7.420656982421875,-0.1488858163356781,1.4986563920974731,0.8990004062652588
1772562228604639000,7.430638916015625,-0.024391693994402885,1.7385562658309937,0.8892619013786316
1772562228614622200,7.440622314453125,0.1356152892112732,1.8610597848892212,0.889166533946991
1772562228624605000,7.45060498046875,0.309848427772522,1.7250230312347412,0.9333476424217224
1772562228634587100,7.460587158203125,0.4444752037525177,1.264405369758606,1.019538164138794
1772562228644570000,7.470570068359375,0.48610663414001465,0.7203096151351929,1.0986213684082031
1772562228654552000,7.480552001953125,0.3730788826942444,0.3618188202381134,1.1253796815872192
1772562228664535000,7.49053515625,0.12847626209259033,0.19305801391601562,1.0128331184387207
1772562228674518000,7.50051806640625,-0.12260337173938751,0.1886448860168457,0.8181246519088745
1772562228684500000,7.5105,-0.2933296859264374,0.2850295305252075,0.6851180195808411
1772562228694483000,7.52048291015625,-0.38914063572883606,0.558010995388031,0.6519976258277893
1772562228704465200,7.530465087890625,-0.4161279797554016,0.8448096513748169,0.6442599892616272
1772562228714448000,7.54044775390625,-0.32888415455818176,0.9250070452690125,0.556999683380127
1772562228724431000,7.55043115234375,-0.12011491507291794,0.6780730485916138,0.3340308964252472
1772562228734413000,7.5604130859375,0.09988163411617279,-0.036403506994247437,-0.0027183424681425095
1772562228744396000,7.57039599609375,0.1344260424375534,-1.1035970449447632,-0.36419057846069336
1772562228754379000,7.58037890625,-0.036714281886816025,-2.0492136478424072,-0.5592671632766724
1772562228764361200,7.590361328125,-0.30507615208625793,-2.3838346004486084,-0.4172719419002533
1772562228774344000,7.600343994140625,-0.5027258396148682,-1.8384981155395508,0.08064889907836914
1772562228784326100,7.610326171875,-0.5421304106712341,-0.603252649307251,0.7559652924537659
1772562228794309000,7.62030908203125,-0.4265175461769104,0.7902583479881287,1.3539378643035889
1772562228804291800,7.630291748046875,-0.1905839890241623,1.7397782802581787,1.761630654335022
1772562228814274000,7.640274169921875,0.1611972153186798,1.816096305847168,1.994386911392212
1772562228824257000,7.650257080078125,0.5605275630950928,1.3451385498046875,2.0288681983947754
1772562228834239000,7.660239013671875,0.8063876628875732,0.5071448683738708,1.9843498468399048
1772562228844222000,7.670221923828125,0.9376684427261353,-0.3836877644062042,2.002690315246582
1772562228854206000,7.6802060546875,1.041710376739502,-1.1756612062454224,2.106973171234131
1772562228864187600,7.690187744140625,1.0866694450378418,-1.699133276939392,2.186225414276123
1772562228874171000,7.7001708984375,1.0356090068817139,-1.8637864589691162,2.072577714920044
1772562228884153900,7.71015380859375,0.9387142062187195,-1.6737743616104126,1.733726143836975
1772562228894135800,7.7201357421875,0.8484676480293274,-1.2675282955169678,1.2219065427780151
1772562228904118800,7.730118896484375,0.7131509184837341,-0.8736556768417358,0.578999400138855
1772562228914100700,7.740100830078125,0.5221956372261047,-0.6468312740325928,-0.04564473405480385
1772562228924083700,7.750083740234375,0.27969902753829956,-0.6134200096130371,-0.5252419114112854
1772562228934066700,7.760066650390625,0.02826359122991562,-0.633080005645752,-0.8276856541633606
1772562228944048600,7.770048583984375,-0.19539707899093628,-0.5850762128829956,-0.9822840690612793
1772562228954031600,7.780031494140625,-0.3806854486465454,-0.4665953516960144,-1.022108793258667
1772562228964013800,7.790013916015625,-0.5143714547157288,-0.3357934355735779,-1.0221561193466187
1772562228973996500,7.79999658203125,-0.5578947067260742,-0.204188272356987,-1.0060017108917236
1772562228983979800,7.809979736328125,-0.5339319109916687,-0.20587985217571259,-1.0213617086410522
1772562228993961700,7.819961669921875,-0.48046600818634033,-0.327626496553421,-1.0880110263824463
1772562229003944700,7.82994482421875,-0.4426843822002411,-0.42119544744491577,-1.1983261108398438
1772562229013926700,7.8399267578125,-0.43037259578704834,-0.3728635907173157,-1.3232985734939575
1772562229023910000,7.849909912109375,-0.44380539655685425,-0.13983532786369324,-1.4519710540771484
1772562229033892900,7.859892822265625,-0.47105488181114197,0.29013603925704956,-1.569162130355835
1772562229043874800,7.869874755859375,-0.46577972173690796,0.8525108098983765,-1.6332436800003052
1772562229053857800,7.87985791015625,-0.4241611659526825,1.3944531679153442,-1.608143925666809
1772562229063840800,7.8898408203125,-0.35358259081840515,1.7909774780273438,-1.5115665197372437
1772562229073822700,7.89982275390625,-0.2582038938999176,2.064493179321289,-1.3804564476013184
1772562229083805700,7.9098056640625,-0.1540418565273285,2.2654409408569336,-1.2338954210281372
1772562229093787600,7.91978759765625,-0.0817285031080246,2.4226157665252686,-1.1171921491622925
1772562229103770600,7.9297705078125,-0.048846349120140076,2.4828901290893555,-1.0444929599761963
1772562229113753900,7.93975390625,-0.05579160898923874,2.4599032402038574,-1.0025066137313843
1772562229123735600,7.949735595703125,-0.08448631316423416,2.4298694133758545,-0.9767587184906006
1772562229133718800,7.95971875,-0.12681034207344055,2.4026710987091064,-0.941985547542572
1772562229143700700,7.96970068359375,-0.1607111394405365,2.293731927871704,-0.9002364277839661
1772562229153683700,7.97968359375,-0.18883411586284637,2.0731706619262695,-0.8709256649017334
1772562229163666700,7.989666748046875,-0.24520906805992126,1.7637885808944702,-0.8210577368736267
1772562229173646600,7.999646484375,-0.3334693908691406,1.41861093044281,-0.745431661605835
1772562229183628800,8.00962890625,-0.42753568291664124,1.0662453174591064,-0.6350294947624207
1772562229193611800,8.01961181640625,-0.49261268973350525,0.6759028434753418,-0.49205368757247925
1772562229203594800,8.0295947265625,-0.5215210914611816,0.2717770040035248,-0.3492339849472046
1772562229213576700,8.03957666015625,-0.5205509066581726,-0.09547210484743118,-0.20722545683383942
1772562229223560000,8.049559814453126,-0.49308475852012634,-0.39200764894485474,-0.09165678918361664
1772562229233541600,8.059541748046875,-0.4374467730522156,-0.5610472559928894,-0.013074632734060287
1772562229243524900,8.06952490234375,-0.3478412628173828,-0.5815637111663818,0.06632138788700104
1772562229253507800,8.0795078125,-0.24679294228553772,-0.5001881718635559,0.12185149639844894
1772562229263489800,8.08948974609375,-0.13027630746364594,-0.3195100724697113,0.1261051446199417
1772562229273472800,8.09947265625,-0.004519717767834663,-0.05177346244454384,0.0838242694735527
1772562229283455700,8.109455810546875,0.13509315252304077,0.2713770568370819,0.04374002665281296
1772562229293437700,8.119437744140624,0.2842258810997009,0.5813764929771423,0.05656394734978676
1772562229303420700,8.129420654296876,0.43354332447052,0.6884927153587341,0.10289033502340317
1772562229313402600,8.139402587890626,0.57676762342453,0.5763576626777649,0.17212240397930145
1772562229323385600,8.149385498046875,0.6837608814239502,0.26762187480926514,0.24432431161403656
1772562229333368800,8.159368896484375,0.7394196391105652,-0.36600032448768616,0.2727588713169098
1772562229343350500,8.1693505859375,0.7374690771102905,-1.3941900730133057,0.25670185685157776
1772562229353333800,8.179333740234375,0.6164339780807495,-2.724231481552124,0.20238375663757324
1772562229363315700,8.189315673828125,0.315669983625412,-3.9056811332702637,0.12454982101917267
1772562229373298700,8.199298583984374,-0.045278362929821014,-4.385305881500244,0.018256934359669685
1772562229383281700,8.20928173828125,-0.33715856075286865,-3.749920129776001,-0.22405971586704254
1772562229393263900,8.219263916015626,-0.34845516085624695,-2.8572022914886475,-0.3929712474346161
1772562229403246600,8.22924658203125,-0.17620643973350525,-1.834017038345337,-0.6341849565505981
1772562229413229800,8.239229736328125,0.05672507360577583,-1.0257809162139893,-0.9407424926757812
1772562229423211800,8.249211669921875,0.24951788783073425,-0.3733040690422058,-1.2608392238616943
1772562229433194800,8.25919482421875,0.4074587821960449,-0.08859273046255112,-1.568458914756775
1772562229443176700,8.2691767578125,0.4673030376434326,-0.32855355739593506,-1.7987092733383179
1772562229453160000,8.279159912109375,0.37077996134757996,-0.9391079545021057,-1.8803114891052246
1772562229463143000,8.289142822265624,0.15114539861679077,-1.4924765825271606,-1.803061842918396
1772562229473124900,8.299124755859374,-0.13007321953773499,-1.7102546691894531,-1.5806951522827148
1772562229483107800,8.30910791015625,-0.37252888083457947,-1.6166259050369263,-1.2573044300079346
1772562229493089800,8.31908984375,-0.495439350605011,-1.3115719556808472,-0.8241938352584839
1772562229503072800,8.32907275390625,-0.4863958954811096,-0.771653413772583,-0.2378729283809662
1772562229513055700,8.3390556640625,-0.3978724181652069,-0.09314978122711182,0.4244807958602905
1772562229523037700,8.34903759765625,-0.22741015255451202,0.5837246179580688,1.0074094533920288
1772562229533020700,8.359020751953125,-0.010941765271127224,1.066667079925537,1.4147825241088867
1772562229543003000,8.3690029296875,0.167901411652565,1.2278589010238647,1.6579550504684448
1772562229552985600,8.378985595703124,0.2955904006958008,1.140255093574524,1.8142378330230713
1772562229562968800,8.38896875,0.38108813762664795,0.9546663761138916,1.9871971607208252
1772562229572950800,8.39895068359375,0.42699411511421204,0.7431400418281555,2.231632709503174
1772562229582933800,8.408933837890626,0.4297944903373718,0.5271435379981995,2.4840457439422607
1772562229592916700,8.418916748046875,0.4340486228466034,0.3152896463871002,2.6843514442443848
1772562229602900700,8.428900634765625,0.4552963376045227,0.08849474042654037,2.756424903869629
1772562229612883000,8.438883056640625,0.4961199164390564,-0.21588008105754852,2.666266441345215
1772562229622865700,8.44886572265625,0.5328741669654846,-0.5934816002845764,2.4707443714141846
1772562229632848600,8.4588486328125,0.5512845516204834,-0.98952716588974,2.2591145038604736
1772562229642830800,8.468830810546875,0.527721107006073,-1.3724104166030884,2.064610481262207
1772562229652813600,8.4788134765625,0.46026620268821716,-1.6877819299697876,1.9075525999069214
1772562229662795800,8.488795654296876,0.3267360329627991,-1.8046247959136963,1.7730576992034912
1772562229672778800,8.49877880859375,0.13813364505767822,-1.612709403038025,1.5782930850982666
1772562229682761700,8.50876171875,-0.04487927630543709,-1.1991053819656372,1.2380622625350952
1772562229692743700,8.51874365234375,-0.16041012108325958,-0.6581524610519409,0.7835072875022888
1772562229702727000,8.528726806640625,-0.22346389293670654,-0.02043450064957142,0.2598661184310913
1772562229712709600,8.538709716796875,-0.23179613053798676,0.5235564112663269,-0.28946465253829956
1772562229722691800,8.54869189453125,-0.21478818356990814,0.9387899041175842,-0.8555470108985901
1772562229732674800,8.5586748046875,-0.20976413786411285,1.2819706201553345,-1.3848845958709717
1772562229742656800,8.56865673828125,-0.221502885222435,1.5330930948257446,-1.8146628141403198
1772562229752639700,8.5786396484375,-0.2418675422668457,1.7496893405914307,-2.1150741577148438
1772562229762622700,8.588622802734376,-0.25845128297805786,1.9542279243469238,-2.2418859004974365
1772562229772604700,8.598604736328125,-0.2555103600025177,2.165924310684204,-2.2075765132904053
1772562229782587600,8.608587646484375,-0.21969351172447205,2.3800370693206787,-2.0427467823028564
1772562229792569600,8.618569580078125,-0.154619961977005,2.560701847076416,-1.7508184909820557
1772562229802552600,8.628552490234375,-0.06629401445388794,2.704799175262451,-1.3615033626556396
1772562229812535800,8.638535888671875,0.029470598325133324,2.770644187927246,-0.9152100682258606
1772562229822517800,8.648517822265624,0.0905170887708664,2.7475850582122803,-0.46003878116607666
1772562229832500700,8.658500732421874,0.10296230763196945,2.642873525619507,-0.07319866120815277
1772562229842482700,8.668482666015626,0.08027991652488708,2.461517333984375,0.18806765973567963
1772562229852466000,8.6784658203125,0.0458601638674736,2.246236562728882,0.3219197392463684
1772562229862447900,8.68844775390625,0.0055376943200826645,2.044675588607788,0.3488174378871918
1772562229872430000,8.69843017578125,-0.03228531777858734,1.8318809270858765,0.2884371876716614
1772562229882413000,8.7084130859375,-0.06263210624456406,1.598020076751709,0.18913133442401886
1772562229892396000,8.71839599609375,-0.0844804123044014,1.39546537399292,0.09671378135681152
1772562229902378000,8.7283779296875,-0.10348045825958252,1.2193629741668701,0.009757528081536293
1772562229912361200,8.738361328125,-0.1345001757144928,1.059310793876648,-0.08948863297700882
1772562229922343000,8.748343017578126,-0.17058366537094116,0.9657962918281555,-0.14356201887130737
1772562229932326100,8.758326171875,-0.1947483867406845,0.8629016280174255,-0.12761980295181274
1772562229942309000,8.76830908203125,-0.20646055042743683,0.6952698826789856,-0.05008160322904587
1772562229952291000,8.778291015625,-0.2057066112756729,0.446845680475235,0.08728957176208496
1772562229962274000,8.788274169921875,-0.19340325891971588,0.18629302084445953,0.26819342374801636
1772562229972256000,8.798256103515625,-0.15808653831481934,-0.0010776708368211985,0.48092541098594666
1772562229982239000,8.808239013671875,-0.10577910393476486,-0.051181089133024216,0.7086886167526245
1772562229992222000,8.818221923828125,-0.05829707160592079,0.051837701350450516,0.8954203724861145
1772562230002204000,8.828203857421874,-0.0030004156287759542,0.2557336091995239,1.0132368803024292
1772562230012187000,8.838186767578126,0.07962042838335037,0.4296175241470337,1.0510667562484741
1772562230022170000,8.848170166015626,0.2055598795413971,0.4967855215072632,1.010535478591919
1772562230032152000,8.858152099609375,0.36866170167922974,0.4275510609149933,0.9207280874252319
1772562230042135000,8.868135009765625,0.5657593607902527,0.17984184622764587,0.8141509294509888
1772562230052117000,8.878116943359375,0.7359734177589417,-0.296450674533844,0.7180500030517578
1772562230062100000,8.888099853515625,0.8359832763671875,-0.9132949709892273,0.6398956775665283
1772562230072083000,8.8980830078125,0.8194496035575867,-1.5149556398391724,0.5643247365951538
1772562230082065200,8.908065185546874,0.649695098400116,-1.9936546087265015,0.4482862949371338
1772562230092048000,8.9180478515625,0.3655904233455658,-2.4418962001800537,0.2821551263332367
1772562230102030000,8.928030029296876,0.1054454818367958,-2.747851610183716,0.13171644508838654
1772562230112013000,8.938012939453126,-0.057831600308418274,-2.7812647819519043,0.036564894020557404
1772562230121996000,8.94799609375,-0.14360497891902924,-2.4018452167510986,-0.07181856036186218
1772562230131978000,8.95797802734375,-0.0880916565656662,-1.981311559677124,-0.107042595744133
1772562230141961200,8.967961181640625,1.310836523771286e-7,-1.4151725769042969,-0.2982099652290344
1772562230151944200,8.977944091796875,0.07030172646045685,-1.1058416366577148,-0.7781065106391907
1772562230161926100,8.987926025390625,0.09709879755973816,-1.2813259363174438,-1.5594929456710815
1772562230171909000,8.9979091796875,0.04546196758747101,-1.9632376432418823,-2.4583559036254883
1772562230181891000,9.00789111328125,-0.08266109973192215,-2.7421751022338867,-3.199666976928711
1772562230191874000,9.0178740234375,-0.19850486516952515,-3.158635139465332,-3.6549103260040283
1772562230201857000,9.02785693359375,-0.22317498922348022,-3.015065908432007,-3.7426953315734863
1772562230211839000,9.0378388671875,-0.09690013527870178,-2.3331522941589355,-3.4891769886016846
1772562230221822000,9.047822021484375,0.09112196415662766,-1.5287891626358032,-3.015813112258911
1772562230231804200,9.05780419921875,0.19870541989803314,-0.5473047494888306,-2.2864489555358887
1772562230241787000,9.067786865234375,0.23814134299755096,0.28076156973838806,-1.3457554578781128
1772562230251770000,9.07777001953125,0.22570598125457764,0.4897829592227936,-0.4879840612411499
1772562230261752000,9.087751953125,0.1365816593170166,0.2175971120595932,0.11396728456020355
1772562230271735000,9.097735107421874,-0.019596217200160027,-0.16585254669189453,0.4758080542087555
1772562230281717000,9.107717041015626,-0.17381982505321503,-0.4113643169403076,0.7098480463027954
1772562230291700200,9.1177001953125,-0.24473421275615692,-0.41660940647125244,0.9318403601646423
1772562230301683000,9.127682861328125,-0.22559356689453125,-0.2099599689245224,1.1958640813827515
1772562230311665200,9.1376650390625,-0.11702979356050491,0.08735533803701401,1.4722384214401245
1772562230321648000,9.147648193359375,0.04995277523994446,0.3330547511577606,1.6905461549758911
1772562230331630800,9.157630859375,0.1990024447441101,0.44370749592781067,1.8404536247253418
1772562230341613000,9.167613037109374,0.30199724435806274,0.41668978333473206,1.9451262950897217
1772562230351596000,9.177595947265624,0.36609742045402527,0.2715911865234375,2.0263946056365967
1772562230361578000,9.187577880859376,0.4085410237312317,0.04082475230097771,2.098454475402832
1772562230371561000,9.19756103515625,0.42721059918403625,-0.25974041223526,2.1580581665039062
1772562230381544200,9.207544189453126,0.4293219745159149,-0.5563517808914185,2.1673593521118164
1772562230391526000,9.21752587890625,0.43895861506462097,-0.7736178040504456,2.1361091136932373
1772562230401509000,9.227509033203125,0.45997902750968933,-0.8256469964981079,2.03596830368042
1772562230411491000,9.237490966796875,0.4145612120628357,-0.7016547322273254,1.7410515546798706
1772562230421474000,9.24747412109375,0.36550745368003845,-0.5257388353347778,1.2358174324035645
1772562230431457000,9.25745703125,0.35503485798835754,-0.4655013084411621,0.6237675547599792
1772562230441439200,9.267439208984374,0.3627557158470154,-0.5629805326461792,0.05311334878206253
1772562230451422000,9.277421875,0.34645983576774597,-0.527955949306488,-0.3274292051792145
1772562230461405000,9.287405029296876,0.268880695104599,-0.293558269739151,-0.5570304989814758
1772562230471387100,9.29738720703125,0.15415465831756592,-0.038737691938877106,-0.7106144428253174
1772562230481369900,9.307369873046875,0.05513375625014305,0.25378042459487915,-0.7694963812828064
1772562230491352000,9.31735205078125,-0.032220855355262756,0.7021145224571228,-0.7216277122497559
1772562230501335000,9.3273349609375,-0.07201357930898666,0.9390766620635986,-0.6204830408096313
1772562230511318000,9.337318115234375,-0.05174265801906586,1.1226083040237427,-0.41094735264778137
1772562230521300000,9.347300048828124,-0.002131893066689372,1.2565312385559082,-0.16310559213161469
1772562230531283200,9.357283203125,0.08623258769512177,1.3940672874450684,0.07635358721017838
1772562230541265000,9.367264892578126,0.1911894977092743,1.5430482625961304,0.25511738657951355
1772562230551248100,9.377248046875,0.32596805691719055,1.7147420644760132,0.3253287076950073
1772562230561231000,9.387231201171875,0.44347819685935974,1.887025237083435,0.28178900480270386
1772562230571213000,9.397213134765625,0.5278434157371521,2.022505521774292,0.15699008107185364
1772562230581196000,9.407196044921875,0.5651294589042664,2.085275173187256,0.005449742544442415
1772562230591179000,9.417178955078125,0.5234310030937195,2.0895485877990723,-0.1649627387523651
1772562230601161000,9.427160888671875,0.4171414375305176,2.0188870429992676,-0.3610721826553345
1772562230611144200,9.437144287109374,0.28326940536499023,1.8260024785995483,-0.5800822973251343
1772562230621126000,9.4471259765625,0.1511964499950409,1.525071144104004,-0.8084627985954285
1772562230631109000,9.457109130859376,0.033394452184438705,1.165002703666687,-0.999029278755188
1772562230641092000,9.467092041015626,-0.06192117556929588,0.7902015447616577,-1.1032015085220337
1772562230651074000,9.477073974609375,-0.13854378461837769,0.4593552350997925,-1.0877392292022705
1772562230661057000,9.48705712890625,-0.19449712336063385,0.10286308079957962,-0.9505607485771179
1772562230671039200,9.497039306640625,-0.2259669005870819,-0.278644859790802,-0.6916189193725586
1772562230681022000,9.50702197265625,-0.2242925465106964,-0.5648122429847717,-0.3318507671356201
1772562230691005000,9.5170048828125,-0.19416794180870056,-0.6709061861038208,0.11852119863033295
1772562230700987100,9.526987060546874,-0.15781256556510925,-0.6490480899810791,0.5918777585029602
1772562230710970000,9.53697021484375,-0.1241355761885643,-0.49658796191215515,1.0097804069519043
1772562230720952000,9.5469521484375,-0.11227857321500778,-0.2433084100484848,1.2957741022109985
1772562230730935000,9.55693505859375,-0.08688373863697052,0.023007690906524658,1.4274001121520996
1772562230740918300,9.566918212890625,0.0035189331974834204,0.30388343334198,1.4243401288986206
1772562230750900000,9.57689990234375,0.13571079075336456,0.5522711277008057,1.274436593055725
1772562230760883200,9.58688330078125,0.30999264121055603,0.715449333190918,1.0288809537887573
1772562230770866200,9.5968662109375,0.5091694593429565,0.7231362462043762,0.7936351299285889
1772562230780848000,9.60684814453125,0.7020132541656494,0.542191743850708,0.6296171545982361
1772562230790831000,9.6168310546875,0.864707350730896,0.27230802178382874,0.5352006554603577
1772562230800813000,9.62681298828125,0.9484580159187317,-0.018188657239079475,0.45916590094566345
1772562230810796000,9.636796142578126,0.9158313870429993,-0.35575631260871887,0.3456534445285797
1772562230820779000,9.646779052734376,0.7505655288696289,-0.7091169357299805,0.25231894850730896
1772562230830761000,9.656760986328125,0.45972251892089844,-0.9778698086738586,0.21068735420703888
1772562230840744000,9.666743896484375,0.16696597635746002,-1.0312371253967285,0.2050953507423401
1772562230850726100,9.67672607421875,-0.06831605732440948,-0.8911162614822388,0.12689028680324554
1772562230860709000,9.686709228515625,-0.25261759757995605,-0.7835754752159119,-0.08680018037557602
1772562230870692000,9.696692138671875,-0.4264570474624634,-1.1290996074676514,-0.39604246616363525
1772562230880674000,9.706674072265624,-0.6061094403266907,-1.6425169706344604,-0.8265023231506348
1772562230890657300,9.7166572265625,-0.7375692129135132,-2.012467384338379,-1.2839949131011963
1772562230900640000,9.726639892578126,-0.7339527010917664,-1.9674564599990845,-1.6762562990188599
1772562230910622200,9.736622314453125,-0.5748035311698914,-1.5027912855148315,-1.9693355560302734
1772562230920605200,9.746605224609375,-0.3382696807384491,-0.7331447601318359,-2.16512131690979
1772562230930587100,9.756587158203125,-0.10173943638801575,0.12709595263004303,-2.225782871246338
1772562230940570000,9.766570068359375,0.0742715448141098,0.7275197505950928,-2.224727153778076
1772562230950553000,9.776552978515625,0.167597234249115,0.755828320980072,-2.1730308532714844
1772562230960535000,9.78653515625,0.16608233749866486,0.207256481051445,-2.006061315536499
1772562230970518000,9.79651806640625,0.05144018307328224,-0.573973536491394,-1.7022957801818848
1772562230980500200,9.806500244140626,-0.15912576019763947,-1.254880666732788,-1.3005694150924683
1772562230990483000,9.81648291015625,-0.41137373447418213,-1.6377323865890503,-0.8635208010673523
1772562231000466200,9.826466064453125,-0.6055489778518677,-1.6601133346557617,-0.4013229310512543
1772562231010448100,9.8364482421875,-0.6815574765205383,-1.2560603618621826,0.07778401672840118
1772562231020431000,9.84643115234375,-0.6486169695854187,-0.6480112075805664,0.5191671848297119
1772562231030414000,9.8564140625,-0.528658926486969,-0.11240581423044205,0.8374887108802795
1772562231040396300,9.866396240234375,-0.41002190113067627,0.21387675404548645,1.0186283588409424
1772562231050379000,9.87637890625,-0.31578490138053894,0.3455093502998352,1.1050394773483276
1772562231060361200,9.886361328125,-0.21742945909500122,0.35337376594543457,1.1789976358413696
1772562231070344200,9.89634423828125,-0.11052191257476807,0.2551438808441162,1.2697312831878662
1772562231080327000,9.906326904296876,0.01803663931787014,0.10554762929677963,1.3779222965240479
1772562231090309000,9.91630908203125,0.14072181284427643,-0.03664866462349892,1.4865036010742188
1772562231100292000,9.9262919921875,0.2397216558456421,-0.14687438309192657,1.5736489295959473
1772562231110274000,9.936274169921875,0.3098229765892029,-0.26533761620521545,1.6118794679641724
1772562231120257000,9.946257080078125,0.4002075791358948,-0.4508020579814911,1.5944347381591797
1772562231130240300,9.956240234375,0.4676212668418884,-0.7476414442062378,1.510582685470581
1772562231140222000,9.966221923828124,0.47417017817497253,-1.0363743305206299,1.3190399408340454
1772562231150205200,9.976205078125,0.4565674662590027,-1.2287919521331787,1.0328638553619385
1772562231160188200,9.986188232421876,0.4409972131252289,-1.2228307723999023,0.7285967469215393
1772562231170170000,9.996170166015625,0.39479032158851624,-0.9925194978713989,0.4476819932460785
1772562231180153000,10.006153076171875,0.31234312057495117,-0.60654616355896,0.17939411103725433
1772562231190135300,10.01613525390625,0.2098550945520401,-0.1687927544116974,-0.11314267665147781
1772562231200118000,10.026117919921875,0.09988205134868622,0.22890640795230865,-0.4655504524707794
1772562231210101200,10.036101318359375,0.023504460230469704,0.5149139165878296,-0.8531338572502136
1772562231220083200,10.046083251953124,-0.020461339503526688,0.6579167246818542,-1.2464035749435425
1772562231230066200,10.056066162109374,-0.04394828900694847,0.7113317847251892,-1.5591968297958374
1772562231240048000,10.066048095703126,-0.08847647160291672,0.6875800490379333,-1.7177258729934692
1772562231250031400,10.07603125,-0.15723423659801483,0.5988624691963196,-1.6818562746047974
1772562231260014000,10.08601416015625,-0.226445734500885,0.4565468728542328,-1.4877288341522217
1772562231269996300,10.095996337890625,-0.2840408384799957,0.3388229012489319,-1.1775920391082764
1772562231279979300,10.105979248046875,-0.3233608305454254,0.2870332598686218,-0.7897193431854248
1772562231289962000,10.1159619140625,-0.36168932914733887,0.38868024945259094,-0.37209782004356384
1772562231299944200,10.125944091796875,-0.37017929553985596,0.6491163969039917,0.007417301647365093
1772562231309927200,10.13592724609375,-0.3264949321746826,0.9896060824394226,0.2861061990261078
1772562231319909000,10.1459091796875,-0.24194443225860596,1.3412868976593018,0.435038685798645
1772562231329892000,10.15589208984375,-0.14754974842071533,1.6641789674758911,0.4650636911392212
1772562231339875300,10.165875244140626,-0.09311555325984955,1.9099358320236206,0.4129859209060669
1772562231349857000,10.17585693359375,-0.08425495028495789,2.0566012859344482,0.3012050688266754
1772562231359840300,10.18584033203125,-0.0801466703414917,2.1274874210357666,0.16092589497566223
1772562231369822000,10.195822021484375,-0.08235389739274979,2.1447951793670654,0.02758035995066166
1772562231379805200,10.20580517578125,-0.138994961977005,2.0028023719787598,-0.08012957125902176
1772562231389788200,10.2157880859375,-0.24106061458587646,1.735853672027588,-0.1374000608921051
1772562231399770000,10.22577001953125,-0.37194105982780457,1.324639081954956,-0.16557051241397858
1772562231409753000,10.235753173828124,-0.50612872838974,0.8556212782859802,-0.1825961023569107
1772562231419736000,10.245736083984376,-0.6428174376487732,0.4007208049297333,-0.21004851162433624
1772562231429718000,10.255718017578126,-0.7514983415603638,0.033243730664253235,-0.2390764355659485
1772562231439701000,10.265700927734375,-0.8117327094078064,-0.21230566501617432,-0.22910834848880768
1772562231449683200,10.27568310546875,-0.8220503330230713,-0.42577746510505676,-0.20392869412899017
1772562231459666000,10.285666015625,-0.7738348841667175,-0.5934395790100098,-0.1751800924539566
1772562231469649200,10.295649169921875,-0.6589980125427246,-0.7769164443016052,-0.11391407996416092
1772562231479631000,10.305631103515625,-0.47913023829460144,-1.0174331665039062,0.026205334812402725
1772562231489614000,10.315614013671874,-0.260434627532959,-1.3775583505630493,0.25879383087158203
1772562231499596000,10.325595947265626,-0.02260472998023033,-1.7207598686218262,0.5460663437843323
1772562231509579300,10.335579345703126,0.17753714323043823,-1.9161815643310547,0.8529745936393738
1772562231519562200,10.345562255859376,0.2958472669124603,-1.8944200277328491,1.0905052423477173
1772562231529544200,10.355544189453125,0.30003562569618225,-1.7311344146728516,1.1550778150558472
1772562231539527200,10.365527099609375,0.17861956357955933,-1.6005401611328125,1.0257439613342285
1772562231549510100,10.37551025390625,0.01987467147409916,-1.7099063396453857,0.7724000811576843
1772562231559492000,10.3854921875,-0.09731703251600266,-1.9910821914672852,0.47111985087394714
1772562231569475000,10.39547509765625,-0.1652502864599228,-1.9758169651031494,0.17659153044223785
1772562231579457000,10.40545703125,-0.22840553522109985,-1.4218223094940186,-0.12389916181564331
1772562231589440000,10.41543994140625,-0.3761199116706848,-0.9828670024871826,-0.5276191830635071
1772562231599423200,10.42542333984375,-0.530121386051178,-0.8722614645957947,-0.9943792819976807
1772562231609405000,10.435405029296875,-0.5356962084770203,-0.7666662931442261,-1.3712661266326904
1772562231619388200,10.44538818359375,-0.380134642124176,-0.5236780047416687,-1.576187252998352
1772562231629370000,10.4553701171875,-0.16331125795841217,-0.3843933343887329,-1.6218383312225342
1772562231639353000,10.46535302734375,0.05101752653717995,-0.2738770544528961,-1.552490472793579
1772562231649336000,10.475336181640625,0.29986461997032166,-0.1297457218170166,-1.3850798606872559
1772562231659318300,10.485318359375,0.4354153573513031,-0.08620371669530869,-1.1455827951431274
1772562231669301000,10.495301025390624,0.40123075246810913,-0.29503414034843445,-0.8981956243515015
1772562231679284000,10.505283935546874,0.3374722898006439,-0.5350552201271057,-0.6340168714523315
1772562231689266200,10.51526611328125,0.2860269248485565,-0.7776180505752563,-0.35443687438964844
1772562231699249200,10.525249267578126,0.2382623851299286,-0.9780905842781067,-0.07768718153238297
1772562231709231000,10.535231201171875,0.17586079239845276,-1.0064373016357422,0.1821260154247284
1772562231719214000,10.545214111328125,0.09951058775186539,-0.7710084319114685,0.38737961649894714
1772562231729197000,10.555197021484375,0.04513256996870041,-0.36816027760505676,0.4854683578014374
1772562231739179000,10.565178955078125,0.06432566046714783,0.016077619045972824,0.49994102120399475
1772562231749162200,10.575162353515625,0.1381591409444809,0.26007455587387085,0.46302029490470886
1772562231759144200,10.585144287109374,0.22794876992702484,0.34636905789375305,0.4198155105113983
1772562231769127200,10.595127197265626,0.2843521237373352,0.29783907532691956,0.39194872975349426
1772562231779110100,10.605110107421876,0.3041861951351166,0.18464551866054535,0.38904500007629395
1772562231789092000,10.615092041015625,0.30275341868400574,0.06966274976730347,0.43457043170928955
1772562231799075000,10.625074951171875,0.274257630109787,-0.010130183771252632,0.5048578977584839
1772562231809058300,10.635058349609375,0.22202610969543457,-0.056905146688222885,0.585401177406311
1772562231819040000,10.6450400390625,0.13692361116409302,-0.06926503032445908,0.6534587144851685
1772562231829023200,10.655023193359375,0.030674675479531288,-0.03569934517145157,0.6672613620758057
1772562231839005200,10.665005126953124,-0.09076501429080963,0.011387549340724945,0.6155385375022888
1772562231848988200,10.67498828125,-0.19807416200637817,0.06583933532238007,0.48208436369895935
1772562231858971600,10.6849716796875,-0.26389673352241516,0.12850125133991241,0.3076154589653015
1772562231868953300,10.694953369140626,-0.2764178514480591,0.20703493058681488,0.14268217980861664
1772562231878936600,10.7049365234375,-0.24581992626190186,0.29671183228492737,0.021896736696362495
1772562231888918500,10.71491845703125,-0.18581783771514893,0.37933027744293213,-0.030651692301034927
1772562231898901500,10.724901611328125,-0.1066366657614708,0.4208071231842041,-0.021324150264263153
1772562231908884500,10.734884521484375,-0.01826259307563305,0.400640070438385,0.020549532026052475
1772562231918866700,10.74486669921875,0.0494535006582737,0.35964375734329224,0.07230588048696518
1772562231928849400,10.754849365234374,0.10083972662687302,0.318232923746109,0.13576287031173706
1772562231938832600,10.76483251953125,0.134148508310318,0.26847562193870544,0.19343902170658112
1772562231948814600,10.774814697265626,0.14451512694358826,0.1949920952320099,0.23898707330226898
1772562231958797600,10.784797607421876,0.1593625843524933,0.12130558490753174,0.276740163564682
1772562231968779500,10.794779541015625,0.19522550702095032,0.05755004659295082,0.30624720454216003
1772562231978762800,10.8047626953125,0.24024313688278198,0.030091209337115288,0.3183075189590454
1772562231988745500,10.814745361328125,0.2832542657852173,0.03656269237399101,0.31852614879608154
1772562231998727700,10.824727783203125,0.3330352306365967,0.07635197043418884,0.2998342514038086
1772562232008710700,10.834710693359375,0.37883761525154114,0.14350438117980957,0.2785417437553406
1772562232018692600,10.844692626953124,0.4128688871860504,0.21444518864154816,0.2552163600921631
1772562232028675600,10.854675537109374,0.4465576112270355,0.2723865211009979,0.2247050553560257
1772562232038658600,10.864658447265626,0.4743511378765106,0.3143666982650757,0.17694801092147827
1772562232048640500,10.874640625,0.4583735167980194,0.4589790105819702,0.22561460733413696
1772562232058623500,10.88462353515625,0.3403494954109192,0.5584698915481567,0.3772338032722473
1772562232068606700,10.894606689453125,0.1369612067937851,0.4514523446559906,0.5425188541412354
1772562232078588400,10.90458837890625,-0.002300226828083396,0.2256658971309662,0.6627498865127563
1772562232088571600,10.914571533203125,-0.07306920737028122,-0.02426377683877945,0.7234476208686829
1772562232098553600,10.9245537109375,-0.12940257787704468,-0.2814606726169586,0.6750666499137878
1772562232108536600,10.93453662109375,-0.19156555831432343,-0.5284044146537781,0.541086733341217
1772562232118519600,10.94451953125,-0.27911993861198425,-0.7061755061149597,0.38523003458976746
1772562232128501800,10.954501708984376,-0.4145645797252655,-0.7456094622612,0.25178515911102295
1772562232138484500,10.964484375,-0.5711455941200256,-0.6656076312065125,0.18427957594394684
1772562232148466700,10.974466796875,-0.7026048302650452,-0.571343719959259,0.12919208407402039
1772562232158449700,10.98444970703125,-0.7463335394859314,-0.5844563245773315,0.033072248101234436
