time,seconds_elapsed,z,y,x
1772650679557300200,0.20130029296875,-0.007330167107284069,-0.20509196817874908,-0.08704573661088943
1772650679567177500,0.211177490234375,-0.0021379655227065086,-0.21837788820266724,-0.072232685983181
1772650679577054700,0.2210546875,-0.001985253533348441,-0.2304421216249466,-0.06413896381855011
1772650679586932000,0.230931884765625,-0.0006108472589403391,-0.23471805453300476,-0.06047387793660164
1772650679596809500,0.2408095703125,0.005344913341104984,-0.22250111401081085,-0.05757235363125801
1772650679606686700,0.250686767578125,0.019088976085186005,-0.1985253542661667,-0.057114217430353165
1772650679616564000,0.26056396484375,0.03527642786502838,-0.16492876410484314,-0.06337540596723557
1772650679626441200,0.270441162109375,0.034665580838918686,-0.12766708433628082,-0.07528692483901978
1772650679636318500,0.280318359375,0.0331384651362896,-0.09834641218185425,-0.08460234850645065
1772650679646195700,0.29019580078125,0.06184828653931618,-0.0456608310341835,-0.08735115826129913
1772650679656073000,0.300072998046875,0.09239064902067184,0.011911521665751934,-0.08780929446220398
1772650679665950200,0.3099501953125,0.10735640674829483,0.04703523963689804,-0.08490777015686035
1772650679675827500,0.319827392578125,0.10430216789245605,0.0456608310341835,-0.08551861345767975
1772650679685704700,0.32970458984375,0.06917845457792282,0.016340164467692375,-0.08154810965061188
1772650679695582200,0.339582275390625,0.06642963737249374,0.0022906772792339325,-0.07589777559041977
1772650679705459500,0.34945947265625,0.08017370104789734,0.019394399598240852,-0.0859767496585846
1772650679715336700,0.359336669921875,0.06429167091846466,0.007482878863811493,-0.09804098308086395
1772650679725214000,0.3692138671875,0.04581354558467865,-0.034818295389413834,-0.09910997003316879
1772650679735091200,0.37909130859375,0.024281177669763565,-0.08017370104789734,-0.09391776472330093
1772650679744968400,0.388968505859375,0.017409147694706917,-0.10888352245092392,-0.09376505762338638
1772650679754845700,0.398845703125,0.017409147694706917,-0.11453386396169662,-0.09910997003316879
1772650679764723000,0.408722900390625,0.018630841746926308,-0.1310267299413681,-0.10216420143842697
1772650679774600200,0.41860009765625,0.021990500390529633,-0.14996300637722015,-0.10155335813760757
1772650679784477700,0.428477783203125,0.0018325417768210173,-0.20631365478038788,-0.09315420687198639
1772650679794355000,0.43835498046875,-0.010842538438737392,-0.2608317732810974,-0.08246438205242157
1772650679804232200,0.448232177734375,-0.02626643143594265,-0.3177932798862457,-0.08215895295143127
1772650679814109400,0.458109375,-0.042606595903635025,-0.38391751050949097,-0.08292251825332642
1772650679823986700,0.467986572265625,-0.05497625470161438,-0.4428642690181732,-0.08689302206039429
1772650679833864000,0.477864013671875,-0.06978929787874222,-0.4950917065143585,-0.09895725548267365
1772650679843741200,0.4877412109375,-0.0650552362203598,-0.5002838969230652,-0.1185043677687645
1772650679853618400,0.497618408203125,-0.008551862090826035,-0.4318690001964569,-0.15210096538066864
1772650679863495700,0.50749560546875,0.07650861889123917,-0.3046600818634033,-0.18722468614578247
1772650679873373200,0.517373291015625,0.12186402827501297,-0.2238755226135254,-0.20356485247612
1772650679883250200,0.527250244140625,0.12079504877328873,-0.21868331730365753,-0.17424418032169342
1772650679893127700,0.537127685546875,0.10078980028629303,-0.237008735537529,-0.11651911586523056
1772650679903005000,0.5470048828125,0.07925742864608765,-0.21853061020374298,-0.045355409383773804
1772650679912882200,0.556882080078125,0.06184828653931618,-0.18081079423427582,0.04337015375494957
1772650679922759400,0.566759521484375,0.03268032893538475,-0.16309621930122375,0.1450762301683426
1772650679932622800,0.576622802734375,0.024586603045463562,-0.12033691257238388,0.2429644912481308
1772650679942514000,0.586513916015625,0.03695625811815262,0.008093725889921188,0.33596599102020264
1772650679952391200,0.59639111328125,0.038788799196481705,0.0988045409321785,0.43919917941093445
1772650679962254800,0.6062548828125,0.014202198944985867,0.13362284004688263,0.5395308136940002
1772650679972145700,0.616145751953125,-0.05512896552681923,0.14828316867351532,0.6511631608009338
1772650679982023000,0.62602294921875,-0.16019469499588013,0.0844496339559555,0.7675296068191528
1772650679991886600,0.635886474609375,-0.30099499225616455,-0.042759306728839874,0.855491578578949
1772650680001777700,0.645777587890625,-0.42392799258232117,-0.1325538605451584,0.8487722873687744
1772650680011654700,0.655654541015625,-0.49142661690711975,-0.14309096336364746,0.733169436454773
1772650680021518300,0.665518310546875,-0.4946335554122925,-0.08383878320455551,0.515707790851593
1772650680031409400,0.675409423828125,-0.43080002069473267,0.04214845970273018,0.21822518110275269
1772650680041286700,0.68528662109375,-0.335507869720459,0.16279079020023346,-0.0590994730591774
1772650680051150000,0.695150146484375,-0.20722992718219757,0.3171824514865875,-0.35566580295562744
1772650680061041200,0.705041259765625,-0.04337015375494957,0.509141206741333,-0.5789304971694946
1772650680070918400,0.71491845703125,0.08322793990373611,0.7064448595046997,-0.7458444833755493
1772650680080781800,0.72478173828125,0.17653486132621765,0.9297095537185669,-0.8391514420509338
1772650680090673000,0.7346728515625,0.2635805904865265,1.2074923515319824,-0.8823688626289368
1772650680100550100,0.744550048828125,0.372464120388031,1.3806675672531128,-0.8663341403007507
1772650680110413600,0.75441357421875,0.43477052450180054,1.4203726053237915,-0.892447829246521
1772650680120304600,0.7643046875,0.46928340196609497,1.32767653465271,-0.9649859666824341
1772650680130182000,0.774181884765625,0.4549284875392914,1.0865445137023926,-0.9912523627281189
1772650680140059100,0.78405908203125,0.45416492223739624,0.631463348865509,-0.9261971712112427
1772650680149936400,0.793936279296875,0.37383851408958435,0.20997874438762665,-0.755770742893219
1772650680159813600,0.803813720703125,0.08032641559839249,-0.22402822971343994,-0.41018393635749817
1772650680169677300,0.81367724609375,-0.09575030952692032,-0.5529694557189941,-0.1310267299413681
1772650680179568000,0.823568115234375,-0.16935740411281586,-0.6960604786872864,0.07345438003540039
1772650680189445600,0.833445556640625,-0.21058958768844604,-0.7748597264289856,0.15546062588691711
1772650680199309000,0.84330908203125,-0.21394924819469452,-0.8296833038330078,0.1250709742307663
1772650680209200000,0.8532001953125,-0.18126893043518066,-0.7991409301757812,0.06001574173569679
1772650680219077400,0.863077392578125,-0.15439164638519287,-0.7540909647941589,-0.02244863659143448
1772650680228940800,0.87294091796875,-0.1698155403137207,-0.6667397618293762,-0.09040539711713791
1772650680238831900,0.882831787109375,-0.2208212912082672,-0.4999784827232361,-0.12491826713085175
1772650680248709000,0.892709228515625,-0.30786702036857605,-0.2579302489757538,-0.11270131915807724
1772650680258572500,0.902572509765625,-0.42789849638938904,-0.08124268800020218,-0.021532366052269936
1772650680268463600,0.912463623046875,-0.6055023670196533,0.005955760832875967,0.08551861345767975
1772650680278340900,0.9223408203125,-0.8218950033187866,0.0012216945178806782,0.17470231652259827
1772650680288204300,0.932204345703125,-0.9895725846290588,-0.03405473381280899,0.28190600872039795
1772650680298095400,0.942095458984375,-1.0882244110107422,0.013896775431931019,0.3633013963699341
1772650680307972600,0.95197265625,-1.0508099794387817,0.09529217332601547,0.35474956035614014
1772650680317849900,0.961849853515625,-0.9379559755325317,0.19348587095737457,0.24128466844558716
1772650680327727000,0.97172705078125,-0.779593825340271,0.31443363428115845,0.13560809195041656
1772650680337604400,0.981604248046875,-0.6062659025192261,0.43110546469688416,0.072232685983181
1772650680347468000,0.991468017578125,-0.4088095426559448,0.4509579837322235,0.06872031837701797
1772650680357358800,1.00135888671875,-0.2680092453956604,0.4349232614040375,0.15087927877902985
1772650680367236400,1.011236328125,-0.1960819661617279,0.40071579813957214,0.2513636350631714
1772650680377113600,1.021113525390625,-0.10246963053941727,0.3758237659931183,0.2539597451686859
1772650680386990600,1.030990478515625,-0.058183200657367706,0.3067980408668518,0.21318569779396057
1772650680396868000,1.0408681640625,-0.07696675509214401,0.15943112969398499,0.183865025639534
1772650680406745300,1.050745361328125,-0.11606097966432571,-0.009009997360408306,0.20142687857151031
1772650680416622600,1.06062255859375,-0.1892099380493164,-0.1954711228609085,0.1957765519618988
1772650680426499800,1.070499755859375,-0.2564031481742859,-0.3596363365650177,0.14904673397541046
1772650680436377000,1.080377197265625,-0.28816720843315125,-0.40758782625198364,0.08612946420907974
1772650680446254300,1.09025439453125,-0.33230090141296387,-0.35658207535743713,0.0522274412214756
1772650680456131600,1.100131591796875,-0.36192700266838074,-0.29885703325271606,0.01695101149380207
1772650680466008800,1.1100087890625,-0.45767730474472046,-0.3151971995830536,-0.06245913356542587
1772650680475886000,1.119885986328125,-0.5732801556587219,-0.3605526089668274,-0.15469707548618317
1772650680485763300,1.129763427734375,-0.6416950225830078,-0.35765108466148376,-0.2079934924840927
1772650680495626800,1.139626708984375,-0.6433748602867126,-0.30435463786125183,-0.21746163070201874
1772650680505517800,1.149517822265625,-0.5839699506759644,-0.1369825005531311,-0.20005246996879578
1772650680515395000,1.15939501953125,-0.3739912211894989,0.22189027070999146,-0.2011214643716812
1772650680525258800,1.1692587890625,-0.10430216789245605,0.7003363966941833,-0.07650861889123917
1772650680535149600,1.179149658203125,0.12934690713882446,1.320804476737976,0.14049486815929413
1772650680545026800,1.18902685546875,0.35474956035614014,1.4386980533599854,0.5700731873512268
1772650680554890500,1.198890380859375,0.2874036431312561,0.8955020904541016,1.0243908166885376
1772650680564781300,1.20878125,0.049020491540431976,0.1644706279039383,1.258650779724121
1772650680574658600,1.218658447265625,-0.1516428291797638,-0.1772984117269516,1.2931636571884155
1772650680584522200,1.228522216796875,-0.24785128235816956,-0.09651386737823486,1.1323580741882324
1772650680594413000,1.2384130859375,-0.2707580327987671,0.1713426560163498,0.7206470370292664
1772650680604290300,1.248290283203125,-0.12613995373249054,0.40483900904655457,0.2304421216249466
1772650680614154000,1.258154052734375,-0.06933116167783737,0.3692571818828583,-0.16309621930122375
1772650680624044800,1.268044921875,-0.0006108472589403391,0.25060009956359863,-0.5242596864700317
1772650680633922000,1.277922119140625,0.09605573117733002,0.11651911586523056,-0.8524373769760132
1772650680643785700,1.28778564453125,0.20539739727973938,-0.07727217674255371,-1.001025915145874
1772650680653676500,1.297676513671875,0.2973299026489258,-0.30969956517219543,-1.0318737030029297
1772650680663553800,1.3075537109375,0.32313820719718933,-0.4205683469772339,-1.13800847530365
1772650680673417500,1.31741748046875,0.28282228112220764,-0.5358657836914062,-1.1477819681167603
1772650680683308500,1.32730859375,0.27533939480781555,-0.5123481154441833,-1.1215155124664307
1772650680693185500,1.337185546875,0.32817769050598145,-0.35597124695777893,-1.1175450086593628
1772650680703049200,1.34704931640625,0.3811686933040619,-0.20493926107883453,-1.1030374765396118
1772650680712940000,1.35693994140625,0.33764582872390747,-0.13087402284145355,-1.0960127115249634
1772650680722817500,1.366817626953125,0.3411581814289093,-0.058335911482572556,-1.0253071784973145
1772650680732681000,1.376680908203125,0.28664007782936096,-0.02733541466295719,-0.8217422962188721
1772650680742572000,1.386572021484375,0.16844113171100616,-0.011606098152697086,-0.5482354164123535
1772650680752449300,1.39644921875,0.014202198944985867,0.02504473738372326,-0.21150586009025574
1772650680762312700,1.406312744140625,-0.1498102843761444,0.13240113854408264,0.1375933438539505
1772650680772203800,1.416203857421875,-0.2980934679508209,0.2591519355773926,0.4265241026878357
1772650680782081000,1.4260810546875,-0.4422534108161926,0.33352261781692505,0.6299362182617188
1772650680791944400,1.4359443359375,-0.5407525300979614,0.36879903078079224,0.786771297454834
1772650680801835500,1.44583544921875,-0.5392253994941711,0.49417543411254883,0.8154810667037964
1772650680811712800,1.455712646484375,-0.4431696832180023,0.6737645268440247,0.7052231431007385
1772650680821590000,1.465590087890625,-0.33291175961494446,0.798530101776123,0.6143596172332764
1772650680831467300,1.47546728515625,-0.20616094768047333,0.825101912021637,0.5624375939369202
1772650680841344500,1.485344482421875,-0.11835165321826935,0.7440119385719299,0.5279247164726257
1772650680851208000,1.4952080078125,-0.0522274412214756,0.5963396430015564,0.46363306045532227
1772650680861099000,1.50509912109375,0.025350160896778107,0.429883748292923,0.41048935055732727
1772650680870976300,1.514976318359375,0.08750387281179428,0.28251686692237854,0.3718532621860504
1772650680880853500,1.524853515625,0.13453911244869232,0.11774080991744995,0.3164188861846924
1772650680890730800,1.534730712890625,0.1751604527235031,-0.010689826682209969,0.2733541429042816
1772650680900608000,1.54460791015625,0.22509720921516418,-0.04413371533155441,0.23059484362602234
1772650680910485200,1.5544853515625,0.2611372172832489,-0.027029991149902344,0.17836740612983704
1772650680920362500,1.564362548828125,0.26434415578842163,0.0021379655227065086,0.1560714691877365
1772650680930239700,1.57423974609375,0.2286095917224884,0.03649812191724777,0.16706672310829163
1772650680940117000,1.584116943359375,0.1656923145055771,0.06612421572208405,0.18966807425022125
1772650680949994200,1.593994140625,0.08826743066310883,0.06994201242923737,0.21058958768844604
1772650680959871500,1.60387158203125,0.014813045971095562,0.08750387281179428,0.2026485800743103
1772650680969748700,1.613748779296875,-0.047646086663007736,0.1298050433397293,0.1626380831003189
1772650680979626000,1.6236259765625,-0.09208522737026215,0.19654010236263275,0.10903623700141907
1772650680989503200,1.633503173828125,-0.10430216789245605,0.2644968628883362,0.05650337040424347
1772650680999380500,1.64338037109375,-0.08994726091623306,0.2999260127544403,-0.007482878863811493
1772650681009257700,1.6532578125,-0.0781884491443634,0.265718549489975,-0.09681928902864456
1772650681019135000,1.663135009765625,-0.0397050715982914,0.19821994006633759,-0.18050536513328552
1772650681028998400,1.672998291015625,0.0198525357991457,0.1569877415895462,-0.2545706033706665
1772650681038889500,1.682889404296875,0.029473381116986275,0.06444438546895981,-0.3118375241756439
1772650681048766700,1.6927666015625,0.15026842057704926,0.1426328420639038,-0.2933593988418579
1772650681058630100,1.702630126953125,0.3643703758716583,0.3642176687717438,-0.12812520563602448
1772650681068521200,1.712521240234375,0.40728241205215454,0.3590254783630371,0.16080553829669952
1772650681078398500,1.7223984375,0.21959958970546722,0.0584886260330677,0.21349111199378967
1772650681088262000,1.732261962890625,-0.09559759497642517,-0.42224815487861633,-0.10231691598892212
1772650681098153000,1.742153076171875,-0.29656633734703064,-0.7160657048225403,-0.5387672781944275
1772650681108030200,1.7520302734375,-0.47264307737350464,-0.836860716342926,-0.6256603002548218
1772650681117893600,1.7618935546875,-0.6435275673866272,-0.9686510562896729,-0.22494450211524963
1772650681127784700,1.77178466796875,-0.656660795211792,-0.7528692483901978,0.04688252881169319
1772650681137662000,1.781661865234375,-0.48073679208755493,-0.3142809271812439,0.2901524603366852
1772650681147525400,1.791525390625,-0.34421244263648987,-0.10185877978801727,0.5210527181625366
1772650681157416400,1.80141650390625,-0.3817795515060425,-0.27533939480781555,0.6282563805580139
1772650681167293700,1.811293701171875,-0.40041038393974304,-0.4321744441986084,0.6277982592582703
1772650681177157000,1.8211572265625,-0.33230090141296387,-0.4647020399570465,0.559841513633728
1772650681187048200,1.831048095703125,-0.19241689145565033,-0.3655920922756195,0.4756973087787628
1772650681196925400,1.840925537109375,-0.007788302376866341,-0.3205420970916748,0.41827765107154846
1772650681206788900,1.850788818359375,0.09605573117733002,-0.4587462842464447,0.4825693368911743
1772650681216680000,1.860679931640625,0.34757208824157715,-0.4220954477787018,0.377198189496994
1772650681226557200,1.87055712890625,0.6074876189231873,-0.2408265322446823,0.17286977171897888
1772650681236420600,1.880420654296875,0.7531746625900269,-0.08154810965061188,0.049173206090927124
1772650681246311700,1.890311767578125,0.5946598052978516,-0.30404922366142273,0.168899267911911
1772650681256189000,1.90018896484375,0.38513919711112976,-0.5514423847198486,0.20616094768047333
1772650681266052400,1.91005224609375,0.2504473626613617,-0.6090146899223328,0.17286977171897888
1772650681275943400,1.919943359375,0.0650552362203598,-0.616802990436554,0.16767756640911102
1772650681285820700,1.929820556640625,-0.12659808993339539,-0.601073682308197,0.11392301321029663
1772650681295684000,1.93968408203125,-0.22692975401878357,-0.44759833812713623,0.06047387793660164
1772650681305575200,1.9495751953125,-0.31977853178977966,-0.28190600872039795,0.04077405482530594
1772650681315452400,1.959452392578125,-0.35138988494873047,-0.11422843486070633,0.036192700266838074
1772650681325315800,1.96931591796875,-0.444085955619812,-0.055892523378133774,0.04886778071522713
1772650681335207000,1.97920703125,-0.5488462448120117,-0.08231166750192642,0.17180079221725464
1772650681345084200,1.989084228515625,-0.5361711978912354,-0.04214845970273018,0.20096874237060547
1772650681354947600,1.998947509765625,-0.4230117201805115,0.061084724962711334,0.21058958768844604
1772650681364838400,2.00883837890625,-0.3736858069896698,0.0791047215461731,0.22219568490982056
1772650681374715600,2.018715576171875,-0.2593046724796295,0.08933641016483307,0.1901262104511261
1772650681384593000,2.028593017578125,-0.1438545286655426,0.11865708231925964,0.16706672310829163
1772650681394470100,2.03847021484375,-0.0459662564098835,0.17409147322177887,0.18493400514125824
1772650681404347400,2.048347412109375,0.014660334214568138,0.22784602642059326,0.21288026869297028
1772650681414224600,2.058224609375,0.013133215717971325,0.2157817929983139,0.2301367074251175
1772650681424102000,2.068101806640625,-0.0325276181101799,0.14461809396743774,0.22066856920719147
1772650681433979100,2.077979248046875,-0.03649812191724777,0.0978882759809494,0.21120044589042664
1772650681443856400,2.0878564453125,-0.005497625097632408,0.10949437320232391,0.20677179098129272
1772650681453733600,2.097733642578125,0.04856235533952713,0.22998400032520294,0.17974179983139038
1772650681463611000,2.10761083984375,0.12171131372451782,0.34635040163993835,0.1710372269153595
1772650681473488100,2.117488037109375,0.16431790590286255,0.4043808877468109,0.14049486815929413
1772650681483365400,2.127365478515625,0.1620272397994995,0.41384902596473694,0.11056335270404816
1772650681493242600,2.13724267578125,0.12583453953266144,0.4034646153450012,0.06765133142471313
1772650681503120000,2.147119873046875,0.1107160672545433,0.31825143098831177,0.0662769302725792
1772650681512997000,2.1569970703125,0.11651911586523056,0.1779092699289322,0.007482878863811493
1772650681522874400,2.166874267578125,0.11346487700939178,0.06184828653931618,-0.06963659077882767
1772650681532751600,2.176751708984375,0.060779303312301636,-0.13026317954063416,-0.09483403712511063
1772650681542628900,2.18662890625,0.06963659077882767,-0.21975229680538177,-0.15454435348510742
1772650681552506000,2.196506103515625,0.22066856920719147,-0.0662769302725792,-0.365286648273468
1772650681562369500,2.20636962890625,0.31977853178977966,0.11438114941120148,-0.4865398406982422
1772650681572260600,2.216260498046875,0.6624638438224792,0.6218425035476685,-0.6270347237586975
1772650681582137900,2.226137939453125,1.0902096033096313,1.455190896987915,-0.5138752460479736
1772650681592001300,2.236001220703125,1.2140588760375977,2.3992552757263184,0.1656923145055771
1772650681601892400,2.245892333984375,1.3120999336242676,2.5205085277557373,1.1624423265457153
1772650681611769600,2.25576953125,1.1888614892959595,2.139950752258301,1.6436372995376587
1772650681621633000,2.265633056640625,1.00392746925354,1.5581187009811401,2.065274477005005
1772650681631524000,2.275524169921875,0.8199097514152527,1.0427162647247314,2.404294729232788
1772650681641401300,2.2854013671875,0.5193728804588318,0.8727480173110962,2.047559976577759
1772650681651264800,2.2952646484375,0.2229592502117157,-0.09697200357913971,1.4535109996795654
1772650681661155800,2.30515576171875,-0.023059483617544174,-0.5109737515449524,0.5370874404907227
1772650681671033000,2.315033203125,-0.15087927877902985,-1.0245435237884521,0.0659715011715889
1772650681680896500,2.324896484375,-0.16004198789596558,-1.5052803754806519,-0.0778830274939537
1772650681690787600,2.33478759765625,-0.02504473738372326,-1.5449854135513306,-0.24907296895980835
1772650681700664800,2.344664794921875,0.16065283119678497,-1.361273169517517,-0.4384356141090393
1772650681710528300,2.3545283203125,0.3578037917613983,-1.0075925588607788,-0.5092939138412476
1772650681720419300,2.36441943359375,0.5248705148696899,-0.605960488319397,-0.34375429153442383
1772650681730296300,2.37429638671875,0.6992673873901367,-0.13591352105140686,-0.037414394319057465
1772650681740160000,2.384159912109375,0.7776085734367371,0.3035911023616791,0.3530697226524353
1772650681750050800,2.39405078125,0.7237012982368469,0.5320479869842529,0.6713211536407471
1772650681759928000,2.403927978515625,0.5477772951126099,0.38422292470932007,0.8434273600578308
1772650681769791700,2.413791748046875,0.28694549202919006,0.04459185153245926,0.9718579649925232
1772650681779682600,2.4236826171875,0.050547610968351364,-0.28664007782936096,0.9115368127822876
1772650681789559800,2.433559814453125,-0.1844758689403534,-0.6737645268440247,0.7360709309577942
1772650681799423200,2.44342333984375,-0.2570139765739441,-0.7918107509613037,0.3327590525150299
1772650681809314300,2.453314208984375,-0.10750912129878998,-0.5245651006698608,-0.3180987238883972
1772650681819191600,2.463191650390625,0.05803048983216286,-0.1847812980413437,-0.9487984776496887
1772650681829055000,2.473054931640625,0.05864133685827255,-0.008704573847353458,-1.3066022396087646
1772650681838946000,2.482946044921875,-0.03374931216239929,-0.00015271181473508477,-1.391815423965454
1772650681848823300,2.4928232421875,-0.17775654792785645,-0.03771981969475746,-1.2300937175750732
1772650681858686700,2.502686767578125,-0.2945810854434967,-0.006413896102458239,-0.9364288449287415
1772650681868577800,2.512577880859375,-0.4106420576572418,0.04367557913064957,-0.6157340407371521
1772650681878455000,2.522455078125,-0.49952033162117004,0.013438640162348747,-0.3500154912471771
1772650681888318500,2.532318359375,-0.5795413255691528,-0.04947862774133682,-0.15943112969398499
1772650681898209500,2.54220947265625,-0.6132906675338745,-0.02764083817601204,-0.07803573459386826
1772650681908086800,2.552086669921875,-0.6064186096191406,0.07009471952915192,-0.09697200357913971
1772650681917964000,2.561964111328125,-0.592216432094574,0.15744587779045105,-0.1698155403137207
1772650681927841300,2.57184130859375,-0.5859552621841431,0.20142687857151031,-0.23991025984287262
1772650681937718500,2.581718505859375,-0.61313796043396,0.1378987729549408,-0.2211267054080963
1772650681947582000,2.59158203125,-0.6639909744262695,0.017867282032966614,-0.10017894953489304
1772650681957473000,2.60147314453125,-0.71453857421875,-0.1104106456041336,0.0978882759809494
1772650681967350300,2.611350341796875,-0.7585195899009705,-0.2160872220993042,0.3384093940258026
1772650681977227500,2.6212275390625,-0.8189934492111206,-0.3067980408668518,0.5627430081367493
1772650681987104800,2.631104736328125,-0.8761076927185059,-0.4020902216434479,0.7608102560043335
1772650681996982000,2.64098193359375,-0.8640434741973877,-0.4309527277946472,0.8553388714790344
1772650682006845400,2.650845458984375,-0.7869240045547485,-0.3501681983470917,0.8321266770362854
1772650682016736500,2.660736572265625,-0.7113316059112549,-0.2683146595954895,0.7003363966941833
1772650682026613800,2.67061376953125,-0.6424586176872253,-0.19241689145565033,0.5722111463546753
1772650682036490800,2.68049072265625,-0.5934380888938904,-0.11239589750766754,0.48959407210350037
1772650682046368000,2.690367919921875,-0.5745018720626831,-0.0787992998957634,0.3802524209022522
1772650682056245200,2.700245361328125,-0.5938962697982788,-0.053143709897994995,0.2163926362991333
1772650682066122500,2.71012255859375,-0.6187883019447327,-0.04291202127933502,0.03558185324072838
1772650682075999700,2.719999755859375,-0.6369609832763672,-0.0462716780602932,-0.08948912471532822
1772650682085877000,2.729876953125,-0.6702521443367004,-0.08887827396392822,-0.16645587980747223
1772650682095740700,2.73974072265625,-0.6788040399551392,-0.18523943424224854,-0.22906772792339325
1772650682105631500,2.749631591796875,-0.6908682584762573,-0.37047886848449707,-0.2011214643716812
1772650682115508700,2.7595087890625,-0.6817055344581604,-0.6033644080162048,0.005497625097632408
1772650682125372200,2.7693720703125,-0.6306998133659363,-0.9373451471328735,0.42362257838249207
1772650682135263200,2.77926318359375,-0.4715740978717804,-1.2731584310531616,0.9243646264076233
1772650682145140500,2.789140380859375,-0.21990501880645752,-1.428771734237671,1.308740258216858
1772650682155004000,2.79900390625,0.2635805904865265,-1.032942771911621,1.2991193532943726
1772650682164895000,2.80889501953125,0.8321266770362854,-0.23105297982692719,1.1541959047317505
1772650682174772200,2.818772216796875,1.175881028175354,0.2898470163345337,1.2777397632598877
1772650682184635600,2.8286357421875,1.1231954097747803,0.33978378772735596,1.5842323303222656
1772650682194526700,2.838526611328125,0.7412631511688232,0.37735089659690857,1.4411413669586182
1772650682204404000,2.848404052734375,0.23914669454097748,-0.18065807223320007,1.0364550352096558
1772650682214267400,2.858267333984375,-0.3918585181236267,-0.42163732647895813,0.6290199756622314
1772650682224158500,2.868158447265625,-0.8725953102111816,-0.654370129108429,0.1704263836145401
1772650682234035700,2.87803564453125,-1.1537377834320068,-0.5025745630264282,-0.1175880953669548
1772650682243899100,2.887899169921875,-1.2310099601745605,-0.2967190444469452,-0.2638860046863556
1772650682253790200,2.897790283203125,-1.1679399013519287,-0.22479179501533508,-0.3017585575580597
1772650682263667500,2.90766748046875,-0.9413156509399414,-0.11407572776079178,-0.3504736125469208
1772650682273531000,2.91753076171875,-0.5958815217018127,0.11392301321029663,-0.4963133931159973
1772650682283421700,2.927421630859375,-0.22631891071796417,0.3755183517932892,-0.7177455425262451
1772650682293299000,2.937298828125,0.06948387622833252,0.5781669020652771,-0.9223793745040894
1772650682303162400,2.947162353515625,0.3002314269542694,0.6853706240653992,-1.066081166267395
1772650682313053400,2.957053466796875,0.4781406819820404,0.7507312893867493,-1.167176365852356
1772650682322930700,2.9669306640625,0.6653653979301453,0.7765395641326904,-1.2314680814743042
1772650682332794000,2.976794189453125,0.7562289237976074,0.8557969927787781,-1.2864443063735962
1772650682342685200,2.986685302734375,0.7750124335289001,0.8501466512680054,-1.2484190464019775
1772650682352562400,2.9965625,0.6762079000473022,0.6873558759689331,-1.00224769115448
1772650682362425900,3.00642578125,0.5005893111228943,0.4618005156517029,-0.6149705052375793
1772650682372317000,3.01631689453125,0.2796153426170349,0.2582356929779053,-0.22738789021968842
1772650682382194200,3.026194091796875,0.07650861889123917,0.09651386737823486,0.0713164210319519
1772650682392057600,3.0360576171875,-0.01038440316915512,0.0390942245721817,0.2605263590812683
1772650682401948700,3.04594873046875,-0.0778830274939537,0.05665608495473862,0.24754585325717926
1772650682411826000,3.055825927734375,-0.13362284004688263,0.042759306728839874,0.12262758612632751
1772650682421689300,3.065689453125,-0.23181653022766113,-0.0021379655227065086,-0.04062134400010109
1772650682431580400,3.075580322265625,-0.3277195692062378,-0.028251685202121735,-0.16859383881092072
1772650682441457700,3.085457763671875,-0.4095730781555176,-0.05085303261876106,-0.2583884000778198
1772650682451321000,3.095321044921875,-0.446529358625412,-0.08964183181524277,-0.26434415578842163
1772650682461212200,3.105212158203125,-0.40361732244491577,-0.08002099394798279,-0.1760767251253128
1772650682471089400,3.11508935546875,-0.3151971995830536,-0.03008422814309597,-0.06123743951320648
1772650682480966700,3.124966552734375,-0.1850867122411728,0.0261137206107378,0.016187451779842377
1772650682490844000,3.134843994140625,-0.024128466844558716,0.05864133685827255,0.04031591862440109
1772650682500721200,3.14472119140625,0.12430741637945175,0.10674555599689484,0.055739812552928925
1772650682510598100,3.15459814453125,0.24662958085536957,0.18569757044315338,0.09009996801614761
1772650682520475400,3.164475341796875,0.33382803201675415,0.2993151545524597,0.15316994488239288
1772650682530352600,3.1743525390625,0.38162681460380554,0.4286620616912842,0.2522799074649811
1772650682540216000,3.184216064453125,0.38956785202026367,0.5328115224838257,0.3640649616718292
1772650682550107100,3.194107177734375,0.3429907262325287,0.5763344168663025,0.47294849157333374
1772650682559984400,3.203984375,0.2739650011062622,0.5219689607620239,0.5444176197052002
1772650682569861600,3.213861572265625,0.20493926107883453,0.39476004242897034,0.531742513179779
1772650682579739000,3.22373876953125,0.08338065445423126,0.10888352245092392,0.5163186192512512
1772650682589616000,3.2336162109375,0.01695101149380207,-0.1695101112127304,0.49707695841789246
1772650682599479600,3.2434794921875,0.0978882759809494,-0.20035789906978607,0.3573456406593323
1772650682609370600,3.25337060546875,0.3035911023616791,-0.038483377546072006,0.072843536734581
1772650682619247900,3.263247802734375,0.5656445622444153,0.24510246515274048,-0.33856210112571716
1772650682629111300,3.273111328125,0.8599202036857605,0.6282563805580139,-0.7936432957649231
1772650682639002400,3.28300244140625,1.216196894645691,1.1525160074234009,-1.1740484237670898
1772650682648879600,3.292879638671875,1.3707412481307983,1.6427209377288818,-1.138313889503479
1772650682658743000,3.302742919921875,1.3024790287017822,1.6523418426513672,-0.444085955619812
1772650682668634000,3.312634033203125,1.2873605489730835,1.7094560861587524,0.20738264918327332
1772650682678511400,3.322511474609375,1.437628984451294,2.3913142681121826,0.44988900423049927
1772650682688374800,3.332374755859375,1.6019469499588013,2.609997510910034,0.6374191045761108
1772650682698265600,3.342265625,1.5126105546951294,2.105743169784546,0.8683193922042847
1772650682708142800,3.352142822265625,1.2065759897232056,1.2704095840454102,0.7751652002334595
1772650682718006300,3.36200634765625,1.0308047533035278,1.127929449081421,0.12629267573356628
1772650682727897300,3.3718974609375,0.9903361201286316,0.6810947060585022,-0.19989976286888123
1772650682737774600,3.381774658203125,0.9417737722396851,0.14736689627170563,-0.3692571818828583
1772650682747638000,3.391637939453125,0.7507312893867493,-0.3596363365650177,-0.6917845010757446
1772650682757529000,3.401529052734375,0.5482354164123535,-0.6928535103797913,-0.7750124335289001
1772650682767406300,3.41140625,0.40712970495224,-0.5522059202194214,-0.5572454333305359
1772650682777269800,3.421269775390625,0.275186687707901,-0.24632415175437927,-0.14171656966209412
1772650682787160800,3.431160888671875,0.10689827054738998,0.012827792204916477,0.2501419484615326
1772650682797038000,3.4410380859375,-0.09009996801614761,-0.0010689827613532543,0.5170822143554688
1772650682806901500,3.450901611328125,-0.3382566571235657,-0.18401773273944855,0.61970454454422
1772650682816792300,3.460792236328125,-0.6407787799835205,-0.4286620616912842,0.27625566720962524
1772650682826669600,3.470669677734375,-0.9498674869537354,-0.8238802552223206,-0.2730487287044525
1772650682836533200,3.480533203125,-1.2303991317749023,-1.1731321811676025,-0.7098045349121094
1772650682846424000,3.490424072265625,-1.2166550159454346,-1.1250278949737549,-1.1155598163604736
1772650682856301300,3.50030126953125,-1.0734113454818726,-0.8729007244110107,-1.3837217092514038
1772650682866165000,3.5101650390625,-1.005301833152771,-0.7417212724685669,-1.3360756635665894
1772650682876055800,3.520055908203125,-1.0016367435455322,-0.7299624681472778,-1.0535588264465332
1772650682885933000,3.52993310546875,-0.9688037633895874,-0.7319477200508118,-0.6499415040016174
1772650682895796500,3.53979638671875,-0.8670976758003235,-0.6006155610084534,-0.31855684518814087
1772650682905687600,3.5496875,-0.6195518374443054,-0.1629435122013092,-0.12201674282550812
1772650682915564800,3.559564697265625,-0.2476985603570938,0.43889376521110535,-0.09513945877552032
1772650682925428200,3.56942822265625,-0.014660334214568138,0.6730009913444519,-0.12552911043167114
1772650682935319300,3.5793193359375,0.09116895496845245,0.6140542030334473,-0.1516428291797638
1772650682945196500,3.589196533203125,0.10185877978801727,0.4694361090660095,-0.14858859777450562
1772650682955060000,3.59906005859375,0.03268032893538475,0.32069480419158936,-0.1291942000389099
1772650682964951000,3.608950927734375,-0.07467607408761978,0.18142163753509521,-0.08842013776302338
1772650682974828300,3.618828369140625,-0.1707318127155304,0.11560284346342087,-0.03833066672086716
1772650682984691700,3.628691650390625,-0.266176700592041,0.12140589207410812,-0.00259610079228878
1772650682994582500,3.63858251953125,-0.33077380061149597,0.1704263836145401,0.006413896102458239
1772650683004459800,3.648459716796875,-0.3561239540576935,0.19974705576896667,0.001985253533348441
1772650683014337000,3.6583369140625,-0.3570402264595032,0.1889045089483261,0.015576604753732681
1772650683024214300,3.66821435546875,-0.3405473530292511,0.11590826511383057,0.010995250195264816
1772650683034091500,3.678091552734375,-0.32161107659339905,-0.037567105144262314,0.03023693896830082
1772650683043955200,3.687955078125,-0.31596073508262634,-0.26159533858299255,0.20432840287685394
1772650683053846000,3.697845947265625,-0.2892361879348755,-0.5001311898231506,0.553274929523468
1772650683063723300,3.70772314453125,-0.2901524603366852,-0.7119424939155579,0.8861866593360901
1772650683073586700,3.717586669921875,-0.29687178134918213,-0.7834116220474243,1.0772291421890259
1772650683083477800,3.727477783203125,-0.2767138183116913,-0.7267554998397827,1.149767279624939
1772650683093355000,3.73735498046875,-0.24510246515274048,-0.705070436000824,1.167481780052185
1772650683103218400,3.747218505859375,-0.2229592502117157,-0.7574505805969238,1.181836724281311
1772650683113109500,3.757109619140625,-0.19989976286888123,-0.9123004078865051,1.2035218477249146
1772650683122986800,3.76698681640625,-0.15362808108329773,-1.1042591333389282,1.2406307458877563
1772650683132850200,3.77685009765625,-0.02993151545524597,-1.2317734956741333,1.3631056547164917
1772650683142741200,3.7867412109375,0.1432436853647232,-1.295607089996338,1.6030158996582031
1772650683152618500,3.796618408203125,0.3749074935913086,-1.3548592329025269,1.855754017829895
1772650683162482000,3.80648193359375,0.506239652633667,-1.4475553035736084,1.973189353942871
1772650683172372700,3.816372802734375,0.635739266872406,-1.4017417430877686,1.8297929763793945
1772650683182250000,3.82625,0.8496885299682617,-1.2781978845596313,1.7331264019012451
1772650683192113400,3.836113525390625,1.071578860282898,-0.846328854560852,1.9169913530349731
1772650683202004500,3.84600439453125,1.0581401586532593,-0.4428642690181732,2.2514302730560303
1772650683211881700,3.8558818359375,0.7685985565185547,-0.36635565757751465,2.23860239982605
1772650683221745200,3.8657451171875,0.33688226342201233,-0.4199574887752533,1.7451906204223633
1772650683231636200,3.87563623046875,0.09208522737026215,-0.22158484160900116,0.8608365058898926
1772650683241513500,3.885513427734375,-0.18768282234668732,-0.23929941654205322,0.054365407675504684
1772650683251377000,3.895376953125,-0.5798467397689819,-0.35108447074890137,-0.3399364948272705
1772650683261268000,3.90526806640625,-0.9051229357719421,-0.3718532621860504,-0.5577035546302795
1772650683271145200,3.915145263671875,-1.1008994579315186,-0.3495573401451111,-0.7200362086296082
1772650683281008600,3.925008544921875,-1.0837957859039307,-0.2658712565898895,-0.9639169573783875
1772650683290899500,3.9348994140625,-0.8003626465797424,0.012675080448389053,-1.1853491067886353
1772650683300776700,3.944776611328125,-0.37322768568992615,0.3190149664878845,-1.3942588567733765
1772650683310654000,3.954654052734375,0.007482878863811493,0.5190674662590027,-1.5871338844299316
1772650683320531200,3.96453125,0.2586938142776489,0.6612421870231628,-1.725643515586853
1772650683330408400,3.974408447265625,0.45477578043937683,0.7284353375434875,-1.7697771787643433
1772650683340271900,3.98427197265625,0.6163448691368103,0.7206470370292664,-1.7288504838943481
1772650683350163000,3.994162841796875,0.7533273696899414,0.37475478649139404,-1.672041654586792
1772650683360040200,4.004040283203125,0.705986738204956,-0.05772506445646286,-1.4489296674728394
1772650683369903600,4.013903564453125,0.6178719997406006,-0.4543176591396332,-1.249793529510498
1772650683379794700,4.023794677734375,0.4172086715698242,-0.7473716139793396,-1.0118684768676758
1772650683389672000,4.033671875,0.18768282234668732,-0.8240329623222351,-0.8313631415367126
1772650683399535400,4.043535400390625,0.12018419802188873,-0.556939959526062,-0.7094991207122803
1772650683409426400,4.053426513671875,0.04963133856654167,-0.21120044589042664,-0.6310052275657654
1772650683419303700,4.0633037109375,0.01695101149380207,0.05726693198084831,-0.557550847530365
1772650683429167000,4.0731669921875,-0.0007635590736754239,0.19348587095737457,-0.5373928546905518
1772650683439058200,4.08305810546875,-0.05482354015111923,0.2548760175704956,-0.5137225389480591
1772650683448935400,4.092935302734375,-0.11896250396966934,0.24372805655002594,-0.4682144224643707
1772650683458798800,4.102798828125,-0.1588202863931656,0.14095300436019897,-0.3897205591201782
1772650683468689700,4.112689697265625,-0.09605573117733002,0.05757235363125801,-0.2987042963504791
1772650683478567000,4.12256689453125,0.038636088371276855,0.020005248486995697,-0.22509720921516418
1772650683488444200,4.132444091796875,0.13652436435222626,-0.04550812020897865,-0.13591352105140686
1772650683498321400,4.1423212890625,0.22494450211524963,-0.14095300436019897,-0.03924693539738655
1772650683508198700,4.15219873046875,0.33199548721313477,-0.17943638563156128,0.01175880990922451
1772650683518076000,4.162075927734375,0.48012593388557434,-0.09773556143045425,0.01038440316915512
1772650683527953200,4.171953125,0.633448600769043,0.10308047384023666,-0.016645587980747223
1772650683537830400,4.181830322265625,0.7501204609870911,0.31199023127555847,-0.037567105144262314
1772650683547707600,4.191707763671875,0.81425940990448,0.48806697130203247,-0.03436015918850899
1772650683557585000,4.2015849609375,0.8098307251930237,0.5937435626983643,-0.004123218823224306
1772650683567462100,4.211462158203125,0.7467607855796814,0.6122216582298279,0.0650552362203598
1772650683577325600,4.22132568359375,0.6592568755149841,0.5349494814872742,0.08276980370283127
1772650683587216600,4.231216552734375,0.5616740584373474,0.3211529552936554,-0.012216945178806782
1772650683597093600,4.24109375,0.4280512034893036,0.08154810965061188,-0.20814619958400726
1772650683606957300,4.250957275390625,0.3367295563220978,-0.09910997003316879,-0.4590517282485962
1772650683616848100,4.26084814453125,0.3805578351020813,-0.10292776674032211,-0.7553126215934753
1772650683626725400,4.270725341796875,0.49142661690711975,0.06200099736452103,-1.0144646167755127
1772650683636588800,4.2805888671875,0.46454933285713196,0.08063183724880219,-0.9924740791320801
1772650683646480000,4.29047998046875,0.6708629727363586,0.4330907166004181,-1.0057599544525146
1772650683656357000,4.300357177734375,1.1418262720108032,1.8030683994293213,-1.3240114450454712
1772650683666220500,4.310220458984375,1.2244433164596558,2.554105043411255,-0.9132166504859924
1772650683676111600,4.320111572265625,0.999346137046814,0.6435275673866272,0.7886037826538086
1772650683685988900,4.32998876953125,0.3924693763256073,-0.4402681589126587,1.5194826126098633
1772650683695852300,4.339852294921875,0.06963659077882767,-0.10796725004911423,1.2067288160324097
1772650683705743400,4.349743408203125,-0.0397050715982914,-0.3558185398578644,0.9782719016075134
1772650683715620600,4.35962060546875,0.0847550556063652,-0.46363306045532227,0.8573241233825684
1772650683725484000,4.369484130859375,0.305118203163147,-0.2910687327384949,0.6493306159973145
1772650683735374800,4.379374755859375,0.4265241026878357,-0.09590301662683487,0.2373141646385193
1772650683745252000,4.389252197265625,0.5725166201591492,0.18753011524677277,-0.18630841374397278
1772650683755115500,4.399115478515625,0.6099309921264648,0.10644013434648514,-0.2533488869667053
1772650683765006600,4.409006591796875,0.4434750974178314,-0.11865708231925964,-0.15362808108329773
1772650683774883800,4.4188837890625,0.4161396920681,-0.17225892841815948,-0.12461283802986145
1772650683784747300,4.428747314453125,0.40544986724853516,-0.0459662564098835,-0.1620272397994995
1772650683794638300,4.438638427734375,0.3721587061882019,-0.046729814261198044,-0.12094775587320328
1772650683804515600,4.448515625,0.4271349310874939,-0.0594048947095871,-0.05772506445646286
1772650683814379000,4.45837890625,0.540905237197876,-0.00030542362947016954,-0.09636115282773972
1772650683824270000,4.46827001953125,0.5642701387405396,-0.13438639044761658,-0.10292776674032211
1772650683834147000,4.47814697265625,0.4868452548980713,-0.4103366434574127,-0.057114217430353165
1772650683844024300,4.4880244140625,0.3871244490146637,-0.6664343476295471,-0.10033166408538818
1772650683853901600,4.497901611328125,0.14767232537269592,-0.9097042679786682,-0.21776704490184784
1772650683863778800,4.50777880859375,-0.15469707548618317,-1.1302201747894287,-0.2848075330257416
1772650683873642200,4.517642333984375,-0.48043137788772583,-1.1868761777877808,-0.26190075278282166
1772650683883533300,4.527533203125,-0.7634063363075256,-1.252847671508789,-0.25502872467041016
1772650683893410600,4.53741064453125,-1.077534556388855,-1.3569971323013306,-0.20692451298236847
1772650683903274000,4.54727392578125,-1.3081294298171997,-1.416249394416809,-0.26755109429359436
1772650683913165000,4.5571650390625,-1.3066022396087646,-1.2814048528671265,-0.42331716418266296
1772650683923042300,4.567042236328125,-1.0776872634887695,-0.9710944294929504,-0.5401417016983032
1772650683932905700,4.57690576171875,-0.7977665066719055,-0.6001574397087097,-0.6160394549369812
1772650683942796800,4.586796875,-0.6184828281402588,-0.1378987729549408,-0.6647545099258423
1772650683952674000,4.596674072265625,-0.5257867574691772,0.2515163719654083,-0.6381826996803284
1772650683962537500,4.606537353515625,-0.4909684956073761,0.5694623589515686,-0.5381564497947693
1772650683972428500,4.616428466796875,-0.4906630516052246,0.7279772162437439,-0.38575005531311035
1772650683982305800,4.626305908203125,-0.533727765083313,0.7855495810508728,-0.22845686972141266
1772650683992169200,4.636169189453125,-0.5913001298904419,0.7930324673652649,-0.09773556143045425
1772650684002060000,4.64606005859375,-0.6134433746337891,0.8151756525039673,-0.037108972668647766
1772650684011937300,4.655937255859375,-0.6230642199516296,0.837471604347229,-0.06184828653931618
1772650684021800700,4.66580078125,-0.6592568755149841,0.7901309132575989,-0.13148486614227295
1772650684031691800,4.67569189453125,-0.717440128326416,0.650094211101532,-0.2501419484615326
1772650684041569000,4.685569091796875,-0.7660024762153625,0.4688252806663513,-0.351542592048645
1772650684051432400,4.695432373046875,-0.8202151656150818,0.3202366828918457,-0.3671191930770874
1772650684061323500,4.705323486328125,-0.834570050239563,0.2098260372877121,-0.33031564950942993
1772650684071200800,4.71520068359375,-0.8228112459182739,0.13270656764507294,-0.2686200737953186
1772650684081078000,4.725078125,-0.8249492049217224,0.05787777900695801,-0.17928366363048553
1772650684090955300,4.734955322265625,-0.8234221339225769,-0.03771981969475746,-0.1107160672545433
1772650684100832300,4.744832275390625,-0.8719844818115234,-0.1785201132297516,-0.05100574716925621
1772650684110696000,4.754696044921875,-0.9405520558357239,-0.30740886926651,-0.009773556143045425
1772650684120586800,4.764586669921875,-0.9613208770751953,-0.395218163728714,0.029320668429136276
1772650684130464000,4.774464111328125,-0.9814788103103638,-0.4631749391555786,0.08307522535324097
1772650684140341200,4.78434130859375,-0.9316948056221008,-0.5065450668334961,0.14889401197433472
1772650684150218500,4.794218505859375,-0.7800519466400146,-0.47798797488212585,0.2086043357849121
1772650684160095700,4.804095703125,-0.5500679612159729,-0.3643703758716583,0.254265159368515
1772650684169959200,4.813959228515625,-0.2596100866794586,-0.168899267911911,0.2779355049133301
1772650684179850200,4.823850341796875,0.09590301662683487,-0.026724567636847496,0.32573428750038147
1772650684189727500,4.8337275390625,0.44698747992515564,-0.03558185324072838,0.47676628828048706
1772650684199591000,4.8435908203125,0.7577560544013977,-0.15744587779045105,0.6952968835830688
1772650684209482000,4.85348193359375,0.9715525507926941,-0.266176700592041,0.798530101776123
1772650684219359200,4.863359130859375,1.0941801071166992,-0.31825143098831177,0.7275190949440002
1772650684229222700,4.87322265625,1.0714260339736938,-0.2901524603366852,0.6096255779266357
1772650684239113500,4.883113525390625,0.857782244682312,-0.07299624383449554,0.5125008225440979
1772650684248990700,4.89299072265625,0.51341712474823,0.11712995916604996,0.3727695345878601
1772650684258868000,4.902867919921875,0.09804098308086395,0.05024218559265137,0.2579302489757538
1772650684268745200,4.9127451171875,-0.34543412923812866,-0.13347013294696808,0.27717193961143494
1772650684278622500,4.92262255859375,-0.7232431769371033,-0.1895153671503067,0.20142687857151031
1772650684288486000,4.93248583984375,-0.9523108601570129,-0.13560809195041656,-0.03833066672086716
1772650684298377000,4.942376953125,-1.0430216789245605,-0.09513945877552032,-0.2363978922367096
1772650684308254200,4.952254150390625,-0.9177979826927185,0.06551336497068405,-0.45385950803756714
1772650684318117600,4.96211767578125,-0.718814492225647,0.22937314212322235,-0.6708629727363586
1772650684328008700,4.9720087890625,-0.4694361090660095,0.29290124773979187,-0.8304468393325806
1772650684337885700,4.9818857421875,-0.15484978258609772,0.39567631483078003,-0.8890882134437561
1772650684347763000,4.991762939453125,0.10353861004114151,0.5653391480445862,-0.8247964978218079
1772650684357640200,5.00164013671875,0.23334364593029022,0.6865923404693604,-0.6923953890800476
1772650684367517400,5.011517333984375,0.256708562374115,0.7308787703514099,-0.5627430081367493
1772650684377380900,5.021380859375,0.2345653474330902,0.7198835015296936,-0.4553866386413574
1772650684387272000,5.03127197265625,0.1632489264011383,0.5877877473831177,-0.3184041380882263
1772650684397149200,5.041149169921875,0.09147437661886215,0.4187358021736145,-0.1328592747449875
1772650684407012600,5.0510126953125,0.10430216789245605,0.3808632791042328,-0.03268032893538475
1772650684416903700,5.060903564453125,0.10124793648719788,0.33321717381477356,-0.020157959312200546
1772650684426781000,5.070781005859375,0.05925218388438225,0.20616094768047333,-0.026877280324697495
1772650684436644400,5.080644287109375,0.023823043331503868,0.10979979485273361,0.06994201242923737
1772650684446535400,5.090535400390625,-0.011911521665751934,0.09177979826927185,0.21181128919124603
1772650684456412400,5.100412353515625,-0.0328330397605896,0.10231691598892212,0.284654825925827
1772650684466276000,5.110276123046875,-0.024128466844558716,0.06719319522380829,0.26098448038101196
1772650684476167000,5.1201669921875,-0.0035123717971146107,0.04321744292974472,0.14156384766101837
1772650684486044200,5.130044189453125,0.010537114925682545,0.001374406274408102,-0.03787253051996231
1772650684495907600,5.139907470703125,-0.02993151545524597,-0.041384901851415634,-0.23929941654205322
1772650684505798700,5.149798583984375,-0.11865708231925964,-0.08063183724880219,-0.39170581102371216
1772650684515676000,5.159676025390625,-0.26464956998825073,-0.18997350335121155,-0.38605546951293945
1772650684525539300,5.169539306640625,-0.3811686933040619,-0.20784078538417816,-0.2698417901992798
1772650684535430400,5.179430419921875,-0.45202696323394775,-0.1889045089483261,-0.10613471269607544
1772650684545307600,5.1893076171875,-0.448820024728775,-0.1629435122013092,0.07085828483104706
1772650684555185000,5.199184814453125,-0.3602471649646759,-0.1047603040933609,0.21822518110275269
1772650684565062100,5.209062255859375,-0.18523943424224854,0.016187451779842377,0.27197974920272827
1772650684574939100,5.218939208984375,0.015271181240677834,0.14553436636924744,0.2495311051607132
1772650684584816400,5.22881640625,0.208298921585083,0.23364907503128052,0.15378080308437347
1772650684594693600,5.238693603515625,0.3721587061882019,0.26907822489738464,-0.03130592033267021
1772650684604571000,5.24857080078125,0.5416688323020935,0.3318427801132202,-0.25747212767601013
1772650684614448000,5.2584482421875,0.7230904698371887,0.43385425209999084,-0.462564080953598
1772650684624325400,5.268325439453125,0.7997517585754395,0.5706840753555298,-0.6270347237586975
1772650684634202600,5.27820263671875,0.7125533223152161,0.5661026835441589,-0.6789567470550537
1772650684644066000,5.288066162109375,0.6372663974761963,0.3339807391166687,-0.6218425035476685
1772650684653957000,5.29795703125,0.6079457402229309,0.06963659077882767,-0.5265503525733948
1772650684663834400,5.30783447265625,0.6459710001945496,-0.14095300436019897,-0.4659237563610077
1772650684673697800,5.31769775390625,0.504865288734436,-0.23929941654205322,-0.3199312388896942
1772650684683588900,5.3275888671875,0.5140279531478882,-0.265718549489975,-0.27686652541160583
1772650684693465900,5.3374658203125,0.5335750579833984,-0.12155860662460327,-0.25808295607566833
1772650684703329500,5.34732958984375,0.6236750483512878,0.23716144263744354,-0.19394400715827942
1772650684713220400,5.357220458984375,0.7484406232833862,0.786771297454834,-0.08796200156211853
1772650684723097600,5.36709765625,0.856407880783081,1.3965495824813843,0.17775654792785645
1772650684732961000,5.3769609375,0.9631534218788147,1.8268914222717285,0.6719319820404053
1772650684742852000,5.38685205078125,1.0401201248168945,2.0170176029205322,1.1024266481399536
1772650684752729300,5.396729248046875,0.8327375054359436,2.258913278579712,1.3890666961669922
1772650684762592800,5.4065927734375,0.872137188911438,2.580829620361328,1.6735687255859375
1772650684772483800,5.41648388671875,0.9066500663757324,2.360161066055298,1.872857689857483
1772650684782360800,5.42636083984375,0.716829240322113,1.1650384664535522,2.016406774520874
1772650684792224500,5.436224609375,0.4062134325504303,0.0719272643327713,1.7251853942871094
1772650684802115300,5.446115234375,0.24998924136161804,-0.3035911023616791,0.9524635672569275
1772650684811992600,5.45599267578125,0.23929941654205322,-0.279920756816864,0.24479703605175018
1772650684821856000,5.46585595703125,0.22219568490982056,-0.29229041934013367,-0.033596597611904144
1772650684831747000,5.4757470703125,0.17867282032966614,-0.40285375714302063,-0.05497625470161438
1772650684841624300,5.485624267578125,0.20875705778598785,-0.34070006012916565,-0.09452861547470093
1772650684851501600,5.49550146484375,0.25121092796325684,-0.333064466714859,-0.06154286116361618
1772650684861378600,5.505378662109375,0.29290124773979187,-0.3837648034095764,0.045355409383773804
1772650684871255800,5.515255859375,0.36452311277389526,-0.34604495763778687,0.11117420345544815
1772650684881133000,5.525133056640625,0.42514967918395996,-0.2820587158203125,0.13713520765304565
1772650684891010300,5.53501025390625,0.43263256549835205,-0.25945737957954407,0.18187977373600006
1772650684900887600,5.544887451171875,0.41293275356292725,-0.23655059933662415,0.25777754187583923
1772650684910751000,5.5547509765625,0.3715478479862213,-0.2435753494501114,0.4049917459487915
1772650684920642000,5.56464208984375,0.3080197274684906,-0.28908345103263855,0.5525113344192505
1772650684930519300,5.574519287109375,0.24754585325717926,-0.22906772792339325,0.611152708530426
1772650684940382700,5.5843828125,0.1525591015815735,-0.21959958970546722,0.5903838872909546
1772650684950273800,5.594273681640625,0.03558185324072838,-0.22372281551361084,0.5286883115768433
1772650684960151000,5.604151123046875,-0.039857782423496246,-0.18966807425022125,0.45615020394325256
1772650684970014500,5.614014404296875,-0.10705098509788513,-0.10155335813760757,0.34726667404174805
1772650684979905300,5.6239052734375,-0.1372879147529602,-0.009468132629990578,0.21562908589839935
1772650684989782500,5.633782470703125,-0.15775130689144135,0.11804623156785965,0.11499200016260147
1772650684999646000,5.64364599609375,-0.19180603325366974,0.26342788338661194,0.08719844371080399
1772650685009537000,5.653537109375,-0.23242738842964172,0.4196520745754242,0.09315420687198639
1772650685019414300,5.663414306640625,-0.3196258246898651,0.5322006940841675,0.09513945877552032
1772650685029277700,5.673277587890625,-0.49677154421806335,0.5027272701263428,0.1710372269153595
1772650685039168800,5.683168701171875,-0.7401941418647766,0.43110546469688416,0.30969956517219543
1772650685049046000,5.6930458984375,-1.0295830965042114,0.28160059452056885,0.41079479455947876
1772650685058909400,5.702909423828125,-1.339435338973999,0.030847785994410515,0.43293800950050354
1772650685068800300,5.71280029296875,-1.641957402229309,-0.24220094084739685,0.3310792148113251
1772650685078677500,5.722677490234375,-1.864611268043518,-0.5170822143554688,0.16737215220928192
1772650685088554800,5.7325546875,-1.992889165878296,-0.7627955079078674,0.08612946420907974
1772650685098432000,5.742431884765625,-2.004647970199585,-0.9538379907608032,-0.018936265259981155
1772650685108309200,5.752309326171875,-1.9466174840927124,-0.8854231238365173,-0.14629791676998138
1772650685118172700,5.762172607421875,-1.849950909614563,-0.6615476012229919,-0.1948602795600891
1772650685128063700,5.772063720703125,-1.7742059230804443,-0.4471401870250702,-0.16050012409687042
1772650685137941000,5.78194091796875,-1.7216730117797852,-0.3396310806274414,-0.024433890357613564
1772650685147818200,5.791818359375,-1.7035002708435059,-0.41354358196258545,0.1501157134771347
1772650685157695200,5.8016953125,-1.7317520380020142,-0.5308262705802917,0.2782409191131592
1772650685167572500,5.811572509765625,-1.7065545320510864,-0.5720584392547607,0.32512345910072327
1772650685177436000,5.821435791015625,-1.6738742589950562,-0.5604523420333862,0.36788275837898254
1772650685187327000,5.831326904296875,-1.6845639944076538,-0.5760289430618286,0.44576579332351685
1772650685197204200,5.841204345703125,-1.5874392986297607,-0.5625903010368347,0.48547086119651794
1772650685207081500,5.85108154296875,-1.4765704870224,-0.5572454333305359,0.4546230733394623
1772650685216958700,5.860958740234375,-1.3507360219955444,-0.5560237169265747,0.32695600390434265
1772650685226836000,5.8708359375,-1.1039537191390991,-0.39384377002716064,0.11667182296514511
1772650685236699400,5.880699462890625,-0.7166765332221985,-0.03634541109204292,-0.12064233422279358
1772650685246590500,5.890590576171875,-0.35978904366493225,0.29061058163642883,-0.24189551174640656
1772650685256467700,5.9004677734375,-0.10582929104566574,0.4146125912666321,-0.09636115282773972
1772650685266331100,5.9103310546875,-0.0659715011715889,0.48760882019996643,0.2802261710166931
1772650685276222000,5.920221923828125,-0.06169557198882103,0.6024481058120728,0.6247440576553345
1772650685286099200,5.93009912109375,-0.05421269312500954,0.6975875496864319,0.7475243210792542
1772650685295962600,5.939962646484375,-0.17454960942268372,0.5515950918197632,0.8490777015686035
1772650685305853700,5.949853759765625,-0.3901786804199219,0.31000497937202454,0.9715525507926941
1772650685315731000,5.95973095703125,-0.5864133834838867,0.16645587980747223,0.9828532338142395
1772650685325594400,5.969594482421875,-0.7261446714401245,0.1704263836145401,0.7641699314117432
1772650685335485400,5.9794853515625,-0.7979192137718201,0.1913478970527649,0.4011739492416382
1772650685345362700,5.98936279296875,-0.8209787011146545,0.15652960538864136,0.10033166408538818
1772650685355226000,5.99922607421875,-0.7782194018363953,0.16676130890846252,-0.08796200156211853
1772650685365117000,6.009116943359375,-0.6969767212867737,0.15866757929325104,-0.15484978258609772
1772650685374994200,6.018994140625,-0.6397097706794739,0.016492875292897224,-0.12720894813537598
1772650685384857600,6.028857666015625,-0.5308262705802917,-0.0787992998957634,-0.06306997686624527
1772650685394748700,6.038748779296875,-0.36666107177734375,-0.06734590977430344,-0.04443913698196411
1772650685404626000,6.0486259765625,-0.20188501477241516,-0.029473381116986275,-0.08276980370283127
1772650685414489300,6.0584892578125,-0.05070032179355621,0.02748812735080719,-0.16065283119678497
1772650685424380400,6.06838037109375,0.09804098308086395,0.08796200156211853,-0.2518217861652374
1772650685434257700,6.078257568359375,0.22738789021968842,0.16645587980747223,-0.3083251416683197
1772650685444134700,6.088134765625,0.34696123003959656,0.2513636350631714,-0.3524588644504547
1772650685454012000,6.098011962890625,0.37170055508613586,0.2583884000778198,-0.3868190348148346
1772650685463889200,6.10788916015625,0.3503209054470062,0.18218518793582916,-0.40422818064689636
1772650685473752600,6.117752685546875,0.2918322682380676,0.05726693198084831,-0.3936910629272461
1772650685483643600,6.1276435546875,0.1985253542661667,-0.08383878320455551,-0.33688226342201233
1772650685493521000,6.13752099609375,0.10033166408538818,-0.19898349046707153,-0.26755109429359436
1772650685503384300,6.14738427734375,-0.003970507066696882,-0.3220692276954651,-0.19424942135810852
1772650685513275400,6.157275390625,-0.11545012891292572,-0.4330907166004181,-0.08139539510011673
1772650685523152600,6.167152587890625,-0.20035789906978607,-0.48989951610565186,0.051463883370161057
1772650685533016000,6.17701611328125,-0.21715620160102844,-0.3996468186378479,0.12033691257238388
1772650685542907000,6.186906982421875,-0.18004722893238068,-0.2501419484615326,0.12797249853610992
1772650685552784100,6.1967841796875,-0.13026317954063416,-0.14751961827278137,0.0850604772567749
1772650685562647600,6.2066474609375,-0.08338065445423126,-0.091321662068367,0.0068720318377017975
1772650685572538600,6.21653857421875,-0.06322269141674042,-0.012980503961443901,-0.10766182839870453
1772650685582416000,6.226415771484375,-0.033596597611904144,0.010689826682209969,-0.183865025639534
1772650685592279300,6.236279296875,-0.05329642444849014,0.09941539168357849,-0.24494975805282593
1772650685602170400,6.24617041015625,-0.03542914241552353,0.10094250738620758,-0.21868331730365753
1772650685612047400,6.25604736328125,-0.02092151902616024,0.02244863659143448,-0.05757235363125801
1772650685621911000,6.2659111328125,0.009468132629990578,-0.1360662281513214,0.15714046359062195
1772650685631801900,6.2758017578125,0.06704048812389374,-0.2845021188259125,0.2958027720451355
1772650685641679000,6.28567919921875,0.16111096739768982,-0.386208176612854,0.335507869720459
1772650685651556400,6.295556396484375,0.2651077210903168,-0.4234698712825775,0.32222193479537964
1772650685661433600,6.30543359375,0.3542914092540741,-0.41980478167533875,0.314586341381073
1772650685671310800,6.315310791015625,0.40850409865379333,-0.37444937229156494,0.36284327507019043
1772650685681188000,6.32518798828125,0.4500417113304138,-0.3512371778488159,0.4631749391555786
1772650685691065300,6.3350654296875,0.4367557764053345,-0.4124746024608612,0.6186355352401733
1772650685700942600,6.344942626953125,0.37704548239707947,-0.5016583204269409,0.8037222623825073
1772650685710819600,6.354819580078125,0.3130592107772827,-0.5279247164726257,0.9842276573181152
1772650685720696800,6.36469677734375,0.275186687707901,-0.4731011986732483,1.1231954097747803
1772650685730574000,6.374573974609375,0.2904578745365143,-0.37444937229156494,1.2317734956741333
1772650685740437500,6.3844375,0.35474956035614014,-0.18218518793582916,1.261246919631958
1772650685750328600,6.39432861328125,0.44607120752334595,-0.10384403169155121,1.1981768608093262
1772650685760205800,6.404205810546875,0.5013529062271118,-0.0781884491443634,1.122584581375122
1772650685770069200,6.4140693359375,0.5450284481048584,-0.0459662564098835,0.9910996556282043
1772650685779960300,6.423960205078125,0.6597150564193726,0.22036315500736237,0.7522584199905396
1772650685789837300,6.43383740234375,0.855491578578949,0.6137487888336182,0.3573456406593323
1772650685799701000,6.443700927734375,1.0405782461166382,1.0303466320037842,-0.0522274412214756
1772650685809591800,6.453591796875,1.1335798501968384,1.475196123123169,-0.48455458879470825
1772650685819469000,6.463468994140625,1.1172395944595337,1.734500765800476,-0.7925743460655212
1772650685829332500,6.47333251953125,1.3369919061660767,2.3009088039398193,-1.1155598163604736
1772650685839223600,6.4832236328125,1.485275149345398,3.6232404708862305,-1.3785295486450195
1772650685849100800,6.493100830078125,1.2934690713882446,3.760375738143921,-0.3949127495288849
1772650685858964200,6.502964111328125,0.9051229357719421,1.8809514045715332,1.0654703378677368
1772650685868855000,6.51285498046875,0.5285356044769287,0.29259583353996277,1.6711254119873047
1772650685878732300,6.522732177734375,0.4627167880535126,0.18523943424224854,1.1273186206817627
1772650685888595700,6.532595703125,0.6699467301368713,0.5931326746940613,0.6091674566268921
1772650685898486800,6.54248681640625,0.7519529461860657,0.223264679312706,0.6152759194374084
1772650685908364000,6.552364013671875,0.689341127872467,-0.569004237651825,0.5590779781341553
1772650685918227500,6.5622275390625,0.7346965670585632,-0.45202696323394775,0.16783028841018677
1772650685928118500,6.572118408203125,0.7873821258544922,0.04428642615675926,-0.2017323076725006
1772650685937995500,6.58199560546875,0.6490252017974854,0.1238492801785469,-0.23624517023563385
1772650685947872800,6.591872802734375,0.47264307737350464,0.015576604753732681,-0.14782503247261047
1772650685957750000,6.60175,0.3312319219112396,-0.11056335270404816,-0.06902574002742767
1772650685967627300,6.611627197265625,0.23273280262947083,-0.19989976286888123,0.011911521665751934
1772650685977504500,6.62150439453125,0.1951656937599182,-0.21058958768844604,0.10094250738620758
1772650685987381800,6.6313818359375,0.15973655879497528,-0.2987042963504791,0.20814619958400726
1772650685997259000,6.641259033203125,0.09147437661886215,-0.5709894895553589,0.3139754831790924
1772650686007122400,6.651122314453125,0.031916771084070206,-0.8021951913833618,0.4140017330646515
1772650686017013200,6.66101318359375,0.007941014133393764,-0.862669050693512,0.5326588153839111
1772650686026890500,6.670890380859375,0.006413896102458239,-0.8211314082145691,0.6232169270515442
1772650686036754000,6.68075390625,0.00259610079228878,-0.7748597264289856,0.6598677635192871
1772650686046645000,6.69064501953125,-0.027182703837752342,-0.7401941418647766,0.5818319916725159
1772650686056522200,6.700522216796875,-0.037414394319057465,-0.7769976854324341,0.4825693368911743
1772650686066385700,6.7103857421875,-0.07971556484699249,-0.790436327457428,0.43919917941093445
1772650686076276500,6.7202763671875,-0.14034216105937958,-0.7029324769973755,0.37261682748794556
1772650686086153700,6.73015380859375,-0.17531315982341766,-0.5395308136940002,0.2620534598827362
1772650686096017200,6.74001708984375,-0.1623326539993286,-0.2907632887363434,0.09941539168357849
1772650686105908200,6.749908203125,-0.129499614238739,-0.04810422286391258,-0.0662769302725792
1772650686115785500,6.759785400390625,-0.10674555599689484,0.05528167635202408,-0.18707197904586792
1772650686125649000,6.76964892578125,-0.10964708030223846,0.12003148347139359,-0.30572906136512756
1772650686135540000,6.7795400390625,-0.14018943905830383,0.13087402284145355,-0.36879903078079224
1772650686145417000,6.7894169921875,-0.23425991833209991,0.06795676052570343,-0.3972034156322479
1772650686155280600,6.79928076171875,-0.34405970573425293,-0.04856235533952713,-0.44362783432006836
1772650686165171500,6.80917138671875,-0.4871506989002228,-0.1985253542661667,-0.5131117105484009
1772650686175048700,6.819048583984375,-0.6646018028259277,-0.34039464592933655,-0.5801522135734558
1772650686184912100,6.828912109375,-0.8205205798149109,-0.3834593594074249,-0.6784985661506653
1772650686194803200,6.83880322265625,-0.9484930634498596,-0.34604495763778687,-0.8177717924118042
1772650686204680400,6.848680419921875,-1.0466867685317993,-0.29381752014160156,-0.9521581530570984
1772650686214557700,6.8585576171875,-1.1048699617385864,-0.24128466844558716,-1.0553913116455078
1772650686224435000,6.86843505859375,-1.106549859046936,-0.16645587980747223,-1.1532796621322632
1772650686234312000,6.87831201171875,-1.0899041891098022,-0.12858334183692932,-1.2264286279678345
1772650686244175600,6.888175537109375,-1.054322361946106,-0.14095300436019897,-1.2945380210876465
1772650686254066400,6.89806640625,-1.0147700309753418,-0.2098260372877121,-1.3230952024459839
1772650686263943700,6.907943603515625,-0.9286405444145203,-0.40636613965034485,-1.3258439302444458
1772650686273821000,6.917821044921875,-0.9223793745040894,-0.5789304971694946,-1.3052278757095337
1772650686283698200,6.9276982421875,-0.9565867781639099,-0.7959339618682861,-1.1997040510177612
1772650686293575400,6.937575439453125,-0.9535325765609741,-0.9101623892784119,-1.0691354274749756
1772650686303438800,6.94743896484375,-0.9310839176177979,-0.8919897079467773,-0.9232956171035767
1772650686313329700,6.95732958984375,-0.8545753359794617,-0.8020424246788025,-0.7858549952507019
1772650686323207000,6.96720703125,-0.7802046537399292,-0.6606312990188599,-0.6438329815864563
1772650686333070300,6.9770703125,-0.6807892918586731,-0.4756973087787628,-0.5065450668334961
1772650686342961400,6.98696142578125,-0.5395308136940002,-0.22708246111869812,-0.3836120665073395
1772650686352838700,6.996838623046875,-0.3808632791042328,-0.013591351918876171,-0.21318569779396057
1772650686362702000,7.0067021484375,-0.2020377367734909,0.2611372172832489,0.042453885078430176
1772650686372593200,7.01659326171875,0.06490252166986465,0.6511631608009338,0.35887277126312256
1772650686382470100,7.02647021484375,0.4622586667537689,1.276976227760315,0.5419742465019226
1772650686392333600,7.03633349609375,0.8438854813575745,1.6957119703292847,0.6250494718551636
1772650686402224600,7.046224609375,0.9846857786178589,1.677844762802124,0.6507050395011902
1772650686412102000,7.056101806640625,0.7551599144935608,1.1871815919876099,0.7896727919578552
1772650686421965300,7.06596533203125,0.1579040139913559,0.36849361658096313,1.2377293109893799
1772650686431856400,7.0758564453125,-0.4330907166004181,-0.3202366828918457,1.2575818300247192
1772650686441733600,7.085733642578125,-0.8776348233222961,-0.564728319644928,0.9462023973464966
1772650686451597000,7.09559716796875,-1.28018319606781,-0.778982937335968,0.5899257659912109
1772650686461487900,7.10548779296875,-1.493826985359192,-0.9906415343284607,0.28037887811660767
1772650686471365000,7.115365234375,-1.4787085056304932,-0.9660549163818359,0.01847812905907631
1772650686481228500,7.125228515625,-1.2371183633804321,-0.6642963886260986,-0.20555010437965393
1772650686491119600,7.13511962890625,-0.8689302206039429,-0.3049654960632324,-0.3949127495288849
1772650686500996900,7.144996826171875,-0.5239542126655579,-0.043981000781059265,-0.4900522232055664
1772650686510860300,7.1548603515625,-0.19867807626724243,0.09345962852239609,-0.47951510548591614
1772650686520751400,7.16475146484375,0.046577103435993195,0.1304158866405487,-0.4372139275074005
1772650686530628400,7.17462841796875,0.18539214134216309,0.12033691257238388,-0.420873761177063
1772650686540505600,7.184505615234375,0.2985515892505646,0.23792500793933868,-0.3903313875198364
1772650686550382800,7.1943828125,0.3567348122596741,0.3655920922756195,-0.43706122040748596
1772650686560260000,7.204260009765625,0.36314868927001953,0.41827765107154846,-0.5416688323020935
1772650686570137300,7.214137451171875,0.3423798978328705,0.430341899394989,-0.6077930331230164
1772650686580014600,7.2240146484375,0.28343313932418823,0.393385648727417,-0.6180247068405151
1772650686589891600,7.2338916015625,0.19913621246814728,0.21120044589042664,-0.6267293095588684
1772650686599755300,7.24375537109375,0.14797775447368622,-0.08017370104789734,-0.6065713167190552
1772650686609646000,7.25364599609375,0.145687073469162,-0.30374380946159363,-0.49448084831237793
1772650686619523300,7.2635234375,0.14217470586299896,-0.45233240723609924,-0.30664533376693726
1772650686629386800,7.27338671875,0.12430741637945175,-0.6048914790153503,-0.08811471611261368
1772650686639277800,7.28327783203125,0.08704573661088943,-0.7721109390258789,0.1360662281513214
1772650686649155000,7.293155029296875,0.05512896552681923,-0.8550334572792053,0.29290124773979187
1772650686659018500,7.3030185546875,0.04825693368911743,-0.8269344568252563,0.37796175479888916
1772650686668909300,7.312909423828125,0.06459710001945496,-0.7316423058509827,0.4074351191520691
1772650686678786600,7.32278662109375,0.07559234648942947,-0.6303943991661072,0.3695625960826874
1772650686688650000,7.33264990234375,0.08154810965061188,-0.5080721974372864,0.2921377122402191
1772650686698541000,7.342541015625,0.09437590092420578,-0.34314343333244324,0.19989976286888123
1772650686708418300,7.352418212890625,0.09330692142248154,-0.1704263836145401,0.09239064902067184
1772650686718281700,7.36228173828125,0.09284878522157669,-0.007177455350756645,0.00992626789957285
1772650686728172800,7.3721728515625,0.07971556484699249,0.1298050433397293,-0.012980503961443901
1772650686738050000,7.382050048828125,0.04199574887752533,0.217308908700943,0.041232191026210785
1772650686747913500,7.39191357421875,0.025502873584628105,0.25411245226860046,0.14828316867351532
1772650686757804300,7.40180419921875,0.03298575058579445,0.2411319613456726,0.2985515892505646
1772650686767681500,7.411681640625,0.07666133344173431,0.18126893043518066,0.47172680497169495
1772650686777558800,7.421558837890625,0.16309621930122375,0.12629267573356628,0.5853443741798401
1772650686787436000,7.43143603515625,0.17622943222522736,0.0725381150841713,0.6389462351799011
1772650686797313300,7.441313232421875,0.2495311051607132,0.05894676223397255,0.6120689511299133
1772650686807190500,7.4511904296875,0.3118375241756439,0.09300149232149124,0.5351021885871887
1772650686817067500,7.461067626953125,0.35917818546295166,0.13896775245666504,0.48333290219306946
1772650686826944800,7.47094482421875,0.3889569938182831,0.16798299551010132,0.4352286756038666
1772650686836822000,7.480822021484375,0.3778090178966522,0.1178935244679451,0.3503209054470062
1772650686846699300,7.49069921875,0.3321481943130493,0.007635590620338917,0.2423536479473114
1772650686856576500,7.500576416015625,0.2904578745365143,-0.072232685983181,0.130721315741539
1772650686866440000,7.51043994140625,0.2557922899723053,-0.11835165321826935,0.014507622458040714
1772650686876331000,7.5203310546875,0.2518217861652374,-0.14064757525920868,-0.1122431829571724
1772650686886208300,7.530208251953125,0.17088451981544495,-0.2223484069108963,-0.1772984117269516
1772650686896071700,7.54007177734375,0.17958909273147583,-0.237008735537529,-0.18035265803337097
1772650686905962500,7.54996240234375,0.3880407214164734,-0.001374406274408102,-0.27946263551712036
1772650686915839700,7.55983984375,0.6552863717079163,0.3561239540576935,-0.4950917065143585
1772650686925703200,7.569703125,0.897334635257721,0.7721109390258789,-0.800515353679657
1772650686935594200,7.57959423828125,1.1917630434036255,1.2942326068878174,-1.2140588760375977
1772650686945471500,7.589471435546875,1.391815423965454,1.8840056657791138,-1.4634373188018799
1772650686955335000,7.5993349609375,1.5191770792007446,2.5651004314422607,-1.1845855712890625
1772650686965226000,7.60922607421875,1.5397932529449463,2.8502132892608643,-0.5196782946586609
1772650686975103000,7.61910302734375,1.2375766038894653,2.279834747314453,0.5372401475906372
1772650686984966400,7.62896630859375,1.035386085510254,2.236769914627075,1.3000357151031494
1772650686994857500,7.638857421875,1.0295830965042114,2.4023096561431885,1.525896430015564
1772650687004734700,7.648734619140625,0.9775083065032959,1.7009042501449585,1.5953803062438965
1772650687014598100,7.65859814453125,0.3561239540576935,0.5123481154441833,1.7369441986083984
1772650687024489200,7.6684892578125,-0.06841489672660828,-0.596492350101471,1.5228421688079834
1772650687034366200,7.6783662109375,0.024586603045463562,-0.393385648727417,0.6914790868759155
1772650687044230000,7.68822998046875,0.19409671425819397,0.06642963737249374,-0.10903623700141907
1772650687054120700,7.69812060546875,0.11117420345544815,-0.44103172421455383,-0.49112120270729065
1772650687063998000,7.707998046875,0.005497625097632408,-0.9040539264678955,-0.615428626537323
1772650687073861400,7.717861328125,0.11499200016260147,-0.7907418012619019,-0.536629319190979
1772650687083752400,7.72775244140625,0.381474107503891,-0.40972578525543213,-0.46729815006256104
1772650687093629700,7.737629638671875,0.6490252017974854,-0.0459662564098835,-0.36910444498062134
1772650687103493000,7.7474931640625,0.8171609044075012,0.07925742864608765,-0.04611896723508835
1772650687113384000,7.757384033203125,0.846939742565155,-0.09009996801614761,0.3035911023616791
1772650687123261200,7.76726123046875,0.7776085734367371,-0.38575005531311035,0.5456393361091614
1772650687133124600,7.77712451171875,0.670404851436615,-0.5833591222763062,0.7430956959724426
1772650687143015700,7.787015625,0.49020493030548096,-0.6766660213470459,0.9136747717857361
1772650687152893000,7.796892822265625,0.2495311051607132,-0.546097457408905,0.9556705355644226
1772650687162756400,7.80675634765625,0.05115845799446106,-0.36253786087036133,0.7562289237976074
1772650687172647200,7.816647216796875,-0.10552386194467545,-0.23441264033317566,0.3614688515663147
1772650687182524400,7.8265244140625,-0.16050012409687042,-0.09651386737823486,-0.16156910359859467
1772650687192387800,7.836387939453125,-0.058183200657367706,0.05543438717722893,-0.7113316059112549
1772650687202279000,7.84627880859375,-0.07696675509214401,0.15683503448963165,-1.0566130876541138
1772650687212156200,7.85615625,-0.0725381150841713,0.2858765125274658,-1.1798515319824219
1772650687222019600,7.86601953125,-0.09559759497642517,0.4297310411930084,-1.1364812850952148
1772650687231910700,7.87591064453125,-0.10017894953489304,0.5273138880729675,-0.9126058220863342
1772650687241788000,7.885787841796875,-0.12675081193447113,0.6717792749404907,-0.647803544998169
1772650687251651300,7.8956513671875,-0.24128466844558716,0.6285618543624878,-0.33474430441856384
1772650687261542100,7.905542236328125,-0.4014793634414673,0.5241069197654724,-0.0653606578707695
1772650687271419400,7.91541943359375,-0.5354076027870178,0.4859289824962616,-0.006719320081174374
1772650687291174000,7.935173828125,-0.7519529461860657,0.5329642295837402,-0.41919392347335815
1772650687301051100,7.945051025390625,-0.8493831157684326,0.5445703268051147,-0.7264500856399536
1772650687310914600,7.95491455078125,-0.8968765139579773,0.6134433746337891,-0.9119949340820312
1772650687320805600,7.9648056640625,-1.0016367435455322,0.5154023766517639,-1.061499834060669
1772650687330682600,7.9746826171875,-1.0031639337539673,0.41827765107154846,-1.1456440687179565
1772650687340546300,7.98454638671875,-0.9643751382827759,0.37170055508613586,-1.093263864517212
1772650687350437000,7.99443701171875,-0.9379559755325317,0.20402298867702484,-0.9237537384033203
1772650687360314400,8.004314453125,-0.9254335761070251,-0.10644013434648514,-0.7595885396003723
1772650687370191600,8.014191650390625,-0.9148964881896973,-0.3962871730327606,-0.6568135023117065
1772650687380068900,8.02406884765625,-0.9127585291862488,-0.6067240238189697,-0.5839699506759644
1772650687389945900,8.03394580078125,-0.9265025854110718,-0.7244648337364197,-0.48272204399108887
1772650687399809500,8.0438095703125,-0.9393303990364075,-0.7763868570327759,-0.34512871503829956
1772650687409700400,8.053700439453126,-0.9576557874679565,-0.7678350210189819,-0.19119518995285034
1772650687419577600,8.06357763671875,-0.9952229261398315,-0.726908266544342,-0.042453885078430176
1772650687429441000,8.07344091796875,-1.051726222038269,-0.6676560640335083,0.05543438717722893
1772650687439332000,8.08333203125,-1.090820550918579,-0.5320479869842529,0.13331741094589233
1772650687449209300,8.093209228515626,-1.183211088180542,-0.4853181540966034,0.1620272397994995
1772650687459072800,8.10307275390625,-1.2409361600875854,-0.5711421966552734,0.16737215220928192
1772650687468963600,8.112963623046875,-1.2096302509307861,-0.7666133046150208,0.16599774360656738
1772650687478840800,8.1228408203125,-1.0066763162612915,-0.7501204609870911,0.07666133344173431
1772650687488704300,8.132704345703125,-0.5958815217018127,-0.40544986724853516,-0.06429167091846466
1772650687498595300,8.14259521484375,-0.15469707548618317,-0.009468132629990578,-0.09895725548267365
1772650687508472600,8.15247265625,0.2339545041322708,0.31687700748443604,-0.012369656935334206
1772650687518336000,8.1623359375,0.5583143830299377,0.5604523420333862,0.02214321307837963
1772650687528227000,8.17222705078125,0.8021951913833618,0.7314895987510681,0.0459662564098835
1772650687538104300,8.182104248046874,0.948034942150116,0.6749862432479858,0.12400199472904205
1772650687547967700,8.1919677734375,0.9139801859855652,0.4599680006504059,0.027029991149902344
1772650687557858600,8.201858642578125,0.5919110178947449,-0.04016320779919624,-0.11453386396169662
1772650687567735800,8.21173583984375,0.08246438205242157,-0.6571189165115356,-0.04428642615675926
1772650687577599200,8.22159912109375,-0.4381301999092102,-1.0460759401321411,0.2020377367734909
1772650687587490300,8.231490234375,-0.7805100679397583,-0.9413156509399414,0.31657159328460693
1772650687597367600,8.241367431640626,-0.9321529269218445,-0.7660024762153625,0.2826695740222931
1772650687607231000,8.25123095703125,-0.9605573415756226,-0.6606312990188599,0.22647161781787872
1772650687617121800,8.261121826171875,-0.8148702383041382,-0.5166240930557251,0.15988926589488983
1772650687626999000,8.2709990234375,-0.553274929523468,-0.39598172903060913,0.072232685983181
1772650687636876300,8.280876220703124,-0.27656111121177673,-0.20661908388137817,-0.027793550863862038
1772650687646753500,8.29075341796875,-0.057114217430353165,-0.014049487188458443,0.01435491070151329
1772650687656630800,8.300630859375,0.09972081333398819,0.17363333702087402,0.16340164840221405
1772650687666507800,8.3105078125,0.1772984117269516,0.2551814317703247,0.27564483880996704
1772650687676385000,8.320385009765625,0.23838314414024353,0.17913095653057098,0.3164188861846924
1772650687686262300,8.33026220703125,0.2495311051607132,0.07360709458589554,0.2967190444469452
1772650687696139500,8.340139404296876,0.2770192325115204,0.050394900143146515,0.19821994006633759
1772650687706016800,8.350016845703125,0.2930539846420288,0.034818295389413834,0.05894676223397255
1772650687715894000,8.35989404296875,0.28496024012565613,-0.04856235533952713,-0.05772506445646286
1772650687725757400,8.36975732421875,0.284654825925827,-0.1325538605451584,-0.11056335270404816
1772650687735648300,8.379648193359374,0.3115321099758148,-0.1682884246110916,-0.08338065445423126
1772650687745525500,8.389525390625,0.34543412923812866,-0.1682884246110916,0.025197450071573257
1772650687755389000,8.399388916015624,0.377198189496994,-0.2041756957769394,0.19867807626724243
1772650687765280000,8.409280029296875,0.4017847776412964,-0.27533939480781555,0.3984251320362091
1772650687775157200,8.4191572265625,0.4164451062679291,-0.36574479937553406,0.5841227173805237
1772650687785020700,8.429020751953125,0.4052971601486206,-0.4503471553325653,0.7414158582687378
1772650687794911700,8.438911865234376,0.35566580295562744,-0.5270084738731384,0.8486195802688599
1772650687804788700,8.448788818359375,0.3032856583595276,-0.5610632300376892,0.8814526200294495
1772650687814652200,8.458652099609376,0.24189551174640656,-0.548082709312439,0.8495358228683472
1772650687824543200,8.468543212890625,0.18936264514923096,-0.5433486104011536,0.7244648337364197
1772650687834420500,8.47842041015625,0.1372879147529602,-0.5622848868370056,0.5315898060798645
1772650687844284000,8.488283935546875,0.018783552572131157,-0.5847335457801819,0.3521534502506256
1772650687854175000,8.498175048828125,-0.15210096538066864,-0.5981721878051758,0.2641914486885071
1772650687864052200,8.50805224609375,-0.28786176443099976,-0.5570927262306213,0.2916795611381531
1772650687873915600,8.51791552734375,-0.3387148082256317,-0.47539186477661133,0.429883748292923
1772650687883806500,8.527806396484374,-0.36727190017700195,-0.4271349310874939,0.6387935280799866
1772650687893683700,8.53768359375,-0.335507869720459,-0.42698222398757935,0.8521319031715393
1772650687903561000,8.54756103515625,-0.22097399830818176,-0.4558447599411011,0.9912523627281189
1772650687913438200,8.557438232421875,-0.07375980913639069,-0.5123481154441833,1.019656777381897
1772650687923315500,8.5673154296875,0.060932014137506485,-0.5914528369903564,0.9880454540252686
1772650687933192700,8.577192626953124,0.18844637274742126,-0.6074876189231873,0.9504783153533936
1772650687943069700,8.587069580078126,0.3148917555809021,-0.5708367824554443,0.8704573512077332
1772650687952947000,8.596947021484375,0.41018393635749817,-0.5877877473831177,0.7207997441291809
1772650687962824200,8.60682421875,0.4424061179161072,-0.5888567566871643,0.6281036734580994
1772650687972701400,8.616701416015625,0.4240806996822357,-0.6413896083831787,0.6444438695907593
1772650687982578700,8.62657861328125,0.3361186981201172,-0.7062921524047852,0.70797199010849
1772650687992442000,8.636442138671875,0.2157817929983139,-0.7568397521972656,0.760657548904419
1772650688002333200,8.646333251953125,0.11529742181301117,-0.7591304183006287,0.7907418012619019
1772650688012210200,8.656210205078125,0.02489202655851841,-0.7148439884185791,0.756381630897522
1772650688022073900,8.666073974609375,0.0030542362947016954,-0.673306405544281,0.7572978734970093
1772650688031964700,8.675964599609374,0.006261184345930815,-0.5858024954795837,0.7421793937683105
1772650688041842000,8.685842041015626,0.03527642786502838,-0.5459447503089905,0.6849125027656555
1772650688051705300,8.695705322265624,0.12354385852813721,-0.48394373059272766,0.580763041973114
1772650688061596400,8.705596435546875,0.30786702036857605,-0.26495498418807983,0.36039987206459045
1772650688071473400,8.715473388671874,0.5476245880126953,0.03924693539738655,0.08078455179929733
1772650688081337000,8.725337158203125,0.9338327646255493,0.5832064151763916,-0.2907632887363434
1772650688091228000,8.735227783203126,1.338060975074768,1.0854755640029907,-0.5754181146621704
1772650688101105200,8.745105224609375,1.4199144840240479,1.3838744163513184,-0.5789304971694946
1772650688110968600,8.754968505859376,1.4075448513031006,1.6008780002593994,-0.4115583300590515
1772650688120859600,8.764859619140625,1.216196894645691,1.2331478595733643,-0.23884128034114838
1772650688130737000,8.77473681640625,0.9710944294929504,0.6560499668121338,0.015423892997205257
1772650688140600300,8.784600341796875,0.6316160559654236,0.004734066314995289,0.42545512318611145
1772650688150491100,8.7944912109375,0.3077143132686615,-0.9481876492500305,0.4549284875392914
1772650688160368400,8.804368408203125,0.32756683230400085,-1.3870813846588135,0.33031564950942993
1772650688170231800,8.814231689453125,0.4563029110431671,-1.254069447517395,0.21058958768844604
1772650688180123000,8.824122802734376,0.45508119463920593,-1.0697462558746338,0.20707722008228302
1772650688190000000,8.834000244140626,0.4052971601486206,-0.9704836010932922,0.21150586009025574
1772650688199863600,8.843863525390624,0.35383328795433044,-0.9405520558357239,0.15988926589488983
1772650688209754400,8.85375439453125,0.3148917555809021,-0.8144121170043945,0.10094250738620758
1772650688219631600,8.863631591796874,0.2539597451686859,-0.6739172339439392,0.07513421028852463
1772650688229508900,8.8735087890625,0.24159009754657745,-0.5694623589515686,0.09972081333398819
