time,seconds_elapsed,z,y,x
1772650679489279200,0.133279296875,5.2390851974487305,-7.147959232330322,-5.117051124572754
1772650679499156500,0.143156494140625,5.187041282653809,-7.288537979125977,-5.139782905578613
1772650679518911200,0.1629111328125,5.424529075622559,-7.5774712562561035,-4.992026329040527
1772650679528788500,0.17278857421875,5.5034918785095215,-7.572087287902832,-4.935196876525879
1772650679538665700,0.182665771484375,5.491528034210205,-7.461419105529785,-4.876572608947754
1772650679548543000,0.19254296875,5.376074314117432,-7.349554538726807,-4.8299126625061035
1772650679558420200,0.202420166015625,5.233103275299072,-7.289734363555908,-4.780261516571045
1772650679568297500,0.21229736328125,5.091926574707031,-7.208378314971924,-4.658825874328613
1772650679578174700,0.2221748046875,4.938786029815674,-7.176673412322998,-4.560719966888428
1772650679588052000,0.232052001953125,4.826921463012695,-7.16949462890625,-4.493721008300781
1772650679597929500,0.241929443359375,4.727021217346191,-7.176074981689453,-4.41475772857666
1772650679607806700,0.251806640625,4.612165451049805,-7.157530784606934,-4.393222332000732
1772650679617684000,0.26168408203125,4.53499698638916,-7.074379920959473,-4.393820762634277
1772650679627561200,0.271561279296875,4.411766529083252,-6.585646152496338,-4.121636867523193
1772650679637438500,0.2814384765625,4.6402812004089355,-7.004988193511963,-4.384847640991211
1772650679647315700,0.291315673828125,4.664209365844727,-7.003791809082031,-4.292125701904297
1772650679657193000,0.30119287109375,4.71445894241333,-7.085147857666016,-4.315455436706543
1772650679667070200,0.3110703125,4.634897232055664,-6.763313293457031,-4.094717979431152
1772650679676947500,0.320947509765625,4.5816569328308105,-6.6245293617248535,-4.007379531860352
1772650679686824700,0.33082470703125,4.513461589813232,-6.33499813079834,-3.8835511207580566
1772650679696702200,0.3407021484375,4.610969066619873,-6.854838848114014,-4.195814609527588
1772650679706579500,0.350579345703125,4.460221290588379,-6.833901405334473,-4.150351047515869
1772650679716456700,0.360456787109375,4.280161380767822,-6.4701924324035645,-3.9696927070617676
1772650679726334000,0.370333984375,4.17427921295166,-6.267400741577148,-3.9044883251190186
1772650679736211200,0.380211181640625,4.217947959899902,-6.516254425048828,-4.035495281219482
1772650679746088400,0.39008837890625,4.139583110809326,-6.593422889709473,-4.073182582855225
1772650679755965700,0.399965576171875,4.00319242477417,-6.529414653778076,-4.058825492858887
1772650679765843000,0.409843017578125,3.8877387046813965,-6.321238994598389,-3.9529430866241455
1772650679775720200,0.41972021484375,3.7842490673065186,-6.192026615142822,-3.8805601596832275
1772650679785597700,0.42959765625,3.635295867919922,-5.817550182342529,-3.59043025970459
1772650679795475000,0.439474853515625,3.504288673400879,-5.825326919555664,-3.6089746952056885
1772650679805352200,0.449352294921875,3.281157970428467,-5.5381879806518555,-3.3846476078033447
1772650679815229400,0.4592294921875,3.0101709365844727,-5.338387489318848,-3.3308091163635254
1772650679825106700,0.469106689453125,2.705684185028076,-5.062016487121582,-3.308675527572632
1772650679834984000,0.47898388671875,2.4921247959136963,-4.7024946212768555,-3.2404799461364746
1772650679844861200,0.488861083984375,2.6452653408050537,-4.899304389953613,-3.3960134983062744
1772650679854738400,0.498738525390625,3.1040892601013184,-5.436492919921875,-3.442075490951538
1772650679864615700,0.50861572265625,3.4133615493774414,-5.691328525543213,-2.964707374572754
1772650679874493200,0.5184931640625,3.6293137073516846,-5.517251014709473,-2.287538528442383
1772650679884370200,0.5283701171875,3.96789813041687,-5.288137912750244,-1.9435701370239258
1772650679894247700,0.53824755859375,4.4380879402160645,-5.183452129364014,-1.8915263414382935
1772650679904125000,0.548125,4.923232555389404,-5.295316696166992,-2.084746837615967
1772650679914002200,0.558002197265625,5.090131759643555,-5.315655708312988,-2.2953150272369385
1772650679923879400,0.56787939453125,5.176273345947266,-5.391627788543701,-2.48315167427063
1772650679933742800,0.577742919921875,5.712265968322754,-5.745765209197998,-2.5764718055725098
1772650679943634000,0.587634033203125,6.34217643737793,-6.294320106506348,-2.825923442840576
1772650679953511200,0.59751123046875,6.991827964782715,-6.8859453201293945,-3.105883836746216
1772650679963374800,0.607374755859375,7.6498541831970215,-7.263412952423096,-3.171088218688965
1772650679973265700,0.617265625,8.336593627929688,-7.6253275871276855,-3.3990044593811035
1772650679983143000,0.627142822265625,8.520243644714355,-7.75753116607666,-3.793820381164551
1772650679993006600,0.637006591796875,8.160721778869629,-7.730611801147461,-4.610371112823486
1772650680002897700,0.646897705078125,7.558328628540039,-7.984251022338867,-5.730212211608887
1772650680012774700,0.656774658203125,7.237092018127441,-8.617751121520996,-6.267998695373535
1772650680022638300,0.666638427734375,7.33759069442749,-9.772287368774414,-6.285346984863281
1772650680032529400,0.676529296875,8.007580757141113,-10.612168312072754,-6.317051887512207
1772650680042406700,0.68640673828125,8.650053977966309,-11.246864318847656,-6.3702921867370605
1772650680052270000,0.69627001953125,9.667003631591797,-12.309876441955566,-6.68016242980957
1772650680062161200,0.7061611328125,11.210373878479004,-13.573884963989258,-6.508477687835693
1772650680072038400,0.716038330078125,12.803994178771973,-14.827723503112793,-6.56411075592041
1772650680081901800,0.72590185546875,13.904692649841309,-15.78963851928711,-7.5326056480407715
1772650680091793000,0.73579296875,14.0051908493042,-16.417755126953125,-9.237491607666016
1772650680101670100,0.745670166015625,13.820344924926758,-16.73420524597168,-10.61097240447998
1772650680111533600,0.755533447265625,13.190434455871582,-17.285152435302734,-11.36770248413086
1772650680121424600,0.765424560546875,12.65743350982666,-17.908483505249023,-11.69312572479248
1772650680131302000,0.775302001953125,12.368500709533691,-17.754743576049805,-11.240882873535156
1772650680141179100,0.78517919921875,11.778669357299805,-16.518850326538086,-10.979466438293457
1772650680151056400,0.795056396484375,11.298908233642578,-14.987444877624512,-9.990034103393555
1772650680160933600,0.80493359375,10.15573787689209,-13.611571311950684,-10.154541015625
1772650680170797300,0.81479736328125,8.279166221618652,-12.108281135559082,-9.026325225830078
1772650680180688100,0.824688232421875,5.678766250610352,-10.777273178100586,-8.01775074005127
1772650680190565600,0.834565673828125,2.504088878631592,-9.047860145568848,-7.027719974517822
1772650680200429000,0.844428955078125,0.24466611444950104,-7.511668682098389,-5.862415313720703
1772650680210320100,0.854320068359375,-1.2562319040298462,-6.348756790161133,-4.60857629776001
1772650680220197400,0.864197265625,-2.049452543258667,-4.929812908172607,-3.0305099487304688
1772650680230060800,0.874060791015625,-1.9621145725250244,-3.658625841140747,-1.7802600860595703
1772650680239952000,0.883951904296875,-1.308275818824768,-2.3946173191070557,-0.3284149169921875
1772650680249829000,0.8938291015625,-0.4378865361213684,-0.9355936646461487,1.0450652837753296
1772650680259692500,0.903692626953125,0.20817556977272034,0.5198407173156738,2.3126630783081055
1772650680269583600,0.91358349609375,0.38225340843200684,1.4841482639312744,3.0550363063812256
1772650680279460900,0.9234609375,0.07537391036748886,1.8478572368621826,3.3690943717956543
1772650680289324300,0.93332421875,-0.24586252868175507,1.6151553392410278,3.617947816848755
1772650680299215400,0.94321533203125,-0.7286145091056824,1.3142578601837158,2.7320053577423096
1772650680309092600,0.953092529296875,-0.9134600162506104,1.1126625537872314,1.378864049911499
1772650680318969900,0.962969970703125,-1.0307083129882812,1.220937728881836,0.2225325107574463
1772650680328847000,0.97284716796875,-0.0029910283628851175,0.36729827523231506,-0.08733802288770676
1772650680338724400,0.982724365234375,0.7286145091056824,0.47617170214653015,-0.7698906660079956
1772650680348588000,0.992588134765625,1.7563318014144897,0.22492532432079315,-0.7190431952476501
1772650680358478800,1.002478759765625,2.1032910346984863,0.004187439568340778,-1.2711870670318604
1772650680368356400,1.0123564453125,1.542174220085144,-0.1178465187549591,-1.3411771059036255
1772650680378233600,1.022233642578125,1.0253244638442993,-0.12023933976888657,-0.6340979933738708
1772650680388110600,1.032110595703125,0.45104706287384033,0.20338992774486542,-0.24227328598499298
1772650680397988000,1.041988037109375,0.064606212079525,0.2392822653055191,-0.040677983313798904
1772650680407865300,1.051865234375,-0.1178465187549591,-0.07357929646968842,-0.005982056725770235
1772650680417742600,1.06174267578125,-0.6436693072319031,-0.4588237404823303,0.33798620104789734
1772650680427619800,1.071619873046875,-1.0791629552841187,-0.41096729040145874,0.012562318705022335
1772650680437497000,1.0814970703125,-0.9828519225120544,-1.1162517070770264,0.026919255033135414
1772650680447374300,1.091374267578125,-0.9702895879745483,-1.3728820085525513,-0.14715859293937683
1772650680457251600,1.10125146484375,-1.2717852592468262,-1.3184453248977661,-0.3038884699344635
1772650680467128800,1.11112890625,-1.933998942375183,-1.2556337118148804,-0.45643091201782227
1772650680477006000,1.121006103515625,-2.107478618621826,-1.8681962490081787,-1.3411771059036255
1772650680486883300,1.13088330078125,-1.5547364950180054,-3.5742788314819336,-2.1571295261383057
1772650680496746800,1.140746826171875,-0.25363919138908386,-5.464010715484619,-2.974278450012207
1772650680506637800,1.150637939453125,2.12542462348938,-8.086544036865234,-3.747758388519287
1772650680516515000,1.16051513671875,6.041877269744873,-11.470593452453613,-3.9774694442749023
1772650680526378800,1.170378662109375,10.52782154083252,-15.114264488220215,-4.086342811584473
1772650680536269600,1.18026953125,15.886548042297363,-18.658035278320312,-5.3802618980407715
1772650680546146800,1.190146728515625,22.149761199951172,-20.719451904296875,-4.106083869934082
1772650680556010500,1.200010498046875,25.143779754638672,-21.234506607055664,-4.526023864746094
1772650680565901300,1.2099013671875,24.620948791503906,-20.161924362182617,-7.766504287719727
1772650680575778600,1.219778564453125,22.470996856689453,-19.025333404541016,-10.63669490814209
1772650680585642200,1.229642333984375,18.754344940185547,-19.35015869140625,-13.24547004699707
1772650680595533000,1.239532958984375,15.66401481628418,-21.863819122314453,-13.208380699157715
1772650680605410300,1.249410400390625,16.045669555664062,-23.878576278686523,-11.48794174194336
1772650680615274000,1.25927392578125,17.81576156616211,-23.49452781677246,-10.359127044677734
1772650680625164800,1.269164794921875,18.598812103271484,-23.060230255126953,-10.976475715637207
1772650680635042000,1.2790419921875,18.08794403076172,-21.806989669799805,-10.653444290161133
1772650680644905700,1.28890576171875,16.933406829833984,-20.161924362182617,-9.81117057800293
1772650680654796500,1.298796630859375,14.620146751403809,-18.23390769958496,-8.7445707321167
1772650680664673800,1.308673828125,12.468998908996582,-16.537994384765625,-8.444271087646484
1772650680674537500,1.318537353515625,11.36351490020752,-14.867803573608398,-6.696314334869385
1772650680684428500,1.328428466796875,9.002396583557129,-13.776078224182129,-7.346563816070557
1772650680694305800,1.338305908203125,5.790032386779785,-12.242877006530762,-6.649653911590576
1772650680704169200,1.348169189453125,2.8450660705566406,-9.381061553955078,-4.985445976257324
1772650680714060000,1.35806005859375,0.1417747437953949,-7.378866672515869,-4.3788652420043945
1772650680723937500,1.3679375,-0.893121063709259,-5.620141983032227,-3.0825538635253906
1772650680733801000,1.377801025390625,-1.649253010749817,-3.697509288787842,-1.7623138427734375
1772650680743692000,1.387692138671875,-1.7617156505584717,-1.5326029062271118,-0.8189435601234436
1772650680753569300,1.3975693359375,-1.3214362859725952,0.3290131092071533,-0.13698910176753998
1772650680763432700,1.4074326171875,-1.095314621925354,1.8335003852844238,0.26620152592658997
1772650680773323800,1.41732373046875,-1.306481122970581,3.3176486492156982,0.6047859191894531
1772650680783201000,1.427200927734375,-1.8855443000793457,4.252045631408691,0.7525427341461182
1772650680793064400,1.437064453125,-2.0440688133239746,3.7094733715057373,0.4414757788181305
1772650680802955500,1.44695556640625,-1.6660027503967285,2.41375994682312,0.3008974492549896
1772650680812832800,1.456832763671875,-1.0067801475524902,1.2795618772506714,0.388235479593277
1772650680822710000,1.4667099609375,-0.17946170270442963,0.4707878530025482,0.31046873331069946
1772650680832587300,1.476587158203125,0.7106683254241943,0.08554340898990631,0.33918261528015137
1772650680842464500,1.486464599609375,1.2646067142486572,0.03349951654672623,0.1663011759519577
1772650680852328000,1.496327880859375,1.3615161180496216,0.1381855010986328,-0.12323036789894104
1772650680862219000,1.506218994140625,1.5433706045150757,0.19561325013637543,0.052043892443180084
1772650680872096300,1.51609619140625,1.262213945388794,0.03349951654672623,0.1453639715909958
1772650680881973500,1.525973388671875,0.537188708782196,0.1944168359041214,-0.15194423496723175
1772650680891850800,1.535850830078125,0.003589233849197626,0.2709871530532837,-0.44805604219436646
1772650680901728000,1.54572802734375,-0.13160525262355804,0.08973085135221481,-0.4414757788181305
1772650680911605200,1.555605224609375,-0.047258246690034866,-0.04307080805301666,-0.4043870270252228
1772650680921482500,1.565482421875,0.1052841991186142,0.08554340898990631,-0.16809579730033875
1772650680931359700,1.57535986328125,0.04486542567610741,0.29371899366378784,0.11126625537872314
1772650680941237000,1.585237060546875,-0.3355933725833893,0.5210371017456055,0.11306086927652359
1772650680951114200,1.5951142578125,-0.7322037220001221,0.494716078042984,-0.01196411345154047
1772650680960991500,1.604991455078125,-1.0713863372802734,0.34217363595962524,-0.34995031356811523
1772650680970868700,1.61486865234375,-1.1826525926589966,0.1381855010986328,-0.38763725757598877
1772650680980746000,1.62474609375,-1.2167502641677856,-0.21355941891670227,-0.29850462079048157
1772650680990623200,1.634623291015625,-1.2005987167358398,-0.6825526356697083,-0.21774685382843018
1772650681000500500,1.64450048828125,-1.3435698747634888,-1.1676974296569824,0.02632104977965355
1772650681010377700,1.654377685546875,-1.8586249351501465,-1.7479569911956787,0.41515472531318665
1772650681020255000,1.6642548828125,-1.7599210739135742,-3.3505499362945557,-0.06400800496339798
1772650681030118400,1.674118408203125,-1.5900306701660156,-4.3657050132751465,-1.062413215637207
1772650681040009500,1.684009521484375,-0.2913261651992798,-5.688337802886963,-1.968694806098938
1772650681049886700,1.69388671875,3.8560338020324707,-10.00439167022705,-3.215355396270752
1772650681059750100,1.703750244140625,8.663812637329102,-13.051053047180176,-4.183850288391113
1772650681069641200,1.71364111328125,13.067204475402832,-15.613167762756348,-5.434698581695557
1772650681079518500,1.7235185546875,15.608382225036621,-17.968303680419922,-6.7896342277526855
1772650681089382000,1.7333818359375,15.904494285583496,-21.180068969726562,-9.274580955505371
1772650681099273000,1.74327294921875,18.30509376525879,-24.40978240966797,-10.00857925415039
1772650681109150200,1.753150146484375,23.36890411376953,-26.274389266967773,-8.647661209106445
1772650681119013600,1.763013671875,22.333410263061523,-25.225135803222656,-11.085349082946777
1772650681128904700,1.77290478515625,19.28136444091797,-25.100709915161133,-13.63908863067627
1772650681138782000,1.782781982421875,19.255043029785156,-28.37468910217285,-11.720643043518066
1772650681148645400,1.792645263671875,18.4570369720459,-24.726232528686523,-9.970293998718262
1772650681158536400,1.802536376953125,18.994226455688477,-23.62613296508789,-10.140782356262207
1772650681168413700,1.81241357421875,19.325632095336914,-22.319053649902344,-10.25503921508789
1772650681178277000,1.822277099609375,18.19681739807129,-20.6039981842041,-9.603593826293945
1772650681188168200,1.832168212890625,15.646069526672363,-19.1126708984375,-8.493922233581543
1772650681198045400,1.84204541015625,13.171292304992676,-16.884355545043945,-6.212964057922363
1772650681207908900,1.851908935546875,10.768898010253906,-15.713068008422852,-5.763113498687744
1772650681217800000,1.861800048828125,7.761718273162842,-14.80379581451416,-6.578467845916748
1772650681227677200,1.87167724609375,6.215356826782227,-13.1694974899292,-5.953342914581299
1772650681237540600,1.88154052734375,5.3455657958984375,-10.261619567871094,-3.232105255126953
1772650681247431700,1.891431640625,3.902693748474121,-7.63729190826416,-1.1066805124282837
1772650681257309000,1.901308837890625,2.042872428894043,-7.199405193328857,-2.245664119720459
1772650681267172400,1.91117236328125,0.5868397355079651,-5.712863922119141,-2.400599241256714
1772650681277063400,1.9210634765625,-0.8799605369567871,-3.6472599506378174,-1.794616937637329
1772650681286940700,1.930940673828125,-2.087737798690796,-2.7284159660339355,-1.7724833488464355
1772650681296804000,1.94080419921875,-2.2271196842193604,-2.3156540393829346,-1.2047861814498901
1772650681306695200,1.950695068359375,-2.379662036895752,-1.441077470779419,-0.4384847581386566
1772650681316572400,1.960572509765625,-2.599203586578369,-0.08673982322216034,0.3128615617752075
1772650681326435800,1.970435791015625,-2.2851455211639404,1.067797064781189,1.1988041400909424
1772650681336327000,1.980326904296875,-2.3054845333099365,1.8340985774993896,2.0793628692626953
1772650681346204200,1.9902041015625,-2.1505494117736816,0.833898663520813,0.9523434042930603
1772650681356067600,2.000067626953125,-1.8406788110733032,1.7826528549194336,1.4464613199234009
1772650681365958700,2.009958740234375,-1.4177473783493042,1.4434702396392822,0.7459624409675598
1772650681375835600,2.019835693359375,-1.089930772781372,1.088136076927185,0.12622138857841492
1772650681385713000,2.029712890625,-0.8009973764419556,1.0378868579864502,-0.022133609279990196
1772650681395590100,2.039590087890625,-0.3433700501918793,0.8123632669448853,0.1908276081085205
1772650681405467400,2.04946728515625,-0.008374879136681557,0.7094719409942627,0.5144568681716919
1772650681415344600,2.0593447265625,-0.08673982322216034,0.9565308690071106,0.13100704550743103
1772650681425222000,2.069221923828125,0.09990034252405167,0.6933203339576721,-0.49351966381073
1772650681435099100,2.07909912109375,0.50907301902771,0.2835494875907898,-1.1341979503631592
1772650681444976400,2.088976318359375,0.875174880027771,0.02512463741004467,-1.3812568187713623
1772650681454853600,2.098853515625,1.1001001596450806,-0.18783657252788544,-1.4889339208602905
1772650681464731000,2.10873095703125,1.4446666240692139,-0.40259242057800293,-1.6857435703277588
1772650681474608000,2.118608154296875,1.2592228651046753,-0.2871387302875519,-0.9260223507881165
1772650681484485400,2.1284853515625,0.9092726111412048,-0.24167509377002716,-0.3128615617752075
1772650681494362600,2.138362548828125,0.5413761138916016,-0.17587246000766754,-0.031106693670153618
1772650681504239900,2.148239990234375,0.2566302418708801,-0.2548356056213379,-0.42293140292167664
1772650681514117000,2.1581171875,-0.005383851006627083,-0.5066801905632019,-0.4833501875400543
1772650681523994400,2.167994384765625,-0.12861421704292297,-0.6933203339576721,-0.5240281820297241
1772650681533871600,2.17787158203125,-0.5353940725326538,-0.9690931439399719,-1.4727823734283447
1772650681543748900,2.187748779296875,-0.6903293132781982,-2.5250260829925537,-2.507079839706421
1772650681553626000,2.197626220703125,-0.243469700217247,-4.309473514556885,-2.740380048751831
1772650681563489500,2.207489501953125,1.2759727239608765,-5.912664890289307,-3.6119658946990967
1772650681573380600,2.217380615234375,6.1573309898376465,-10.96630573272705,-3.6568312644958496
1772650681583257900,2.2272578125,14.556736946105957,-16.456039428710938,-3.541975736618042
1772650681593121300,2.237121337890625,19.884355545043945,-16.72283935546875,-2.060220241546631
1772650681603012400,2.247012451171875,18.613168716430664,-12.865609169006348,-8.23968505859375
1772650681612889600,2.2568896484375,16.594823837280273,-11.666206359863281,-9.726823806762695
1772650681622753000,2.2667529296875,19.60738754272461,-13.721641540527344,-11.654242515563965
1772650681632644000,2.27664404296875,19.383657455444336,-14.669797897338867,-12.196815490722656
1772650681642521300,2.286521240234375,13.379467964172363,-12.962518692016602,-15.98046588897705
1772650681652384800,2.296384765625,9.80937671661377,-15.256038665771484,-15.7429780960083
1772650681662275800,2.30627587890625,12.425928115844727,-17.63629913330078,-12.388240814208984
1772650681672153000,2.316153076171875,11.670393943786621,-16.767704010009766,-12.041879653930664
1772650681682016500,2.3260166015625,10.86700439453125,-15.717853546142578,-12.921242713928223
1772650681691907600,2.335907470703125,11.497512817382812,-15.840485572814941,-13.065409660339355
1772650681701784800,2.345784912109375,13.379467964172363,-16.177276611328125,-12.554542541503906
1772650681711648300,2.355648193359375,15.55334758758545,-16.0648136138916,-10.886146545410156
1772650681721539300,2.365539306640625,17.562122344970703,-15.693326950073242,-9.946365356445312
1772650681731416300,2.375416259765625,18.88056755065918,-15.729219436645508,-9.753743171691895
1772650681741280000,2.385280029296875,18.83510398864746,-14.790635108947754,-9.08853816986084
1772650681751170800,2.3951708984375,17.289339065551758,-13.372289657592773,-8.572885513305664
1772650681761048000,2.405048095703125,14.979667663574219,-13.034302711486816,-7.967501163482666
1772650681770911700,2.414911865234375,11.998808860778809,-11.477173805236816,-6.821339130401611
1772650681780802600,2.424802490234375,8.39282512664795,-9.958329200744629,-5.44845724105835
1772650681790679800,2.4346796875,5.076373100280762,-9.151350021362305,-5.599205017089844
1772650681800543200,2.444543212890625,2.6045875549316406,-9.147162437438965,-6.986443996429443
1772650681810434300,2.454434326171875,-0.02871387079358101,-7.685148239135742,-6.686144828796387
1772650681820311600,2.4643115234375,-1.2831511497497559,-5.2181477546691895,-5.0841498374938965
1772650681830175000,2.474175048828125,-1.8095721006393433,-2.280359983444214,-2.665006160736084
1772650681840066000,2.484066162109375,-1.3860424757003784,-0.6939185857772827,-1.3316057920455933
1772650681849943300,2.493943359375,-0.9481559991836548,-0.6293123364448547,-0.46899324655532837
1772650681859806700,2.503806640625,-0.040677983313798904,-1.0600204467773438,1.3453645706176758
1772650681869697800,2.51369775390625,-0.13280165195465088,-0.7920243144035339,2.4699912071228027
1772650681879575000,2.523574951171875,-0.8506484627723694,-0.36670008301734924,2.627917528152466
1772650681889438500,2.5334384765625,-1.5906288623809814,-0.1585244983434677,2.1996021270751953
1772650681899329500,2.54332958984375,-1.9920248985290527,-0.14715859293937683,1.7838492393493652
1772650681909206800,2.553206787109375,-1.8945173025131226,-0.2638086974620819,1.5056836605072021
1772650681919084000,2.563083984375,-1.0289137363433838,-0.4211367964744568,1.7168502807617188
1772650681928961300,2.572961181640625,0.14416755735874176,-0.3200400173664093,2.1302103996276855
1772650681938838500,2.582838623046875,1.347757339477539,-0.14416755735874176,2.3054845333099365
1772650681948702000,2.592701904296875,2.400599241256714,-0.03409772366285324,2.1816561222076416
1772650681958593000,2.602593017578125,2.912065267562866,0.12681959569454193,1.5553346872329712
1772650681968470300,2.61247021484375,2.7810580730438232,0.35054850578308105,0.7986045479774475
1772650681978347500,2.622347412109375,2.035693883895874,0.6580262184143066,0.28115665912628174
1772650681988224800,2.632224853515625,0.6436693072319031,0.8614161610603333,-0.6167500615119934
1772650681998102000,2.64210205078125,-0.841675341129303,0.41216370463371277,-1.3663017749786377
1772650682007965400,2.65196533203125,-1.8472590446472168,0.3152543902397156,-1.633101463317871
1772650682017856500,2.6618564453125,-2.101496458053589,0.012562318705022335,-1.731805443763733
1772650682027733500,2.6717333984375,-1.7641085386276245,0.05024927482008934,-1.4117653369903564
1772650682037610800,2.68161083984375,-1.5589239597320557,0.20757736265659332,-1.2424731254577637
1772650682047488000,2.691488037109375,-1.5032907724380493,0.5748756527900696,-1.0821540355682373
1772650682057365200,2.701365234375,-1.5122638940811157,1.0211371183395386,-1.0103694200515747
1772650682067242500,2.711242431640625,-1.4171491861343384,1.0277173519134521,-1.1467602252960205
1772650682077119700,2.72111962890625,-0.9152546525001526,0.6167500615119934,-0.8656035661697388
1772650682086997000,2.7309970703125,0.049651071429252625,-0.38703906536102295,-0.17766708135604858
1772650682096860700,2.740860595703125,1.6947166919708252,-1.662413477897644,0.48514479398727417
1772650682106751500,2.75075146484375,4.024129390716553,-3.094517946243286,0.2470589429140091
1772650682116628700,2.760628662109375,6.9236321449279785,-4.84606409072876,-0.1986042857170105
1772650682126492200,2.7704921875,9.433703422546387,-7.141379356384277,-1.534995675086975
1772650682136383200,2.78038330078125,10.97886848449707,-10.156335830688477,-3.4259238243103027
1772650682146260500,2.790260498046875,12.291930198669434,-14.536995887756348,-6.110072612762451
1772650682156124000,2.8001240234375,13.200006484985352,-19.024734497070312,-8.61475944519043
1772650682166015000,2.810014892578125,17.199010848999023,-22.669601440429688,-8.441878318786621
1772650682175892200,2.819892333984375,19.526628494262695,-23.387449264526367,-6.796812534332275
1772650682185755600,2.829755615234375,19.309480667114258,-22.36930274963379,-5.698507308959961
1772650682195646700,2.839646728515625,16.975879669189453,-21.99183464050293,-6.220740795135498
1772650682205524000,2.84952392578125,18.396617889404297,-17.877973556518555,-5.91505765914917
1772650682215387400,2.859387451171875,16.63071632385254,-13.676177978515625,-7.602595806121826
1772650682225278500,2.869278564453125,17.806190490722656,-13.052847862243652,-8.811569213867188
1772650682235155700,2.87915576171875,19.357934951782227,-12.571889877319336,-7.726424217224121
1772650682245019100,2.88901904296875,20.078773498535156,-12.825529098510742,-5.767899036407471
1772650682254910200,2.89891015625,19.818553924560547,-13.26700496673584,-4.156332969665527
1772650682264787500,2.908787353515625,18.36850357055664,-13.852049827575684,-4.171288013458252
1772650682274651000,2.91865087890625,16.329818725585938,-14.534603118896484,-5.422136306762695
1772650682284541700,2.928541748046875,14.965311050415039,-14.609976768493652,-5.835496425628662
1772650682294419000,2.9384189453125,14.107483863830566,-14.930615425109863,-5.547759532928467
1772650682304282400,2.948282470703125,13.433306694030762,-15.40618896484375,-5.444868087768555
1772650682314173400,2.95817333984375,12.399008750915527,-15.293725967407227,-5.478367328643799
1772650682324050700,2.96805078125,11.059027671813965,-14.58066463470459,-6.464808464050293
1772650682333914000,2.9779140625,9.57787036895752,-13.645668983459473,-5.891727447509766
1772650682343805200,2.98780517578125,7.94297456741333,-11.904891014099121,-4.78385066986084
1772650682353682400,2.997682373046875,6.126224040985107,-9.603593826293945,-3.070589542388916
1772650682363545900,3.0075458984375,4.155136585235596,-7.055835723876953,-1.2113664150238037
1772650682373437000,3.01743701171875,2.2396819591522217,-5.016552448272705,-0.5126622319221497
1772650682383314200,3.027314208984375,0.4773681163787842,-3.9559340476989746,-0.6239284873008728
1772650682393177600,3.037177490234375,-0.8093722462654114,-3.1034910678863525,-0.8183453679084778
1772650682403068700,3.047068603515625,-2.651845693588257,-1.058824062347412,-0.5084748268127441
1772650682412946000,3.05694580078125,-3.8745779991149902,0.6616154313087463,-0.4785645306110382
1772650682422809300,3.066809326171875,-4.286143779754639,2.1020946502685547,-0.3774677813053131
1772650682432700400,3.076700439453125,-3.920041799545288,3.0454649925231934,-0.10229317098855972
1772650682442577700,3.08657763671875,-3.156731367111206,3.692723512649536,0.6125625967979431
1772650682452441000,3.096441162109375,-1.8490537405014038,2.94975209236145,1.022931694984436
1772650682462332200,3.106332275390625,-0.7513462901115417,2.100898265838623,1.1491531133651733
1772650682472209400,3.11620947265625,-0.2877369225025177,1.2783654928207397,0.7716853022575378
1772650682482086700,3.126086669921875,-0.48873403668403625,0.7860422134399414,0.4821537733078003
1772650682491964000,3.1359638671875,-0.7280163168907166,0.7782655358314514,0.26141586899757385
1772650682501841200,3.145841064453125,-0.7082754969596863,1.1694921255111694,0.016749758273363113
1772650682511718100,3.15571826171875,-0.357128769159317,1.6803597211837769,-0.09451649338006973
1772650682521595400,3.165595458984375,0.35114672780036926,1.9268203973770142,-0.09032905846834183
1772650682531472600,3.17547265625,1.1222338676452637,1.9836499691009521,0.05922235921025276
1772650682541336000,3.185336181640625,1.770688772201538,1.8837496042251587,0.381655216217041
1772650682551227100,3.19522705078125,2.1954147815704346,1.4638092517852783,0.6771687865257263
1772650682561104400,3.2051044921875,2.3132612705230713,0.745364248752594,0.6269195079803467
1772650682570981600,3.214981689453125,2.1092731952667236,0.15732808411121368,0.09511470049619675
1772650682580859000,3.22485888671875,0.9690931439399719,0.34217363595962524,-1.4297115802764893
1772650682590736100,3.234736083984375,0.20518454909324646,-0.16271193325519562,-2.5704896450042725
1772650682600599600,3.244599609375,-0.39601215720176697,-2.1547367572784424,-4.120440483093262
1772650682610490600,3.25449072265625,-0.8093722462654114,-4.13060998916626,-5.068596363067627
1772650682620368000,3.264367919921875,-0.30209386348724365,-5.364109992980957,-4.759922504425049
1772650682630231300,3.274231201171875,1.8394824266433716,-7.444669246673584,-4.649254322052002
1772650682640122400,3.284122314453125,6.249454498291016,-9.824331283569336,-4.035495281219482
1772650682649999600,3.29399951171875,11.506485939025879,-10.341779708862305,-4.11206579208374
1772650682659863000,3.303863037109375,14.024931907653809,-8.538188934326172,-6.113063812255859
1772650682669754000,3.313754150390625,17.658432006835938,-8.703293800354004,-9.113064765930176
1772650682679631400,3.32363134765625,19.99921226501465,-12.64905834197998,-11.640483856201172
1772650682689494800,3.333494873046875,20.6099796295166,-12.984652519226074,-13.100106239318848
1772650682699385600,3.343385498046875,13.297513961791992,-9.306285858154297,-13.460225105285645
1772650682709262800,3.353262939453125,9.448060035705566,-10.330413818359375,-12.539587020874023
1772650682719126300,3.363126220703125,13.125828742980957,-17.437694549560547,-14.887544631958008
1772650682729017300,3.373017333984375,15.481562614440918,-17.777475357055664,-15.152549743652344
1772650682738894600,3.38289453125,14.67099380493164,-15.793227195739746,-13.649856567382812
1772650682748758000,3.392758056640625,14.490335464477539,-15.190834999084473,-11.617752075195312
1772650682758649000,3.402649169921875,16.956737518310547,-16.3651123046875,-9.370293617248535
1772650682768526300,3.4125263671875,18.92363739013672,-16.402799606323242,-7.03489875793457
1772650682778389800,3.4223896484375,18.960725784301758,-15.711872100830078,-6.105885028839111
1772650682788280800,3.43228076171875,17.6159610748291,-14.112868309020996,-6.5150580406188965
1772650682798158000,3.442157958984375,14.858232498168945,-12.111869812011719,-8.226524353027344
1772650682808021500,3.452021484375,12.777074813842773,-11.32104206085205,-9.617950439453125
1772650682817912300,3.461912353515625,12.220145225524902,-11.891132354736328,-9.858428955078125
1772650682827789600,3.47178955078125,11.669198036193848,-12.473186492919922,-9.145368576049805
1772650682837653200,3.4816533203125,11.6183500289917,-11.428719520568848,-7.139584541320801
1772650682847544000,3.4915439453125,10.302297592163086,-12.326027870178223,-6.37747049331665
1772650682857421300,3.50142138671875,8.110472679138184,-9.309874534606934,-5.373083114624023
1772650682867285000,3.511284912109375,4.988437175750732,-5.636891841888428,-3.652045488357544
1772650682877175800,3.52117578125,2.259422779083252,-1.7180466651916504,-3.122035264968872
1772650682887053000,3.531052978515625,-0.41096729040145874,1.0713863372802734,-3.4713873863220215
1772650682896916500,3.54091650390625,-2.1577277183532715,2.472383975982666,-3.4654054641723633
1772650682906807600,3.5508076171875,-1.7850457429885864,-0.017946170642971992,-3.8745779991149902
1772650682916684800,3.560684814453125,-1.7120646238327026,-1.4656038284301758,-3.5910286903381348
1772650682926548200,3.57054833984375,-2.311466693878174,-0.5479564070701599,-2.6949164867401123
1772650682936439300,3.580439208984375,-2.5884358882904053,0.49351966381073,-1.6636099815368652
1772650682946316500,3.590316650390625,-2.321636199951172,1.031306505203247,-0.6478567123413086
1772650682956180000,3.600179931640625,-1.5649060010910034,1.5690934658050537,0.42831525206565857
1772650682966071000,3.610071044921875,-0.4325026869773865,1.7138592004776,0.9846464991569519
1772650682975948300,3.6199482421875,0.3517449200153351,1.6241283416748047,0.9684949517250061
1772650682985811700,3.629811767578125,0.7004988193511963,1.4835500717163086,0.849452018737793
1772650682995702500,3.63970263671875,0.49591249227523804,1.3387842178344727,0.7968099117279053
1772650683005579800,3.649579833984375,0.18723836541175842,0.9655039310455322,0.997208833694458
1772650683015457000,3.65945703125,-0.09990034252405167,0.5353940725326538,1.2837493419647217
1772650683025334300,3.669334228515625,-0.1579262912273407,0.20458634197711945,1.4135600328445435
1772650683035211500,3.67921142578125,0.5186443328857422,0.05503492057323456,1.5080764293670654
1772650683045075200,3.6890751953125,2.204986095428467,-0.46839502453804016,1.7431713342666626
1772650683054966000,3.698966064453125,3.16331148147583,-0.597607433795929,1.552343726158142
1772650683064843300,3.70884326171875,2.8863422870635986,-0.251844584941864,1.1066805124282837
1772650683074706700,3.718706787109375,2.0787646770477295,-0.008374879136681557,-0.06699903309345245
1772650683084597800,3.72859765625,1.085145115852356,0.2273181527853012,-0.7286145091056824
1772650683094475000,3.73847509765625,0.029312077909708023,-0.017946170642971992,-1.2729816436767578
1772650683104338400,3.74833837890625,-0.5892325639724731,-0.48574298620224,-1.3226326704025269
1772650683114229500,3.7582294921875,-0.519242525100708,-1.6450655460357666,-2.087737798690796
1772650683124106800,3.768106689453125,0.7070791125297546,-3.0251259803771973,-3.5509488582611084
1772650683133970200,3.77797021484375,2.8833513259887695,-4.766502857208252,-4.88554573059082
1772650683143861200,3.787861328125,6.198009014129639,-6.987640380859375,-6.26859712600708
1772650683153738500,3.797738525390625,9.152546882629395,-9.189635276794434,-6.245266914367676
1772650683163602000,3.807601806640625,12.662219047546387,-11.870195388793945,-5.0255255699157715
1772650683173492700,3.81749267578125,15.853048324584961,-14.12124252319336,-3.6610186100006104
1772650683183370000,3.827369873046875,17.906688690185547,-16.26760482788086,-3.630510091781616
1772650683193233400,3.8372333984375,20.75893211364746,-16.013965606689453,-3.888935089111328
1772650683203124500,3.84712451171875,20.945573806762695,-17.51905059814453,-4.796412944793701
1772650683213001700,3.857001708984375,19.88256072998047,-16.41057586669922,-3.6430723667144775
1772650683222865200,3.866865234375,18.738792419433594,-17.897117614746094,-2.7278177738189697
1772650683232756200,3.876756103515625,15.15015697479248,-11.569297790527344,-3.3816566467285156
1772650683242633500,3.886633544921875,14.059627532958984,-7.914859294891357,-3.7387852668762207
1772650683252497000,3.896496826171875,17.776878356933594,-7.974081516265869,-3.6167514324188232
1772650683262388000,3.906387939453125,20.538793563842773,-9.519247055053711,-2.372483730316162
1772650683272265200,3.91626513671875,21.07538414001465,-11.135000228881836,-1.4165509939193726
1772650683282128600,3.926128662109375,20.13141441345215,-12.66580867767334,-2.7864420413970947
1772650683292019500,3.93601953125,18.626928329467773,-13.572090148925781,-4.713860511779785
1772650683301896700,3.945896728515625,17.438892364501953,-12.933804512023926,-5.309075355529785
1772650683311774000,3.95577392578125,16.941781997680664,-11.593225479125977,-4.879563808441162
1772650683321651200,3.965651123046875,16.094125747680664,-10.612168312072754,-4.984249591827393
1772650683331528400,3.975528564453125,15.466607093811035,-10.202397346496582,-5.031507968902588
1772650683341392000,3.985391845703125,13.430913925170898,-10.001399993896484,-5.18823766708374
1772650683351283000,3.995282958984375,11.100902557373047,-9.107681274414062,-5.133800983428955
1772650683361160200,4.00516015625,8.429315567016602,-8.150551795959473,-3.4606196880340576
1772650683371023600,4.015023681640625,5.085346221923828,-7.237690448760986,-2.416750907897949
1772650683380914700,4.024914794921875,2.641676187515259,-4.6995038986206055,-0.7393822073936462
1772650683390792000,4.0347919921875,0.20458634197711945,-3.9565322399139404,-0.849452018737793
1772650683400655400,4.0446552734375,-0.8889335989952087,-3.025724172592163,0.1052841991186142
1772650683410546400,4.05454638671875,-1.9304096698760986,-1.5439687967300415,1.1282159090042114
1772650683420423700,4.064423583984375,-2.348555326461792,-1.0139585733413696,1.074377417564392
1772650683430287000,4.074287109375,-2.8319056034088135,-0.3888336718082428,0.5054838061332703
1772650683440178200,4.08417822265625,-3.046063184738159,0.33918261528015137,0.11485548317432404
1772650683450055400,4.094055419921875,-3.170490026473999,1.0145567655563354,0.1944168359041214
1772650683459918800,4.1039189453125,-2.702693223953247,0.9744769930839539,-0.22432711720466614
1772650683469809700,4.1138095703125,-2.072782516479492,0.3164508044719696,-0.672383189201355
1772650683479687000,4.12368701171875,-1.688734531402588,-0.11425728350877762,-0.7172485589981079
1772650683489564200,4.133564208984375,-1.9698911905288696,0.0933200865983963,-1.3519448041915894
1772650683499441400,4.14344140625,-2.462812662124634,0.4995017349720001,-2.0787646770477295
1772650683509318700,4.153318603515625,-2.857628345489502,0.6071787476539612,-2.4335005283355713
1772650683519196000,4.16319580078125,-2.74755859375,0.3930211067199707,-2.6602206230163574
1772650683529073200,4.1730732421875,-2.3958137035369873,0.4019941985607147,-2.349153518676758
1772650683538950400,4.182950439453125,-1.690529227256775,0.3774677813053131,-1.9304096698760986
1772650683548827600,4.19282763671875,-1.0492527484893799,0.2315055876970291,-1.4901303052902222
1772650683558705000,4.202704833984375,-0.4133601188659668,-0.06580262631177902,-0.8913264274597168
1772650683568582100,4.21258203125,0.06400800496339798,-0.8697910308837891,-0.003589233849197626
1772650683578445600,4.222445556640625,-0.24047867953777313,-1.6671991348266602,0.25363919138908386
1772650683588336600,4.232336669921875,-0.9355936646461487,-2.3258235454559326,0.005383851006627083
1772650683598213600,4.242213623046875,-1.2789636850357056,-2.485544443130493,-1.4069796800613403
1772650683608077300,4.252077392578125,-0.9367900490760803,-2.6141586303710938,-2.9868409633636475
1772650683617968000,4.261968017578125,0.5736792087554932,-3.757927894592285,-3.7501513957977295
1772650683627845400,4.271845458984375,2.5950162410736084,-4.704887390136719,-3.040679454803467
1772650683637708800,4.281708740234375,5.045864582061768,-7.042675018310547,-4.026522159576416
1772650683647599900,4.291599853515625,10.792826652526855,-13.310673713684082,-6.741179466247559
1772650683657477000,4.30147705078125,20.62373924255371,-17.166109085083008,-6.647859573364258
1772650683667340500,4.311340576171875,26.334209442138672,-14.953347206115723,-10.05823040008545
1772650683677231600,4.321231689453125,23.111675262451172,-4.208376884460449,-7.658827304840088
1772650683687108900,4.33110888671875,14.276776313781738,1.8233308792114258,-8.285746574401855
1772650683696972300,4.34097216796875,13.709677696228027,-6.102894306182861,-14.376078605651855
1772650683706863400,4.35086328125,17.139787673950195,-12.084352493286133,-11.84028434753418
1772650683716740600,4.36074072265625,16.283157348632812,-13.205987930297852,-11.270792961120605
1772650683726604000,4.37060400390625,12.426526069641113,-11.244471549987793,-11.729018211364746
1772650683736494800,4.380494873046875,11.068599700927734,-10.223933219909668,-10.209575653076172
1772650683746372000,4.3903720703125,13.505090713500977,-11.103893280029297,-7.812565803527832
1772650683756235500,4.400235595703125,14.93958854675293,-10.74257755279541,-5.953342914581299
1772650683766126600,4.410126708984375,14.706886291503906,-10.01575756072998,-6.198009014129639
1772650683776003800,4.42000390625,14.56212043762207,-10.524231910705566,-8.239086151123047
1772650683785867300,4.4298671875,14.413764953613281,-10.194023132324219,-9.369096755981445
1772650683795758300,4.43975830078125,14.176278114318848,-10.5361967086792,-10.918449401855469
1772650683805635600,4.449635498046875,14.246866226196289,-12.536596298217773,-12.116057395935059
1772650683815499000,4.4594990234375,14.3389892578125,-14.22293758392334,-12.399008750915527
1772650683825390000,4.46939013671875,14.184054374694824,-14.020146369934082,-11.831311225891113
1772650683835267000,4.47926708984375,14.452649116516113,-13.555938720703125,-11.279168128967285
1772650683845144300,4.489144287109375,14.542379379272461,-11.869596481323242,-10.548758506774902
1772650683855021600,4.499021484375,14.151751518249512,-9.958329200744629,-9.815957069396973
1772650683864898800,4.50889892578125,13.107882499694824,-9.012566566467285,-8.782855987548828
1772650683874762200,4.51876220703125,11.46102237701416,-8.1224365234375,-7.04207706451416
1772650683884653300,4.5286533203125,8.580063819885254,-7.269395351409912,-5.440680503845215
1772650683894530600,4.538530517578125,5.388038158416748,-5.7649078369140625,-5.048257350921631
1772650683904394000,4.54839404296875,2.449054002761841,-5.8719868659973145,-4.600799560546875
1772650683914285000,4.55828515625,0.14895321428775787,-5.867799282073975,-4.253840446472168
1772650683924162300,4.568162353515625,-1.7407784461975098,-5.063212871551514,-4.157529354095459
1772650683934025700,4.578025634765625,-2.68953275680542,-3.686143398284912,-3.9320058822631836
1772650683943916800,4.587916748046875,-3.184846878051758,-1.8735800981521606,-4.091726779937744
1772650683953794000,4.5977939453125,-3.432504177093506,-0.5461617708206177,-3.0484559535980225
1772650683963657500,4.607657470703125,-3.170490026473999,0.4384847581386566,-1.217348575592041
1772650683973548500,4.617548583984375,-2.8085756301879883,1.262213945388794,-0.0023928226437419653
1772650683983425500,4.627425537109375,-2.3611178398132324,1.690529227256775,0.275174617767334
1772650683993289200,4.637289306640625,-1.8352949619293213,1.4033905267715454,-0.3200400173664093
1772650684003180000,4.647179931640625,-1.3507484197616577,0.8039883971214294,-0.584446907043457
1772650684013057300,4.657057373046875,-1.0007981061935425,0.5551348328590393,-0.3170489966869354
1772650684022920700,4.666920654296875,-0.6813562512397766,0.41216370463371277,0.3433700501918793
1772650684032811800,4.676811767578125,-0.2961117923259735,-0.13220344483852386,0.6269195079803467
1772650684042689000,4.68668896484375,0.36729827523231506,-0.5880361795425415,0.6287141442298889
1772650684052552400,4.696552490234375,1.332802176475525,-0.6909275650978088,0.9284151792526245
1772650684062443500,4.706443603515625,2.0829520225524902,-0.8937192559242249,0.6352944374084473
1772650684072320800,4.71632080078125,2.4113669395446777,-0.6729813814163208,0.14297115802764893
1772650684082198000,4.726197998046875,1.8161523342132568,-0.11126625537872314,-0.0005982056609354913
1772650684092075300,4.7360751953125,0.5186443328857422,0.6927221417427063,0.0364905446767807
1772650684101952300,4.7459521484375,-0.7597211599349976,1.2855439186096191,-0.08434699475765228
1772650684111816000,4.75581591796875,-1.323829174041748,1.222732424736023,-0.4366901218891144
1772650684121706800,4.765706787109375,-1.2586246728897095,1.0031908750534058,-0.7345965504646301
1772650684131584000,4.775583984375,-0.8608179688453674,0.6915257573127747,-0.8165507316589355
1772650684141461200,4.785461181640625,-0.21954147517681122,-0.27397820353507996,-1.0139585733413696
1772650684151338500,4.79533837890625,0.4576273262500763,-2.076371908187866,-1.700698733329773
1772650684161215700,4.8052158203125,1.4482558965682983,-4.06839656829834,-2.8636105060577393
1772650684171079200,4.8150791015625,2.9617161750793457,-6.416952133178711,-3.6394832134246826
1772650684180970200,4.82497021484375,5.299503803253174,-9.090332984924316,-3.5090744495391846
1772650684190847500,4.834847412109375,8.342576026916504,-12.40439224243164,-2.7427730560302734
1772650684200711000,4.8447109375,11.408978462219238,-15.50967788696289,-2.131406784057617
1772650684210602000,4.85460205078125,13.929817199707031,-17.376079559326172,-2.207977056503296
1772650684220479200,4.864479248046875,15.50369644165039,-18.31645965576172,-3.1310083866119385
1772650684230342700,4.8743427734375,15.733407020568848,-17.314464569091797,-3.2446675300598145
1772650684240233500,4.8842333984375,14.513666152954102,-15.809977531433105,-3.0957143306732178
1772650684250110700,4.89411083984375,12.428918838500977,-13.413565635681152,-2.5878376960754395
1772650684259988000,4.903988037109375,11.773285865783691,-12.740584373474121,-1.7724833488464355
1772650684269865200,4.913865234375,13.162917137145996,-13.648660659790039,-0.2392822653055191
1772650684279742500,4.923742431640625,13.83948802947998,-14.696118354797363,-0.776470959186554
1772650684289606000,4.93360595703125,13.991432189941406,-15.65803337097168,-2.2133610248565674
1772650684299497000,4.9434970703125,14.00100326538086,-16.255043029785156,-3.5754752159118652
1772650684309374200,4.953374267578125,14.145171165466309,-16.587045669555664,-4.122833251953125
1772650684319237600,4.963237548828125,14.020146369934082,-17.231313705444336,-4.613960266113281
1772650684329128700,4.973128662109375,14.133805274963379,-18.399011611938477,-5.590830326080322
1772650684339005700,4.983005615234375,14.538191795349121,-18.287744522094727,-6.3254265785217285
1772650684348883000,4.992883056640625,14.894124984741211,-17.60997772216797,-5.938387393951416
1772650684358760200,5.00276025390625,14.590834617614746,-16.838891983032227,-5.239683151245117
1772650684368637400,5.012637451171875,13.970495223999023,-16.29033660888672,-5.030311584472656
1772650684378500900,5.0225009765625,12.845270156860352,-15.591631889343262,-4.847858905792236
1772650684388392000,5.032391845703125,10.59960651397705,-13.831710815429688,-5.02432918548584
1772650684398269200,5.042269287109375,8.324031829833984,-12.648460388183594,-4.577469825744629
1772650684408132600,5.052132568359375,6.5766730308532715,-11.542378425598145,-3.9768712520599365
1772650684418023700,5.062023681640625,4.516452789306641,-8.626724243164062,-3.1028928756713867
1772650684427901000,5.07190087890625,3.025724172592163,-6.499504566192627,-2.5351955890655518
1772650684437764400,5.081764404296875,2.0039889812469482,-4.629513740539551,-1.8783657550811768
1772650684447655400,5.091655517578125,0.8835497498512268,-3.0801608562469482,-1.2729816436767578
1772650684457532400,5.101532470703125,-0.6370890140533447,-2.14516544342041,-1.181456208229065
1772650684467396000,5.11139599609375,-2.1104695796966553,-1.5738791227340698,-1.0151549577713013
1772650684477287000,5.121286865234375,-3.166900873184204,-0.8057830333709717,-0.859621524810791
1772650684487164200,5.1311640625,-3.6323046684265137,0.2991028428077698,-0.6161518096923828
1772650684497027600,5.141027587890625,-3.555136203765869,1.333998680114746,-0.43190449476242065
1772650684506918700,5.150918701171875,-2.612962245941162,2.6225335597991943,0.2709871530532837
1772650684516796000,5.1607958984375,-1.5738791227340698,2.581855535507202,0.3535395562648773
1772650684526659300,5.170659423828125,-0.41575294733047485,2.854039192199707,0.9278169870376587
1772650684536550400,5.18055029296875,0.251844584941864,2.585444927215576,0.7399803996086121
1772650684546427600,5.190427734375,0.6819544434547424,2.0931215286254883,-0.04307080805301666
1772650684556305000,5.200304931640625,0.5228317379951477,1.49611234664917,-1.0965110063552856
1772650684566182100,5.21018212890625,-0.15732808411121368,1.1599208116531372,-1.7742780447006226
1772650684576059100,5.22005908203125,-0.836291491985321,1.1341979503631592,-2.00518536567688
1772650684585936400,5.229936279296875,-1.6085749864578247,1.4051851034164429,-2.00518536567688
1772650684595813600,5.239813720703125,-1.843071699142456,1.5314065217971802,-1.948355793952942
1772650684605691000,5.24969091796875,-1.3956137895584106,1.2592228651046753,-1.8759729862213135
1772650684615568100,5.259568115234375,-0.6801598072052002,1.0689935684204102,-1.5858432054519653
1772650684625445400,5.2694453125,0.06281159073114395,0.7100701332092285,-1.0085747241973877
1772650684635322600,5.279322509765625,0.7974081635475159,-0.10049854964017868,-0.9601200819015503
1772650684645186000,5.28918603515625,1.394417405128479,-0.7692924737930298,0.43130627274513245
1772650684655077000,5.2990771484375,1.2687941789627075,-1.4422738552093506,0.5030909776687622
1772650684664954400,5.308954345703125,1.6372889280319214,-3.4133615493774414,0.5120640397071838
1772650684674817800,5.31881787109375,1.6869399547576904,-4.655834674835205,-1.4931213855743408
1772650684684708900,5.328708984375,2.0404794216156006,-5.450850009918213,-2.1822543144226074
1772650684694585900,5.3385859375,3.397808074951172,-6.7932233810424805,-3.720241069793701
1772650684704449500,5.348449462890625,5.956932067871094,-8.60040283203125,-4.676771640777588
1772650684714340400,5.35834033203125,10.066006660461426,-11.053046226501465,-4.328616142272949
1772650684724217600,5.368217529296875,14.579468727111816,-13.694722175598145,-4.251447677612305
1772650684734081000,5.3780810546875,16.835899353027344,-15.330814361572266,-6.080162525177002
1772650684743972000,5.38797216796875,16.10788345336914,-13.736597061157227,-7.549953460693359
1772650684753849300,5.397849365234375,16.741981506347656,-12.946965217590332,-7.741379261016846
1772650684763712800,5.407712646484375,20.330018997192383,-18.069997787475586,-11.653046607971191
1772650684773603800,5.417603759765625,17.328821182250977,-15.623336791992188,-13.328022003173828
1772650684783480800,5.427480712890625,9.89133071899414,-9.723833084106445,-13.146167755126953
1772650684793344500,5.437344482421875,6.4695940017700195,-10.488938331604004,-12.720245361328125
1772650684803235300,5.4472353515625,8.96530818939209,-13.670195579528809,-12.32542896270752
1772650684813112600,5.457112548828125,12.680763244628906,-14.018949508666992,-12.342777252197266
1772650684822976000,5.46697607421875,14.409578323364258,-12.391830444335938,-11.503495216369629
1772650684832867000,5.4768671875,14.851652145385742,-11.45563793182373,-10.539785385131836
1772650684842744300,5.486744384765625,15.015560150146484,-12.162717819213867,-9.93260669708252
1772650684852621600,5.49662158203125,13.63191032409668,-11.943774223327637,-9.923035621643066
1772650684862498600,5.50649853515625,12.049656867980957,-11.820544242858887,-10.16590690612793
1772650684872375800,5.516375732421875,11.624930381774902,-12.585648536682129,-10.199406623840332
1772650684882253000,5.526253173828125,11.651849746704102,-12.67298698425293,-10.057631492614746
1772650684892130300,5.53613037109375,11.669198036193848,-12.272787094116211,-9.88833999633789
1772650684902007600,5.546007568359375,11.466405868530273,-11.600403785705566,-9.8207426071167
1772650684911871000,5.55587109375,10.53918743133545,-10.782058715820312,-9.224929809570312
1772650684921762000,5.565761962890625,9.601799011230469,-10.378868103027344,-8.81814956665039
1772650684931639300,5.575639404296875,7.895118236541748,-9.187840461730957,-8.337790489196777
1772650684941502700,5.585502685546875,6.224329948425293,-8.047660827636719,-7.370491981506348
1772650684951393800,5.595393798828125,4.7126641273498535,-7.245467185974121,-6.703492641448975
1772650684961271000,5.60527099609375,3.380460262298584,-6.8243303298950195,-5.56450891494751
1772650684971134500,5.615134521484375,1.9854445457458496,-5.876173973083496,-4.615755081176758
1772650684981025300,5.625025390625,1.4739787578582764,-4.992624282836914,-3.9864425659179688
1772650684990902500,5.634902587890625,1.057029366493225,-4.2484564781188965,-2.8414769172668457
1772650685000766000,5.644765869140625,0.9756734371185303,-3.685544967651367,-1.5343974828720093
1772650685010657000,5.654656982421875,1.0217353105545044,-3.373281717300415,-0.5533402562141418
1772650685020534300,5.6645341796875,0.8536394834518433,-2.6249263286590576,0.7429714202880859
1772650685030397700,5.674397705078125,0.9744769930839539,-1.8448662757873535,2.228914260864258
1772650685040288800,5.684288818359375,1.0049854516983032,-1.1868400573730469,3.451646566390991
1772650685050166000,5.694166015625,0.31764721870422363,-0.6454638838768005,3.927220106124878
1772650685060029400,5.704029541015625,-0.5461617708206177,0.35054850578308105,4.158725738525391
1772650685069920300,5.713920166015625,-1.734796404838562,0.6418746709823608,3.707080364227295
1772650685079797500,5.723797607421875,-1.6462619304656982,0.09272187948226929,2.5806591510772705
1772650685089674800,5.7336748046875,-1.4321043491363525,-0.32662028074264526,2.30069899559021
1772650685099552000,5.743552001953125,-1.2616157531738281,-0.6400800347328186,0.7902296781539917
1772650685109429200,5.75342919921875,-0.5473581552505493,-0.9589236974716187,-0.15553347766399384
1772650685119292700,5.763292724609375,-0.06161518394947052,-0.857228696346283,-0.6652047038078308
1772650685129183700,5.773183837890625,0.7561319470405579,-0.2715853750705719,-0.37447673082351685
1772650685139061000,5.78306103515625,1.155135154724121,0.2907279431819916,-0.05503492057323456
1772650685148938200,5.792938232421875,1.306481122970581,0.6616154313087463,-0.29312077164649963
1772650685158815200,5.802815185546875,0.7088736891746521,0.9990034699440002,-0.966102123260498
1772650685168692500,5.8126923828125,-0.062213387340307236,1.1629117727279663,-1.7252250909805298
1772650685178556000,5.822555908203125,-0.32183465361595154,1.316650629043579,-2.304288148880005
1772650685188447000,5.832447021484375,-0.6550351977348328,0.7968099117279053,-3.1818559169769287
1772650685198324200,5.84232421875,-0.9014959335327148,0.35413774847984314,-2.943171739578247
1772650685208201500,5.852201416015625,-0.5808576941490173,-0.3523431420326233,-2.8325037956237793
1772650685218078700,5.86207861328125,0.7405785918235779,-2.072782516479492,-2.6811578273773193
1772650685227956000,5.8719560546875,3.4953157901763916,-4.527220249176025,-2.4951157569885254
1772650685237819400,5.8818193359375,6.68435001373291,-6.771090030670166,-2.1649062633514404
1772650685247710500,5.89171044921875,9.520442962646484,-8.751749038696289,-2.131406784057617
1772650685257587700,5.901587646484375,12.294322967529297,-10.337592124938965,-1.430309772491455
1772650685267451100,5.911451171875,14.316856384277344,-12.072388648986816,-1.784447431564331
1772650685277342000,5.921342041015625,15.327823638916016,-13.222139358520508,-2.6488547325134277
1772650685287219200,5.93121923828125,14.866008758544922,-12.845270156860352,-2.245664119720459
1772650685297082600,5.94108251953125,13.662419319152832,-12.114262580871582,-1.6432709693908691
1772650685306973700,5.9509736328125,12.64606761932373,-12.829118728637695,-1.4033905267715454
1772650685316851000,5.960850830078125,11.891730308532715,-14.189437866210938,-1.674975872039795
1772650685326714400,5.97071435546875,11.560922622680664,-14.700305938720703,-2.1092731952667236
1772650685336605400,5.98060546875,12.19920825958252,-14.040485382080078,-2.943171739578247
1772650685346482700,5.990482666015625,14.057234764099121,-13.570295333862305,-3.2171499729156494
1772650685356346000,6.00034619140625,15.657435417175293,-13.558929443359375,-3.372683525085449
1772650685366237000,6.01023681640625,15.817753791809082,-13.545768737792969,-3.2853455543518066
1772650685376114200,6.0201142578125,15.574284553527832,-14.112868309020996,-3.1334011554718018
1772650685385977600,6.0299775390625,15.603596687316895,-15.565311431884766,-3.623929977416992
1772650685395868700,6.03986865234375,15.135799407958984,-16.072589874267578,-4.610969066619873
1772650685405746000,6.049745849609375,14.641083717346191,-16.106088638305664,-4.923232555389404
1772650685415609300,6.059609375,14.439488410949707,-16.4913330078125,-5.002195835113525
1772650685425500400,6.06950048828125,14.32882022857666,-16.73420524597168,-4.679762840270996
1772650685435377700,6.079377685546875,14.261222839355469,-16.626527786254883,-4.5684967041015625
1772650685445254700,6.089254638671875,13.898710250854492,-15.932609558105469,-3.970889091491699
1772650685455132000,6.0991318359375,13.554143905639648,-14.94975757598877,-3.534797191619873
1772650685465009200,6.109009033203125,12.607782363891602,-13.539787292480469,-3.195016384124756
1772650685474872600,6.11887255859375,11.020742416381836,-11.989237785339355,-3.0382864475250244
1772650685484763600,6.128763671875,9.185447692871094,-10.601400375366211,-2.8666014671325684
1772650685494641000,6.138640869140625,7.119245529174805,-9.232108116149902,-2.5178475379943848
1772650685504504300,6.14850439453125,5.2109694480896,-7.875377655029297,-1.7904295921325684
1772650685514395400,6.1583955078125,3.156731367111206,-6.544369697570801,-1.4775680303573608
1772650685524272600,6.168272705078125,1.1120643615722656,-5.337789058685303,-1.49611234664917
1772650685534136000,6.178135986328125,0.16271193325519562,-4.539782524108887,-1.472184181213379
1772650685544027000,6.18802685546875,-0.5198407173156738,-3.486342668533325,-1.3710874319076538
1772650685553904000,6.197904052734375,-1.212562918663025,-2.1607189178466797,-1.1335997581481934
1772650685563767600,6.207767578125,-1.506281852722168,-1.095314621925354,-1.3561322689056396
1772650685573658600,6.21765869140625,-1.7545372247695923,0.46899324655532837,-1.5756736993789673
1772650685583535900,6.227535888671875,-1.1563315391540527,1.3022937774658203,-1.4315061569213867
1772650685593399300,6.2373994140625,-0.8368897438049316,2.424527645111084,-0.6747759580612183
1772650685603290400,6.247290283203125,0.41096729040145874,2.510071039199829,0.29431718587875366
1772650685613167400,6.25716748046875,1.2065808773040771,2.345564365386963,1.2628121376037598
1772650685623031000,6.267031005859375,1.1001001596450806,2.241476535797119,1.633699655532837
1772650685632921900,6.276921875,0.3206382393836975,2.2235305309295654,1.303490161895752
1772650685642799000,6.286799072265625,-0.42771705985069275,2.248655080795288,0.7716853022575378
1772650685652676400,6.29667626953125,-0.8709874153137207,2.4131617546081543,0.38344982266426086
1772650685662553600,6.3065537109375,-0.5910272002220154,2.231905221939087,0.2913261651992798
1772650685672430800,6.316430908203125,-0.028115665540099144,1.7676976919174194,0.17527425289154053
1772650685682308000,6.32630810546875,0.6191428303718567,1.3004990816116333,0.42293140292167664
1772650685692185300,6.336185302734375,1.155733346939087,1.0564311742782593,0.6903293132781982
1772650685702062600,6.3460625,1.4626128673553467,0.7238288521766663,0.6777670383453369
1772650685711939600,6.355939697265625,1.4500504732131958,0.22791635990142822,0.23748764395713806
1772650685721816800,6.36581689453125,1.2915260791778564,-0.35473597049713135,-0.3158525824546814
1772650685731694000,6.375694091796875,1.3621143102645874,-1.5463616847991943,-1.0187442302703857
1772650685741557500,6.3855576171875,0.9038887619972229,-1.7443677186965942,-1.2987045049667358
1772650685751448600,6.395448486328125,0.7752745151519775,-3.2309088706970215,-1.8478572368621826
1772650685761325800,6.405325927734375,0.17168502509593964,-3.7465620040893555,-2.881556749343872
1772650685771189200,6.415189208984375,-0.129810631275177,-4.766502857208252,-4.180859565734863
1772650685781080300,6.425080322265625,0.7884350419044495,-6.777669906616211,-4.325624942779541
1772650685790957300,6.434957275390625,2.0823538303375244,-8.532207489013672,-4.519443988800049
1772650685800821000,6.444821044921875,4.980062007904053,-8.534600257873535,-4.385445594787598
1772650685810711800,6.4547119140625,8.115856170654297,-7.378866672515869,-3.221935749053955
1772650685820589000,6.464589111328125,12.231511116027832,-7.8658061027526855,-2.8390841484069824
1772650685830452500,6.474452392578125,21.00778579711914,-14.761920928955078,-2.048854351043701
1772650685840343600,6.484343505859375,31.172496795654297,-16.232311248779297,-0.5964110493659973
1772650685850220800,6.494220703125,27.379274368286133,-7.41834831237793,-1.6396816968917847
1772650685860084200,6.504084228515625,15.201004028320312,-0.24885354936122894,-6.302096843719482
1772650685869975000,6.51397509765625,10.832307815551758,-3.899702787399292,-9.78245735168457
1772650685879852300,6.523852294921875,15.239887237548828,-12.951152801513672,-11.700902938842773
1772650685889715700,6.5337158203125,18.72922134399414,-15.337993621826172,-10.703095436096191
1772650685899606800,6.543606689453125,15.363118171691895,-11.373085975646973,-9.837491989135742
1772650685909484000,6.553484130859375,13.229318618774414,-10.427921295166016,-10.949556350708008
1772650685919347500,6.563347412109375,15.236896514892578,-11.638689041137695,-10.13180923461914
1772650685929238500,6.573238525390625,16.633108139038086,-11.235498428344727,-8.637491226196289
1772650685939115500,6.583115478515625,17.142181396484375,-10.199406623840332,-7.232306480407715
1772650685948992800,6.59299267578125,17.012968063354492,-10.735997200012207,-7.405188083648682
1772650685958870000,6.6028701171875,15.7968168258667,-10.40219783782959,-7.94716215133667
1772650685968747300,6.612747314453125,15.312270164489746,-10.381260871887207,-8.024331092834473
1772650685978624500,6.62262451171875,15.808780670166016,-10.759326934814453,-7.357331275939941
1772650685988501800,6.632501708984375,15.942180633544922,-10.444670677185059,-7.139584541320801
1772650685998379000,6.64237890625,15.154343605041504,-9.42173957824707,-7.1473612785339355
1772650686008242400,6.652242431640625,14.246268272399902,-8.391629219055176,-7.595417499542236
1772650686018133200,6.66213330078125,13.219746589660645,-7.504489898681641,-8.01236629486084
1772650686028010500,6.672010498046875,11.876176834106445,-6.748358249664307,-8.24387264251709
1772650686037874000,6.6818740234375,10.641480445861816,-6.15553617477417,-7.8424763679504395
1772650686047765000,6.691764892578125,9.214759826660156,-6.119643688201904,-7.237092018127441
1772650686057642200,6.701642333984375,7.865208148956299,-5.773880958557129,-6.008377552032471
1772650686067505700,6.711505615234375,6.5712890625,-5.2977094650268555,-4.786243438720703
1772650686077396500,6.721396484375,5.2181477546691895,-4.390829563140869,-4.4189453125
1772650686087273700,6.731273681640625,3.988835334777832,-3.8739798069000244,-4.048057556152344
1772650686097137200,6.74113720703125,2.9341988563537598,-3.9050865173339844,-3.6263227462768555
1772650686107028200,6.7510283203125,1.526620864868164,-3.521636724472046,-3.1178479194641113
1772650686116905500,6.760905517578125,0.698704183101654,-3.3469607830047607,-2.2444677352905273
1772650686126769000,6.770768798828125,0.23688943684101105,-3.4241292476654053,-1.3316057920455933
1772650686136660000,6.780659912109375,-0.1866401731967926,-2.6560330390930176,0.09690931439399719
1772650686146537000,6.790536865234375,-0.41216370463371277,-1.882553219795227,1.2526426315307617
1772650686156400600,6.800400634765625,-0.6472585201263428,-1.2951152324676514,2.176870346069336
1772650686166291500,6.81029150390625,-1.0396814346313477,-0.4085744619369507,2.774477958679199
1772650686176168700,6.820168701171875,-1.5128620862960815,0.3403790295124054,2.6943182945251465
1772650686186032000,6.8300322265625,-2.0309081077575684,0.6945167779922485,2.5286152362823486
1772650686195923200,6.839923095703125,-2.4161527156829834,0.8009973764419556,2.347957134246826
1772650686205800400,6.849800537109375,-2.3497519493103027,0.8165507316589355,1.9615163803100586
1772650686215677700,6.859677734375,-1.7599210739135742,0.5748756527900696,1.6354942321777344
1772650686225555000,6.869554931640625,-0.9445667266845703,0.37028929591178894,1.5649060010910034
1772650686235432000,6.879431884765625,-0.10289137065410614,0.1782652884721756,1.4159528017044067
1772650686245295600,6.889295654296875,0.6394818425178528,0.07477571070194244,1.2526426315307617
1772650686255186400,6.8991865234375,0.9924231767654419,0.1950150430202484,0.9852447509765625
1772650686265063700,6.909063720703125,0.6831508874893188,0.46360939741134644,0.6789634227752686
1772650686274941000,6.91894091796875,0.32961133122444153,0.6981059908866882,0.18424734473228455
1772650686284818200,6.928818115234375,-0.34995031356811523,0.7172485589981079,-0.5730810165405273
1772650686294695400,6.9386953125,-0.363709032535553,0.6484549641609192,-0.7986045479774475
1772650686304558800,6.948558837890625,0.062213387340307236,0.16450655460357666,-1.1431710720062256
1772650686314449700,6.95844970703125,1.1473584175109863,-0.7537391185760498,-1.6121642589569092
1772650686324327000,6.968326904296875,2.754138946533203,-2.0506489276885986,-2.3772692680358887
1772650686334190300,6.9781904296875,3.9421753883361816,-3.1304101943969727,-3.008974552154541
1772650686344081400,6.988081298828125,4.787439823150635,-4.339384078979492,-3.64546537399292
1772650686353958700,6.997958740234375,5.989833354949951,-6.698108673095703,-4.302893161773682
1772650686363822000,7.007822021484375,8.323433876037598,-10.189835548400879,-4.690530776977539
1772650686373713200,7.017713134765625,11.854641914367676,-14.843276977539062,-4.01037073135376
1772650686383590100,7.027590087890625,14.618351936340332,-18.939788818359375,-3.87876558303833
1772650686393453600,7.03745361328125,15.287145614624023,-20.41496467590332,-5.08654260635376
1772650686403344600,7.0473447265625,15.830316543579102,-16.764713287353516,-2.3976082801818848
1772650686413222000,7.057221923828125,19.314266204833984,-14.251651763916016,1.9268203973770142
1772650686423085300,7.067085205078125,18.70948028564453,-10.683355331420898,4.711467742919922
1772650686432976400,7.076976318359375,13.996217727661133,-8.84207820892334,0.4833501875400543
1772650686442853600,7.086853515625,11.898908615112305,-8.882157325744629,-2.7086751461029053
1772650686452717000,7.096717041015625,10.743175506591797,-9.168100357055664,-3.318246841430664
1772650686462608000,7.10660791015625,10.75992488861084,-10.250852584838867,-2.995215654373169
1772650686472485000,7.116485107421875,12.103495597839355,-11.897113800048828,-3.5605201721191406
1772650686482348500,7.1263486328125,14.012369155883789,-13.496716499328613,-4.237090587615967
1772650686492239600,7.136239501953125,15.792031288146973,-14.617753982543945,-4.1347975730896
1772650686502116900,7.146116943359375,16.78265953063965,-15.606587409973145,-3.951746702194214
1772650686511980300,7.155980224609375,16.305889129638672,-15.802200317382812,-4.0079779624938965
1772650686521871400,7.165871337890625,15.324234008789062,-15.142379760742188,-3.9870407581329346
1772650686531748400,7.175748291015625,15.52224063873291,-14.56511116027832,-4.029513359069824
1772650686541625600,7.18562548828125,15.9110746383667,-14.446666717529297,-3.99900484085083
1772650686551502800,7.1955029296875,15.674184799194336,-13.73779296875,-3.87876558303833
1772650686561380000,7.205380126953125,15.457036018371582,-13.151551246643066,-3.6029927730560303
1772650686571257300,7.21525732421875,15.04307746887207,-12.735798835754395,-3.07417893409729
1772650686581134600,7.225134521484375,13.940585136413574,-12.233903884887695,-2.5292134284973145
1772650686591011600,7.235011474609375,12.31645679473877,-12.07358455657959,-2.132004976272583
1772650686600875300,7.244875244140625,10.944770812988281,-11.9730863571167,-2.2683959007263184
1772650686610766000,7.25476611328125,9.504291534423828,-11.071590423583984,-1.7096717357635498
1772650686620643300,7.264643310546875,7.664809226989746,-9.601201057434082,-1.1934202909469604
1772650686630506800,7.2745068359375,5.923432350158691,-7.656434059143066,-0.8877372145652771
1772650686640397800,7.284397705078125,4.17726993560791,-5.976672649383545,-0.9152546525001526
1772650686650275000,7.294275146484375,2.3874387741088867,-4.677968502044678,-1.1120643615722656
1772650686660138500,7.304138427734375,0.7513462901115417,-3.6568312644958496,-1.430907964706421
1772650686670029300,7.314029296875,-0.6484549641609192,-2.582453727722168,-1.7922241687774658
1772650686679906600,7.323906494140625,-1.94297194480896,-1.4841482639312744,-1.8987047672271729
1772650686689770000,7.33377001953125,-2.5776681900024414,-0.5473581552505493,-2.032104730606079
1772650686699661000,7.3436611328125,-3.0143582820892334,0.527019202709198,-1.7072789669036865
1772650686709538300,7.353538330078125,-3.2590243816375732,1.6761722564697266,-1.196411371231079
1772650686719401700,7.363401611328125,-3.0011978149414062,2.521436929702759,-0.6628118753433228
1772650686729292800,7.373292724609375,-2.3096721172332764,2.925823926925659,-0.30508488416671753
1772650686739170000,7.383170166015625,-1.3776676654815674,2.885744094848633,0.1256231814622879
1772650686749033500,7.393033447265625,-0.3116651475429535,2.4562325477600098,0.9457631707191467
1772650686758924300,7.40292431640625,0.7226324677467346,1.726421594619751,1.835893154144287
1772650686768801500,7.412801513671875,1.2687941789627075,0.9523434042930603,2.2654049396514893
1772650686778678800,7.4226787109375,1.1168500185012817,0.6251249313354492,2.2648067474365234
1772650686788556000,7.43255615234375,0.4618147611618042,0.4612165689468384,1.3423734903335571
1772650686798433300,7.442433349609375,-0.2757728099822998,0.7752745151519775,1.0319048166275024
1772650686808310500,7.452310546875,-0.5102694034576416,0.8554341197013855,0.9984052777290344
1772650686818187500,7.4621875,-0.3517449200153351,0.6424728631973267,0.8979067206382751
1772650686828064800,7.472064697265625,-0.31106695532798767,0.45583271980285645,0.5156532526016235
1772650686837942000,7.48194189453125,-0.6065805554389954,0.47557350993156433,-0.29850462079048157
1772650686847819300,7.4918193359375,-0.6496513485908508,0.28235307335853577,-1.0325030088424683
1772650686857696500,7.501696533203125,-0.45224347710609436,-0.2745763957500458,-1.5014961957931519
1772650686867560000,7.511559814453125,-0.2021935135126114,-0.9607182741165161,-2.0057835578918457
1772650686877451000,7.521450927734375,0.137587308883667,-1.6504493951797485,-2.2091734409332275
1772650686887328300,7.531328369140625,0.5072783827781677,-1.828116536140442,-2.730808734893799
1772650686897191700,7.541191650390625,1.3399807214736938,-3.4331023693084717,-3.279961585998535
1772650686907082500,7.55108251953125,2.7086751461029053,-6.187241077423096,-3.9834516048431396
1772650686916959700,7.560959716796875,4.028316974639893,-8.082955360412598,-3.909274101257324
1772650686926823200,7.5708232421875,5.633302688598633,-9.821340560913086,-4.009772777557373
1772650686936714200,7.58071435546875,8.594420433044434,-12.259626388549805,-3.4432718753814697
1772650686946591500,7.590591552734375,13.754542350769043,-14.291731834411621,-2.1882362365722656
1772650686956455000,7.600454833984375,19.14975929260254,-15.561721801757812,-1.077966570854187
1772650686966346000,7.610345947265625,19.142581939697266,-11.24327564239502,-1.7252250909805298
1772650686976223000,7.620222900390625,18.491134643554688,-7.254439830780029,-4.2556352615356445
1772650686986086400,7.63008642578125,21.549760818481445,-11.12183952331543,-6.07896614074707
1772650686995977500,7.6399775390625,21.03350830078125,-13.6444730758667,-8.327022552490234
1772650687005854700,7.649854736328125,14.424532890319824,-9.790233612060547,-7.22871732711792
1772650687015718100,7.65971826171875,8.73320484161377,-8.606385231018066,-10.033703804016113
1772650687025609200,7.669609130859375,10.713863372802734,-12.768699645996094,-14.115859031677246
1772650687035486200,7.679486328125,15.696318626403809,-15.908082962036133,-14.57228946685791
1772650687045350000,7.689349853515625,15.397215843200684,-12.608380317687988,-12.648460388183594
1772650687055240700,7.69924072265625,15.083755493164062,-9.332606315612793,-11.860623359680176
1772650687065118000,7.709117919921875,16.686946868896484,-9.55633544921875,-12.214761734008789
1772650687074981400,7.7189814453125,17.30728530883789,-11.130812644958496,-12.20339584350586
1772650687084872400,7.72887255859375,16.66840171813965,-12.559328079223633,-11.93181037902832
1772650687094749700,7.738749755859375,16.264015197753906,-13.515260696411133,-10.430912017822266
1772650687104613000,7.748613037109375,16.255640029907227,-13.451252937316895,-8.187042236328125
1772650687114504000,7.75850390625,15.524633407592773,-12.492328643798828,-7.355536937713623
1772650687124381200,7.768381103515625,15.200406074523926,-12.0604248046875,-7.1988067626953125
1772650687134244600,7.77824462890625,14.356337547302246,-11.404790878295898,-6.401997089385986
1772650687144135700,7.7881357421875,13.01815128326416,-10.13599681854248,-4.925625324249268
1772650687154013000,7.798012939453125,11.178071022033691,-9.124430656433105,-4.161716938018799
1772650687163876400,7.80787646484375,7.89631462097168,-8.039285659790039,-4.3794636726379395
1772650687173767200,7.81776708984375,5.383851051330566,-7.420143127441406,-4.514657974243164
1772650687183644400,7.82764453125,2.991626501083374,-6.711867332458496,-4.801796913146973
1772650687193507800,7.8375078125,1.5672988891601562,-4.203591346740723,-4.874179840087891
1772650687203399000,7.84739892578125,0.885344386100769,-3.8213376998901367,-4.780261516571045
1772650687213276200,7.857276123046875,1.2317054271697998,-3.5581271648406982,-3.840480327606201
1772650687223139600,7.8671396484375,1.4799607992172241,-4.187439441680908,-2.888735055923462
1772650687233030700,7.87703076171875,2.3264217376708984,-4.579264163970947,-1.4656038284301758
1772650687242908000,7.886907958984375,1.9028922319412231,-3.682554006576538,0.2111666053533554
1772650687252771300,7.896771240234375,1.1012966632843018,-2.059622049331665,1.8849459886550903
1772650687262662100,7.906662109375,0.15314064919948578,-1.2400803565979004,2.4017956256866455
1772650687272539400,7.916539306640625,-1.0636097192764282,-0.6957131624221802,1.9286150932312012
1772650687292294000,7.9362939453125,-2.963510751724243,1.164108157157898,1.342971682548523
1772650687302171100,7.946171142578125,-2.235494613647461,1.724626898765564,1.327418327331543
1772650687312034600,7.95603466796875,-0.8967102766036987,1.7120646238327026,1.7132610082626343
1772650687321925600,7.965925537109375,0.877567708492279,1.1425727605819702,1.7982062101364136
1772650687331802600,7.975802734375,2.8384859561920166,0.6945167779922485,2.121835470199585
1772650687341666300,7.985666259765625,4.627718925476074,0.3332005441188812,2.507079839706421
1772650687351557000,7.99555712890625,4.7575297355651855,0.5300102233886719,2.3784656524658203
1772650687361434400,8.005434326171875,3.7525441646575928,0.7190431952476501,1.5990036725997925
1772650687371311600,8.0153115234375,2.1786649227142334,1.0061819553375244,0.9822536706924438
1772650687381188900,8.02518896484375,0.7004988193511963,1.1485549211502075,0.2189432680606842
1772650687391065900,8.03506591796875,-0.23389841616153717,1.1545369625091553,-0.2949153780937195
1772650687400929500,8.044929443359376,-0.7334001660346985,1.0450652837753296,-0.5724828243255615
1772650687410820400,8.0548203125,-0.8183453679084778,0.8009973764419556,-0.6131607890129089
1772650687420697600,8.064697509765624,-0.9332008361816406,0.6741777658462524,-1.1042876243591309
1772650687430561000,8.07456103515625,-1.0055837631225586,0.5772684812545776,-1.7988044023513794
1772650687440452000,8.0844521484375,-1.0917253494262695,0.33858439326286316,-2.2893331050872803
1772650687450329300,8.094329345703125,-0.9272187948226929,-0.11964113265275955,-2.3856441974639893
1772650687460192800,8.10419287109375,-0.6017948985099792,-1.6845471858978271,-1.4841482639312744
1772650687470083600,8.11408349609375,1.0199406147003174,-4.938187599182129,-1.1162517070770264
1772650687479960800,8.1239609375,3.8632121086120605,-9.045467376708984,-2.1481566429138184
1772650687489824300,8.13382421875,6.756732940673828,-12.184252738952637,-3.5539398193359375
1772650687499715300,8.14371533203125,9.131608963012695,-13.572090148925781,-3.7226338386535645
1772650687509592600,8.153592529296875,11.3180513381958,-14.626128196716309,-2.981456995010376
1772650687519456000,8.1634560546875,13.487144470214844,-16.2987117767334,-2.6602206230163574
1772650687529347000,8.17334716796875,14.392827987670898,-17.148162841796875,-4.558925151824951
1772650687539224300,8.183224365234375,13.334602355957031,-17.5076847076416,-5.580660820007324
1772650687549087700,8.193087646484376,12.738191604614258,-17.176279067993164,-4.362115859985352
1772650687558978600,8.202978515625,13.308879852294922,-16.667205810546875,-2.944368362426758
1772650687568855800,8.212855712890626,14.648859977722168,-16.323238372802734,-2.1260228157043457
1772650687578719200,8.22271923828125,14.782857894897461,-16.31426429748535,-2.012363910675049
1772650687588610300,8.2326103515625,13.868800163269043,-16.6654109954834,-4.018745422363281
1772650687598487600,8.242487548828125,12.500703811645508,-16.211971282958984,-3.9152560234069824
1772650687608351000,8.25235107421875,11.521441459655762,-15.241682052612305,-3.080759048461914
1772650687618241800,8.26224169921875,10.799407005310059,-15.18006706237793,-3.342773199081421
1772650687628119000,8.272119140625,10.323235511779785,-15.0275239944458,-3.180659532546997
1772650687637996300,8.281996337890625,10.875977516174316,-14.858232498168945,-2.396411895751953
1772650687647873500,8.29187353515625,12.354741096496582,-14.955739974975586,-2.204986095428467
1772650687657750800,8.301750732421874,13.349557876586914,-14.825928688049316,-2.734398126602173
1772650687667627800,8.311627685546876,13.17248821258545,-14.661422729492188,-3.7124643325805664
1772650687677505000,8.321505126953125,12.43848991394043,-14.318052291870117,-4.685744762420654
1772650687687382300,8.33138232421875,12.433106422424316,-14.727823257446289,-4.8813581466674805
1772650687697259500,8.341259521484375,12.181859970092773,-15.156736373901367,-4.7712883949279785
1772650687707136800,8.35113671875,11.58843994140625,-14.861223220825195,-4.497908592224121
1772650687717014000,8.361013916015626,10.931610107421875,-14.159527778625488,-4.274179458618164
1772650687726877400,8.37087744140625,10.245468139648438,-13.432109832763672,-4.207180500030518
1772650687736768300,8.380768310546875,9.561718940734863,-12.464213371276855,-3.723830223083496
1772650687746645500,8.3906455078125,8.609375953674316,-11.153544425964355,-2.995215654373169
1772650687756509000,8.400509033203125,7.427321434020996,-9.726823806762695,-2.256431818008423
1772650687766400000,8.41039990234375,5.873781204223633,-8.2157564163208,-1.765903115272522
1772650687776277200,8.42027734375,4.392025947570801,-6.790830612182617,-1.5936198234558105
1772650687786140700,8.430140625,3.0203404426574707,-5.380859851837158,-1.2460623979568481
1772650687796031700,8.44003173828125,1.8167506456375122,-4.062414646148682,-0.8877372145652771
1772650687805908700,8.44990869140625,0.8811569213867188,-2.968296527862549,-0.5736792087554932
1772650687815772200,8.459772216796875,0.10169496387243271,-1.5589239597320557,-0.26560330390930176
1772650687825663200,8.469663330078125,-0.8051848411560059,-0.009571290574967861,-0.3355933725833893
1772650687835540500,8.47954052734375,-1.557727575302124,1.8562321662902832,-0.20398813486099243
1772650687845404000,8.48940380859375,-1.6719847917556763,3.0652058124542236,0.07956135272979736
1772650687855295000,8.499294921875,-1.0444670915603638,3.3643085956573486,0.42711883783340454
1772650687865172200,8.509172119140626,-0.29730820655822754,3.1094729900360107,0.8889335989952087
1772650687875035600,8.51903564453125,0.2111666053533554,2.2325034141540527,1.5780665874481201
1772650687884926500,8.528926513671875,0.388235479593277,1.7826528549194336,1.8885352611541748
1772650687894803700,8.5388037109375,0.06759724020957947,1.4075778722763062,2.203789710998535
1772650687904681000,8.548680908203124,-0.29012975096702576,1.2394821643829346,2.2235305309295654
1772650687914558200,8.55855810546875,-0.4259224236011505,1.181456208229065,1.8957136869430542
1772650687924435500,8.568435546875,-0.12083754688501358,1.0193424224853516,1.3196417093276978
1772650687934312700,8.578312744140625,0.2877369225025177,0.7956135272979736,0.9056833982467651
1772650687944189700,8.588189697265625,0.7160521745681763,0.40319061279296875,0.3409772217273712
1772650687954067000,8.59806689453125,1.0528420209884644,0.4426721930503845,0.3678964674472809
1772650687963944200,8.607944091796876,1.4626128673553467,-0.006580262444913387,0.39481574296951294
1772650687973821400,8.617821533203125,1.5284154415130615,-0.9613165259361267,0.06580262631177902
1772650687983698700,8.62769873046875,1.6426727771759033,-0.9696913957595825,-0.12263216078281403
1772650687993562000,8.63756201171875,1.2317054271697998,-1.3764712810516357,-1.41834557056427
1772650688003453200,8.647453125,1.3794622421264648,-1.6295121908187866,-2.213959217071533
1772650688013330200,8.657330078125,1.8005990982055664,-1.934597134590149,-2.6464617252349854
1772650688023193900,8.66719384765625,3.0795626640319824,-3.153740167617798,-3.3918261528015137
1772650688033084700,8.677084716796875,3.830909013748169,-4.367499351501465,-3.960719585418701
1772650688042962000,8.6869619140625,4.8777689933776855,-5.649454116821289,-4.2000017166137695
1772650688052825300,8.696825439453125,6.534200668334961,-7.281957626342773,-4.501497745513916
1772650688062716400,8.70671630859375,7.941778182983398,-8.992227554321289,-5.249852657318115
1772650688072593400,8.716593505859375,9.449256896972656,-10.1216402053833,-5.219942569732666
1772650688082457000,8.72645703125,12.306884765625,-12.371491432189941,-4.604987144470215
1772650688092348000,8.736347900390625,14.19302749633789,-11.5914306640625,-4.603192329406738
1772650688102225200,8.74622509765625,16.73719596862793,-10.550553321838379,-4.543970108032227
1772650688112088600,8.756088623046875,18.6376953125,-8.840283393859863,-3.782454490661621
1772650688121979600,8.765979736328125,18.708881378173828,-6.725626468658447,-2.6865415573120117
1772650688131857000,8.77585693359375,20.000408172607422,-4.8059844970703125,-1.186241865158081
1772650688141720300,8.78572021484375,19.890338897705078,-5.065605640411377,-0.8422735929489136
1772650688151611100,8.795611083984374,18.575481414794922,-7.683353424072266,-2.2091734409332275
1772650688161488400,8.80548828125,17.837295532226562,-10.806585311889648,-2.768495798110962
1772650688171351800,8.815351806640624,16.083356857299805,-10.925628662109375,-2.050050735473633
1772650688181243000,8.825242919921875,14.471193313598633,-10.29033374786377,-1.8245272636413574
1772650688191120100,8.8351201171875,12.854243278503418,-10.264012336730957,-2.9796624183654785
1772650688200983600,8.844983642578125,12.52881908416748,-10.1814603805542,-3.40079927444458
1772650688210874400,8.854874267578126,12.90509033203125,-9.064610481262207,-2.7984061241149902
1772650688220751600,8.864751708984375,13.11685562133789,-8.512466430664062,-3.221935749053955
1772650688230628900,8.87462890625,14.374881744384766,-9.53360366821289,-3.476173162460327
