time,seconds_elapsed,z,y,x
1772656046492392200,0.06439208984375,-1.0003509521484375,-0.015625,-0.007659912109375
1772656046502375400,0.07437548828125,-1.00579833984375,-0.01715087890625,-0.0052947998046875
1772656046512357000,0.084357177734375,-0.99774169921875,-0.01593017578125,-0.007110595703125
1772656046522339300,0.09433935546875,-0.9929351806640625,-0.0150299072265625,-0.0093994140625
1772656046532321300,0.1043212890625,-1.0009918212890625,-0.0163726806640625,-0.008056640625
1772656046542304300,0.11430419921875,-1.003692626953125,-0.0171051025390625,-0.006927490234375
1772656046552286500,0.124286376953125,-0.996612548828125,-0.0163726806640625,-0.0094757080078125
1772656046562268200,0.13426806640625,-0.996429443359375,-0.015594482421875,-0.0082855224609375
1772656046572250400,0.14425048828125,-1.001556396484375,-0.0155487060546875,-0.0074615478515625
1772656046582233000,0.154233154296875,-1.0000762939453125,-0.0163421630859375,-0.0070343017578125
1772656046592215300,0.16421533203125,-0.99627685546875,-0.0154266357421875,-0.0089569091796875
1772656046602197200,0.174197265625,-0.9986724853515625,-0.01544189453125,-0.00823974609375
1772656046612179200,0.18417919921875,-1.0009002685546875,-0.017181396484375,-0.0074920654296875
1772656046622162400,0.194162353515625,-0.99798583984375,-0.0162811279296875,-0.007781982421875
1772656046632144100,0.20414404296875,-0.9974517822265625,-0.016448974609375,-0.0081787109375
1772656046642126300,0.214126220703125,-0.9988250732421875,-0.0159912109375,-0.0076446533203125
1772656046652108300,0.2241083984375,-1.000946044921875,-0.0160980224609375,-0.008270263671875
1772656046662091300,0.23409130859375,-0.9991302490234375,-0.0159149169921875,-0.0076904296875
1772656046672073500,0.244073486328125,-0.9977264404296875,-0.0153961181640625,-0.008056640625
1772656046682055200,0.25405517578125,-1.0007781982421875,-0.0164794921875,-0.0077972412109375
1772656046692037400,0.264037353515625,-1.000091552734375,-0.016387939453125,-0.007476806640625
1772656046702020000,0.27402001953125,-0.9988250732421875,-0.01556396484375,-0.0085296630859375
1772656046712002300,0.284002197265625,-0.99822998046875,-0.0162506103515625,-0.0079498291015625
1772656046721984500,0.293984619140625,-0.999237060546875,-0.0159912109375,-0.0076904296875
1772656046731966200,0.30396630859375,-0.9993743896484375,-0.0161590576171875,-0.007720947265625
1772656046741949400,0.313949462890625,-0.9988555908203125,-0.016448974609375,-0.0080108642578125
1772656046751931100,0.32393115234375,-0.99853515625,-0.0156707763671875,-0.008209228515625
1772656046761913300,0.333913330078125,-0.9989166259765625,-0.0159912109375,-0.00823974609375
1772656046771895300,0.343895263671875,-0.99932861328125,-0.014862060546875,-0.007568359375
1772656046781878300,0.353878173828125,-0.9992218017578125,-0.015594482421875,-0.008331298828125
1772656046791860200,0.363860107421875,-0.99932861328125,-0.0163421630859375,-0.0078582763671875
1772656046801842200,0.37384228515625,-0.9990081787109375,-0.0159454345703125,-0.0075836181640625
1772656046811824400,0.383824462890625,-0.9990386962890625,-0.0153656005859375,-0.0079498291015625
1772656046821807400,0.393807373046875,-0.998382568359375,-0.01629638671875,-0.007843017578125
1772656046831789300,0.403789306640625,-0.9995880126953125,-0.0160369873046875,-0.007904052734375
1772656046841771300,0.413771240234375,-0.9992828369140625,-0.016326904296875,-0.008697509765625
1772656046851753200,0.423753173828125,-0.998931884765625,-0.01568603515625,-0.008148193359375
1772656046861736200,0.433736083984375,-1.0000762939453125,-0.0152130126953125,-0.0071868896484375
1772656046871718100,0.44371826171875,-0.9986572265625,-0.0162200927734375,-0.007659912109375
1772656046881700400,0.453700439453125,-0.9990692138671875,-0.0167236328125,-0.0088043212890625
1772656046891682000,0.46368212890625,-0.9988250732421875,-0.016143798828125,-0.0086822509765625
1772656046901665300,0.473665283203125,-0.9989776611328125,-0.0159912109375,-0.0082244873046875
1772656046911647000,0.48364697265625,-0.998870849609375,-0.016021728515625,-0.0075836181640625
1772656046921629200,0.493629150390625,-0.998443603515625,-0.016326904296875,-0.0077972412109375
1772656046931611400,0.503611328125,-0.99884033203125,-0.016937255859375,-0.0082244873046875
1772656046941594000,0.513593994140625,-0.9986419677734375,-0.0165557861328125,-0.0085906982421875
1772656046951576300,0.523576416015625,-0.998779296875,-0.0159912109375,-0.0081329345703125
1772656046961558000,0.53355810546875,-0.998565673828125,-0.01629638671875,-0.00823974609375
1772656046971540200,0.543540283203125,-0.999267578125,-0.0164031982421875,-0.00799560546875
1772656046981523200,0.553523193359375,-0.999053955078125,-0.0167999267578125,-0.0077056884765625
1772656046991505200,0.563505126953125,-0.9995574951171875,-0.0167999267578125,-0.0078125
1772656047001487400,0.5734873046875,-0.999664306640625,-0.0166473388671875,-0.008392333984375
1772656047011469000,0.583468994140625,-0.999725341796875,-0.015716552734375,-0.00799560546875
1772656047021451300,0.593451171875,-0.9988555908203125,-0.0150909423828125,-0.0080108642578125
1772656047031434200,0.603434326171875,-0.9990386962890625,-0.01531982421875,-0.0077667236328125
1772656047041416200,0.613416259765625,-0.999542236328125,-0.0157470703125,-0.0087127685546875
1772656047051398400,0.6233984375,-0.9991455078125,-0.014984130859375,-0.0082855224609375
1772656047061380000,0.633380126953125,-0.999755859375,-0.0163726806640625,-0.0076904296875
1772656047071363300,0.64336328125,-0.9990234375,-0.0157623291015625,-0.0076751708984375
1772656047081345000,0.653344970703125,-0.9987945556640625,-0.0155181884765625,-0.0083770751953125
1772656047091327200,0.6633271484375,-0.998870849609375,-0.0165252685546875,-0.008087158203125
1772656047101312300,0.673312255859375,-0.999603271484375,-0.0164031982421875,-0.007476806640625
1772656047111294200,0.683294189453125,-0.9996490478515625,-0.0162506103515625,-0.0088958740234375
1772656047121276200,0.693276123046875,-0.999176025390625,-0.0161895751953125,-0.0076904296875
1772656047131259100,0.703259033203125,-0.99957275390625,-0.01568603515625,-0.007568359375
1772656047141241300,0.713241455078125,-0.9986419677734375,-0.0164337158203125,-0.0081024169921875
1772656047151223300,0.723223388671875,-0.9991302490234375,-0.0156402587890625,-0.008880615234375
1772656047161205200,0.733205322265625,-0.9990997314453125,-0.015777587890625,-0.0079345703125
1772656047171188200,0.743188232421875,-0.998138427734375,-0.0163116455078125,-0.0078277587890625
1772656047181170200,0.753170166015625,-0.99981689453125,-0.016204833984375,-0.0073394775390625
1772656047191152000,0.763152099609375,-0.999267578125,-0.0164337158203125,-0.0078125
1772656047201134000,0.773134033203125,-0.9987945556640625,-0.016357421875,-0.0077667236328125
1772656047211117300,0.783117431640625,-0.998443603515625,-0.015716552734375,-0.007476806640625
1772656047221099300,0.793099365234375,-0.999755859375,-0.015655517578125,-0.00897216796875
1772656047231081200,0.803081298828125,-0.998870849609375,-0.01611328125,-0.007965087890625
1772656047241063200,0.813063232421875,-0.9986419677734375,-0.0163421630859375,-0.007476806640625
1772656047251046100,0.823046142578125,-0.9990386962890625,-0.0162506103515625,-0.0076141357421875
1772656047261028400,0.8330283203125,-0.9995269775390625,-0.0162811279296875,-0.007598876953125
1772656047271010000,0.843010009765625,-0.9993133544921875,-0.0158843994140625,-0.0063934326171875
1772656047280992300,0.8529921875,-0.9988861083984375,-0.01593017578125,-0.00775146484375
1772656047290975000,0.86297509765625,-0.998687744140625,-0.016326904296875,-0.0087127685546875
1772656047300957200,0.872957275390625,-0.9989166259765625,-0.0168304443359375,-0.0075225830078125
1772656047310939400,0.882939453125,-0.9987030029296875,-0.01605224609375,-0.0075836181640625
1772656047320921000,0.892921142578125,-0.9994354248046875,-0.0164337158203125,-0.00732421875
1772656047330903300,0.9029033203125,-0.9985504150390625,-0.0157623291015625,-0.0078582763671875
1772656047340886000,0.912885986328125,-0.999114990234375,-0.01544189453125,-0.0086517333984375
1772656047350868200,0.9228681640625,-0.999786376953125,-0.0164031982421875,-0.0079345703125
1772656047360850200,0.93285009765625,-0.99871826171875,-0.0164947509765625,-0.007232666015625
1772656047370832100,0.94283203125,-0.99835205078125,-0.0161285400390625,-0.007537841796875
1772656047380815400,0.9528154296875,-0.9996185302734375,-0.0164337158203125,-0.0080108642578125
1772656047390797000,0.962797119140625,-0.99957275390625,-0.0157623291015625,-0.00872802734375
1772656047400779300,0.972779296875,-0.9993438720703125,-0.0151519775390625,-0.007904052734375
1772656047410761200,0.98276123046875,-0.9989471435546875,-0.0166015625,-0.00775146484375
1772656047420744200,0.992744140625,-0.9997406005859375,-0.0166778564453125,-0.0077056884765625
1772656047430726400,1.002726318359375,-0.9992523193359375,-0.0163421630859375,-0.00811767578125
1772656047440708000,1.0127080078125,-0.9994049072265625,-0.0157470703125,-0.0074310302734375
1772656047450690300,1.022690185546875,-0.9992523193359375,-0.0164642333984375,-0.0080108642578125
1772656047460673000,1.032673095703125,-0.999298095703125,-0.0155181884765625,-0.006927490234375
1772656047470655200,1.0426552734375,-0.9987335205078125,-0.0162353515625,-0.0078125
1772656047480637200,1.05263720703125,-0.997955322265625,-0.0164337158203125,-0.0076904296875
1772656047490619100,1.062619140625,-0.99835205078125,-0.01678466796875,-0.007476806640625
1772656047500602400,1.072602294921875,-0.99932861328125,-0.0167388916015625,-0.0081634521484375
1772656047510584000,1.082583984375,-0.9990997314453125,-0.0156707763671875,-0.00799560546875
1772656047520566300,1.092566162109375,-0.9986724853515625,-0.0156402587890625,-0.007843017578125
1772656047530548000,1.1025478515625,-0.999603271484375,-0.015869140625,-0.008148193359375
1772656047540531200,1.11253125,-0.999176025390625,-0.0155181884765625,-0.00787353515625
1772656047550513200,1.12251318359375,-0.9992828369140625,-0.01617431640625,-0.0074462890625
1772656047560495000,1.1324951171875,-0.9987030029296875,-0.0157318115234375,-0.0084228515625
1772656047570477300,1.142477294921875,-0.9993438720703125,-0.0155029296875,-0.0082855224609375
1772656047580460300,1.152460205078125,-0.9990692138671875,-0.0160064697265625,-0.008056640625
1772656047590442200,1.162442138671875,-0.9990997314453125,-0.016571044921875,-0.007904052734375
1772656047600424200,1.172424072265625,-0.9994659423828125,-0.0164337158203125,-0.0081787109375
1772656047610406100,1.18240625,-0.999114990234375,-0.01593017578125,-0.0081329345703125
1772656047620389000,1.19238916015625,-0.9988250732421875,-0.01629638671875,-0.0083465576171875
1772656047630371000,1.20237109375,-0.9993896484375,-0.0157928466796875,-0.0071258544921875
1772656047640353300,1.212353271484375,-0.999755859375,-0.01617431640625,-0.00830078125
1772656047650335200,1.222335205078125,-0.9988861083984375,-0.0161590576171875,-0.008331298828125
1772656047660318200,1.232318115234375,-0.99920654296875,-0.0165252685546875,-0.0080413818359375
1772656047670300200,1.242300048828125,-0.9992218017578125,-0.0159912109375,-0.0085296630859375
1772656047680282000,1.2522822265625,-0.9991302490234375,-0.0155029296875,-0.00787353515625
1772656047690264300,1.262264404296875,-0.998077392578125,-0.0156402587890625,-0.007843017578125
1772656047700247300,1.272247314453125,-0.99920654296875,-0.016021728515625,-0.0090789794921875
1772656047710229200,1.282229248046875,-1.0001373291015625,-0.0159759521484375,-0.008209228515625
1772656047720211200,1.292211181640625,-0.99920654296875,-0.0157318115234375,-0.00775146484375
1772656047730193200,1.302193115234375,-0.999114990234375,-0.0159912109375,-0.0070648193359375
1772656047740176100,1.312176025390625,-0.9984283447265625,-0.016021728515625,-0.008056640625
1772656047750158300,1.322158447265625,-0.998626708984375,-0.0156402587890625,-0.0082855224609375
1772656047760140300,1.332140380859375,-0.9993438720703125,-0.0162353515625,-0.009063720703125
1772656047770122200,1.342122314453125,-0.9988861083984375,-0.0157470703125,-0.008514404296875
1772656047780105200,1.352105224609375,-1.00030517578125,-0.0160369873046875,-0.0079498291015625
1772656047790087200,1.362087158203125,-0.99896240234375,-0.015289306640625,-0.007537841796875
1772656047800069000,1.372069091796875,-0.998870849609375,-0.015838623046875,-0.008148193359375
1772656047810051300,1.38205126953125,-1.0003509521484375,-0.0166168212890625,-0.008209228515625
1772656047820034300,1.392034423828125,-0.99908447265625,-0.0156402587890625,-0.0076751708984375
1772656047830016300,1.402016357421875,-0.9993743896484375,-0.015869140625,-0.0081329345703125
1772656047839998200,1.411998291015625,-0.999755859375,-0.015625,-0.008453369140625
1772656047849980000,1.42197998046875,-0.99835205078125,-0.01580810546875,-0.00738525390625
1772656047859962600,1.431962646484375,-0.9992218017578125,-0.015838623046875,-0.0092010498046875
1772656047869944800,1.44194482421875,-0.9995880126953125,-0.0156097412109375,-0.0083160400390625
1772656047879926800,1.4519267578125,-0.998138427734375,-0.01611328125,-0.00787353515625
1772656047889908700,1.46190869140625,-0.9987945556640625,-0.0177154541015625,-0.007904052734375
1772656047899892000,1.47189208984375,-0.9994049072265625,-0.0151824951171875,-0.0082244873046875
1772656047909873700,1.481873779296875,-0.9997100830078125,-0.01544189453125,-0.00872802734375
1772656047919855900,1.49185595703125,-0.9984893798828125,-0.0169830322265625,-0.0091552734375
1772656047929837800,1.501837890625,-0.9979705810546875,-0.0167388916015625,-0.0081329345703125
1772656047939820800,1.51182080078125,-0.9992828369140625,-0.0162811279296875,-0.0080413818359375
1772656047949802800,1.521802734375,-1.0001220703125,-0.0161285400390625,-0.0081787109375
1772656047959784700,1.53178466796875,-0.9999542236328125,-0.01641845703125,-0.009033203125
1772656047969767000,1.541766845703125,-1.0005035400390625,-0.0165557861328125,-0.0081634521484375
1772656047979749600,1.55174951171875,-0.999908447265625,-0.016998291015625,-0.0074310302734375
1772656047989731800,1.56173193359375,-0.9990692138671875,-0.016204833984375,-0.0079803466796875
1772656047999713800,1.5717138671875,-0.9986419677734375,-0.0164794921875,-0.00830078125
1772656048009695700,1.58169580078125,-0.9987030029296875,-0.0165557861328125,-0.0077056884765625
1772656048019678700,1.5916787109375,-0.998443603515625,-0.0157318115234375,-0.0084686279296875
1772656048029660700,1.60166064453125,-1.00091552734375,-0.015533447265625,-0.008331298828125
1772656048039643000,1.611642822265625,-0.9989776611328125,-0.0164031982421875,-0.0073699951171875
1772656048049624600,1.62162451171875,-0.9987945556640625,-0.015960693359375,-0.0070648193359375
1772656048059607800,1.63160791015625,-0.99920654296875,-0.017120361328125,-0.007904052734375
1772656048069589800,1.64158984375,-0.9990081787109375,-0.0164642333984375,-0.0077667236328125
1772656048079571700,1.65157177734375,-0.9993438720703125,-0.0157318115234375,-0.00836181640625
1772656048089554000,1.661553955078125,-0.9994659423828125,-0.0169525146484375,-0.0084075927734375
1772656048099537000,1.671536865234375,-0.9988555908203125,-0.01617431640625,-0.0084686279296875
1772656048109518800,1.681518798828125,-0.9994354248046875,-0.0163421630859375,-0.0090789794921875
1772656048119500800,1.691500732421875,-0.998291015625,-0.0172271728515625,-0.0079345703125
1772656048129482800,1.701482666015625,-0.999114990234375,-0.01605224609375,-0.0090179443359375
1772656048139465700,1.7114658203125,-0.9986114501953125,-0.0154571533203125,-0.008026123046875
1772656048149447700,1.72144775390625,-0.999542236328125,-0.0162200927734375,-0.00665283203125
1772656048159430000,1.731429931640625,-0.9990692138671875,-0.0164947509765625,-0.0078277587890625
1772656048169411800,1.741411865234375,-0.9998931884765625,-0.0158233642578125,-0.0078887939453125
1772656048179394800,1.751394775390625,-0.99896240234375,-0.015777587890625,-0.007080078125
1772656048189376800,1.761376708984375,-0.9989471435546875,-0.0165252685546875,-0.0065155029296875
1772656048199358700,1.771358642578125,-0.998382568359375,-0.015350341796875,-0.0086212158203125
1772656048209341000,1.7813408203125,-0.9988555908203125,-0.0162353515625,-0.0081024169921875
1772656048219324000,1.791323974609375,-1.000091552734375,-0.016632080078125,-0.007781982421875
1772656048229305900,1.801305908203125,-0.9990234375,-0.01611328125,-0.00775146484375
1772656048239287800,1.811287841796875,-0.998687744140625,-0.016082763671875,-0.00860595703125
1772656048249269800,1.821269775390625,-0.9994049072265625,-0.0153961181640625,-0.008392333984375
1772656048259252700,1.831252685546875,-0.999053955078125,-0.016448974609375,-0.0080718994140625
1772656048269235000,1.84123486328125,-0.9989776611328125,-0.0162506103515625,-0.008056640625
1772656048279216600,1.851216552734375,-0.99896240234375,-0.0167694091796875,-0.0085601806640625
1772656048289198800,1.86119873046875,-0.998992919921875,-0.01611328125,-0.0088348388671875
1772656048299181800,1.871181884765625,-0.999603271484375,-0.015899658203125,-0.0084991455078125
1772656048309163800,1.881163818359375,-0.9990997314453125,-0.015533447265625,-0.0067138671875
1772656048319145700,1.891145751953125,-0.9982757568359375,-0.0154266357421875,-0.0068359375
1772656048329127700,1.901127685546875,-0.99951171875,-0.0160675048828125,-0.008056640625
1772656048339111000,1.91111083984375,-0.9997100830078125,-0.0152435302734375,-0.0078125
1772656048349092600,1.921092529296875,-0.998779296875,-0.0157318115234375,-0.0086212158203125
1772656048359074800,1.93107470703125,-0.9993896484375,-0.01605224609375,-0.0081329345703125
1772656048369056800,1.941056884765625,-0.9993896484375,-0.015350341796875,-0.007904052734375
1772656048379039700,1.951039794921875,-0.9986572265625,-0.01666259765625,-0.0081939697265625
1772656048389022000,1.96102197265625,-0.9989166259765625,-0.01629638671875,-0.0080718994140625
1772656048399003600,1.971003662109375,-0.998199462890625,-0.0150146484375,-0.00836181640625
1772656048408985900,1.98098583984375,-0.999725341796875,-0.015655517578125,-0.0077667236328125
1772656048418968600,1.990968505859375,-0.9996185302734375,-0.0153656005859375,-0.0079498291015625
1772656048428950800,2.00095068359375,-0.998260498046875,-0.01678466796875,-0.0082855224609375
1772656048438933000,2.01093310546875,-0.9997406005859375,-0.015838623046875,-0.0078125
1772656048448914700,2.020914794921875,-0.9987640380859375,-0.0157623291015625,-0.008026123046875
1772656048458898000,2.03089794921875,-0.999053955078125,-0.01556396484375,-0.0081634521484375
1772656048468879600,2.040879638671875,-0.999603271484375,-0.0159912109375,-0.0081787109375
1772656048478861800,2.05086181640625,-0.9993438720703125,-0.0165252685546875,-0.008148193359375
1772656048488843800,2.06084375,-0.9997711181640625,-0.0162506103515625,-0.008544921875
1772656048498826800,2.07082666015625,-0.9987030029296875,-0.015960693359375,-0.00732421875
1772656048508809000,2.08080908203125,-0.999542236328125,-0.016204833984375,-0.007354736328125
1772656048518790700,2.090790771484375,-0.9991455078125,-0.0162506103515625,-0.0083160400390625
1772656048528772900,2.10077294921875,-0.9982452392578125,-0.0160980224609375,-0.0072021484375
1772656048538755800,2.110755859375,-1.00018310546875,-0.0150604248046875,-0.0078887939453125
1772656048548737800,2.12073779296875,-0.999176025390625,-0.015777587890625,-0.0070037841796875
1772656048558720000,2.130719970703125,-0.998138427734375,-0.0159912109375,-0.0083160400390625
1772656048568701700,2.14070166015625,-0.9987030029296875,-0.01531982421875,-0.0074920654296875
1772656048578685000,2.150684814453125,-1.00006103515625,-0.01519775390625,-0.00689697265625
1772656048588666600,2.16066650390625,-0.9997711181640625,-0.0162506103515625,-0.008148193359375
1772656048598648800,2.17064892578125,-0.9997100830078125,-0.0161590576171875,-0.008056640625
1772656048608630800,2.180630859375,-0.9990386962890625,-0.017425537109375,-0.00775146484375
1772656048618613800,2.19061376953125,-0.9985504150390625,-0.0164337158203125,-0.00738525390625
1772656048628595700,2.200595703125,-0.998626708984375,-0.01666259765625,-0.0082550048828125
1772656048638577700,2.21057763671875,-0.9984893798828125,-0.0158843994140625,-0.0077667236328125
1772656048648560600,2.220560546875,-0.9998321533203125,-0.0153350830078125,-0.0083770751953125
1772656048658542800,2.23054296875,-1.0001220703125,-0.0160369873046875,-0.0078582763671875
1772656048668524800,2.24052490234375,-0.998748779296875,-0.015777587890625,-0.0085601806640625
1772656048678506800,2.2505068359375,-0.9989471435546875,-0.0157623291015625,-0.0093231201171875
1772656048688489700,2.26048974609375,-0.99932861328125,-0.015167236328125,-0.0081329345703125
1772656048698471700,2.2704716796875,-0.99835205078125,-0.015533447265625,-0.008392333984375
1772656048708454000,2.280453857421875,-0.9990692138671875,-0.016845703125,-0.008209228515625
1772656048718435800,2.290435791015625,-0.9983673095703125,-0.0149078369140625,-0.00726318359375
1772656048728418800,2.300418701171875,-0.9989166259765625,-0.016357421875,-0.0076141357421875
1772656048738400800,2.31040087890625,-0.9983062744140625,-0.01611328125,-0.0085296630859375
1772656048748382700,2.3203828125,-0.99957275390625,-0.0165863037109375,-0.0088043212890625
1772656048758364700,2.33036474609375,-0.9988250732421875,-0.0154876708984375,-0.00836181640625
1772656048768347600,2.34034765625,-0.9994964599609375,-0.016510009765625,-0.007537841796875
1772656048778329900,2.350329833984375,-0.9990692138671875,-0.0158843994140625,-0.0075531005859375
1772656048788311800,2.360311767578125,-0.998809814453125,-0.016693115234375,-0.0077056884765625
1772656048798293800,2.370293701171875,-0.998748779296875,-0.0162506103515625,-0.0084075927734375
1772656048808277000,2.380277099609375,-0.9981689453125,-0.0169830322265625,-0.0074920654296875
1772656048818258700,2.3902587890625,-0.9985809326171875,-0.0157470703125,-0.0080108642578125
1772656048828241000,2.400240966796875,-0.9994659423828125,-0.015533447265625,-0.008026123046875
1772656048838222800,2.410222900390625,-1.0003204345703125,-0.0159912109375,-0.0077667236328125
1772656048848206000,2.4202060546875,-0.9985504150390625,-0.016143798828125,-0.007568359375
1772656048858188000,2.43018798828125,-0.9990386962890625,-0.0162200927734375,-0.0083160400390625
1772656048868170200,2.440170166015625,-0.99853515625,-0.016326904296875,-0.008453369140625
1772656048878152200,2.450152099609375,-0.999481201171875,-0.01605224609375,-0.008453369140625
1772656048888135200,2.46013525390625,-0.9987640380859375,-0.01544189453125,-0.00762939453125
1772656048898117000,2.4701171875,-0.999481201171875,-0.016082763671875,-0.0077972412109375
1772656048908099000,2.48009912109375,-0.9990386962890625,-0.0167083740234375,-0.0080413818359375
1772656048918081000,2.4900810546875,-0.998504638671875,-0.015899658203125,-0.00750732421875
1772656048928064000,2.50006396484375,-0.999237060546875,-0.0156707763671875,-0.0078125
1772656048938046200,2.510046142578125,-0.998291015625,-0.0161590576171875,-0.00775146484375
1772656048948028200,2.520028076171875,-0.998992919921875,-0.0159759521484375,-0.007904052734375
1772656048958010000,2.530010009765625,-0.999176025390625,-0.015350341796875,-0.0079193115234375
1772656048967993300,2.539993408203125,-0.998779296875,-0.015655517578125,-0.00811767578125
1772656048977975000,2.54997509765625,-0.9987945556640625,-0.0161895751953125,-0.0089874267578125
1772656048987957200,2.559957275390625,-0.9982452392578125,-0.01605224609375,-0.0077056884765625
1772656048997940000,2.56993994140625,-0.999267578125,-0.01580810546875,-0.00830078125
1772656049007922200,2.579922119140625,-1.0003204345703125,-0.016265869140625,-0.0075836181640625
1772656049017904000,2.589904052734375,-0.99969482421875,-0.0161285400390625,-0.0074920654296875
1772656049027886000,2.599885986328125,-0.9988250732421875,-0.016265869140625,-0.0075836181640625
1772656049037869300,2.609869384765625,-0.998321533203125,-0.0171661376953125,-0.0078277587890625
1772656049047851000,2.61985107421875,-0.9990692138671875,-0.0155792236328125,-0.00848388671875
1772656049057833200,2.629833251953125,-0.9983673095703125,-0.0158233642578125,-0.0081787109375
1772656049067815200,2.639815185546875,-0.998565673828125,-0.0161285400390625,-0.0079498291015625
1772656049077798100,2.649798095703125,-0.9996795654296875,-0.016204833984375,-0.0079345703125
1772656049087780400,2.6597802734375,-0.9998626708984375,-0.016082763671875,-0.0074310302734375
1772656049097762000,2.669761962890625,-0.9989013671875,-0.0163726806640625,-0.008453369140625
1772656049107744300,2.679744140625,-0.99920654296875,-0.0162506103515625,-0.0081634521484375
1772656049117727000,2.68972705078125,-0.99896240234375,-0.0162200927734375,-0.00823974609375
1772656049127709200,2.699709228515625,-0.9991302490234375,-0.01654052734375,-0.008697509765625
1772656049137691100,2.709691162109375,-0.999786376953125,-0.0160064697265625,-0.0078887939453125
1772656049147673000,2.719673095703125,-0.9983367919921875,-0.0159759521484375,-0.00775146484375
1772656049157656300,2.72965625,-0.99871826171875,-0.01580810546875,-0.0084228515625
1772656049167638000,2.739637939453125,-0.9983673095703125,-0.0164947509765625,-0.0086212158203125
1772656049177620200,2.7496201171875,-0.999298095703125,-0.016510009765625,-0.0083160400390625
1772656049187602000,2.759601806640625,-0.9995269775390625,-0.0157470703125,-0.007965087890625
1772656049197585200,2.769585205078125,-0.99859619140625,-0.01580810546875,-0.008087158203125
1772656049207567000,2.779567138671875,-0.998779296875,-0.01568603515625,-0.0074310302734375
1772656049217549000,2.789549072265625,-0.998992919921875,-0.015594482421875,-0.0078887939453125
1772656049227531300,2.79953125,-0.999420166015625,-0.015899658203125,-0.007476806640625
1772656049237514200,2.80951416015625,-0.999237060546875,-0.0161285400390625,-0.008514404296875
1772656049247496200,2.81949609375,-0.99945068359375,-0.0166015625,-0.0087432861328125
1772656049257478100,2.82947802734375,-0.9983062744140625,-0.0170745849609375,-0.0077972412109375
1772656049267461000,2.839461181640625,-0.998870849609375,-0.0157623291015625,-0.00714111328125
1772656049277443000,2.849443115234375,-0.9994659423828125,-0.0164947509765625,-0.0080108642578125
1772656049287425000,2.859425048828125,-0.99920654296875,-0.016632080078125,-0.0081329345703125
1772656049297407200,2.8694072265625,-0.9992523193359375,-0.0155181884765625,-0.007568359375
1772656049307390200,2.87939013671875,-0.9992523193359375,-0.0156097412109375,-0.0079345703125
1772656049317372200,2.8893720703125,-0.99951171875,-0.016143798828125,-0.0073394775390625
1772656049327354000,2.89935400390625,-1.00006103515625,-0.0157012939453125,-0.008056640625
1772656049337336000,2.909336181640625,-1.0000762939453125,-0.0155487060546875,-0.0072784423828125
1772656049347319000,2.919319091796875,-0.9989166259765625,-0.0162811279296875,-0.0079803466796875
1772656049357301200,2.92930126953125,-0.999542236328125,-0.0165557861328125,-0.0083160400390625
1772656049367283200,2.939283203125,-0.998382568359375,-0.015350341796875,-0.008941650390625
1772656049377265200,2.94926513671875,-0.9987945556640625,-0.0158843994140625,-0.008453369140625
1772656049387248400,2.959248291015625,-0.9989471435546875,-0.0166015625,-0.008270263671875
1772656049397230000,2.96922998046875,-0.99847412109375,-0.015777587890625,-0.0086669921875
1772656049407212300,2.97921240234375,-0.9993896484375,-0.01556396484375,-0.007476806640625
1772656049417194200,2.9891943359375,-0.9983673095703125,-0.015869140625,-0.0074310302734375
1772656049427177200,2.99917724609375,-0.9990234375,-0.0159759521484375,-0.00738525390625
1772656049437159200,3.0091591796875,-0.9990997314453125,-0.0156402587890625,-0.008331298828125
1772656049447141000,3.01914111328125,-0.998748779296875,-0.01556396484375,-0.0080718994140625
1772656049457124400,3.029124267578125,-0.9989166259765625,-0.0166168212890625,-0.0071868896484375
1772656049467106000,3.03910595703125,-0.998626708984375,-0.0164794921875,-0.0079803466796875
1772656049477088300,3.049088134765625,-0.999542236328125,-0.016204833984375,-0.0082244873046875
1772656049487070200,3.0590703125,-0.998626708984375,-0.0158843994140625,-0.0076141357421875
1772656049497053200,3.06905322265625,-0.9990081787109375,-0.0154266357421875,-0.007904052734375
1772656049507035100,3.07903515625,-0.9996795654296875,-0.015777587890625,-0.007843017578125
1772656049517017000,3.08901708984375,-0.99908447265625,-0.01611328125,-0.007598876953125
1772656049526999300,3.098999267578125,-0.99896240234375,-0.015777587890625,-0.0077667236328125
1772656049536982000,3.10898193359375,-0.9996337890625,-0.0162353515625,-0.0083160400390625
1772656049546964200,3.118964111328125,-0.99908447265625,-0.0162506103515625,-0.008056640625
1772656049556946200,3.1289462890625,-0.998992919921875,-0.016876220703125,-0.007843017578125
1772656049566928100,3.13892822265625,-0.99859619140625,-0.0164794921875,-0.00787353515625
1772656049576911000,3.1489111328125,-0.99884033203125,-0.016510009765625,-0.0078277587890625
1772656049586893000,3.15889306640625,-0.9993133544921875,-0.016632080078125,-0.0086517333984375
1772656049596875300,3.168875244140625,-0.9987640380859375,-0.015380859375,-0.0081024169921875
1772656049606857000,3.17885693359375,-0.9988250732421875,-0.0157623291015625,-0.008087158203125
1772656049616840200,3.188840087890625,-0.9989013671875,-0.0165252685546875,-0.00799560546875
1772656049626822100,3.198822265625,-0.9993133544921875,-0.016845703125,-0.00860595703125
1772656049636804000,3.20880419921875,-0.99945068359375,-0.0166015625,-0.00860595703125
1772656049646787000,3.218787109375,-0.9986572265625,-0.0160675048828125,-0.009002685546875
1772656049656769300,3.228769287109375,-0.9991607666015625,-0.0164947509765625,-0.008026123046875
1772656049666751200,3.238751220703125,-0.9982452392578125,-0.016204833984375,-0.00732421875
1772656049676733200,3.248733154296875,-0.999298095703125,-0.0162506103515625,-0.0079193115234375
1772656049686716200,3.258716064453125,-0.9983978271484375,-0.015838623046875,-0.0080413818359375
1772656049696698000,3.268697998046875,-0.999114990234375,-0.0164337158203125,-0.0077667236328125
1772656049706680000,3.27868017578125,-0.9988555908203125,-0.0166168212890625,-0.008087158203125
1772656049716662300,3.288662353515625,-0.9986419677734375,-0.0167388916015625,-0.00811767578125
1772656049726645200,3.298645263671875,-0.9997406005859375,-0.0162200927734375,-0.0078125
1772656049736627200,3.308627197265625,-0.9989471435546875,-0.015625,-0.007965087890625
1772656049746609200,3.318609130859375,-0.999664306640625,-0.0156402587890625,-0.0086517333984375
1772656049756591000,3.328591064453125,-0.9993743896484375,-0.016021728515625,-0.008941650390625
1772656049766574000,3.338573974609375,-0.9988861083984375,-0.0165863037109375,-0.0077667236328125
1772656049776556300,3.348556396484375,-0.9997406005859375,-0.0149383544921875,-0.0074462890625
1772656049786538200,3.358538330078125,-0.999053955078125,-0.015350341796875,-0.0079803466796875
1772656049796521200,3.368521240234375,-0.9982757568359375,-0.016143798828125,-0.007843017578125
1772656049806503200,3.378503173828125,-0.9990234375,-0.01641845703125,-0.008209228515625
1772656049816485000,3.388485107421875,-0.9993743896484375,-0.015838623046875,-0.0078582763671875
1772656049826467300,3.39846728515625,-0.998260498046875,-0.016143798828125,-0.00860595703125
1772656049836450000,3.408449951171875,-0.99932861328125,-0.0162353515625,-0.00726318359375
1772656049846432000,3.418431884765625,-0.998626708984375,-0.0157928466796875,-0.0079498291015625
1772656049856414000,3.4284140625,-0.9989471435546875,-0.0158233642578125,-0.0079345703125
1772656049866396200,3.438396240234375,-1.0002899169921875,-0.016021728515625,-0.007843017578125
1772656049876379100,3.448379150390625,-0.9987030029296875,-0.0156097412109375,-0.0086822509765625
1772656049886361000,3.458361083984375,-0.99945068359375,-0.0161285400390625,-0.0080108642578125
1772656049896343000,3.468343017578125,-1.0000457763671875,-0.0163116455078125,-0.00701904296875
1772656049906325000,3.478324951171875,-0.9994659423828125,-0.0163116455078125,-0.0078125
1772656049916308200,3.48830810546875,-0.9991302490234375,-0.0157928466796875,-0.0075836181640625
1772656049926290000,3.4982900390625,-0.99932861328125,-0.015289306640625,-0.0069580078125
1772656049936272100,3.508272216796875,-0.9997100830078125,-0.015533447265625,-0.008148193359375
1772656049946254800,3.5182548828125,-0.9993133544921875,-0.0157623291015625,-0.00860595703125
1772656049956237000,3.528237060546875,-0.998779296875,-0.0155487060546875,-0.0078125
1772656049966219300,3.53821923828125,-0.9991912841796875,-0.016448974609375,-0.0078582763671875
1772656049976201000,3.548200927734375,-0.9985504150390625,-0.01654052734375,-0.0079345703125
1772656049986184200,3.55818408203125,-0.9986572265625,-0.01593017578125,-0.0075836181640625
1772656049996166000,3.568165771484375,-0.999664306640625,-0.015869140625,-0.00738525390625
1772656050006148000,3.578148193359375,-0.9986572265625,-0.016357421875,-0.0077362060546875
1772656050016130000,3.588130126953125,-0.999114990234375,-0.0160980224609375,-0.008270263671875
1772656050026113000,3.598113037109375,-0.998046875,-0.0157012939453125,-0.0082855224609375
1772656050036095200,3.60809521484375,-0.9989776611328125,-0.0165863037109375,-0.007568359375
1772656050046077000,3.618076904296875,-0.9997711181640625,-0.0162811279296875,-0.0068511962890625
1772656050056059100,3.62805908203125,-0.998931884765625,-0.0158538818359375,-0.007659912109375
1772656050066042000,3.6380419921875,-0.9985504150390625,-0.0157012939453125,-0.0080108642578125
1772656050076024000,3.648024169921875,-0.9991455078125,-0.01617431640625,-0.007843017578125
1772656050086006300,3.65800634765625,-0.999267578125,-0.016082763671875,-0.0088348388671875
1772656050095989000,3.667989013671875,-0.998779296875,-0.0156707763671875,-0.007537841796875
1772656050105971200,3.67797119140625,-0.998809814453125,-0.01593017578125,-0.0080108642578125
1772656050115953000,3.687952880859375,-0.9991455078125,-0.0158233642578125,-0.0076751708984375
1772656050125935000,3.69793505859375,-0.9986572265625,-0.016082763671875,-0.00750732421875
1772656050135918000,3.70791796875,-0.999755859375,-0.01580810546875,-0.007232666015625
1772656050145900000,3.717900146484375,-0.99908447265625,-0.0161285400390625,-0.007843017578125
1772656050155882200,3.72788232421875,-0.9989166259765625,-0.0168304443359375,-0.0077362060546875
1772656050165864000,3.737864013671875,-0.9993438720703125,-0.0166778564453125,-0.0077972412109375
1772656050175847200,3.74784716796875,-0.9996337890625,-0.0159149169921875,-0.007537841796875
1772656050185829000,3.7578291015625,-0.999176025390625,-0.016448974609375,-0.0079345703125
1772656050195811000,3.76781103515625,-0.9992523193359375,-0.0160675048828125,-0.00762939453125
1772656050205793000,3.77779296875,-0.9989776611328125,-0.0157318115234375,-0.008026123046875
1772656050215776000,3.78777587890625,-0.998291015625,-0.0160064697265625,-0.0076446533203125
1772656050225758000,3.797758056640625,-0.9987945556640625,-0.0161895751953125,-0.0080108642578125
1772656050235740200,3.807740234375,-1.0002593994140625,-0.0163421630859375,-0.0072784423828125
1772656050245723100,3.81772314453125,-0.99945068359375,-0.0164031982421875,-0.0081329345703125
1772656050255705000,3.827705078125,-0.9988861083984375,-0.0165863037109375,-0.007904052734375
1772656050265687000,3.83768701171875,-0.9990081787109375,-0.0162200927734375,-0.007659912109375
1772656050275669000,3.8476689453125,-0.9995880126953125,-0.0156707763671875,-0.0080108642578125
1772656050285652200,3.85765234375,-0.9996185302734375,-0.015960693359375,-0.008697509765625
1772656050295634000,3.867634033203125,-0.998931884765625,-0.0160675048828125,-0.008026123046875
1772656050305616100,3.8776162109375,-1.0001068115234375,-0.01654052734375,-0.0079498291015625
1772656050315598000,3.88759814453125,-0.9992828369140625,-0.016815185546875,-0.00732421875
1772656050325581000,3.8975810546875,-0.999481201171875,-0.0164794921875,-0.0075225830078125
1772656050335563300,3.907563232421875,-1.000091552734375,-0.0160675048828125,-0.0081787109375
1772656050345545000,3.917544921875,-0.9992828369140625,-0.016021728515625,-0.0075531005859375
1772656050355528200,3.927528076171875,-0.9984588623046875,-0.016204833984375,-0.00799560546875
1772656050365510000,3.937510009765625,-0.999114990234375,-0.0159759521484375,-0.0072784423828125
1772656050375492000,3.9474921875,-0.9991607666015625,-0.016082763671875,-0.0077362060546875
1772656050385474000,3.95747412109375,-0.9992523193359375,-0.0160369873046875,-0.007965087890625
1772656050395457000,3.96745703125,-0.998443603515625,-0.0164794921875,-0.007720947265625
1772656050405439200,3.977439208984375,-0.999908447265625,-0.0154266357421875,-0.007843017578125
1772656050415421000,3.9874208984375,-0.9996337890625,-0.015838623046875,-0.00830078125
1772656050425401000,3.997401123046875,-0.9986572265625,-0.0161285400390625,-0.00811767578125
1772656050435383000,4.007383056640625,-0.9992828369140625,-0.0161895751953125,-0.008270263671875
1772656050445366300,4.0173662109375,-0.999298095703125,-0.01611328125,-0.0081787109375
1772656050455348000,4.027347900390625,-0.9995880126953125,-0.0161285400390625,-0.007843017578125
1772656050465330200,4.037330078125,-0.9993896484375,-0.01617431640625,-0.0080413818359375
1772656050475311900,4.047311767578125,-0.99932861328125,-0.0157928466796875,-0.0082244873046875
1772656050485295000,4.057295166015625,-0.9984588623046875,-0.016357421875,-0.007293701171875
1772656050495277000,4.067277099609375,-0.998504638671875,-0.015960693359375,-0.00677490234375
1772656050505259000,4.077259033203125,-0.999908447265625,-0.01568603515625,-0.0074615478515625
1772656050515242000,4.087241943359375,-0.999969482421875,-0.015594482421875,-0.00738525390625
1772656050525224000,4.097223876953125,-0.9987030029296875,-0.0167694091796875,-0.007598876953125
1772656050535206100,4.1072060546875,-0.9991912841796875,-0.015472412109375,-0.0078887939453125
1772656050545188000,4.11718798828125,-0.998504638671875,-0.0161285400390625,-0.00823974609375
1772656050555171000,4.127171142578125,-0.999237060546875,-0.0163421630859375,-0.00762939453125
1772656050565153000,4.137153076171875,-0.9989471435546875,-0.0162353515625,-0.007537841796875
1772656050575135000,4.147135009765625,-0.998931884765625,-0.015960693359375,-0.0078277587890625
1772656050585118000,4.157117919921875,-0.9981231689453125,-0.016326904296875,-0.0077056884765625
1772656050595100200,4.16710009765625,-0.9988555908203125,-0.016326904296875,-0.007904052734375
1772656050605082000,4.17708203125,-0.9992828369140625,-0.0163116455078125,-0.0072174072265625
1772656050615064000,4.18706396484375,-0.99853515625,-0.016693115234375,-0.0077362060546875
1772656050625047000,4.197047119140625,-1.0009002685546875,-0.0160980224609375,-0.0070648193359375
1772656050635029000,4.207029052734375,-0.999847412109375,-0.0164337158203125,-0.00848388671875
1772656050645011200,4.21701123046875,-0.9988555908203125,-0.0167083740234375,-0.0078125
1772656050654993200,4.2269931640625,-0.9986724853515625,-0.01544189453125,-0.00836181640625
1772656050664976100,4.23697607421875,-0.9994354248046875,-0.0157318115234375,-0.007781982421875
1772656050674958000,4.2469580078125,-0.998626708984375,-0.0159149169921875,-0.0075836181640625
1772656050684940000,4.25693994140625,-0.9997406005859375,-0.016143798828125,-0.008209228515625
1772656050694923300,4.26692333984375,-0.999725341796875,-0.0162506103515625,-0.0078125
1772656050704905000,4.276905029296875,-0.999298095703125,-0.0162353515625,-0.0086669921875
1772656050714887200,4.28688720703125,-0.9996490478515625,-0.016021728515625,-0.008026123046875
1772656050724869000,4.296869140625,-1.00042724609375,-0.0169677734375,-0.008544921875
1772656050734852000,4.30685205078125,-0.9990997314453125,-0.0157012939453125,-0.0084991455078125
1772656050744834300,4.316834228515625,-0.99945068359375,-0.0157318115234375,-0.00836181640625
1772656050754816000,4.32681591796875,-0.999481201171875,-0.0164642333984375,-0.007171630859375
1772656050764798200,4.336798095703125,-0.9989013671875,-0.0159149169921875,-0.0080413818359375
1772656050774781000,4.346781005859375,-0.999053955078125,-0.0160064697265625,-0.0078125
1772656050784763100,4.35676318359375,-0.999847412109375,-0.0163116455078125,-0.007659912109375
1772656050794745000,4.3667451171875,-0.9987640380859375,-0.016448974609375,-0.0079193115234375
1772656050804728000,4.37672802734375,-0.99969482421875,-0.01641845703125,-0.0077667236328125
1772656050814710000,4.3867099609375,-0.998870849609375,-0.0157623291015625,-0.008087158203125
1772656050824692000,4.39669189453125,-0.99871826171875,-0.016082763671875,-0.008087158203125
1772656050834674200,4.406674072265625,-0.998748779296875,-0.015960693359375,-0.0077362060546875
1772656050844657200,4.4166572265625,-0.999053955078125,-0.0163116455078125,-0.007537841796875
1772656050854639600,4.4266396484375,-0.9989471435546875,-0.0166168212890625,-0.0083465576171875
1772656050864621300,4.436621337890625,-0.9991302490234375,-0.0168609619140625,-0.0087127685546875
1772656050874604500,4.4466044921875,-0.9983673095703125,-0.0160369873046875,-0.0082244873046875
1772656050884586200,4.456586181640625,-0.9991607666015625,-0.0160064697265625,-0.0084381103515625
1772656050894568400,4.466568359375,-0.9984283447265625,-0.0155029296875,-0.00836181640625
1772656050904550700,4.476550537109375,-0.9986114501953125,-0.0158843994140625,-0.0073394775390625
1772656050914533400,4.486533447265625,-0.9986419677734375,-0.015777587890625,-0.0081634521484375
1772656050924515600,4.496515625,-0.9984893798828125,-0.0156402587890625,-0.008514404296875
1772656050934497300,4.506497314453125,-0.9990997314453125,-0.016326904296875,-0.0075531005859375
1772656050944479500,4.5164794921875,-0.9996795654296875,-0.0164642333984375,-0.008026123046875
1772656050954462500,4.52646240234375,-0.9990081787109375,-0.015594482421875,-0.007537841796875
1772656050964444400,4.5364443359375,-0.9987335205078125,-0.015777587890625,-0.0079803466796875
1772656050974426600,4.546426513671875,-0.998199462890625,-0.0162353515625,-0.008270263671875
1772656050984409300,4.556409423828125,-0.9981689453125,-0.0157623291015625,-0.0084381103515625
1772656050994391600,4.5663916015625,-0.9990692138671875,-0.0163421630859375,-0.007781982421875
1772656051004373500,4.57637353515625,-0.998504638671875,-0.0155029296875,-0.007781982421875
1772656051014355500,4.58635546875,-1.0003509521484375,-0.01544189453125,-0.007232666015625
1772656051024338400,4.59633837890625,-0.9994659423828125,-0.015899658203125,-0.0083465576171875
1772656051034320400,4.6063203125,-0.9989013671875,-0.016143798828125,-0.0085296630859375
1772656051044302300,4.61630224609375,-0.99835205078125,-0.016021728515625,-0.00762939453125
1772656051054285600,4.62628564453125,-0.9984283447265625,-0.0166168212890625,-0.0073089599609375
1772656051064267500,4.636267578125,-0.9989166259765625,-0.0163116455078125,-0.007965087890625
1772656051074249500,4.64624951171875,-0.998870849609375,-0.0159454345703125,-0.0082244873046875
1772656051084231400,4.6562314453125,-0.999359130859375,-0.0162200927734375,-0.007843017578125
1772656051094214400,4.66621435546875,-0.999298095703125,-0.0164337158203125,-0.0077362060546875
1772656051104196600,4.676196533203125,-0.998138427734375,-0.0166473388671875,-0.0078277587890625
1772656051114178300,4.68617822265625,-0.9996185302734375,-0.0169525146484375,-0.0083770751953125
1772656051124160500,4.696160400390625,-0.9996490478515625,-0.016387939453125,-0.0064239501953125
1772656051134143200,4.706143310546875,-0.99920654296875,-0.0155181884765625,-0.0071868896484375
1772656051144125400,4.71612548828125,-0.999359130859375,-0.0160369873046875,-0.00823974609375
1772656051154107400,4.726107421875,-0.998870849609375,-0.0164794921875,-0.0087432861328125
1772656051164090400,4.73609033203125,-0.99884033203125,-0.015533447265625,-0.0077362060546875
1772656051174072600,4.746072509765625,-0.9992218017578125,-0.0157318115234375,-0.007904052734375
1772656051184054300,4.75605419921875,-0.999725341796875,-0.0158843994140625,-0.0079193115234375
1772656051194036500,4.766036376953125,-0.9978179931640625,-0.0160980224609375,-0.0082244873046875
1772656051204019500,4.77601953125,-0.9989166259765625,-0.01593017578125,-0.0070953369140625
1772656051214001400,4.78600146484375,-1.0000457763671875,-0.0159454345703125,-0.007476806640625
1772656051223983600,4.795983642578125,-0.9983367919921875,-0.0159759521484375,-0.008056640625
1772656051233966300,4.80596630859375,-0.9989166259765625,-0.0164947509765625,-0.0079803466796875
1772656051243948500,4.815948486328125,-0.999053955078125,-0.015655517578125,-0.00830078125
1772656051253930500,4.825930419921875,-0.9994659423828125,-0.0160064697265625,-0.00726318359375
1772656051263912400,4.835912353515625,-0.99932861328125,-0.0161285400390625,-0.0076904296875
1772656051273895400,4.8458955078125,-0.9990692138671875,-0.01708984375,-0.0080413818359375
1772656051283877400,4.85587744140625,-0.999359130859375,-0.016265869140625,-0.0076141357421875
1772656051293859600,4.865859619140625,-0.99957275390625,-0.0156097412109375,-0.008453369140625
1772656051303842600,4.875842529296875,-0.9993133544921875,-0.0158843994140625,-0.008392333984375
1772656051313824500,4.885824462890625,-0.998443603515625,-0.0157928466796875,-0.0079193115234375
1772656051323806500,4.895806396484375,-0.9986114501953125,-0.016021728515625,-0.0082244873046875
1772656051333788400,4.905788330078125,-1.000335693359375,-0.016021728515625,-0.0078277587890625
1772656051343771400,4.915771484375,-0.9986572265625,-0.0163421630859375,-0.00787353515625
1772656051353753600,4.925753662109375,-0.9995269775390625,-0.016754150390625,-0.008270263671875
1772656051363735600,4.935735595703125,-0.9989776611328125,-0.0166015625,-0.00836181640625
1772656051373717500,4.945717529296875,-0.999176025390625,-0.0162200927734375,-0.007781982421875
1772656051383700500,4.955700439453125,-0.9987335205078125,-0.01568603515625,-0.008148193359375
1772656051393682400,4.965682373046875,-0.9986419677734375,-0.01556396484375,-0.0074615478515625
1772656051403664400,4.975664306640625,-0.9988861083984375,-0.0160369873046875,-0.008087158203125
1772656051413647400,4.9856474609375,-1.000274658203125,-0.0165863037109375,-0.00830078125
1772656051423629600,4.995629638671875,-0.99920654296875,-0.0162811279296875,-0.008209228515625
1772656051433611500,5.005611572265625,-0.9983978271484375,-0.0160064697265625,-0.0084381103515625
1772656051443593500,5.015593505859375,-0.9978790283203125,-0.016326904296875,-0.0072784423828125
1772656051453576400,5.025576416015625,-0.9979705810546875,-0.01617431640625,-0.00732421875
1772656051463558400,5.035558349609375,-0.999542236328125,-0.016082763671875,-0.0077972412109375
1772656051473540600,5.04554052734375,-0.9993896484375,-0.01617431640625,-0.0077972412109375
1772656051483523300,5.0555234375,-0.9981536865234375,-0.0163726806640625,-0.0080718994140625
1772656051493505500,5.065505615234375,-0.999176025390625,-0.0160675048828125,-0.0080718994140625
1772656051503487200,5.0754873046875,-1.00006103515625,-0.017120361328125,-0.0078277587890625
1772656051513469400,5.085469482421875,-0.999969482421875,-0.0167236328125,-0.007293701171875
1772656051523452400,5.095452392578125,-0.9991455078125,-0.01629638671875,-0.008148193359375
1772656051533434400,5.105434326171875,-0.998687744140625,-0.0165557861328125,-0.00762939453125
1772656051543416600,5.11541650390625,-0.9995880126953125,-0.0150909423828125,-0.0081634521484375
1772656051553399600,5.125399658203125,-0.9998931884765625,-0.0159912109375,-0.007568359375
1772656051563381500,5.135381591796875,-0.9992218017578125,-0.0162506103515625,-0.00836181640625
1772656051573363500,5.145363525390625,-0.999176025390625,-0.016876220703125,-0.0076904296875
1772656051583345400,5.155345458984375,-0.99945068359375,-0.0159149169921875,-0.00738525390625
1772656051593328400,5.165328369140625,-0.999603271484375,-0.0162506103515625,-0.0084381103515625
1772656051603310300,5.175310302734375,-0.999664306640625,-0.015960693359375,-0.0080108642578125
1772656051613292500,5.18529248046875,-0.998992919921875,-0.0156097412109375,-0.007781982421875
1772656051623275500,5.195275634765625,-0.998748779296875,-0.0160369873046875,-0.008544921875
1772656051633257500,5.205257568359375,-0.9976654052734375,-0.01556396484375,-0.0082244873046875
1772656051643239400,5.215239501953125,-0.9994049072265625,-0.0167236328125,-0.0079193115234375
1772656051653221400,5.225221435546875,-1.00018310546875,-0.0157623291015625,-0.0087738037109375
1772656051663204400,5.235204345703125,-0.999267578125,-0.015655517578125,-0.0077972412109375
1772656051673186600,5.2451865234375,-0.998870849609375,-0.0164337158203125,-0.0077667236328125
1772656051683168500,5.25516845703125,-0.9990234375,-0.015777587890625,-0.0079803466796875
1772656051693151500,5.2651513671875,-0.9993743896484375,-0.016571044921875,-0.007720947265625
1772656051703133400,5.275133544921875,-0.999603271484375,-0.0163116455078125,-0.0088043212890625
1772656051713115400,5.285115478515625,-0.99896240234375,-0.015960693359375,-0.0088653564453125
1772656051723097600,5.29509765625,-0.99859619140625,-0.017059326171875,-0.0077056884765625
1772656051733080300,5.305080322265625,-0.999176025390625,-0.0162353515625,-0.0084228515625
1772656051743062500,5.3150625,-0.9983673095703125,-0.0159454345703125,-0.00830078125
1772656051753044500,5.32504443359375,-0.99859619140625,-0.01611328125,-0.0080718994140625
1772656051763027500,5.33502734375,-0.9995269775390625,-0.0159149169921875,-0.0077667236328125
1772656051773009700,5.345009765625,-0.9987945556640625,-0.0162811279296875,-0.007598876953125
1772656051782991400,5.354991455078125,-0.9989776611328125,-0.016876220703125,-0.0081634521484375
1772656051792973600,5.3649736328125,-0.9993438720703125,-0.015869140625,-0.0072784423828125
1772656051802956300,5.374956298828125,-0.9998779296875,-0.01617431640625,-0.00885009765625
1772656051812938500,5.3849384765625,-0.998779296875,-0.016204833984375,-0.0081787109375
1772656051822920400,5.39492041015625,-0.9985504150390625,-0.0156402587890625,-0.0076751708984375
1772656051832903400,5.4049033203125,-0.9990234375,-0.0162353515625,-0.007843017578125
1772656051842885400,5.414885498046875,-1.0002899169921875,-0.014892578125,-0.007568359375
1772656051852867000,5.4248671875,-0.9992828369140625,-0.0159149169921875,-0.00823974609375
1772656051862849300,5.434849365234375,-0.999542236328125,-0.01495361328125,-0.0079345703125
1772656051872832000,5.44483203125,-0.999755859375,-0.0157623291015625,-0.0084991455078125
1772656051882814200,5.454814208984375,-1.0001983642578125,-0.016082763671875,-0.008087158203125
1772656051892796200,5.464796142578125,-0.999542236328125,-0.0166473388671875,-0.00732421875
1772656051902779100,5.474779052734375,-0.9993438720703125,-0.01568603515625,-0.008148193359375
1772656051912761000,5.484760986328125,-0.999542236328125,-0.0157470703125,-0.00811767578125
1772656051922743000,5.494742919921875,-0.9998321533203125,-0.0154876708984375,-0.0078887939453125
1772656051932725200,5.504725341796875,-0.9993133544921875,-0.016845703125,-0.007781982421875
1772656051942708200,5.514708251953125,-0.9993438720703125,-0.0161285400390625,-0.0079803466796875
1772656051952690200,5.524690185546875,-0.9995880126953125,-0.0156707763671875,-0.0084228515625
1772656051962672000,5.534672119140625,-0.9981842041015625,-0.016143798828125,-0.007232666015625
1772656051972655000,5.544655029296875,-0.999298095703125,-0.014617919921875,-0.0079803466796875
1772656051982637000,5.554636962890625,-0.999267578125,-0.015533447265625,-0.0078277587890625
1772656051992619300,5.564619384765625,-0.999420166015625,-0.0159149169921875,-0.0076446533203125
1772656052002601200,5.574601318359375,-0.9982452392578125,-0.0163116455078125,-0.008026123046875
1772656052012584200,5.584584228515625,-0.99859619140625,-0.0167999267578125,-0.00732421875
1772656052022566100,5.594566162109375,-1.0001068115234375,-0.0166015625,-0.007415771484375
1772656052032548000,5.604548095703125,-0.999053955078125,-0.016448974609375,-0.0073394775390625
1772656052042531300,5.61453125,-0.9998931884765625,-0.01568603515625,-0.0087432861328125
1772656052052513000,5.624512939453125,-1.0000457763671875,-0.0161285400390625,-0.0082855224609375
1772656052062495200,5.6344951171875,-0.99932861328125,-0.0164642333984375,-0.0082550048828125
1772656052072478000,5.64447802734375,-0.999053955078125,-0.0160675048828125,-0.0085906982421875
1772656052082460200,5.654460205078125,-0.99951171875,-0.0162353515625,-0.00830078125
1772656052092442400,5.6644423828125,-0.9998321533203125,-0.0164642333984375,-0.0084991455078125
1772656052102424000,5.674424072265625,-0.9991607666015625,-0.0157623291015625,-0.0075836181640625
1772656052112407300,5.6844072265625,-0.9992523193359375,-0.016571044921875,-0.0074615478515625
1772656052122389000,5.694388916015625,-0.9994354248046875,-0.0162200927734375,-0.008575439453125
1772656052132371200,5.70437109375,-0.998992919921875,-0.0166168212890625,-0.0082550048828125
1772656052142354200,5.714354248046875,-0.998260498046875,-0.0165252685546875,-0.0078887939453125
1772656052152336100,5.724336181640625,-0.9989776611328125,-0.01629638671875,-0.008514404296875
1772656052162318300,5.734318359375,-0.998748779296875,-0.015594482421875,-0.007843017578125
1772656052172300000,5.744300048828125,-0.9993133544921875,-0.0157318115234375,-0.0079193115234375
1772656052182283300,5.754283203125,-0.9979248046875,-0.0167236328125,-0.0077056884765625
1772656052192265200,5.76426513671875,-0.9986419677734375,-0.016387939453125,-0.007354736328125
1772656052202247200,5.7742470703125,-0.9989776611328125,-0.0159759521484375,-0.00775146484375
1772656052212230100,5.784230224609375,-0.99969482421875,-0.01629638671875,-0.00732421875
1772656052222212000,5.794212158203125,-0.9994049072265625,-0.0164031982421875,-0.007537841796875
1772656052232194300,5.8041943359375,-0.999542236328125,-0.0164337158203125,-0.0074005126953125
1772656052242177300,5.81417724609375,-0.99920654296875,-0.016143798828125,-0.0084075927734375
1772656052252159200,5.8241591796875,-0.99945068359375,-0.0157470703125,-0.0087890625
1772656052262141200,5.83414111328125,-0.99951171875,-0.0154876708984375,-0.008331298828125
1772656052272123100,5.844123046875,-0.99810791015625,-0.0154266357421875,-0.0078887939453125
1772656052282106000,5.854106201171875,-0.997772216796875,-0.0153045654296875,-0.0080413818359375
1772656052292088300,5.86408837890625,-0.9987030029296875,-0.015533447265625,-0.008026123046875
1772656052302070000,5.874070068359375,-0.9990692138671875,-0.015960693359375,-0.0077972412109375
1772656052312053200,5.88405322265625,-0.9972991943359375,-0.016510009765625,-0.007904052734375
1772656052322035200,5.89403515625,-0.99847412109375,-0.016754150390625,-0.0073394775390625
1772656052332017200,5.90401708984375,-0.999176025390625,-0.01605224609375,-0.0078582763671875
1772656052342000000,5.914000244140625,-0.9989013671875,-0.0150604248046875,-0.0090484619140625
1772656052351982000,5.923982177734375,-0.9984283447265625,-0.0161895751953125,-0.0077362060546875
1772656052361964300,5.93396435546875,-0.9995269775390625,-0.016082763671875,-0.0082550048828125
1772656052371946000,5.943946044921875,-0.999359130859375,-0.016204833984375,-0.008148193359375
1772656052381929200,5.95392919921875,-0.998199462890625,-0.016754150390625,-0.007537841796875
1772656052391911200,5.9639111328125,-0.9988555908203125,-0.016387939453125,-0.0077972412109375
1772656052401893000,5.97389306640625,-0.9984283447265625,-0.0160064697265625,-0.0069122314453125
1772656052411876000,5.9838759765625,-0.9989166259765625,-0.0167999267578125,-0.0079193115234375
1772656052421858000,5.993858154296875,-0.9994049072265625,-0.016326904296875,-0.007965087890625
1772656052431840300,6.00384033203125,-0.9986419677734375,-0.0160369873046875,-0.0078887939453125
1772656052441823200,6.0138232421875,-0.9991912841796875,-0.01629638671875,-0.0075836181640625
1772656052451805200,6.02380517578125,-0.997955322265625,-0.0158843994140625,-0.0078125
1772656052461787100,6.033787109375,-0.9987335205078125,-0.0154571533203125,-0.0082550048828125
1772656052471770000,6.04377001953125,-0.99871826171875,-0.0159759521484375,-0.0069122314453125
1772656052481752000,6.053751953125,-1,-0.0160675048828125,-0.0084075927734375
1772656052491734300,6.063734375,-0.99774169921875,-0.0163116455078125,-0.007843017578125
1772656052501716200,6.07371630859375,-0.99945068359375,-0.0165252685546875,-0.00787353515625
1772656052511699200,6.08369921875,-0.99957275390625,-0.0159149169921875,-0.0082855224609375
1772656052521681200,6.09368115234375,-0.9981231689453125,-0.0166778564453125,-0.0084991455078125
1772656052531663000,6.1036630859375,-0.9992218017578125,-0.016204833984375,-0.00726318359375
1772656052541646300,6.113646240234375,-0.9989471435546875,-0.016326904296875,-0.007904052734375
1772656052551628000,6.1236279296875,-0.9975433349609375,-0.0155792236328125,-0.0083160400390625
1772656052561610200,6.1336103515625,-0.9990081787109375,-0.0163116455078125,-0.008331298828125
1772656052571593000,6.143593017578125,-0.9985809326171875,-0.016265869140625,-0.0073699951171875
1772656052581575200,6.1535751953125,-0.9987945556640625,-0.016021728515625,-0.00848388671875
1772656052591557400,6.163557373046875,-0.99859619140625,-0.01531982421875,-0.0080413818359375
1772656052601540000,6.1735400390625,-0.99847412109375,-0.0161285400390625,-0.007476806640625
1772656052611522300,6.183522216796875,-0.9991607666015625,-0.0158538818359375,-0.008758544921875
1772656052621504000,6.19350390625,-0.9991912841796875,-0.01611328125,-0.006439208984375
1772656052631486200,6.203486328125,-0.9989776611328125,-0.016326904296875,-0.007781982421875
1772656052641469200,6.21346923828125,-0.997802734375,-0.0165252685546875,-0.0076751708984375
1772656052651451100,6.223451171875,-0.999237060546875,-0.0164031982421875,-0.00738525390625
1772656052661433300,6.233433349609375,-0.9989166259765625,-0.0166168212890625,-0.00762939453125
1772656052671416000,6.243416015625,-0.9992218017578125,-0.0155029296875,-0.007965087890625
1772656052681398300,6.253398193359375,-0.999237060546875,-0.015533447265625,-0.0076446533203125
1772656052691380200,6.263380126953125,-0.999725341796875,-0.015655517578125,-0.00775146484375
1772656052701363200,6.27336328125,-0.9993133544921875,-0.0163421630859375,-0.007537841796875
1772656052711345200,6.28334521484375,-0.9986572265625,-0.0161285400390625,-0.0077056884765625
1772656052721327000,6.2933271484375,-0.998626708984375,-0.016265869140625,-0.007232666015625
1772656052731310000,6.30331005859375,-0.9984130859375,-0.0162506103515625,-0.0067901611328125
1772656052741292300,6.313292236328125,-0.998809814453125,-0.01556396484375,-0.0078887939453125
1772656052751274000,6.32327392578125,-0.9984283447265625,-0.01593017578125,-0.0081024169921875
1772656052761257200,6.33325732421875,-0.9987335205078125,-0.016143798828125,-0.006683349609375
1772656052771239200,6.3432392578125,-0.9987945556640625,-0.015533447265625,-0.0084381103515625
1772656052781221000,6.35322119140625,-0.9993743896484375,-0.015625,-0.0087738037109375
1772656052791204000,6.3632041015625,-0.9990081787109375,-0.0164031982421875,-0.008209228515625
1772656052801186000,6.37318603515625,-0.9981536865234375,-0.0158233642578125,-0.0072021484375
1772656052811168300,6.383168212890625,-0.9981231689453125,-0.016204833984375,-0.0079498291015625
1772656052821151200,6.393151123046875,-0.99884033203125,-0.016326904296875,-0.008819580078125
1772656052831133200,6.40313330078125,-0.998748779296875,-0.01611328125,-0.0080718994140625
1772656052841115100,6.413115234375,-0.9996337890625,-0.016357421875,-0.0080108642578125
1772656052851097000,6.42309716796875,-0.99951171875,-0.01568603515625,-0.0080718994140625
1772656052861080000,6.433080078125,-0.998565673828125,-0.016448974609375,-0.0080108642578125
1772656052871062000,6.44306201171875,-0.9996490478515625,-0.0156402587890625,-0.0077362060546875
1772656052881044200,6.453044189453125,-0.99853515625,-0.015594482421875,-0.0076141357421875
1772656052891027200,6.463027099609375,-0.9984893798828125,-0.016265869140625,-0.007049560546875
1772656052901009200,6.473009033203125,-0.999176025390625,-0.0163116455078125,-0.007537841796875
1772656052910991000,6.4829912109375,-0.9992218017578125,-0.0168609619140625,-0.0076141357421875
1772656052920974300,6.492974365234375,-0.9985809326171875,-0.016937255859375,-0.008026123046875
1772656052930956000,6.5029560546875,-0.999481201171875,-0.016082763671875,-0.0070648193359375
1772656052940938200,6.512938232421875,-0.99945068359375,-0.015472412109375,-0.008087158203125
1772656052950921000,6.5229208984375,-0.9989471435546875,-0.0156402587890625,-0.0068206787109375
1772656052960903200,6.532903076171875,-0.9989013671875,-0.01593017578125,-0.0078582763671875
1772656052970885400,6.542885498046875,-0.9987030029296875,-0.0160980224609375,-0.006988525390625
1772656052980868000,6.5528681640625,-0.9989166259765625,-0.0160980224609375,-0.0077362060546875
1772656052990850300,6.562850341796875,-0.9992828369140625,-0.0159759521484375,-0.0082855224609375
1772656053000832000,6.57283203125,-0.998443603515625,-0.0161590576171875,-0.007659912109375
1772656053010815200,6.582815185546875,-0.9985504150390625,-0.016021728515625,-0.0068817138671875
1772656053020797200,6.592797119140625,-0.9999847412109375,-0.0155487060546875,-0.0072784423828125
1772656053030779100,6.602779052734375,-0.9994964599609375,-0.01605224609375,-0.008209228515625
1772656053040762000,6.61276220703125,-0.99951171875,-0.01666259765625,-0.0070648193359375
1772656053050744000,6.622744140625,-0.9995574951171875,-0.0164794921875,-0.0081939697265625
1772656053060726300,6.632726318359375,-0.998779296875,-0.0166778564453125,-0.0082550048828125
1772656053070709200,6.642709228515625,-0.998291015625,-0.0158233642578125,-0.007415771484375
1772656053080691200,6.652691162109375,-0.9989471435546875,-0.01654052734375,-0.007843017578125
1772656053090673200,6.662673095703125,-0.999267578125,-0.0172882080078125,-0.007049560546875
1772656053100656400,6.672656494140625,-0.998321533203125,-0.0164794921875,-0.0084228515625
1772656053110638000,6.68263818359375,-0.99957275390625,-0.016815185546875,-0.007080078125
1772656053120620300,6.692620361328125,-0.9996185302734375,-0.0160980224609375,-0.0072479248046875
1772656053130603000,6.70260302734375,-0.9986724853515625,-0.0165252685546875,-0.00787353515625
1772656053140585200,6.712585205078125,-0.998870849609375,-0.01580810546875,-0.0080718994140625
1772656053150567200,6.722567138671875,-0.9986114501953125,-0.0156402587890625,-0.00775146484375
1772656053160550100,6.732550048828125,-0.99810791015625,-0.01593017578125,-0.0080108642578125
1772656053170532400,6.742532470703125,-0.99969482421875,-0.015777587890625,-0.0080718994140625
1772656053180514000,6.75251416015625,-0.999237060546875,-0.0156097412109375,-0.0072784423828125
1772656053190497300,6.762497314453125,-0.9992828369140625,-0.016265869140625,-0.0081939697265625
1772656053200479200,6.772479248046875,-0.99896240234375,-0.015869140625,-0.0083770751953125
1772656053210461200,6.782461181640625,-0.998809814453125,-0.01593017578125,-0.00811767578125
1772656053220444200,6.792444091796875,-0.9995574951171875,-0.016265869140625,-0.00799560546875
1772656053230426000,6.802426025390625,-0.9991607666015625,-0.0162811279296875,-0.00750732421875
1772656053240408000,6.812407958984375,-0.9990234375,-0.0160980224609375,-0.0076141357421875
1772656053250391300,6.822391357421875,-0.999786376953125,-0.0155792236328125,-0.0077362060546875
1772656053260373000,6.832373046875,-0.9984893798828125,-0.0157928466796875,-0.007598876953125
1772656053270355200,6.842355224609375,-0.9989013671875,-0.01617431640625,-0.0074615478515625
1772656053280338200,6.852338134765625,-0.99908447265625,-0.0167694091796875,-0.0076141357421875
1772656053290320100,6.862320068359375,-0.9988861083984375,-0.01678466796875,-0.0080108642578125
1772656053300302300,6.87230224609375,-0.9988250732421875,-0.016204833984375,-0.0086822509765625
1772656053310285000,6.88228515625,-0.998779296875,-0.01629638671875,-0.0081939697265625
1772656053320267300,6.892267333984375,-0.998870849609375,-0.0163421630859375,-0.0080108642578125
1772656053330249000,6.9022490234375,-0.9984588623046875,-0.0165252685546875,-0.0073699951171875
1772656053340232200,6.912232177734375,-0.9999847412109375,-0.0162200927734375,-0.0081329345703125
1772656053350214100,6.922214111328125,-0.9983673095703125,-0.0170135498046875,-0.0079803466796875
1772656053360196000,6.932196044921875,-0.998992919921875,-0.016754150390625,-0.0081024169921875
1772656053370179000,6.942178955078125,-0.9992218017578125,-0.0157012939453125,-0.0078887939453125
1772656053380161000,6.9521611328125,-0.9998931884765625,-0.0164337158203125,-0.00823974609375
1772656053390143200,6.962143310546875,-0.998992919921875,-0.0162506103515625,-0.007171630859375
1772656053400126200,6.972126220703125,-0.9989776611328125,-0.016632080078125,-0.0071258544921875
1772656053410108200,6.982108154296875,-0.9991607666015625,-0.015838623046875,-0.0085906982421875
1772656053420090000,6.992090087890625,-0.9985504150390625,-0.0157318115234375,-0.007415771484375
1772656053430073300,7.0020732421875,-0.9983062744140625,-0.01605224609375,-0.00738525390625
1772656053440055000,7.012054931640625,-0.999267578125,-0.01629638671875,-0.0082244873046875
1772656053450038300,7.022038330078125,-0.997833251953125,-0.0162811279296875,-0.0077056884765625
1772656053460020000,7.03202001953125,-0.99835205078125,-0.0158233642578125,-0.00775146484375
1772656053470002200,7.042002197265625,-0.9986419677734375,-0.01654052734375,-0.008941650390625
1772656053479985200,7.051985107421875,-0.9996490478515625,-0.01605224609375,-0.00848388671875
1772656053489967000,7.061967041015625,-0.99884033203125,-0.015411376953125,-0.007904052734375
1772656053499949300,7.07194921875,-0.998504638671875,-0.0159759521484375,-0.0074310302734375
1772656053509932000,7.08193212890625,-0.9992828369140625,-0.0161590576171875,-0.00848388671875
1772656053519914200,7.091914306640625,-0.9987335205078125,-0.0166168212890625,-0.0072479248046875
1772656053529896200,7.101896240234375,-0.998321533203125,-0.0159912109375,-0.0075836181640625
1772656053539879200,7.111879150390625,-0.9992828369140625,-0.0158538818359375,-0.0069427490234375
1772656053549861000,7.121861083984375,-1.0001220703125,-0.016326904296875,-0.007904052734375
1772656053559843000,7.131843017578125,-0.998809814453125,-0.0162811279296875,-0.00811767578125
1772656053569826000,7.141825927734375,-0.9981842041015625,-0.016571044921875,-0.0079345703125
1772656053579808300,7.151808349609375,-0.998931884765625,-0.0162353515625,-0.0085601806640625
1772656053589790200,7.161790283203125,-0.9988250732421875,-0.01568603515625,-0.00732421875
1772656053599773200,7.171773193359375,-0.9989471435546875,-0.01568603515625,-0.007080078125
1772656053609755400,7.18175537109375,-0.9980621337890625,-0.0160980224609375,-0.0076141357421875
1772656053619737000,7.191737060546875,-0.9988555908203125,-0.0160980224609375,-0.0076141357421875
1772656053629720300,7.20172021484375,-0.9992828369140625,-0.0166015625,-0.007659912109375
1772656053639702000,7.211701904296875,-0.9982757568359375,-0.0162506103515625,-0.0078125
1772656053649685200,7.221685302734375,-0.9981231689453125,-0.015716552734375,-0.0078125
1772656053659667200,7.231667236328125,-0.998809814453125,-0.0163726806640625,-0.007171630859375
1772656053669649200,7.241649169921875,-0.9991455078125,-0.0158843994140625,-0.0075836181640625
1772656053679632100,7.251632080078125,-0.9986114501953125,-0.0155181884765625,-0.0077972412109375
1772656053689614000,7.261614013671875,-0.9986724853515625,-0.0153961181640625,-0.0083160400390625
1772656053699596300,7.27159619140625,-0.9996185302734375,-0.0159759521484375,-0.00836181640625
1772656053709579300,7.281579345703125,-0.9991607666015625,-0.015655517578125,-0.007659912109375
1772656053719561200,7.291561279296875,-0.9988861083984375,-0.016387939453125,-0.008544921875
1772656053729543200,7.301543212890625,-0.999481201171875,-0.0163421630859375,-0.0086212158203125
1772656053739526100,7.311526123046875,-0.9998931884765625,-0.01629638671875,-0.007965087890625
1772656053749508000,7.321508056640625,-0.9983978271484375,-0.015625,-0.0066680908203125
1772656053759490300,7.331490234375,-0.99932861328125,-0.016265869140625,-0.0076751708984375
1772656053769473000,7.34147314453125,-0.99884033203125,-0.015716552734375,-0.0084228515625
1772656053779455200,7.351455322265625,-0.998870849609375,-0.0157470703125,-0.0078887939453125
1772656053789438200,7.361438232421875,-0.9987945556640625,-0.015594482421875,-0.0075531005859375
1772656053799420200,7.371420166015625,-0.9995574951171875,-0.01580810546875,-0.007415771484375
1772656053809402000,7.381402099609375,-0.9983978271484375,-0.0157318115234375,-0.007904052734375
1772656053819385000,7.391385009765625,-0.999176025390625,-0.0156402587890625,-0.007415771484375
1772656053829367000,7.401366943359375,-0.99847412109375,-0.01666259765625,-0.0076904296875
1772656053839349200,7.411349365234375,-0.9991455078125,-0.0169525146484375,-0.0081939697265625
1772656053849332000,7.42133203125,-0.99896240234375,-0.01593017578125,-0.0089263916015625
1772656053859313700,7.431313720703125,-0.99932861328125,-0.0156707763671875,-0.00750732421875
1772656053869295900,7.4412958984375,-0.9987945556640625,-0.01654052734375,-0.0090789794921875
1772656053879278800,7.45127880859375,-0.9990386962890625,-0.0166473388671875,-0.008392333984375
1772656053889260800,7.4612607421875,-0.9989166259765625,-0.0165863037109375,-0.0078125
1772656053899242800,7.47124267578125,-0.9990234375,-0.0164794921875,-0.0076141357421875
1772656053909225700,7.481225830078125,-0.9978485107421875,-0.0164031982421875,-0.0075836181640625
1772656053919208000,7.4912080078125,-0.999725341796875,-0.016265869140625,-0.0081024169921875
1772656053929191000,7.50119091796875,-0.9984283447265625,-0.0147705078125,-0.00750732421875
1772656053939172900,7.5111728515625,-0.9991607666015625,-0.0169219970703125,-0.008148193359375
1772656053949154800,7.52115478515625,-0.9983367919921875,-0.0167694091796875,-0.0082855224609375
1772656053959137800,7.5311376953125,-0.99945068359375,-0.0162811279296875,-0.0067901611328125
1772656053969119700,7.54111962890625,-0.9999542236328125,-0.0166015625,-0.0077667236328125
1772656053979102000,7.55110205078125,-0.9992828369140625,-0.016021728515625,-0.0083770751953125
1772656053989084700,7.561084716796875,-0.9983062744140625,-0.0165252685546875,-0.0075225830078125
1772656053999067000,7.57106689453125,-0.999420166015625,-0.0162353515625,-0.00738525390625
1772656054009048600,7.581048583984375,-0.9997406005859375,-0.0164642333984375,-0.0075225830078125
1772656054019031800,7.59103173828125,-0.999542236328125,-0.0167388916015625,-0.0082550048828125
1772656054029013800,7.601013671875,-0.9989013671875,-0.0159912109375,-0.008514404296875
1772656054038996700,7.610996826171875,-0.999664306640625,-0.015869140625,-0.00787353515625
1772656054048978700,7.620978759765625,-0.9995269775390625,-0.0162811279296875,-0.0078125
1772656054058960600,7.630960693359375,-0.99945068359375,-0.01727294921875,-0.00726318359375
1772656054068943600,7.640943603515625,-0.9994049072265625,-0.0160980224609375,-0.0076446533203125
1772656054078925800,7.65092578125,-0.999298095703125,-0.0158538818359375,-0.0077972412109375
1772656054088907800,7.66090771484375,-0.999114990234375,-0.01641845703125,-0.007293701171875
1772656054098890800,7.670890869140625,-0.9991455078125,-0.0160369873046875,-0.00732421875
1772656054108873000,7.680873046875,-0.999267578125,-0.0159454345703125,-0.0079803466796875
1772656054118855700,7.690855712890625,-0.9985809326171875,-0.016265869140625,-0.0077362060546875
1772656054128838000,7.700837890625,-0.999053955078125,-0.016143798828125,-0.0077972412109375
1772656054138819600,7.710819580078125,-0.9988861083984375,-0.0157623291015625,-0.007080078125
1772656054148802800,7.720802734375,-0.9991912841796875,-0.0165252685546875,-0.0075531005859375
1772656054158784800,7.73078466796875,-0.999053955078125,-0.0167999267578125,-0.0078125
1772656054168766700,7.7407666015625,-0.99993896484375,-0.0162506103515625,-0.007598876953125
1772656054178749700,7.750749755859375,-1.0001220703125,-0.0159149169921875,-0.00811767578125
1772656054188731600,7.760731689453125,-0.9991607666015625,-0.0162353515625,-0.00799560546875
1772656054198714600,7.770714599609375,-0.9989013671875,-0.0164337158203125,-0.008056640625
1772656054208696800,7.78069677734375,-0.9986572265625,-0.016021728515625,-0.0081634521484375
1772656054218678800,7.7906787109375,-0.999176025390625,-0.0152130126953125,-0.0084228515625
1772656054228661800,7.800661865234375,-0.9994354248046875,-0.0161590576171875,-0.008026123046875
1772656054238644000,7.81064404296875,-0.999114990234375,-0.0158538818359375,-0.008148193359375
1772656054248625700,7.820625732421875,-0.999725341796875,-0.0163421630859375,-0.007659912109375
1772656054258609000,7.83060888671875,-0.9989471435546875,-0.016571044921875,-0.008209228515625
1772656054268590600,7.840590576171875,-0.99908447265625,-0.01666259765625,-0.0086822509765625
1772656054278573800,7.85057373046875,-0.99932861328125,-0.017181396484375,-0.007781982421875
1772656054288555800,7.8605556640625,-1.0002899169921875,-0.0165557861328125,-0.0077667236328125
1772656054298537700,7.870537841796875,-0.9988250732421875,-0.015655517578125,-0.008148193359375
1772656054308520700,7.880520751953125,-0.9995880126953125,-0.01629638671875,-0.0079193115234375
1772656054318502700,7.890502685546875,-0.99981689453125,-0.0163116455078125,-0.0070953369140625
1772656054328484900,7.90048486328125,-0.99945068359375,-0.016387939453125,-0.008148193359375
1772656054338467800,7.9104677734375,-0.9993743896484375,-0.0165252685546875,-0.0077667236328125
1772656054348449800,7.92044970703125,-0.9999847412109375,-0.0158843994140625,-0.0093231201171875
1772656054358432800,7.930432861328125,-0.9981231689453125,-0.016082763671875,-0.0090789794921875
1772656054368415000,7.9404150390625,-0.9990234375,-0.0164337158203125,-0.0075836181640625
1772656054378396700,7.950396728515625,-0.998870849609375,-0.01580810546875,-0.006500244140625
1772656054388380000,7.9603798828125,-0.999481201171875,-0.016326904296875,-0.0078887939453125
1772656054398361600,7.970361572265625,-0.9996337890625,-0.0163116455078125,-0.007232666015625
1772656054408343800,7.98034375,-0.9993438720703125,-0.0158233642578125,-0.00775146484375
1772656054418326800,7.990326904296875,-0.9986114501953125,-0.015869140625,-0.0070037841796875
1772656054428308700,8.000308837890625,-0.999237060546875,-0.0154571533203125,-0.0084228515625
1772656054438291700,8.010291748046875,-0.998748779296875,-0.015594482421875,-0.00836181640625
1772656054448274000,8.02027392578125,-0.9994659423828125,-0.0161285400390625,-0.00823974609375
1772656054458256000,8.030255859375,-0.9987640380859375,-0.0160980224609375,-0.007415771484375
1772656054468238800,8.04023876953125,-0.999298095703125,-0.01605224609375,-0.0074615478515625
1772656054478220800,8.050220703125,-0.99871826171875,-0.01605224609375,-0.007568359375
1772656054488202800,8.06020263671875,-0.9983367919921875,-0.01611328125,-0.0081329345703125
1772656054498186000,8.07018603515625,-0.9991302490234375,-0.016387939453125,-0.0072021484375
1772656054508167700,8.080167724609375,-1.0001068115234375,-0.0161895751953125,-0.0072021484375
1772656054518151000,8.09015087890625,-0.998687744140625,-0.01593017578125,-0.0080413818359375
1772656054528132600,8.100132568359374,-0.9991302490234375,-0.0157012939453125,-0.008514404296875
1772656054538114800,8.11011474609375,-0.9994049072265625,-0.0169219970703125,-0.0079498291015625
1772656054548097800,8.120097900390626,-0.9985809326171875,-0.015655517578125,-0.00830078125
1772656054558079700,8.130079833984375,-0.998260498046875,-0.0163726806640625,-0.009033203125
1772656054568062700,8.140062744140625,-0.9994354248046875,-0.0168609619140625,-0.00799560546875
1772656054578045000,8.150044921875,-0.999847412109375,-0.0163421630859375,-0.0083160400390625
1772656054588027000,8.16002685546875,-0.999298095703125,-0.0155029296875,-0.0077972412109375
1772656054598009900,8.170009765625,-0.9997406005859375,-0.0158843994140625,-0.0075225830078125
1772656054607991800,8.17999169921875,-0.9990692138671875,-0.0167388916015625,-0.008392333984375
1772656054617973800,8.189973876953125,-0.99884033203125,-0.01580810546875,-0.007568359375
1772656054627957000,8.19995703125,-0.9987640380859375,-0.016387939453125,-0.007476806640625
1772656054637938700,8.209938720703125,-0.9991912841796875,-0.015869140625,-0.007568359375
1772656054647922000,8.219921875,-0.9990997314453125,-0.015899658203125,-0.0073699951171875
1772656054657903600,8.229903564453124,-0.9988555908203125,-0.0156097412109375,-0.0074920654296875
1772656054667885800,8.2398857421875,-0.9992523193359375,-0.0159454345703125,-0.007476806640625
1772656054677868800,8.249868896484376,-0.99932861328125,-0.0158843994140625,-0.0081787109375
1772656054687850800,8.259850830078125,-0.9990234375,-0.016693115234375,-0.008697509765625
1772656054697833700,8.269833740234375,-0.999420166015625,-0.0163421630859375,-0.008270263671875
1772656054707816000,8.27981591796875,-0.999420166015625,-0.0163726806640625,-0.0079193115234375
1772656054717797600,8.289797607421875,-0.9982147216796875,-0.0164031982421875,-0.0078125
1772656054727780900,8.29978076171875,-0.9995574951171875,-0.0164337158203125,-0.00811767578125
1772656054737762800,8.3097626953125,-0.9993133544921875,-0.0150299072265625,-0.00787353515625
1772656054747745800,8.319745849609374,-0.9983367919921875,-0.0156707763671875,-0.0083160400390625
1772656054757727700,8.329727783203126,-0.9990997314453125,-0.0161285400390625,-0.0078125
1772656054767709700,8.339709716796875,-0.998016357421875,-0.015594482421875,-0.0079803466796875
1772656054777692700,8.349692626953125,-0.9994964599609375,-0.01641845703125,-0.0079803466796875
1772656054787674600,8.359674560546875,-0.999481201171875,-0.01611328125,-0.0075836181640625
1772656054797657900,8.369657958984375,-0.998870849609375,-0.0152130126953125,-0.0078125
1772656054807639800,8.379639892578124,-0.9997711181640625,-0.016357421875,-0.0068206787109375
1772656054817621800,8.389621826171876,-0.9988250732421875,-0.0158538818359375,-0.00738525390625
1772656054827604700,8.399604736328126,-0.999267578125,-0.016265869140625,-0.0082550048828125
1772656054837587000,8.4095869140625,-0.999114990234375,-0.015899658203125,-0.0072784423828125
1772656054847568600,8.419568603515625,-0.9992828369140625,-0.0166778564453125,-0.007354736328125
1772656054857552600,8.429552734375,-0.9989013671875,-0.0163726806640625,-0.0087127685546875
1772656054867534800,8.439534912109375,-0.999908447265625,-0.016021728515625,-0.0079345703125
1772656054877517800,8.449517822265625,-0.9993438720703125,-0.0169219970703125,-0.0077056884765625
1772656054887499800,8.459499755859374,-1.0001068115234375,-0.016021728515625,-0.0074920654296875
1772656054897482000,8.46948193359375,-0.9991455078125,-0.016448974609375,-0.00738525390625
1772656054907464700,8.479464599609376,-0.9988250732421875,-0.0171356201171875,-0.007476806640625
1772656054917447000,8.489447021484375,-0.999725341796875,-0.016510009765625,-0.0065765380859375
1772656054927430000,8.499429931640625,-1.0001983642578125,-0.016357421875,-0.0077362060546875
1772656054937411800,8.509411865234375,-0.9990692138671875,-0.0158843994140625,-0.0082550048828125
1772656054947393800,8.519393798828125,-0.9994049072265625,-0.015869140625,-0.008453369140625
1772656054957376800,8.529376708984374,-0.999603271484375,-0.0158538818359375,-0.0083770751953125
1772656054967358700,8.539358642578126,-0.998748779296875,-0.015533447265625,-0.00823974609375
1772656054977342000,8.549342041015626,-0.9993438720703125,-0.016204833984375,-0.0078582763671875
1772656054987323600,8.55932373046875,-0.9990081787109375,-0.0160675048828125,-0.0080413818359375
1772656054997305900,8.569305908203125,-0.9997100830078125,-0.0157928466796875,-0.006988525390625
1772656055007288800,8.579288818359375,-0.9990081787109375,-0.0161895751953125,-0.00738525390625
1772656055017270800,8.589270751953125,-0.999755859375,-0.0158538818359375,-0.008026123046875
1772656055027253800,8.599253662109374,-0.9991607666015625,-0.01690673828125,-0.0081634521484375
1772656055037235700,8.609235595703124,-0.998809814453125,-0.0154266357421875,-0.0077972412109375
1772656055047218000,8.619218017578126,-0.9990997314453125,-0.0160064697265625,-0.0073089599609375
1772656055057201000,8.629200927734376,-0.998321533203125,-0.0165863037109375,-0.007354736328125
1772656055067182800,8.639182861328125,-0.998199462890625,-0.01556396484375,-0.0074615478515625
1772656055077165800,8.649165771484375,-0.9990997314453125,-0.015594482421875,-0.0081634521484375
1772656055087148800,8.659148681640625,-0.999298095703125,-0.016510009765625,-0.0069427490234375
1772656055097130800,8.669130859375,-0.999603271484375,-0.0157318115234375,-0.007843017578125
1772656055107113700,8.67911376953125,-0.999603271484375,-0.015869140625,-0.007354736328125
1772656055117095700,8.689095703125,-0.99896240234375,-0.0157318115234375,-0.0083160400390625
1772656055127078000,8.699077880859376,-0.999664306640625,-0.016571044921875,-0.0082855224609375
1772656055137060900,8.709060791015625,-0.9985809326171875,-0.01641845703125,-0.0076446533203125
1772656055147042800,8.719042724609375,-0.999420166015625,-0.0169525146484375,-0.008026123046875
1772656055157025800,8.72902587890625,-0.9983978271484375,-0.015869140625,-0.008636474609375
1772656055167008000,8.739008056640625,-0.9990081787109375,-0.016387939453125,-0.0077667236328125
1772656055176990700,8.74899072265625,-0.999176025390625,-0.0167236328125,-0.0077362060546875
1772656055186973000,8.758972900390624,-0.99932861328125,-0.016326904296875,-0.0084686279296875
1772656055196954600,8.76895458984375,-0.999176025390625,-0.01617431640625,-0.008331298828125
1772656055206937900,8.778937744140626,-0.9991912841796875,-0.016571044921875,-0.00848388671875
1772656055216919800,8.788919921875,-0.9992523193359375,-0.01715087890625,-0.00799560546875
1772656055226902800,8.79890283203125,-0.999420166015625,-0.0165252685546875,-0.007843017578125
1772656055236884700,8.808884765625,-0.99945068359375,-0.0166015625,-0.0075225830078125
1772656055246867000,8.818866943359374,-0.998321533203125,-0.01654052734375,-0.0079498291015625
1772656055256849700,8.828849609375,-0.9988861083984375,-0.0158233642578125,-0.007720947265625
1772656055266832000,8.838831787109376,-0.9994049072265625,-0.0159759521484375,-0.00811767578125
1772656055276814800,8.84881494140625,-0.9990081787109375,-0.0159454345703125,-0.007537841796875
1772656055286796800,8.858796875,-0.99835205078125,-0.0156402587890625,-0.0083465576171875
1772656055296779000,8.868779052734375,-0.9988250732421875,-0.016754150390625,-0.0079345703125
1772656055306761700,8.87876171875,-0.9996337890625,-0.0160064697265625,-0.0068817138671875
1772656055316744000,8.888743896484375,-0.9994964599609375,-0.0161285400390625,-0.0082244873046875
1772656055326727000,8.898726806640624,-1.0002288818359375,-0.015777587890625,-0.008270263671875
1772656055336708900,8.908708984375,-1.0000762939453125,-0.016448974609375,-0.0078582763671875
1772656055346690800,8.91869091796875,-0.999755859375,-0.01556396484375,-0.0077667236328125
1772656055356673800,8.928673828125,-0.9992523193359375,-0.015655517578125,-0.0079498291015625
1772656055366655700,8.93865576171875,-0.9995880126953125,-0.016448974609375,-0.0084991455078125
1772656055376639000,8.948638916015625,-1.0000457763671875,-0.0162811279296875,-0.0081634521484375
1772656055386620700,8.95862060546875,-0.9986724853515625,-0.01617431640625,-0.0070648193359375
1772656055396604000,8.96860400390625,-0.9995880126953125,-0.015777587890625,-0.00787353515625
1772656055406585900,8.9785859375,-0.9994049072265625,-0.0164947509765625,-0.0078887939453125
1772656055416567800,8.98856787109375,-0.998291015625,-0.0167083740234375,-0.0081787109375
1772656055426550800,8.99855078125,-0.9987335205078125,-0.01605224609375,-0.0073394775390625
1772656055436532700,9.00853271484375,-1.000152587890625,-0.016937255859375,-0.00762939453125
1772656055446515700,9.018515625,-0.99932861328125,-0.01617431640625,-0.007843017578125
1772656055456498000,9.028497802734375,-0.9989013671875,-0.0159759521484375,-0.0083160400390625
1772656055466479900,9.03847998046875,-0.998138427734375,-0.0165252685546875,-0.0078277587890625
1772656055476462800,9.048462890625,-0.9991302490234375,-0.0164031982421875,-0.008636474609375
1772656055486444800,9.05844482421875,-0.9998016357421875,-0.0160675048828125,-0.00775146484375
1772656055496427800,9.068427734375,-1.000579833984375,-0.0156097412109375,-0.0077667236328125
1772656055506410000,9.078409912109375,-0.9998626708984375,-0.0163726806640625,-0.008331298828125
1772656055516391700,9.0883916015625,-0.9995880126953125,-0.0165557861328125,-0.0086517333984375
1772656055526375000,9.098375,-1.000579833984375,-0.0155487060546875,-0.0080718994140625
1772656055536356900,9.10835693359375,-0.999542236328125,-0.0166473388671875,-0.0070037841796875
1772656055546339800,9.11833984375,-0.9993133544921875,-0.016265869140625,-0.0074615478515625
1772656055556321800,9.12832177734375,-0.999420166015625,-0.016143798828125,-0.0076446533203125
1772656055566305000,9.138304931640626,-0.9993743896484375,-0.016326904296875,-0.008026123046875
1772656055576286700,9.14828662109375,-0.998504638671875,-0.0169525146484375,-0.00799560546875
1772656055586269000,9.15826904296875,-0.9983978271484375,-0.0164794921875,-0.00750732421875
1772656055596251600,9.168251708984375,-0.9986419677734375,-0.0159149169921875,-0.008453369140625
1772656055606233900,9.17823388671875,-0.999267578125,-0.015472412109375,-0.008636474609375
1772656055616216800,9.188216796875,-0.9998779296875,-0.0160980224609375,-0.0078277587890625
1772656055626198800,9.19819873046875,-0.9998626708984375,-0.015228271484375,-0.0074462890625
1772656055636181000,9.208180908203126,-0.998931884765625,-0.0160369873046875,-0.0072174072265625
1772656055646164000,9.2181640625,-0.9990081787109375,-0.016448974609375,-0.0067596435546875
1772656055656146000,9.22814599609375,-0.9998779296875,-0.016571044921875,-0.0066986083984375
1772656055666129000,9.23812890625,-0.9992523193359375,-0.0157623291015625,-0.007476806640625
1772656055676110800,9.24811083984375,-1.000244140625,-0.0164031982421875,-0.0081329345703125
1772656055686093800,9.25809375,-0.99896240234375,-0.0171051025390625,-0.0076751708984375
1772656055696076000,9.268075927734374,-0.9991455078125,-0.0156097412109375,-0.00738525390625
1772656055706057700,9.2780576171875,-0.999755859375,-0.0157623291015625,-0.0078582763671875
1772656055716041000,9.288041015625,-0.999786376953125,-0.0157318115234375,-0.0080718994140625
1772656055726022700,9.298022705078125,-1.0005645751953125,-0.01611328125,-0.0080413818359375
1772656055736006000,9.308005859375,-0.999420166015625,-0.015716552734375,-0.0080718994140625
1772656055745987800,9.31798779296875,-0.998870849609375,-0.01580810546875,-0.00787353515625
1772656055755970800,9.327970703125,-0.998687744140625,-0.0163116455078125,-0.0079498291015625
1772656055765952800,9.337952880859374,-0.9996795654296875,-0.0164642333984375,-0.00872802734375
1772656055775935000,9.34793505859375,-1.000152587890625,-0.016326904296875,-0.00762939453125
1772656055785917700,9.357917724609376,-0.999298095703125,-0.0160675048828125,-0.0082855224609375
1772656055795900000,9.36789990234375,-1.0002899169921875,-0.0167388916015625,-0.0084075927734375
1772656055805883000,9.3778828125,-0.999908447265625,-0.0159759521484375,-0.0081634521484375
1772656055815864800,9.38786474609375,-0.998321533203125,-0.0155792236328125,-0.0081939697265625
1772656055825847800,9.397847900390625,-1.000030517578125,-0.015716552734375,-0.007659912109375
1772656055835829800,9.407829833984374,-0.9991607666015625,-0.0155029296875,-0.00823974609375
1772656055845812000,9.41781201171875,-0.9997100830078125,-0.01727294921875,-0.00750732421875
1772656055855794400,9.42779443359375,-0.999053955078125,-0.0162353515625,-0.007476806640625
1772656055865776400,9.4377763671875,-1.0003814697265625,-0.0161285400390625,-0.0079803466796875
1772656055875759400,9.44775927734375,-0.9991455078125,-0.016265869140625,-0.007537841796875
1772656055885741300,9.4577412109375,-0.9989776611328125,-0.015655517578125,-0.0078582763671875
1772656055895723300,9.46772314453125,-0.9996337890625,-0.015838623046875,-0.006866455078125
1772656055905706500,9.47770654296875,-0.9987945556640625,-0.0168609619140625,-0.0074310302734375
1772656055915688200,9.487688232421876,-0.99957275390625,-0.0164031982421875,-0.007568359375
1772656055925671400,9.49767138671875,-0.998626708984375,-0.0164031982421875,-0.008209228515625
1772656055935653000,9.507653076171875,-0.9986114501953125,-0.0162811279296875,-0.0080108642578125
1772656055945636400,9.51763623046875,-0.99993896484375,-0.0157928466796875,-0.0076751708984375
1772656055955618300,9.527618408203125,-0.9987945556640625,-0.016387939453125,-0.0071563720703125
1772656055965601500,9.5376015625,-0.9990997314453125,-0.0161895751953125,-0.0074310302734375
1772656055975583200,9.547583251953125,-0.998779296875,-0.016204833984375,-0.0083465576171875
1772656055985565400,9.5575654296875,-0.998626708984375,-0.0159149169921875,-0.0081329345703125
1772656055995548200,9.567548095703126,-0.9990997314453125,-0.016265869140625,-0.007293701171875
1772656056005530400,9.5775302734375,-0.9991302490234375,-0.0167083740234375,-0.0077667236328125
1772656056015513300,9.587513427734375,-0.99957275390625,-0.0161590576171875,-0.0068206787109375
1772656056025495300,9.597495361328125,-0.9989013671875,-0.016021728515625,-0.0077972412109375
1772656056035478300,9.607478271484375,-0.99896240234375,-0.0162200927734375,-0.008575439453125
1772656056045460200,9.617460205078125,-0.9988555908203125,-0.0163421630859375,-0.00848388671875
1772656056055442400,9.6274423828125,-0.9989471435546875,-0.01605224609375,-0.00775146484375
1772656056065425400,9.63742529296875,-0.99993896484375,-0.0158233642578125,-0.007293701171875
1772656056075407400,9.647407470703126,-0.9990081787109375,-0.015594482421875,-0.0076446533203125
1772656056085390300,9.657390380859376,-1.0003204345703125,-0.015472412109375,-0.0079498291015625
1772656056095372500,9.66737255859375,-0.9996185302734375,-0.016021728515625,-0.0075531005859375
1772656056105355300,9.677355224609375,-0.998626708984375,-0.0156402587890625,-0.008392333984375
1772656056115337500,9.68733740234375,-0.9994049072265625,-0.0155792236328125,-0.0076904296875
1772656056125319200,9.697319091796874,-0.999053955078125,-0.0164337158203125,-0.0082855224609375
1772656056135302400,9.707302490234374,-0.998779296875,-0.0164337158203125,-0.0085296630859375
1772656056145284400,9.717284423828126,-0.9996490478515625,-0.0163116455078125,-0.0075836181640625
1772656056155267300,9.727267333984376,-0.999603271484375,-0.0165863037109375,-0.007354736328125
1772656056165249300,9.737249267578125,-0.998687744140625,-0.01629638671875,-0.0077972412109375
1772656056175232500,9.747232421875,-0.999603271484375,-0.01593017578125,-0.00799560546875
1772656056185214200,9.757214111328125,-0.999725341796875,-0.0156707763671875,-0.0080413818359375
1772656056195196400,9.767196533203125,-0.9997100830078125,-0.01556396484375,-0.00787353515625
1772656056205179100,9.77717919921875,-1.00067138671875,-0.016387939453125,-0.008209228515625
1772656056215161300,9.787161376953126,-0.999664306640625,-0.0172271728515625,-0.0076904296875
1772656056225144300,9.797144287109376,-0.999237060546875,-0.016082763671875,-0.0071258544921875
1772656056235126300,9.807126220703125,-1.0003814697265625,-0.0159149169921875,-0.0074920654296875
1772656056245109200,9.817109130859375,-0.999847412109375,-0.01611328125,-0.007476806640625
1772656056255091500,9.827091552734375,-0.999267578125,-0.01678466796875,-0.0080413818359375
1772656056265073400,9.837073486328125,-0.9985504150390625,-0.016632080078125,-0.0073089599609375
1772656056275056400,9.847056396484374,-0.999481201171875,-0.016693115234375,-0.00811767578125
1772656056285038300,9.857038330078124,-0.99896240234375,-0.0164642333984375,-0.0076141357421875
1772656056295021300,9.867021240234376,-0.9994049072265625,-0.0166778564453125,-0.0078582763671875
1772656056305003500,9.87700341796875,-0.9999237060546875,-0.0168914794921875,-0.0073394775390625
1772656056314986200,9.886986328125,-0.99908447265625,-0.016937255859375,-0.008087158203125
1772656056324968400,9.896968505859375,-0.9998931884765625,-0.01641845703125,-0.008056640625
1772656056334951400,9.906951416015625,-0.9984588623046875,-0.0160064697265625,-0.007354736328125
1772656056344933400,9.916933349609375,-0.99920654296875,-0.0162200927734375,-0.0080413818359375
1772656056354915300,9.926915283203124,-0.9998016357421875,-0.0166473388671875,-0.008392333984375
1772656056364898600,9.936898681640624,-0.9998779296875,-0.016265869140625,-0.0084075927734375
1772656056374880300,9.94688037109375,-1.0003204345703125,-0.0163116455078125,-0.0075531005859375
1772656056384863500,9.956863525390625,-0.9994354248046875,-0.0162353515625,-0.00775146484375
1772656056394845200,9.96684521484375,-0.9992523193359375,-0.0157012939453125,-0.00762939453125
1772656056404828400,9.976828369140625,-0.9987030029296875,-0.016143798828125,-0.0071563720703125
1772656056414810400,9.986810302734375,-0.99957275390625,-0.016357421875,-0.007659912109375
1772656056424793300,9.99679345703125,-1.000457763671875,-0.0168609619140625,-0.008514404296875
1772656056434775300,10.006775390625,-0.999420166015625,-0.0162353515625,-0.0076751708984375
1772656056444757200,10.01675732421875,-0.999298095703125,-0.0157623291015625,-0.0082244873046875
1772656056454740200,10.026740234375,-0.998992919921875,-0.0164947509765625,-0.007476806640625
1772656056464722400,10.036722412109375,-0.999237060546875,-0.0165252685546875,-0.007659912109375
1772656056474705200,10.046705078125,-0.9996337890625,-0.0159149169921875,-0.0072479248046875
1772656056484687400,10.056687255859375,-0.9993133544921875,-0.0160064697265625,-0.00701904296875
1772656056494670300,10.06667041015625,-0.9985504150390625,-0.015960693359375,-0.007598876953125
1772656056504652300,10.07665234375,-0.998504638671875,-0.0169219970703125,-0.007781982421875
1772656056514635300,10.08663525390625,-0.998931884765625,-0.01605224609375,-0.0086517333984375
1772656056524617500,10.096617431640626,-0.9989013671875,-0.015777587890625,-0.0074615478515625
1772656056534599400,10.106599365234375,-0.999359130859375,-0.015869140625,-0.0079498291015625
1772656056544582400,10.11658251953125,-0.9992828369140625,-0.0164031982421875,-0.0077667236328125
1772656056554564400,10.126564453125,-0.99932861328125,-0.01641845703125,-0.0076446533203125
1772656056564547300,10.13654736328125,-0.9985504150390625,-0.016021728515625,-0.0075531005859375
1772656056574529500,10.146529541015624,-0.9988555908203125,-0.016204833984375,-0.0086822509765625
1772656056584512300,10.15651220703125,-0.9993896484375,-0.0167388916015625,-0.0073089599609375
1772656056594494500,10.166494384765626,-0.9987335205078125,-0.015838623046875,-0.007568359375
1772656056604476200,10.17647607421875,-0.9986724853515625,-0.016357421875,-0.0084991455078125
1772656056614459400,10.18645947265625,-0.99896240234375,-0.01605224609375,-0.0088958740234375
1772656056624441300,10.19644140625,-0.9992218017578125,-0.016326904296875,-0.0079345703125
1772656056634424300,10.20642431640625,-0.9992218017578125,-0.01629638671875,-0.007049560546875
1772656056644406300,10.21640625,-0.9997406005859375,-0.016571044921875,-0.00738525390625
1772656056654389500,10.226389404296874,-0.999786376953125,-0.0168914794921875,-0.00738525390625
1772656056664371200,10.23637109375,-1.0001983642578125,-0.016265869140625,-0.0085601806640625
1772656056674354400,10.2463544921875,-0.99853515625,-0.0148468017578125,-0.0081634521484375
1772656056684336400,10.25633642578125,-0.998809814453125,-0.0157012939453125,-0.0081787109375
1772656056694319400,10.2663193359375,-0.998748779296875,-0.0169219970703125,-0.0083160400390625
1772656056704301300,10.27630126953125,-1.000213623046875,-0.0168609619140625,-0.007843017578125
1772656056714283300,10.286283203125,-0.999969482421875,-0.01641845703125,-0.00726318359375
1772656056724266200,10.296266357421874,-0.999603271484375,-0.01593017578125,-0.0082244873046875
1772656056734248400,10.30624853515625,-0.998809814453125,-0.016265869140625,-0.0080718994140625
1772656056744231200,10.316231201171876,-0.9998016357421875,-0.0160980224609375,-0.0080108642578125
1772656056754213400,10.32621337890625,-0.9998626708984375,-0.016082763671875,-0.0076751708984375
1772656056764196400,10.3361962890625,-0.9998016357421875,-0.0164947509765625,-0.00787353515625
1772656056774178300,10.34617822265625,-0.9984588623046875,-0.0162811279296875,-0.0077972412109375
1772656056784161300,10.356161376953125,-0.99853515625,-0.0164031982421875,-0.0086822509765625
1772656056794143500,10.3661435546875,-0.999237060546875,-0.0164031982421875,-0.007904052734375
1772656056804125200,10.376125244140624,-0.9993743896484375,-0.0163116455078125,-0.0066375732421875
1772656056814108400,10.3861083984375,-0.999603271484375,-0.015960693359375,-0.0072174072265625
1772656056824090400,10.39609033203125,-1.0001373291015625,-0.0159912109375,-0.0074462890625
1772656056834073300,10.4060732421875,-0.99835205078125,-0.0170440673828125,-0.008270263671875
1772656056844055300,10.41605517578125,-0.9996337890625,-0.016998291015625,-0.00762939453125
1772656056854037800,10.426037841796875,-0.999114990234375,-0.0159912109375,-0.007659912109375
1772656056864019700,10.436019775390625,-0.99884033203125,-0.016510009765625,-0.00726318359375
1772656056874002700,10.446002685546874,-0.998382568359375,-0.016387939453125,-0.0076141357421875
1772656056883984600,10.455984619140626,-0.9994049072265625,-0.01605224609375,-0.0076904296875
1772656056893967600,10.465967529296876,-0.9997100830078125,-0.01568603515625,-0.0083160400390625
1772656056903949800,10.47594970703125,-1.000213623046875,-0.016845703125,-0.007476806640625
1772656056913931500,10.485931640625,-0.9996490478515625,-0.0167083740234375,-0.0075531005859375
1772656056923914800,10.495914794921875,-0.9993743896484375,-0.015899658203125,-0.0074615478515625
1772656056933896400,10.505896484375,-0.9996490478515625,-0.0165252685546875,-0.0076141357421875
1772656056943879700,10.515879638671874,-0.9993438720703125,-0.0162506103515625,-0.008209228515625
1772656056953861600,10.525861572265624,-0.9998779296875,-0.016448974609375,-0.0072479248046875
1772656056963844900,10.535844970703126,-0.998809814453125,-0.01629638671875,-0.0074462890625
1772656056973826600,10.54582666015625,-0.9994354248046875,-0.016326904296875,-0.0075225830078125
1772656056983809800,10.555809814453125,-0.999176025390625,-0.016357421875,-0.0071868896484375
1772656056993791500,10.56579150390625,-0.999176025390625,-0.01611328125,-0.0071563720703125
1772656057003774700,10.575774658203125,-0.99908447265625,-0.0164642333984375,-0.0077667236328125
1772656057013756700,10.585756591796875,-0.9986114501953125,-0.016204833984375,-0.0081634521484375
1772656057023738600,10.595738525390624,-0.999176025390625,-0.016082763671875,-0.0075225830078125
1772656057033721600,10.6057216796875,-0.998870849609375,-0.0162811279296875,-0.007568359375
1772656057043703600,10.61570361328125,-1,-0.0164794921875,-0.0074615478515625
1772656057053686500,10.6256865234375,-0.9994964599609375,-0.0161590576171875,-0.0080108642578125
1772656057063668700,10.635668701171875,-0.9993896484375,-0.0166168212890625,-0.0077667236328125
1772656057073651500,10.6456513671875,-0.999725341796875,-0.01611328125,-0.0082550048828125
1772656057083633700,10.655633544921875,-0.9987945556640625,-0.0162200927734375,-0.0076446533203125
1772656057093616600,10.66561669921875,-0.9991912841796875,-0.0160369873046875,-0.0076751708984375
1772656057103598600,10.6755986328125,-0.999114990234375,-0.015838623046875,-0.0070953369140625
1772656057113581600,10.68558154296875,-0.998809814453125,-0.0160064697265625,-0.007110595703125
1772656057123563800,10.695563720703126,-0.9984893798828125,-0.0168304443359375,-0.0074310302734375
1772656057133546500,10.70554638671875,-0.999359130859375,-0.015777587890625,-0.0077667236328125
1772656057143528700,10.71552880859375,-0.999267578125,-0.0155029296875,-0.0082550048828125
1772656057153510700,10.7255107421875,-0.9994049072265625,-0.0164794921875,-0.0077667236328125
1772656057163493600,10.73549365234375,-0.9995574951171875,-0.01666259765625,-0.0071258544921875
1772656057173475800,10.745475830078124,-0.999908447265625,-0.01568603515625,-0.0087432861328125
1772656057183458600,10.75545849609375,-0.9999542236328125,-0.0157012939453125,-0.0082855224609375
1772656057193440800,10.765440673828126,-1,-0.0164031982421875,-0.00830078125
1772656057203423700,10.775423828125,-0.9985198974609375,-0.0159454345703125,-0.00811767578125
1772656057213405700,10.78540576171875,-0.99896240234375,-0.01617431640625,-0.0079498291015625
1772656057223388700,10.795388671875,-0.99920654296875,-0.0171966552734375,-0.007537841796875
1772656057233370600,10.80537060546875,-0.9998016357421875,-0.015838623046875,-0.008270263671875
1772656057243353600,10.815353515625,-0.99847412109375,-0.016510009765625,-0.00811767578125
1772656057253335800,10.825335693359374,-0.998748779296875,-0.017059326171875,-0.00738525390625
1772656057263318800,10.83531884765625,-0.9990386962890625,-0.0162506103515625,-0.008148193359375
1772656057273300700,10.84530078125,-0.9981689453125,-0.0164642333984375,-0.0086517333984375
1772656057283282700,10.85528271484375,-0.9993896484375,-0.0164031982421875,-0.0079498291015625
1772656057293265700,10.865265625,-0.9994964599609375,-0.0154266357421875,-0.0081024169921875
1772656057303247600,10.87524755859375,-0.998870849609375,-0.01580810546875,-0.0077972412109375
1772656057313230800,10.88523095703125,-0.9994354248046875,-0.016510009765625,-0.008056640625
1772656057323212500,10.895212646484374,-0.9991607666015625,-0.0167083740234375,-0.007568359375
1772656057333195800,10.90519580078125,-0.9992523193359375,-0.0159912109375,-0.0077667236328125
1772656057343177500,10.915177490234376,-0.999481201171875,-0.0168304443359375,-0.0069427490234375
1772656057353160700,10.92516064453125,-0.9996490478515625,-0.016876220703125,-0.008636474609375
1772656057363142700,10.935142578125,-0.9994354248046875,-0.0166473388671875,-0.0081329345703125
1772656057373125600,10.945125732421875,-0.999298095703125,-0.0155029296875,-0.00714111328125
1772656057383107600,10.955107666015625,-0.9989776611328125,-0.016693115234375,-0.0081634521484375
1772656057393090800,10.9650908203125,-0.9990692138671875,-0.015899658203125,-0.00714111328125
1772656057403072500,10.975072509765624,-0.999481201171875,-0.0159759521484375,-0.0069580078125
1772656057413054700,10.9850546875,-0.9984283447265625,-0.0170135498046875,-0.00726318359375
1772656057423037700,10.99503759765625,-0.9974212646484375,-0.0165863037109375,-0.0075531005859375
1772656057433019600,11.00501953125,-0.9986724853515625,-0.0159912109375,-0.0084075927734375
1772656057443002600,11.015002685546875,-0.99560546875,-0.016204833984375,-0.00823974609375
1772656057452984600,11.024984619140625,-0.995513916015625,-0.0155181884765625,-0.009552001953125
1772656057462967600,11.034967529296875,-1.0071258544921875,-0.01776123046875,-0.0036163330078125
1772656057472949800,11.04494970703125,-1.006103515625,-0.01708984375,-0.0049591064453125
1772656057482932500,11.054932373046874,-0.99609375,-0.0152130126953125,-0.00848388671875
1772656057492914700,11.064914794921876,-0.9926300048828125,-0.0152130126953125,-0.0095062255859375
1772656057502897700,11.074897705078126,-0.999176025390625,-0.015625,-0.007965087890625
1772656057512879600,11.084879638671875,-1.0037841796875,-0.017181396484375,-0.006622314453125
1772656057522862600,11.094862548828125,-0.999755859375,-0.0169677734375,-0.007049560546875
