time,seconds_elapsed,z,y,x
1772656046504870100,0.0768701171875,-0.05643208131790161,-0.00010632818499580026,0.02084708279352635
1772656046514853000,0.08685302734375,0.03380056279301643,0.00903248889716342,0.00021038221451453863
1772656046524835300,0.09683544921875,0.06253098271489144,0.018225228123646228,-0.017852686750516295
1772656046534817300,0.1068173828125,-0.01962064627110958,0.0015971877972595393,-0.0020355289821745825
1772656046544799200,0.11679931640625,-0.033684827458858486,-0.00167469174657017,0.0012813587471609935
1772656046554782500,0.126782470703125,0.03784136261641979,0.0045415706860832865,-0.018607263410906308
1772656046564764200,0.13676416015625,0.025123335340619085,0.012475085365399718,-0.006359260233072563
1772656046574746400,0.146746337890625,-0.01976560769975185,0.010535660001728684,0.0032769393114373086
1772656046584728300,0.156728271484375,0.004325461983680725,0.004331252403650432,0.002910594783653505
1772656046594710300,0.166710205078125,0.0344032048612833,0.015558237404096871,-0.013377304035285488
1772656046604693200,0.176693359375,0.006421557480096817,0.011082882088329643,-0.006314882235229015
1772656046614675200,0.18667529296875,-0.007494155147671699,-0.0033480865851975975,0.0011280176492407918
1772656046624657400,0.196657470703125,0.020937574088573455,0.004629157637991011,-0.005429103243490681
1772656046634639400,0.206639404296875,0.023632220000028608,0.0031691315554082393,-0.0041963831107597795
1772656046644622300,0.216622314453125,0.007023030504584312,0.007932345635537057,-0.0007883784652920439
1772656046654604300,0.226604248046875,-0.010785597908496857,0.007953516287729143,-0.007021665097982622
1772656046664586200,0.236586181640625,0.007322305712103843,0.010866462858673185,-0.0019339500375324858
1772656046674568200,0.246568115234375,0.017797522497177122,0.010913407272938639,-0.007272552852821536
1772656046684551200,0.25655126953125,-0.00928746830523014,0.003887618555687368,-0.00044509515268728134
1772656046694533400,0.266533447265625,-0.001502221256494522,0.004623458549566566,-0.001653964052372612
1772656046704515300,0.276515380859375,0.011516834792494773,0.011174177100975066,-0.008645722635858692
1772656046714497300,0.286497314453125,0.01466097803711891,0.004803272095881403,-0.0034718225627206264
1772656046724480500,0.29648046875,0.005082417830824851,0.008006799111235887,0.00021369298303034156
1772656046734462200,0.306462158203125,0.005528408032655715,0.004956362032052129,-0.00006081767599098384
1772656046744444400,0.3164443359375,0.010316226831078528,0.0038141697269864377,-0.007286375882197171
1772656046754426400,0.32642626953125,0.014056582403182983,0.010912347827013582,-0.006119747822196223
1772656046764409300,0.336409423828125,0.007470774272084236,0.008904095010831952,-0.0050790020310319955
1772656046774391300,0.346391357421875,0.004777881926298141,0.017934245820436626,0.0020876792945200575
1772656046784373200,0.356373291015625,0.003429389926791191,0.01177347643468529,-0.011600503621110692
1772656046794355500,0.36635546875,0.005970306581258774,0.0037530506568960844,-0.0007291727910749613
1772656046804338200,0.376338134765625,0.00597089110314846,0.0114873164370656,-0.00103852186803706
1772656046814320400,0.3863203125,0.007467267140746116,0.01304899452952668,-0.004899193051294423
1772656046824302000,0.396302001953125,0.01450198808312416,0.004616316422726959,-0.0005065795489586889
1772656046834284300,0.4062841796875,0.002233458140492439,0.007355239867325872,-0.005930070468992926
1772656046844267300,0.416267333984375,0.008816343662142753,0.004884502372238785,-0.011636533915717154
1772656046854249200,0.426249267578125,0.00447509958744049,0.011852204226702452,-0.0035117755471961573
1772656046864231200,0.436231201171875,-0.0003109656453132629,0.014327563097979872,0.00417473296795506
1772656046874213000,0.446213134765625,0.011661211699247359,0.0036410416497848924,-0.0015433798173675312
1772656046884196400,0.4561962890625,0.0076245035290718076,0.002331255959160626,-0.011658079027244821
1772656046894178000,0.466177978515625,0.01001987423300743,0.004605813295021653,-0.0130227138773771
1772656046904160300,0.47616015625,0.009569207856059074,0.007509005656931549,-0.005708728469046764
1772656046914142200,0.48614208984375,0.010613748472929,0.006793751793354749,-0.002485135913197882
1772656046924125200,0.496125244140625,0.01300795013308525,0.003365001187380403,-0.0016074625961016863
1772656046934107400,0.506107421875,0.008818681749701499,-0.0009894676950760186,-0.006426886675762944
1772656046944089000,0.516089111328125,0.013308978906273842,0.0022254940297454593,-0.009809154091775418
1772656046954071300,0.5260712890625,0.009567454290390014,0.0058459130166098475,-0.006111158090364188
1772656046964054000,0.536053955078125,0.013906944799423218,0.005918156268913299,-0.0054791163976769895
1772656046974036200,0.5460361328125,0.00537701686322689,0.004816606501489878,-0.004012687973771244
1772656046984018200,0.55601806640625,0.0058306058496236796,-0.003209061706997454,-0.001336057209619321
1772656046994000100,0.566000244140625,0.0022428104907274244,0.0010655286059714853,-0.003611262999451719
1772656047003983400,0.5759833984375,0.0007493570625782013,-0.0005738543651998043,-0.010380962630361317
1772656047013965000,0.585965087890625,0.00015139116942882537,0.010932806093152612,-0.0036897487628739325
1772656047023947300,0.595947265625,0.009579144728183745,0.014613102041091768,-0.005590846843575127
1772656047033929200,0.60592919921875,0.005989011281728744,0.014219408282078802,-0.003336811705934815
1772656047043912200,0.615912109375,0.0018003274202346802,0.008910999675653874,-0.012303395760036072
1772656047053894400,0.625894287109375,0.006591653349995613,0.015715966982766984,-0.006180204738583416
1772656047063876000,0.6358759765625,0.0013525836527347563,0.0019580935315228996,-0.0007638650785433128
1772656047073858300,0.6458583984375,0.008982347878813744,0.011461780137009919,-0.0018991709850961342
1772656047083841000,0.655841064453125,0.011076689809560775,0.009294172040652483,-0.009484680510917678
1772656047093823200,0.6658232421875,0.0058376201122999185,0.0007946209764108062,-0.003179735147813335
1772656047103806200,0.67580615234375,0.0034428339302539825,0.003501030390895903,0.0008607541483361274
1772656047113788200,0.6857880859375,0.0013467384338378906,0.002969882656261325,-0.015457731605111621
1772656047123770000,0.69577001953125,0.005085340440273285,0.006627217853721231,-0.0002964667625026777
1772656047133753300,0.70575341796875,0.003440495842695236,0.00990085096322,-0.0017297281357459722
1772656047143735300,0.7157353515625,0.009575053074955939,0.0013848419545218348,-0.005549838979751803
1772656047153717200,0.72571728515625,0.005983750584721565,0.011557477330137043,-0.01391663964295294
1772656047163699200,0.73569921875,0.00673252312541008,0.007604410589113831,-0.0017181335960747674
1772656047173682200,0.74568212890625,0.014665069690346717,0.004609009899105876,-0.003586722213239409
1772656047183664000,0.7556640625,0.0016495207726955413,0.004443535405397415,0.004204278722847812
1772656047193646000,0.76564599609375,0.006139233407378196,0.0024085224464535713,-0.004548434251709841
1772656047203628300,0.775628173828125,0.012126491123437881,0.004712561605125665,-0.0012502557894214987
1772656047213611000,0.785611083984375,0.013024901267886161,0.007859335198253393,0.000001036613038741052
1772656047223593200,0.79559326171875,0.000008183306455612182,0.01062346614934504,-0.014284413509420118
1772656047233575200,0.8055751953125,0.00973755016028881,0.005447981473896652,-0.003085421627596952
1772656047243557000,0.81555712890625,0.013927987587451934,0.001660023900400847,-0.0009626344870775937
1772656047253540400,0.825540283203125,0.008843231669068335,0.0036370961270295083,-0.00016905469028279183
1772656047263522000,0.83552197265625,0.0028600656062364575,0.003821183989662677,0.0012361359325237572
1772656047273504300,0.845504150390625,0.006902034473419189,0.008179233068693429,0.011642036641319282
1772656047283486200,0.855486328125,0.008995207360386849,0.006730385967250913,-0.003700142292724922
1772656047293469200,0.86546923828125,0.010939327165484427,0.002966156329214573,-0.010799370705522596
1772656047303451400,0.875451416015625,0.006748305216431617,-0.0008149148457683623,0.0027066331767709923
1772656047313433000,0.88543310546875,0.010339023184776306,0.005654390766192227,-0.0019103910654317588
1772656047323415300,0.895415283203125,0.004650456154346466,0.0023306166383437812,0.0011317074436694382
1772656047333397200,0.905397216796875,0.011682254487276077,0.009733184512425214,-0.0033692846368532626
1772656047343380200,0.915380126953125,0.0064472764432430265,0.010575864147953688,-0.010989481883565895
1772656047353362200,0.925362060546875,0.0009106851041316985,0.001021853861026466,-0.001966486900532618
1772656047363344100,0.93534423828125,0.011381810235977173,0.0019459647023119032,0.0027730768759502097
1772656047373326300,0.945326416015625,0.014971943682432173,0.004611914242245257,0.00014821739823091775
1772656047383309000,0.95530908203125,0.0022515783190727233,0.00204686779351905,-0.007059142997581511
1772656047393291300,0.965291259765625,0.0035977322310209274,0.011519556472543626,-0.00961259034005925
1772656047403273200,0.975273193359375,0.004642857369780541,0.013330039960611611,-0.002037889902619645
1772656047413255200,0.985255126953125,0.007784078004956245,0.0011439458707347512,-0.002039296408416703
1772656047423238400,0.99523828125,0.0000023380875587463378,0.0017933496901765464,-0.0011884015003917738
1772656047433220000,1.00522021484375,0.008230652728676796,0.004824040889274329,-0.004073044425458647
1772656047443202300,1.015202392578125,0.003293780848383903,0.010009973893500864,0.0006723326038802042
1772656047453184000,1.02518408203125,0.00703355189859867,0.0014573226688429713,-0.0037445750894956288
1772656047463167200,1.035167236328125,0.0035942250996828075,0.011155947324540465,0.004140492771635763
1772656047473149200,1.045149169921875,0.012722703450918197,0.002442826574854553,-0.003975671298475936
1772656047483131100,1.055131103515625,0.018257541224360466,0.004380553171783685,-0.0006006327742710709
1772656047493113300,1.06511328125,0.013466799816489218,0.0002957132772542536,0.0023505634478293356
1772656047503096000,1.075095947265625,0.004789572364091873,0.0013823029375635086,-0.006012542854365892
1772656047513078300,1.085078369140625,0.00883037218749523,0.011002218067552893,-0.003506784278247505
1772656047523060000,1.09506005859375,0.01316869365274906,0.00930394451599568,-0.0026415914168115705
1772656047533042200,1.105042236328125,0.0025426702201366423,0.007879610801301897,-0.006904084866610355
1772656047543025200,1.115025146484375,0.006734861212968826,0.010386405990459025,-0.0005667031052056699
1772656047553007000,1.125007080078125,0.006134557232260703,0.003674797788914293,0.0012527308742981403
1772656047562989300,1.1349892578125,0.0122737906396389,0.010010649746935813,-0.008145362765132448
1772656047572971000,1.144970947265625,0.004794248539209366,0.012360847868584096,-0.00668398954225704
1772656047582954200,1.154954345703125,0.007487725406885147,0.00752217566575855,-0.004091383799747564
1772656047592936200,1.164936279296875,0.006292378142476082,0.0008279387241229415,-0.004956667992728762
1772656047602918100,1.174918212890625,0.0019546411991119383,0.0026552089502103627,-0.004734741470892913
1772656047612900400,1.184900390625,0.00823649794757366,0.007281900636479258,-0.007349129786947742
1772656047622883000,1.194883056640625,0.009433014255762099,0.002502155546657741,-0.004910276134312152
1772656047632865300,1.204865234375,0.0035977322310209274,0.008546860804688186,0.003117415067902766
1772656047642847200,1.21484716796875,0.001205284136533737,0.0037137780924327668,-0.0049758384840795766
1772656047652829200,1.2248291015625,0.010633037695288658,0.004629212436918169,-0.00804530449071899
1772656047662812200,1.234812255859375,0.0038970074385404584,0.0013146993277594447,-0.003375330785149708
1772656047672794000,1.244794189453125,0.006438508614897727,0.00782758835311979,-0.008975219451705924
1772656047682776300,1.2547763671875,0.009127893829345703,0.011917031357530503,-0.003476165377697907
1772656047692758000,1.264758056640625,0.015860416954755784,0.010946451026014983,-0.0030611913686385377
1772656047702741200,1.2747412109375,0.006433247917890549,0.008085764365270733,-0.014228705833386628
1772656047712723200,1.28472314453125,-0.003741524615883827,0.007037387823499739,-0.005147404791857116
1772656047722705200,1.294705078125,0.007330489018559455,0.008575593708828091,-0.0009293943711789325
1772656047732687400,1.304687255859375,0.009274608823657035,0.005413951340131461,0.004218129151687026
1772656047742670300,1.31467041015625,0.014513093999028205,0.0068858139909803865,-0.004863167323265224
1772656047752652300,1.32465234375,0.010324994659423827,0.009511212324816732,-0.008991576931462623
1772656047762634200,1.33463427734375,0.0056873979866504665,0.004809628771431744,-0.014397961453069
1772656047772616200,1.3446162109375,0.006883914294838905,0.009213288824167103,-0.007557187613635324
1772656047782599200,1.35459912109375,-0.00239244809448719,0.007172649842035025,-0.004572262651869096
1772656047792581000,1.3645810546875,0.009131400960683822,0.013894651573430747,-0.0015707199154421686
1772656047802563000,1.37456298828125,0.00793371560871601,0.005727163741458207,-0.006313124102982692
1772656047812545300,1.384545166015625,-0.005087094005942344,0.0019213599840179085,-0.006035078913159668
1772656047822528000,1.394528076171875,0.00972585972249508,0.010034414215013384,-0.00041910219490528107
1772656047832510200,1.40451025390625,0.0029939211189746857,0.0069399553310126065,-0.008821439962368458
1772656047842492200,1.4144921875,0.002243395012617111,0.010670757623482494,-0.005519754368741996
1772656047852473900,1.424473876953125,0.014663316124677658,0.007885054161399603,-0.0007005814508302137
1772656047862456800,1.434456787109375,0.005983750584721565,0.007911375912744552,-0.017016295291879212
1772656047872438800,1.444438720703125,0.0029886604219675063,0.011900500347837805,-0.007051850173692219
1772656047882420700,1.454420654296875,0.015406827968358993,0.0007854330229572951,-0.0017612055528210475
1772656047892403000,1.46440283203125,0.01061725560426712,-0.006980141210928559,-0.005691087781079113
1772656047902385700,1.4743857421875,0.0029880759000778198,0.017303729364555327,-0.007451160822738893
1772656047912367900,1.484367919921875,0.0029886604219675063,0.009062975366972386,-0.011692268991214222
1772656047922349600,1.494349609375,0.015858078867197034,-0.002037095318175852,-0.015423167181806637
1772656047932331800,1.504331787109375,0.015262451061606406,0.0009352350234985351,-0.003913858108641579
1772656047942314800,1.514314697265625,0.0058364510685205455,0.005511877022963017,-0.004697423401498236
1772656047952296700,1.524296630859375,-0.0032902737170457837,0.007166073970776051,-0.007216612281347625
1772656047962279000,1.53427880859375,-0.002393032616376877,0.0013263897655531763,-0.013905191233754157
1772656047972260600,1.544260498046875,-0.005834697502851486,0.00031925854962319136,-0.0033484747442649675
1772656047982243800,1.554243896484375,-0.001197100830078125,-0.002396941606514156,0.0013466014365199953
1772656047992225800,1.564225830078125,0.007031798332929611,0.006162577750347555,-0.00633482904471457
1772656048002207700,1.574207763671875,0.010474632263183592,0.0007396028535440564,-0.007768656673538498
1772656048012190000,1.58418994140625,0.011973346388339995,0.000759366999939084,-0.0010897771312389523
1772656048022172700,1.594172607421875,0.009577391162514687,0.009503248214069754,-0.010713140027062036
1772656048032155000,1.60415478515625,-0.008230652728676796,0.010031455072946846,-0.005353147363872267
1772656048042136600,1.614136474609375,0.01047170965373516,0.0028497816742397842,0.001252406647312455
1772656048052118800,1.624118896484375,0.00897591813802719,0.005361727962549775,0.002977522540022619
1772656048062101800,1.634101806640625,0.004188099339604377,-0.003824234463274479,-0.0033501780775841324
1772656048072083700,1.644083740234375,0.009274608823657035,0.005034888894669711,-0.004523751901602372
1772656048082066000,1.65406591796875,0.005531330642104149,0.009831146727874874,-0.006923374088970012
1772656048092047600,1.664047607421875,0.0034369887113571166,-0.002505498281214386,-0.009567454290390014
1772656048102030800,1.67403076171875,0.007477204012870788,0.005867704723309725,-0.009522327373875305
1772656048112012800,1.6840126953125,0.005084171396493912,0.002663995044864714,-0.013315235117124393
1772656048121994800,1.693994873046875,0.01466097803711891,-0.003419836647156626,-0.002759550674096681
1772656048131977000,1.70397705078125,0.00807750799357891,0.006291738821659237,-0.015218803716124966
1772656048141959700,1.713959716796875,0.010320318484306335,0.012418222345318645,-0.001746053649461828
1772656048151942000,1.72394189453125,0.002837269252538681,0.006021963703259825,0.008116205169307068
1772656048161923800,1.733923828125,0.009421908339858055,0.0009100457833148539,-0.004790458280080929
1772656048171905800,1.74390576171875,0.0002951835542917251,0.008608838391304016,-0.0019687975886277854
1772656048181888800,1.753888671875,0.010620762735605239,0.007411719294916838,0.0047220235532149666
1772656048191870700,1.76387060546875,0.008078677037358284,0.0035833749121055004,0.008594019848085008
1772656048201852700,1.773852783203125,0.01421440331339836,0.013111556638032196,-0.013957994566648266
1772656048211834600,1.783834716796875,0.008228899163007735,0.004491247004643082,-0.003342506227781996
1772656048221817900,1.79381787109375,-0.004039630779623985,-0.00039289004141464826,-0.0034493778354721142
1772656048231799800,1.8037998046875,0.011072598156332969,0.0037906792535446583,0.000555679387692362
1772656048241781800,1.81378173828125,0.012118307816982268,0.006170286132767796,-0.013424709673854522
1772656048251763700,1.823763671875,0.005085924962162971,0.011379782675672322,-0.007753860963205806
1772656048261747000,1.833746826171875,0.006880991685390472,0.0029027174378745257,-0.003715431193402037
1772656048271728600,1.843728759765625,0.008974164572358131,0.003141330233030021,-0.005518124100659042
1772656048281710800,1.8537109375,0.007479542100429534,0.0003660750997252762,-0.01048332702629268
1772656048291692800,1.86369287109375,0.0076291797041893004,0.007843954966031014,-0.012839799625100567
1772656048301675800,1.87367578125,0.0019411971956491468,0.007407883370015769,-0.007013815151667222
1772656048311657700,1.88365771484375,0.007030629289150238,0.012683522218000143,0.008434568669786676
1772656048321639700,1.8936396484375,0.013764905980229378,0.012244034822192043,0.004932821326260455
1772656048331622000,1.903621826171875,0.0013455693900585174,0.007293408411182463,-0.004861916081095114
1772656048341604600,1.9136044921875,0.003140636113286018,0.01438418865604326,-0.0041437898404197765
1772656048351586800,1.9235869140625,0.011671148571372032,0.009857413680292665,-0.012154739970387891
1772656048361568800,1.93356884765625,0.00329261180460453,0.007127933917474002,-0.006574816379626281
1772656048371550700,1.94355078125,0.006433832439780235,0.012717241824511437,-0.0032223824128741396
1772656048381534000,1.953533935546875,0.01047521678507328,-0.00008135814052075148,-0.0056202921337680884
1772656048391515600,1.963515625,0.00913198548257351,0.005142239992972463,-0.004788942176429554
1772656048401497900,1.973497802734375,0.014970190116763114,0.015693225427996366,-0.009335750726633705
1772656048411479800,1.983479736328125,0.00030278233885765074,0.010268478699214757,-0.002281338703096844
1772656048421462800,1.993462890625,0.0035930560559034345,0.010632672369107603,-0.0044941056820098305
1772656048431445000,2.003445068359375,0.013919219759106635,-0.0004904321317560971,-0.007198651932971552
1772656048441426700,2.0134267578125,0.002397124269604683,0.008931275278702378,-0.0009151466501178219
1772656048451409000,2.023408935546875,0.011076689809560775,0.00877358223265037,-0.007237326275813393
1772656048461391600,2.0333916015625,0.008534019589424133,0.010971183608472346,-0.005617990578827448
1772656048471373800,2.043373779296875,0.002846621602773666,0.007077591969724744,-0.006251151082944125
1772656048481355800,2.053355712890625,0.005839373677968979,0.0037198242407292127,-0.005226703406032174
1772656048491337700,2.063337646484375,0.00045358898639678955,0.004561243500933051,-0.010752755084820091
1772656048501321000,2.073321044921875,0.010930559337139129,0.007288640904519706,0.0020687736646505073
1772656048511302700,2.083302734375,-0.0008896423161029815,0.004855148413591087,-0.0025191523472312834
1772656048521284900,2.093284912109375,0.008538695764541625,0.003529653697181493,-0.005394899579789489
1772656048531266800,2.103266845703125,0.013926234021782875,0.006530972671322524,0.0002180631974712014
1772656048541249800,2.113249755859375,-0.005078326177597046,0.015698906250111756,-0.0020317661225097254
1772656048551231700,2.123231689453125,0.009435352343320847,0.006316361806262284,0.004756501211551949
1772656048561213700,2.133213623046875,0.01646831972002983,0.009427095971629024,-0.0073192872045328835
1772656048571196000,2.14319580078125,0.00958674351274967,0.012143423991929738,0.001570263257715851
1772656048581178600,2.1531787109375,-0.0014846855998039245,0.012486392210703343,0.005777076430944725
1772656048591160800,2.163160888671875,0.00030979660153388974,0.003142261814791709,-0.008158948332490399
1772656048601142800,2.173142822265625,0.0016553659915924071,0.002778853596188128,-0.004793650317587889
1772656048611124700,2.183124755859375,0.006594575959444046,-0.006488083377666771,-0.003158559929043986
1772656048621107700,2.193107666015625,0.01452419991493225,0.0022656433770433066,-0.0004779608092503622
1772656048631089700,2.203089599609375,0.011979191607236862,0.0022412030555307863,-0.00600591218417976
1772656048641071900,2.21307177734375,0.012127660167217254,0.008540832922700792,-0.004210233539598994
1772656048651054800,2.223054931640625,-0.0016389993786811827,0.012953315602708607,-0.00901220416096039
1772656048661036800,2.233036865234375,-0.0005921206742525101,0.007472217310499399,-0.0037206370914820578
1772656048671018800,2.243018798828125,0.011681085443496704,0.00852961740894243,-0.013920877426653168
1772656048681000700,2.253000732421875,0.007788754180073737,0.01044922382729128,-0.016231766451220028
1772656048690983700,2.262983642578125,0.005990764847397804,0.01567921516895294,-0.004256977024464868
1772656048700966000,2.2729658203125,0.012126491123437881,0.008509414871130138,-0.009171043417905457
1772656048710947800,2.28294775390625,0.006888005948066711,0.0008464972941204905,-0.00779169048925396
1772656048720929800,2.2929296875,0.014369301614165305,0.017836411469150333,0.003640589558635838
1772656048730912800,2.302912841796875,0.010329086312651633,0.004484470203984529,-0.00528932031346485
1772656048740894700,2.312894775390625,0.014964929419755935,0.005572210641764104,-0.010074362632911652
1772656048750876700,2.322876708984375,0.0031429742008447646,0.003018160511087626,-0.014509504669299348
1772656048760859000,2.33285888671875,0.011073182678222656,0.011724559259042143,-0.008145869655208662
1772656048770841900,2.342841796875,0.0035942250996828075,0.004662822445575148,-0.0008436477499082684
1772656048780823800,2.35282373046875,0.00898117883503437,0.006465542752295732,-0.003289657229115255
1772656048790805800,2.3628056640625,0.010326748225092887,0.001659037519712001,-0.0017417610668344422
1772656048800787700,2.37278759765625,0.013166355565190314,0.0045572979781776666,-0.009990063616633415
1772656048810770700,2.382770751953125,0.015707856741547583,-0.0007349632110446691,0.0013247914635110647
1772656048820753000,2.3927529296875,0.011520341923832892,0.013822974576707928,-0.00502191981524229
1772656048830734800,2.40273486328125,0.002543254742026329,0.011381243980396537,-0.00625351656996645
1772656048840716800,2.412716796875,-0.003443418452143669,0.009175641961209475,-0.00396615911803674
1772656048850700000,2.422699951171875,0.012866495835781097,0.0066311999090947205,-0.003588663008576259
1772656048860682200,2.43268212890625,0.007929039433598517,0.005849639343656599,-0.008502820733562112
1772656048870664200,2.442664306640625,0.01182020165324211,0.0024931137236766515,-0.008847862178413197
1772656048880646100,2.452646240234375,0.0029909985095262527,0.009718626264110207,-0.008758722590235992
1772656048890629000,2.462629150390625,0.01032265657186508,0.011288578994572161,-0.0001629948422545567
1772656048900611000,2.472611083984375,0.002692307823896408,0.008249138233438133,-0.007269187285378575
1772656048910593300,2.48259326171875,0.009726444244384765,-0.0015378222928382455,-0.004415227192942984
1772656048920575200,2.4925751953125,0.011971592822670936,0.010232877662871032,-0.002268191527156159
1772656048930558200,2.50255810546875,0.007782324439287185,0.009152754275966435,-0.0024397761012427506
1772656048940540200,2.5125400390625,0.01540916605591774,0.005954761952254921,-0.0032746057904558252
1772656048950522000,2.522522216796875,0.008075754427909851,0.008704133725631981,-0.005197701073833741
1772656048960504000,2.532504150390625,0.007327566409111023,0.01324800596665591,-0.0045168929025530815
1772656048970487000,2.542487060546875,0.011364859101176262,0.01102927047125995,-0.00919420966436155
1772656048980469200,2.55246923828125,0.010466448956727981,0.005974854892212897,-0.015001850196928717
1772656048990451200,2.562451171875,0.015102292063832281,0.006984214597847312,-0.0030318556762998924
1772656049000434200,2.57243408203125,0.0037274960905313488,0.012191793178301304,-0.00978730758614838
1772656049010416400,2.58241650390625,-0.0030079496443271635,0.003458561222348362,0.00046005525980144735
1772656049020398000,2.592398193359375,0.0023778350472450256,0.009337298796325921,-0.002510717879026197
1772656049030380300,2.60238037109375,0.01210427929162979,0.0033664076931774613,-0.0006948229969013481
1772656049040363000,2.612363037109375,0.01449848095178604,-0.0011746515362523495,-0.0057145097558619455
1772656049050345200,2.62234521484375,0.007613982135057449,0.012834401930775492,-0.011003149649314582
1772656049060327200,2.6323271484375,0.013897592449188232,0.009360990199167281,-0.007329105345648713
1772656049070309000,2.64230908203125,0.01135492222905159,0.007851809478923678,-0.005516215271363034
1772656049080292400,2.652292236328125,-0.002561374920606613,0.004491630597133189,-0.004811957725835964
1772656049090274000,2.662274169921875,0.002227612921595573,0.007016966089978814,0.00008995243893004953
1772656049100256300,2.67225634765625,0.008660276317596435,0.0048609753661789,-0.012887077399506232
1772656049110238000,2.682238037109375,0.00596738397181034,0.006214161807112395,-0.005157254899013787
1772656049120221200,2.69222119140625,0.009111527216434477,0.004751651506498456,-0.008880376208527014
1772656049130203100,2.702203125,0.004624152669310569,0.003108944067079574,-0.01120233004980255
1772656049140185000,2.71218505859375,0.0013327099084854126,0.0073977455684915185,-0.004460281044221483
1772656049150167300,2.722167236328125,0.014198036700487136,0.007029843837860972,-0.0029859478750731794
1772656049160150000,2.73214990234375,0.012998013260960579,0.009707721277605741,-0.010784725692239589
1772656049170132200,2.74213232421875,0.014940379500389098,0.0009946005279198287,-0.012463641522778197
1772656049180114200,2.7521142578125,0.0013245266020298003,0.005159465122409165,-0.008056789432535879
1772656049190096100,2.76209619140625,0.004465747237205505,0.010773578677140176,-0.00615873269229196
1772656049200079000,2.7720791015625,0.010751695638895034,0.011441230539325624,-0.0034443956996779886
1772656049210061000,2.78206103515625,0.008208440896868705,0.011854706711042672,0.00015252368059009313
1772656049220043300,2.792043212890625,0.008803484180569648,0.01158337895637378,-0.005197682807524688
1772656049230025000,2.80202490234375,0.004314356067776679,0.009186620012950151,0.0003747972622979432
1772656049240008200,2.81200830078125,0.005061959564685821,0.006684720194619149,-0.011586936320061796
1772656049249990100,2.821990234375,0.003266308319568634,0.0032099750224500894,-0.01151956103912089
1772656049259972000,2.83197216796875,0.01703530595302582,-0.0015757431504316627,-0.00346735645015724
1772656049269955000,2.841955078125,0.00805880329310894,0.01277395871412009,0.001766575847682543
1772656049279937300,2.851937255859375,0.0047667760103940965,0.0036847529273480173,-0.009090913686668499
1772656049289919200,2.861919189453125,0.005516717594861984,0.00400273283533752,-0.003987950824736617
1772656049299901200,2.871901123046875,0.0035696751803159714,0.013675601995270698,-0.0023052401684923096
1772656049309884200,2.88188427734375,0.0047679450541734695,0.010939528094884007,-0.0037399263138417154
1772656049319866000,2.8918662109375,0.0016255553752183914,0.0062609235582873225,-0.0006328362771309912
1772656049329848000,2.90184814453125,-0.001664133819937706,0.01029976888662204,-0.0061730626117438075
1772656049339830300,2.911830322265625,-0.0015109890848398208,0.011501600690744816,0.00015021299249492583
1772656049349813200,2.921813232421875,0.007619827353954315,0.0046325917040929195,-0.008908871650649235
1772656049359795200,2.931795166015625,0.0034270518392324444,0.004919957278110087,-0.007063618243299424
1772656049369777200,2.941777099609375,0.016892098090052602,0.014442238986212759,-0.015937911770911885
1772656049379759000,2.951759033203125,0.009859715235233307,0.00837428071675822,-0.010276753337215632
1772656049389742000,2.9617421875,0.011507482442259787,0.0038053653660230337,-0.008352680806303397
1772656049399724300,2.971724365234375,0.010908932027220725,0.01133649152321741,-0.010097067655064166
1772656049409706200,2.981706298828125,0.005972060146927833,0.010229772390332072,-0.0008517990903230383
1772656049419688200,2.991688232421875,0.013003273957967758,0.008740538479574024,0.003344341991841793
1772656049429671200,3.001671142578125,0.005968553015589714,0.009180372935254127,-0.00241379684319254
1772656049439653000,3.011653076171875,0.0065653498649597165,0.013347466019447892,-0.00841214677542448
1772656049449635300,3.02163525390625,0.01000467666387558,0.013070165181718767,-0.007287595158326439
1772656049459618000,3.0316181640625,0.008061141380667686,0.0010135609567165373,0.005077202799590304
1772656049469600300,3.041600341796875,0.01015840592086315,0.005407466800417751,-0.006132744301087223
1772656049479582000,3.05158203125,0.0022270283997058867,0.006527483806293457,-0.007686394350719637
1772656049489564200,3.061564208984375,0.01270166066288948,0.009873542831186204,-0.0005969795124605297
1772656049499547100,3.071547119140625,0.005969137537479401,0.014703246276266872,-0.0053598602324491365
1772656049509529000,3.081529052734375,0.0029810616374015804,0.007392886730283498,-0.00413961142222397
1772656049519511300,3.09151123046875,0.007018938851356506,0.00778681795131415,-0.0032793458976550028
1772656049529493000,3.101492919921875,0.007767126870155334,0.009138597886450588,-0.0033012928679818287
1772656049539476200,3.111476318359375,0.0010322656571865082,0.006030895928386598,-0.010428217571880668
1772656049549458200,3.121458251953125,0.007164484801888466,0.003967533657792955,-0.004989414918283
1772656049559440100,3.131440185546875,0.008211363506317139,0.00023711495781317352,-0.006934904696559533
1772656049569422300,3.14142236328125,0.012400047367811202,0.00567304066773504,-0.00341039753195364
1772656049579405000,3.151405029296875,0.010154898789525031,0.0021190927795134485,-0.0034234031439991665
1772656049589387300,3.16138720703125,0.0037198973059654234,0.004229435996990651,-0.011895956603460945
1772656049599369000,3.171368896484375,0.009705985978245735,0.015117891491763293,-0.005307531823590397
1772656049609351200,3.18135107421875,0.009411386945843696,0.008618300339393318,-0.008030011023464612
1772656049619334100,3.191334228515625,0.008067571121454238,0.003069744567852467,-0.005821262632543221
1772656049629316000,3.201316162109375,0.0044768531531095505,-0.0009622874272055923,-0.011879215531214139
1772656049639298300,3.21129833984375,0.0047772974044084544,0.003212660169880837,-0.011534516579657792
1772656049649281300,3.22128125,0.012407646152377128,0.008769801106676458,-0.013688059618044644
1772656049659263200,3.23126318359375,0.0058253451526165,0.0035746801489964126,-0.0041151802338659765
1772656049669245200,3.2412451171875,0.0154021517932415,0.0040014176610857245,-0.00005157035703305155
1772656049679227100,3.25122705078125,0.00672375529706478,0.007106471004337072,-0.005834190612775274
1772656049689210000,3.261210205078125,0.01106383032798767,0.008358096766937523,-0.0054124306699028235
1772656049699192000,3.271192138671875,0.00836859989464283,0.003954254051111638,-0.00429793922251556
1772656049709174300,3.28117431640625,0.010015198057889937,0.002601414670050144,-0.006318480698112398
1772656049719156200,3.29115625,0.009117372435331344,0.0004442183698527515,-0.005113758250582031
1772656049729139200,3.30113916015625,0.003433481580018997,0.005853657931648194,-0.003040029849600978
1772656049739121200,3.31112109375,0.008072247296571732,0.012095255734957754,-0.005837871274049393
1772656049749103000,3.32110302734375,0.0031359599381685253,0.013218231882899998,-0.011107477673469111
1772656049759085000,3.3310849609375,0.004185761252045631,0.007286576811596751,-0.014180304680974223
1772656049769068300,3.341068359375,0.00822130037844181,0.004812898440752178,-0.001207252331334166
1772656049779050000,3.351050048828125,0.0011865794360637664,0.018220405818056316,-0.0010178078735712916
1772656049789032200,3.3610322265625,0.008369768938422202,0.013095719748083502,-0.004796458762604743
1772656049799015200,3.37101513671875,0.014502572605013846,0.006649959408491849,-0.003684433266939595
1772656049808997000,3.3809970703125,0.00881517461836338,0.004020268492028117,-0.007425528624560683
1772656049818979300,3.390979248046875,0.004774959316849708,0.011094535993505268,-0.0025756957069039345
1772656049828961000,3.4009609375,0.014800678768754004,0.007109886804129928,-0.01182402387841139
1772656049838944300,3.4109443359375,0.005672200417518616,0.0064135203041136265,0.0013934042868902906
1772656049848926000,3.420926025390625,0.013006781089305877,0.009759104404971002,-0.0052311786517500874
1772656049858908200,3.430908203125,0.008217793247103691,0.010830825289711356,-0.005823048164253123
1772656049868890000,3.44089013671875,-0.0052484220474958414,0.006116528385225683,-0.004633664849749766
1772656049878873000,3.450873046875,0.013158756780624389,0.01101231933645904,-0.011921771464729681
1772656049888855000,3.46085498046875,0.0017857143729925154,0.004575673885084688,-0.004403335825749673
1772656049898837000,3.4708369140625,-0.0016571195572614669,0.005788319344166666,0.0030661095723509787
1772656049908819000,3.48081884765625,0.0032779987573623654,0.004604552919697016,-0.003666025393991731
1772656049918802000,3.490802001953125,0.006872223857045173,0.011791359151247889,-0.0014837905506603418
1772656049928784100,3.5007841796875,0.004631751453876495,0.015331479443516581,0.002756500200484879
1772656049938766000,3.51076611328125,0.0011900865674018858,0.012082469318620859,-0.009151745062391274
1772656049948749000,3.5207490234375,0.007177344283461571,0.011263590683788061,-0.010434195221518165
1772656049958731300,3.530731201171875,0.009422492861747742,0.012433675642777234,-0.004309159302851185
1772656049968713000,3.540712890625,0.006578793868422508,0.0019078246490098535,-0.004549256235617213
1772656049978695200,3.550695068359375,0.013012041786313057,0.004461436388269066,-0.0037780937666073437
1772656049988678000,3.560677978515625,0.010620178213715553,0.006841134599037468,-0.0023894021874526516
1772656049998660000,3.57066015625,0.0028378537744283673,0.009004011721350251,-0.00017265315316617488
1772656050008642000,3.58064208984375,0.011368950754404068,0.004590834921598434,-0.0027570207902928813
1772656050018624000,3.5906240234375,0.007329319974780082,0.0059616300844587385,-0.008003643606347031
1772656050028607200,3.600607177734375,0.018255787658691406,0.009615512949507682,-0.007103479896229691
1772656050038589000,3.6105888671875,0.0071866966336965555,-0.00018615195555612445,-0.0007800535949412733
1772656050048571100,3.620571044921875,0.0026981530427932737,0.0054747781492769714,0.00444786908722017
1772656050058553000,3.630552978515625,0.008983516922593117,0.008183616982866078,-0.005351681492570788
1772656050068536000,3.6405361328125,0.013920973324775696,0.010913644734956323,-0.0038587121216114607
1772656050078518300,3.650518310546875,0.0055406829923391335,0.004348386201541871,-0.007123476938065141
1772656050088500000,3.6605,0.0055406829923391335,0.0072075202260166405,-0.01284003252054099
1772656050098483200,3.670483154296875,0.010476385828852653,0.009703282564505934,-0.004118723897822201
1772656050108465000,3.68046484375,0.008383212941884995,0.008222816482093184,-0.007141405320400372
1772656050118447000,3.690447021484375,0.008082184168696403,0.009629687605332582,-0.0016877338912338017
1772656050128429000,3.700428955078125,0.009129062873125076,0.006335377033986151,-0.0013003876746166497
1772656050138412000,3.710412109375,-0.0016430910319089889,0.009232340584509073,0.0023041761559899894
1772656050148394000,3.72039404296875,0.006288871011137962,0.00512000989485532,-0.004883383560809307
1772656050158376000,3.7303759765625,0.00943126069009304,-0.001925798697117716,-0.003199983351398259
1772656050168358100,3.740358154296875,0.003446341061592102,0.002605688986368477,-0.0037065674669342114
1772656050178341000,3.750341064453125,0.0034480946272611615,0.005925481058843433,-0.0007942419504979625
1772656050188323000,3.760322998046875,0.007339256846904754,0.0027688253925181924,-0.005313276577787474
1772656050198305000,3.770304931640625,0.006440262180566788,0.006388879053201526,-0.0004289568686392158
1772656050208287000,3.780286865234375,0.009580313771963118,0.011417630468029528,-0.006167916079168207
1772656050218270000,3.79027001953125,0.016015899777412412,0.00536074158186093,-0.0013848419545218348
1772656050228252200,3.800252197265625,0.008235328903794288,0.004772584696672856,-0.0036227479412686077
1772656050238234000,3.810234130859375,-0.005084171396493912,0.0021101422880776227,0.0012234956466592847
1772656050248217000,3.820217041015625,0.005687982508540153,0.004919665017165243,-0.010018750855000688
1772656050258199000,3.830198974609375,0.010325579181313514,0.00033277561832219363,-0.0033100926623679697
1772656050268181000,3.840180908203125,0.00523848517537117,0.008200257590413092,-0.0019919912345474585
1772656050278163000,3.850162841796875,0.004790156885981559,0.010391063899267465,-0.009032698959717526
1772656050288146000,3.86014599609375,0.0011982698738574982,0.005946816107816994,-0.010371235820790753
1772656050298128100,3.870128173828125,0.008680734583735465,0.007424816238507628,-0.005166177990986034
1772656050308110000,3.880110107421875,-0.0022428104907274244,0.0013092377013526856,-0.0061251637828303495
1772656050318092000,3.890092041015625,0.007335165193676948,-0.00048314387444406745,0.001624614660302177
1772656050328075300,3.9000751953125,-0.0001461304724216461,0.0014583638484589755,-0.002619845375884324
1772656050338057000,3.910056884765625,-0.0029880759000778198,0.009167020263336599,-0.008423654550127684
1772656050348039200,3.9200390625,0.004343582162261009,0.0043913668267428875,-0.0008792259533656761
1772656050358022000,3.93002197265625,0.013621698117256163,0.006860222891997545,-0.007131103122094646
1772656050368004000,3.940004150390625,0.0056885670304298395,0.006055957304406911,0.0011079201427055523
1772656050377986300,3.949986328125,0.007333996149897575,0.006453103395830839,-0.004412350249267183
1772656050387968000,3.959968017578125,0.007931377521157265,0.004657488683331758,-0.0063378475522855296
1772656050397951200,3.969951171875,0.013316577690839767,0.004552311275806278,-0.002026473459461704
1772656050407933000,3.979932861328125,-0.004494388809800148,0.013249649934470652,-0.005158990198373794
1772656050417915100,3.9899150390625,0.003734510353207588,0.006758242088556289,-0.008157920852606184
1772656050427897000,3.99989697265625,0.011966332125663757,0.005130092897452414,-0.005999336312920786
1772656050437879000,4.009879150390625,0.004632920497655868,0.004890804248861968,-0.007540766201796941
1772656050447861200,4.019861328125,0.00448211385011673,0.007235412879940122,-0.006941270505264401
1772656050457844000,4.029843994140625,0.0001391162097454071,0.006810428933519869,-0.0010325853175949305
1772656050467826200,4.039826171875,0.0062742579638957975,0.006935333954822272,-0.007737001159950159
1772656050477807900,4.049807861328125,0.006873392900824547,0.009016323213651777,-0.0056999971733195706
1772656050487790000,4.0597900390625,0.014655132818222045,0.00514309850949794,0.0030388014403171836
1772656050497773000,4.06977294921875,0.011060323196649551,0.007230791503749787,0.005276739393104799
1772656050507755000,4.079755126953125,-0.0030079496443271635,0.012574216624628752,0.0010149080970091745
1772656050517737200,4.0897373046875,-0.0019599018961191177,0.010709756193310022,-0.00009454184907954185
1772656050527719000,4.099718994140625,0.011506897920370102,0.00012623846186324953,-0.0008590919142123311
1772656050537702100,4.1097021484375,0.004922258833050728,0.014329627190902828,-0.005871070290752687
1772656050547684000,4.11968408203125,0.012252747851610183,0.005309961242694407,-0.007501548436260782
1772656050557666000,4.129666015625,0.005670446851849555,0.005968607814516871,-0.0019965806446969507
1772656050567649000,4.13964892578125,0.009261164820194245,0.005273118097335099,-0.00024647187462542206
1772656050577631000,4.149630859375,0.008960136047005653,0.00911444982588291,-0.003708371264953166
1772656050587613200,4.15961328125,0.015694997259974478,0.0030889789912849665,-0.001789299136144109
1772656050597595000,4.169594970703125,0.007617489266395569,0.004459317496418953,-0.0028341731131542474
1772656050607578000,4.179578125,0.006567103430628776,0.005808503615669906,0.0025965055994922295
1772656050617560000,4.18956005859375,0.009559855505824088,-0.0006060761343687773,-0.003127845130371861
1772656050627542000,4.1995419921875,-0.009743979901075362,0.00955013782940805,0.0023576462091645226
1772656050637524200,4.209524169921875,0.0008808744877576828,0.0019836298315785822,-0.00989464041814208
1772656050647507200,4.219507080078125,0.009110358172655104,0.002112407310400158,-0.002893693881202489
1772656050657489200,4.2294892578125,0.008511807757616043,0.014163239381741731,-0.008305247768270782
1772656050667471000,4.23947119140625,0.005071311914920807,0.008094806188251823,-0.000949364013550803
1772656050677454000,4.2494541015625,0.010006430229544639,0.00691074750283733,-0.002577417306532152
1772656050687436000,4.25943603515625,-0.000018704700469970702,0.008185973336733878,-0.00657270205435343
1772656050697418000,4.26941796875,0.003574351355433464,0.0031900830118916927,-0.005307673387485556
1772656050707400200,4.279400146484375,0.0068657941162586205,0.006736907039582729,-0.010719377971603534
1772656050717383200,4.289383056640625,-0.00061608607172966,0.007200524229649454,-0.007898680827952921
1772656050727365000,4.299365234375,-0.004206219518184662,0.0003264920080080628,-0.010276324078952893
1772656050737347000,4.30934716796875,0.008963058656454085,0.012840996068343519,-0.012410660093370824
1772656050747330300,4.319330322265625,0.002529226216673851,0.010082454607822,-0.004884602836938575
1772656050757312000,4.32931201171875,0.004477437674999237,0.002901822388730943,0.002367838809615932
1772656050767294200,4.339294189453125,0.010317395874857901,0.007487287015467882,-0.007260515355155803
1772656050777276200,4.349276123046875,0.0031347908943891523,0.008692516353074461,-0.0038252345436951144
1772656050787259100,4.359259033203125,0.003285597541928291,0.00478158998703584,-0.0018543363295262679
1772656050797241000,4.369240966796875,0.010169511836767196,0.0031322518774308263,-0.0039096203249413515
1772656050807223000,4.37922314453125,0.0005956278055906295,0.0037151663319207728,-0.004645789112383499
1772656050817205200,4.389205322265625,0.011969839257001876,0.009465601351112126,-0.008121607430209406
1772656050827188000,4.39918798828125,0.009874912804365157,0.004293459410220384,-0.00496437180857174
1772656050837172000,4.409171875,0.011371288841962814,0.008692589418310671,-0.002391073554730974
1772656050847154400,4.419154541015625,0.00897767170369625,0.005541925101354718,-0.0013850702833849936
1772656050857136400,4.429136474609375,0.006733107647299766,0.00045926980851218103,-0.010646737427078187
1772656050867118300,4.439118408203125,0.009424830949306488,0.0003747698628343641,-0.011490143148391507
1772656050877101300,4.449101318359375,0.014062427622079848,0.006439421930350363,-0.006536598694510757
1772656050887083500,4.45908349609375,0.006729600515961646,0.00934181057466194,-0.011964418729790486
1772656050897065500,4.4690654296875,0.013165186521410941,0.012456819056347011,-0.0074134454611223186
1772656050907047400,4.47904736328125,0.011366028144955635,0.009022862552292645,0.0004421953761251643
1772656050917030400,4.489030517578125,0.013161679390072822,0.009746062260307371,-0.007914152391720563
1772656050927012400,4.499012451171875,0.010917699855566024,0.009838380186259746,-0.00978480510180816
1772656050936994600,4.50899462890625,0.006729600515961646,0.002989537204802036,-0.000786309805791825
1772656050946977300,4.518977294921875,0.0010433715730905533,0.005229881743807345,-0.005423920178296976
1772656050956959500,4.52895947265625,0.00852583628296852,0.013132051436789333,-0.0010525960591621696
1772656050966941400,4.53894140625,0.00957154594361782,0.009300875776074826,-0.006792390953330322
1772656050976923400,4.54892333984375,0.01615676955282688,0.005575480311084538,-0.005357362314686179
1772656050986906600,4.55890673828125,0.015858663389086723,0.008276976088434458,-0.007742426253738812
1772656050996888300,4.568888427734375,0.007628595182299613,0.003579538987204432,-0.0016502011927077545
1772656051006870500,4.57887060546875,0.013467968860268593,0.011272541175223886,-0.0036643174940953027
1772656051016853200,4.588853271484375,-0.007928454911708831,0.012353961470071225,0.0029268609318649393
1772656051026835500,4.59883544921875,0.006290040054917335,0.005302873914781957,-0.00964451984828338
1772656051036817700,4.608817626953125,0.009584405425190925,0.004276910134218633,-0.009657808588119224
1772656051046799400,4.61879931640625,0.01542261005938053,0.005673899184260517,0.00016212719257455317
1772656051056782600,4.628782470703125,0.011381225714087485,0.00029459903240203856,0.0012898525808705016
1772656051066764300,4.638764404296875,0.010037994411587715,0.00596400470463559,-0.0053418268188368525
1772656051076746500,4.64874658203125,0.011687515184283256,0.003781089441291988,-0.007864034206257201
1772656051086728400,4.658728515625,0.0036088381469249723,0.006114720020629465,-0.002279114779969677
1772656051096711400,4.66871142578125,0.005552957952022552,0.002018061824142933,-0.003387103421334177
1772656051106693600,4.678693603515625,0.014981296032667159,-0.0014703100145794451,-0.004923318278975785
1772656051116675300,4.68867529296875,0.0009182838886976242,-0.0035612726781517265,-0.007371035658079199
1772656051126658600,4.698658447265625,0.0034621231526136397,0.005365545621141791,0.012635522924386895
1772656051136640500,4.708640625,0.0078033672273159025,0.010798238194361329,-0.0008292264989111573
1772656051146622500,4.71862255859375,0.004658639460802078,0.005077869519870728,-0.0072240055699367076
1772656051156604400,4.7286044921875,0.009447042781114579,0.0008523790456354618,-0.011478375078784301
1772656051166587400,4.73858740234375,0.011392331629991531,0.011887750464119017,-0.0025564430171623824
1772656051176569300,4.7485693359375,0.004808277064561843,0.008885408576671033,-0.004351843100530095
1772656051186551300,4.75855126953125,0.002713350611925125,0.008694945772178471,-0.003809260656428523
1772656051196534300,4.7685341796875,0.02067103210687637,0.0046098318830132485,-0.006688213626225479
1772656051206516500,4.7785166015625,0.006011223113536834,0.004838434740807861,0.0036477134191663933
1772656051216498400,4.78849853515625,0.000775076025724411,0.00628021278064698,-0.0004698871006490662
1772656051226480400,4.79848046875,0.013941431590914726,0.002471796941012144,-0.006839983821567148
1772656051236463600,4.808463623046875,0.007359130591154098,0.002159516121447086,-0.006578789301845245
1772656051246445300,4.8184453125,0.0075064301073551176,0.008575703306682407,-0.008817896298412233
1772656051256427500,4.828427490234375,0.0015197569131851195,0.0051201742916367945,0.0031551486958283927
1772656051266410200,4.83841015625,0.006458382359147072,0.0040437772317789495,-0.002094446962024085
1772656051276392400,4.848392333984375,0.008703530937433243,-0.004714059442467987,-0.0042179647549055515
1772656051286374700,4.858374755859375,0.0040665187865495675,0.004008230994362384,-0.0009469528607558459
1772656051296356400,4.8683564453125,0.0022696984976530075,0.010243161594867706,-0.014342240077303722
1772656051306339600,4.878339599609375,0.007956511962413787,0.005041994488891214,-0.008037847270048222
1772656051316321300,4.8883212890625,0.015289923590421675,0.006495700428541749,-0.004033365435618907
1772656051326303500,4.898303466796875,0.011548983496427535,0.0058819889769889415,-0.006149046981916762
1772656051336286500,4.908286376953125,-0.004760930791497231,0.004824899405799806,-0.002248541545192711
1772656051346268400,4.918268310546875,0.012445640075206757,0.0022413674523122607,-0.004941890548705123
1772656051356250600,4.928250732421875,0.002420505145192146,-0.0022458426980301737,-0.009256858537835068
1772656051366232300,4.938232421875,0.011696867534518242,0.0004475611044093966,-0.008362019456806593
1772656051376215600,4.948215576171875,0.007658405798673629,0.0038018217020668087,-0.004521450346661731
1772656051386197500,4.958197509765625,0.009304419440031051,0.008252535766921937,-0.008135389360389671
1772656051396179500,4.968179443359375,0.012146949389576911,0.009566431377083063,0.0006683003161568194
1772656051406161700,4.97816162109375,0.007357961547374725,0.003032134237512946,-0.007466650652815587
1772656051416144400,4.988144287109375,-0.005510872375965118,-0.00039639717275276776,-0.008537965112179517
1772656051426126600,4.998126708984375,0.007358546069264412,0.0018512538898736238,-0.007885515385703184
1772656051436108300,5.0081083984375,0.014242460364103317,0.0056976088534109294,-0.007521262350305914
1772656051446091500,5.018091552734375,0.01947685388624668,0.0018449337469413876,0.0031884755766950546
1772656051456073500,5.028073486328125,0.0167833770185709,0.003201919580157846,0.0012887840017909184
1772656051466055400,5.038055419921875,0.00047112464308738706,0.007013751219585538,-0.0034299470492172982
1772656051476037400,5.048037353515625,0.0063064066678285595,0.0028056137389503417,-0.005312632690393366
1772656051486020600,5.0580205078125,0.014839257213473319,0.0010873568452894687,-0.006439846622035839
1772656051496002600,5.06800244140625,0.0063075757116079325,0.003466707996185869,-0.003892285597650334
1772656051505984500,5.077984619140625,-0.0011760580420494078,-0.004072966793645173,-0.00522226925950963
1772656051515967500,5.087967529296875,-0.0005751695394515991,-0.0012441183095797895,0.0005154752414673567
1772656051525949400,5.097949462890625,0.009751578685641289,0.003855305454973131,-0.005538929426670074
1772656051535931400,5.107931396484375,0.00855506237745285,0.0012553520896472037,-0.00028017778140492736
1772656051545913300,5.117913330078125,0.0007715688943862914,0.012588519144617021,-0.006201758983265609
1772656051555896600,5.127896484375,0.0010720131456851958,0.00455934380479157,-0.0010623822342371568
1772656051565878300,5.137878173828125,0.005559387692809104,0.0038962219872511923,-0.0065555408569984135
1772656051575860500,5.147860595703125,0.006755904000997543,-0.001821315409336239,-0.0011861090786056592
1772656051585843500,5.157843505859375,0.003011456775665283,0.006970514866057783,0.0006322289223549887
1772656051595825400,5.167825439453125,0.0007674772411584853,0.003978584774769842,-0.009433196918852627
1772656051605807600,5.1778076171875,0.0010679214924573899,0.005756682096887379,-0.004587907745572738
1772656051615789300,5.187789306640625,0.008251695516705513,0.010292060504201799,-0.0020244184996932742
1772656051625772500,5.1977724609375,0.0130406833589077,0.0060576926037669175,-0.01128643270325847
1772656051635754200,5.207754150390625,0.021119944918155668,0.00912814955767244,-0.0054489404551219195
1772656051645736400,5.217736328125,0.0009176993668079376,-0.003249028391204774,-0.006582360365265049
1772656051655719400,5.227719482421875,-0.0022270283997058867,0.009395531789585947,-0.013351087315217591
1772656051665701400,5.237701416015625,0.005555296039581299,0.0076801792390644545,-0.0052265116097871215
1772656051675683600,5.24768359375,0.008550970724225044,0.00362462023794651,-0.0013601093720644712
1772656051685665300,5.257665283203125,0.007951835787296295,0.007257387249730527,-0.0038928838192718103
1772656051695648500,5.2676484375,0.004659808504581451,0.0013400529647246003,-0.0016760845526354387
1772656051705630500,5.27763037109375,0.0043599487751722335,0.0034189598643220957,-0.014729522361839189
1772656051715612400,5.2876123046875,0.006755904000997543,0.0037244638832286,-0.011632556426920928
1772656051725595400,5.297595458984375,0.01289338384270668,-0.0027948914155364033,-0.004302834593341686
1772656051735577300,5.307577392578125,0.0075064301073551176,0.003778641755878925,-0.010240430781664327
1772656051745559600,5.3175595703125,0.016034604477882384,0.005271017471794039,-0.007266630002111196
1772656051755541500,5.32754150390625,0.007953004831075668,0.005973156125470996,-0.006275294576934538
1772656051765524500,5.3375244140625,0.0036140988439321516,0.007398768481798469,-0.0018334351053927093
1772656051775506400,5.34750634765625,0.00900514423251152,0.001587762381788343,-0.003034796552057378
1772656051785488400,5.35748828125,0.007807458880543708,-0.0009128770612180233,-0.002605474357237108
1772656051795471400,5.367471435546875,0.00421674091219902,0.00512614737469703,0.0003961734104668721
1772656051805453600,5.37745361328125,0.002271452063322067,0.005108118527662009,-0.012324630344309844
1772656051815435500,5.387435546875,0.011097148075699805,0.0037837015234865245,-0.004951293131290003
1772656051825417500,5.39741748046875,0.013941431590914726,0.008626173118595034,-0.003257928650290705
1772656051835400400,5.407400390625,0.006457213315367698,0.0021630415190942586,-0.003954907071660273
1772656051845382400,5.41738232421875,-0.0034188685327768325,0.01920453975088894,0.00009483867660164833
1772656051855364000,5.427364013671875,0.005410334610939025,0.00719820440839976,-0.006608558819023892
1772656051865347000,5.43734716796875,0.002568389183282852,0.01820283362874761,-0.004508330570184626
1772656051875329300,5.447329345703125,-0.00027297172248363493,0.006094846276380121,-0.010783666246314532
1772656051885311200,5.457311279296875,-0.0020674539238214494,0.004139766685850918,-0.00628019908091519
1772656051895293200,5.467293212890625,0.0034691374152898786,-0.0015159209882840514,0.0024994247334543616
1772656051905276200,5.477276123046875,0.004818213936686516,0.007671283546555787,-0.009400427160412072
1772656051915258000,5.487258056640625,0.0009270517170429229,0.008928973723761736,-0.0041179156136466185
1772656051925240000,5.497239990234375,0.000481061515212059,0.010598971028905361,-0.005103780279261991
1772656051935223000,5.50722314453125,0.005416764351725578,-0.004387713564932346,-0.0032556818942772224
1772656051945205200,5.517205322265625,0.00421849447786808,0.006600092384777963,-0.004310570375225507
1772656051955187200,5.527187255859375,0.0028705870002508163,0.00695294267674908,-0.009770392983965575
1772656051965169200,5.537169189453125,0.016037527087330816,0.005281666729971766,0.0049075772871496155
1772656051975152000,5.547152099609375,0.003914543095231056,0.01906396223641932,-0.006407990179047919
1772656051985134000,5.557134033203125,0.0057090252965688705,0.010742836479004472,-0.003249147122213617
1772656051995116300,5.5671162109375,0.005107552272081375,0.008017649298813193,-0.0027777667507994917
1772656052005099000,5.57709912109375,0.016780454409122465,0.00180343269277364,-0.004244272806518711
1772656052015081200,5.587081298828125,0.010046762239933013,-0.0010591719304211438,0.0011728203387698158
1772656052025063200,5.597063232421875,-0.0023749124377965927,-0.0002801503819413483,0.000710061665228568
1772656052035046100,5.607046142578125,0.007201309680938721,0.00364966334765777,0.0010540756301954388
1772656052045028000,5.617028076171875,0.001064998883008957,0.009410108304210007,-0.011410830834484659
1772656052055010000,5.627010009765625,-0.0013297872990369797,0.004665708522405475,-0.00800729230158031
1772656052064992300,5.6369921875,0.00689852734208107,0.0011800400974228977,-0.005292498651240021
1772656052074975200,5.646975341796875,0.007198971593379974,0.00618725553387776,-0.010516329680173657
1772656052084957200,5.656957275390625,0.0037590602725744247,0.001304689390398562,-0.00812372632205952
1772656052094939100,5.666939208984375,0.0010673369705677031,0.0031586832266300917,-0.00950660921493545
1772656052104922000,5.676922119140625,0.004511924466490745,0.005667469443473965,0.000385040095099248
1772656052114904000,5.686904052734375,0.005858662900328636,-0.00030225261589512226,-0.0002822966732550412
1772656052124886300,5.69688623046875,0.0039139585733413695,0.003420695163682103,-0.010299618189572356
1772656052134868200,5.7068681640625,0.008701192849874495,0.0006858268396928906,-0.005940760826366022
1772656052144851200,5.716851318359375,0.014088146585226058,0.002112407310400158,-0.007862303473474457
1772656052154833200,5.726833251953125,0.009002806144952774,0.0025298107385635375,-0.008842249854956753
1772656052164815000,5.736815185546875,0.009301496830582618,0.011993512393534182,-0.0019791819853242484
1772656052174798300,5.74679833984375,0.006310498321056366,0.006793532597646117,-0.005502474440378137
1772656052184780000,5.756780029296875,0.0200771578669548,-0.0038169279396533962,-0.002869851781311445
1772656052194762200,5.76676220703125,0.01124678567945957,0.0030264534153975546,-0.0006392340518767014
1772656052204745000,5.776744873046875,0.007352116328477859,0.006833755010180175,-0.0034164345470955593
1772656052214727200,5.78672705078125,0.0003191489517688751,0.001768544042482972,0.0018130910036852582
1772656052224709400,5.79670947265625,0.004959083712100983,0.002182476871926337,-0.0004266187810804695
1772656052234691000,5.806691162109375,0.003611760756373405,0.0016200572161935269,-0.0008598225665744394
1772656052244674300,5.81667431640625,0.0063040685802698134,0.004082099948171526,-0.011948805602127686
1772656052254656000,5.826656005859375,0.002114215674996376,0.009364789591450243,-0.010351599538559093
1772656052264638200,5.83663818359375,0.003909866920113563,0.009264215293806046,-0.006863424062659032
1772656052274621200,5.84662109375,0.01722936722040176,0.013896277274936437,-0.0055614928849274286
1772656052284603100,5.85660302734375,0.018427052572369575,0.012275507672689855,-0.004296245022350922
1772656052294585300,5.86658544921875,0.01005085389316082,0.00875887785386294,-0.004084661798016168
1772656052304568000,5.876568115234375,0.01094751047194004,0.006921195831615478,-0.0036363791743991894
1772656052314550300,5.88655029296875,0.024714170017838478,0.0009785809748806059,-0.003982425266248174
1772656052324532200,5.8965322265625,0.009748656076192855,-8.402502164244651e-7,-0.0007933058021590113
1772656052334514200,5.90651416015625,0.0064554597496986384,0.006787157655786723,-0.0040151082597207274
1772656052344497200,5.9164970703125,0.011841828963160514,0.015078710258845239,-0.015595322578051126
1772656052354479000,5.92647900390625,0.013338789522647857,0.002646258458774537,-0.0017286641232436522
1772656052364461000,5.9364609375,0.0019698387682437896,0.004985405463445931,-0.008649599659955128
1772656052374444300,5.9464443359375,0.004364040428400039,0.003176529410574585,-0.005639818818145431
1772656052384426200,5.95642626953125,0.017232289829850197,-0.0030488844429142773,-0.0023741543859709053
1772656052394408200,5.966408203125,0.007956511962413787,0.0029857378125190733,-0.0019220952029572799
1772656052404391200,5.97639111328125,0.013792963030934333,0.0035483035987243054,0.0044560934928711505
1772656052414373000,5.986373046875,0.007210662031173706,-0.002968384818919003,-0.005457187693659216
1772656052424355300,5.996355224609375,0.007062777993083,0.003666230889968574,-0.00512350332646165
1772656052434337000,6.0063369140625,0.009458733218908309,0.005622662187367677,-0.0057031481116311625
1772656052444320300,6.0163203125,0.007963526225090027,0.0015003946255892514,0.002572919227927923
1772656052454302000,6.026302001953125,0.017540917387604712,0.006069218644779175,-0.005269944326137192
1772656052464284200,6.0362841796875,0.01275134502351284,0.010675324200745672,-0.004920569199463353
1772656052474267100,6.04626708984375,0.0073632222443819045,0.00564441736144945,0.004576020944956689
1772656052484249000,6.0562490234375,0.00047930794954299924,0.003858191531803459,-0.00825738547197543
1772656052494231300,6.066231201171875,0.020827683973312378,0.0027785613352432847,-0.0019353565433295442
1772656052504214000,6.076214111328125,0.0006248539000749588,0.0006003587796352803,-0.005302937846863642
1772656052514196200,6.0861962890625,0.004964344409108161,0.0063229376775212585,-0.0073043499303050334
1772656052524178200,6.09617822265625,0.014839257213473319,-0.0024325243765488266,-0.009251981433317995
1772656052534160100,6.10616015625,0.004513093510270119,0.004068747276253998,0.003471388737880625
1772656052544143000,6.11614306640625,0.010946925950050354,0.00321693448619917,-0.005201244737789966
1772656052554125000,6.126125,0.019926351219415665,0.007928199183382093,-0.00835134736574255
1772656052564107300,6.136107177734375,0.011099486163258551,0.003070566551759839,-0.007365697329258546
1772656052574090200,6.14609033203125,0.010203998628258704,0.0030578532006591557,-0.002252861527283676
1772656052584072200,6.156072265625,0.010505027401447296,0.005828687887173146,-0.00887413369740825
1772656052594054100,6.16605419921875,0.010952186647057533,0.012795056301075964,-0.0053998908487381415
1772656052604037000,6.176037109375,0.013496025910973548,0.004157685935031623,-0.0034147860127035526
1772656052614019000,6.18601904296875,0.0058627545535564415,0.006670783000811934,-0.010192550219059921
1772656052624001300,6.196001220703125,0.004365793994069099,0.0029519816733896732,0.011678998517687432
1772656052633984000,6.20598388671875,0.012595862200856208,0.0022462993557564913,-0.004122760752122849
1772656052643966200,6.21596630859375,0.018132453539967536,0.0022441804639063774,-0.002753723721508868
1772656052653948200,6.2259482421875,0.006609773528575897,0.0022509755308739838,0.001764091629651375
1772656052663931100,6.23593115234375,0.010050269371271132,-0.00003684314535930752,-0.0026143700497457756
1772656052673913300,6.245913330078125,0.005412672698497772,0.012926738123036921,-0.0045941411235369736
1772656052683895000,6.25589501953125,0.005563479346036911,0.009423314845655112,-0.0022200643693795425
1772656052693878300,6.265878173828125,0.0009258826732635498,0.007559621599316596,-0.002799435159913264
1772656052703860000,6.27585986328125,0.0058627545535564415,0.0029480544169433413,0.0006830366609850898
1772656052713842200,6.28584228515625,0.012740239107608794,0.004590853187907487,-0.00007415208159945905
1772656052723824400,6.295824462890625,0.012437456768751144,0.00337780587002635,0.003552765144710429
1772656052733807000,6.30580712890625,0.014380992051959036,0.0053971280694939195,0.007793754582176916
1772656052743789300,6.315789306640625,0.010492752441763877,0.012294486367795615,-0.005968192255985922
1772656052753771000,6.32577099609375,0.013338789522647857,0.006005195231549442,-0.003060652512521483
1772656052763754200,6.335754150390625,0.011392916151881217,0.004999470521416515,0.0067108775491826235
1772656052773736200,6.345736083984375,0.010791443127393722,0.008970547843165696,-0.009445006087655201
1772656052783718100,6.35571826171875,0.0030097032099962234,0.009046627020370214,-0.011609266882878727
1772656052793701000,6.365701171875,0.008397825989127158,0.0027077793876640497,-0.0023493076390819624
1772656052803683000,6.37568310546875,0.01827390783727169,0.007329721833579242,0.002741357430280186
1772656052813665000,6.3856650390625,0.015581015491485595,0.0048381242135539645,-0.0041356019673869015
1772656052823648300,6.395648193359375,0.008846738800406456,0.002714154329523444,-0.011684756971616297
1772656052833630200,6.405630126953125,0.008396656945347785,0.005325578936934471,-0.003610957038775086
1772656052843612200,6.415612060546875,0.0025619594424962995,0.003835267313942313,-0.0067645850643748414
1772656052853595100,6.42559521484375,0.0040606735676527025,0.008968575081788003,-0.007137615061271935
1772656052863577000,6.4355771484375,0.008853168541193009,0.0017110782342031597,-0.004489730900991707
1772656052873559300,6.445559326171875,0.000623100334405899,0.011135799585655332,-0.0039058939978946
1772656052883542000,6.4555419921875,0.014090484672784804,0.00813563138898462,0.0008898295457707718
1772656052893524200,6.465524169921875,0.010649404308199882,0.0032920820816420017,0.003949778805393726
1772656052903506000,6.475505859375,0.0043634559065103525,0.0009375913773663341,0.00042745446471963074
1772656052913489200,6.4854892578125,0.009300327786803245,-0.00212767794476822,-0.003303530490840785
1772656052923471000,6.49547119140625,0.011544307321310043,-0.002778049878589809,-0.005268199893622659
1772656052933453000,6.505453125,0.002119476372003555,0.006400532958377152,0.0031650170692941173
1772656052943436000,6.51543603515625,0.004963759887218475,0.010090784044750034,-0.006771896154573187
1772656052953418200,6.525418212890625,0.00795768100619316,0.007956511962413787,0.006649119158275425
1772656052963400200,6.535400146484375,0.009303834918141364,0.004823529432620853,-0.0062938348806230345
1772656052973383200,6.545383056640625,0.010948094993829727,0.0026280286823399364,0.004854691755864769
1772656052983365000,6.555365234375,0.007954173874855041,0.00689096509013325,-0.0036452840000623836
1772656052993347000,6.56534716796875,0.005706687209010124,0.00536634933874011,-0.006931616760930046
1772656053003329300,6.575329345703125,0.013785364246368408,0.004352678784169256,-0.0015733593971002846
1772656053013312000,6.58531201171875,0.011990882045030593,0.006973656671214848,0.006658046816824935
1772656053023294200,6.595294189453125,-0.002971709287166595,0.009751505620405077,0.00008016169727779924
1772656053033276200,6.605276123046875,0.004959668233990669,0.003250526228547096,-0.005581585824885406
1772656053043259100,6.615259033203125,0.0015185878694057465,0.0009981076592579484,0.004714132507704198
1772656053053241300,6.625241455078125,0.0019657471150159836,0.002280329489521682,-0.0077684100783662864
1772656053063223000,6.63522314453125,0.012288988208770751,-0.0005973083060234784,-0.006163180538546293
1772656053073206300,6.645206298828125,0.015579261925816535,0.007579860669746995,0.0014700131870573386
1772656053083188000,6.65518798828125,0.008843816190958023,0.0009548530394211411,-0.0029090330142294988
1772656053093170200,6.665170166015625,0.005251929178833961,-0.003365256915707141,0.0035660356182372196
1772656053103153200,6.675153076171875,0.015128595548868178,0.0018485870087519287,-0.008411402423330583
1772656053113135000,6.685135009765625,0.0012128829210996627,-0.0011556728411465883,0.0053394613318145275
1772656053123117300,6.695117431640625,0.0048024318456649775,0.004918824766948819,0.0023526823396794495
1772656053133100300,6.705100341796875,0.010191723668575287,0.00048628567960113284,-0.002355043260124512
1772656053143082200,6.715082275390625,0.009293313524127007,0.007404339706059545,-0.007608890401409007
1772656053153064200,6.725064208984375,0.013333528825640678,0.007990103704761713,-0.002243367613153532
1772656053163047200,6.735047119140625,0.01393032567501068,0.007952822167985141,-0.006278162387455813
1772656053173029000,6.745029052734375,0.0022568390160799027,0.00818789129918441,-0.005624470551963895
1772656053183011000,6.755010986328125,0.006594575959444046,0.009493548803962767,0.0003572570390300825
1772656053192994000,6.764994140625,0.005694996771216392,0.004553918711002916,-0.009312360717891715
1772656053202976300,6.774976318359375,0.008835048362612724,0.007020473221316933,-0.007854499192931689
1772656053212958200,6.784958251953125,0.009434183299541472,0.00627097002826631,-0.004899485312239267
1772656053222941200,6.794941162109375,0.0019534721553325653,0.005466357380803674,-0.004644551569945179
1772656053232923400,6.80492333984375,0.007640285620093345,0.005122000922542065,0.001638926313444972
1772656053242905000,6.814905029296875,0.006442015746235847,0.005812485671043395,-0.0009106668378226459
1772656053252888300,6.824888427734375,0.002848375168442726,0.01143640823373571,-0.0029214449712308124
1772656053262870000,6.8348701171875,0.013472060513496397,0.00844725462142378,0.0010518334407592191
1772656053272853200,6.844853271484375,0.009579144728183745,0.005584120275266468,0.0026046569399069994
1772656053282835200,6.854835205078125,0.004941548055410385,-0.002389781213365495,-0.0016616541684838012
1772656053292817200,6.864817138671875,0.010927636727690697,-0.001386376324482262,-0.004620092982123606
1772656053302800100,6.874800048828125,0.00898117883503437,0.004277512922417372,-0.011494983720290473
1772656053312782000,6.884781982421875,0.010027473017573356,0.0028429500746540723,-0.005207761243544519
1772656053322764000,6.894763916015625,0.010328501790761948,0.0040975349793210625,-0.0037549686193466183
1772656053332747300,6.904747314453125,0.010481646525859832,0.003581420417036861,0.002552109335339628
1772656053342729200,6.914729248046875,-0.002384264788031578,0.0046106173343025145,-0.005843579495628364
1772656053352711200,6.924711181640625,0.01557166314125061,-0.006274111833423376,-0.007173544891178608
1772656053362694100,6.934694091796875,0.007190203765034675,0.003094659813400358,-0.003551034411927685
1772656053372676000,6.944676025390625,0.004794248539209366,0.008430961073748766,-0.005942299762903712
1772656053382658300,6.954658203125,0.0010533084452152251,0.0015370368415489792,-0.006537589641776867
1772656053392641000,6.96464111328125,0.009881927067041397,0.0016573387529700994,0.004297843324393034
1772656053402623200,6.974623291015625,0.008536357676982879,0.00033045579707249997,0.0011603672825731336
1772656053412605000,6.98460498046875,0.005394552519917488,0.009844718595501034,-0.010458407214167527
1772656053422588200,6.994588134765625,0.014523030871152877,0.008089034034591167,0.0010689855049597098
1772656053432570000,7.004570068359375,0.012429273462295531,0.007114179386757314,-0.0005501309963176027
1772656053442552000,7.014552001953125,0.008091536518931389,0.0022056933507323263,-0.005960027215839363
1772656053452535000,7.02453515625,0.019914076259732245,0.005516699328552931,-0.0029407159272814166
1772656053462517200,7.034517333984375,0.013778349983692168,0.006956121014524251,-0.00323256131359376
1772656053472499200,7.044499267578125,0.010336100575327873,0.00023305983720347284,-0.013023444529739208
1772656053482482200,7.054482177734375,0.0022545009285211562,0.005967548368591815,-0.009073204500041902
1772656053492464000,7.064464111328125,0.012429857984185218,0.010868015494942665,-0.002282891339366324
1772656053502446000,7.074446044921875,0.01318096861243248,0.004235920536704361,-0.002651592221017927
1772656053512429300,7.08442919921875,0.004652794241905212,0.004050627097673714,-0.008755631017428822
1772656053522411000,7.094410888671875,0.010788520517945288,0.0005419796559028327,0.0025135674232384187
1772656053532393200,7.104393310546875,0.015129764592647551,0.007165160655323416,0.001777599565195851
1772656053542376000,7.1143759765625,0.00256020587682724,0.0068979793528094885,0.0026138403267832473
1772656053552358100,7.124358154296875,-0.0010305120915174483,0.0031520525564439593,-0.0031528151748469097
1772656053562341000,7.134341064453125,0.009742226335406303,0.0028819851770997044,-0.005277693807752803
1772656053572323000,7.144322998046875,0.015727730485796926,-0.00100223584510386,-0.005176023531565443
1772656053582305300,7.15430517578125,0.008395487901568412,0.00548334504822269,-0.008067045965068973
1772656053592288300,7.164288330078125,0.00898994666337967,0.00981417732676491,0.002897680503153242
1772656053602270200,7.174270263671875,0.008838555493950843,0.009756912447884679,0.002322798658069223
1772656053612252200,7.184252197265625,0.01797112549841404,0.00485165954856202,-0.0015616826590383423
1772656053622235100,7.194235107421875,0.010041501542925834,0.004609886681940407,-0.0018587567763170226
1772656053632217000,7.204217041015625,0.004655132329463958,0.001546297860238701,0.00004632792633492499
1772656053642199300,7.21419921875,0.015880290699005126,0.004735157029423862,-0.002272607407369651
1772656053652182000,7.22418212890625,0.014532383221387862,0.007464618525933474,-0.002654259102139622
1772656053662164200,7.234164306640625,0.009144260442256927,0.0010498195801861585,0.004522071401169524
1772656053672146200,7.244146240234375,0.007649637970328331,0.006512414101324975,-0.0017022464737761764
1772656053682129200,7.254129150390625,0.01094224977493286,0.00916764131784439,-0.0010784976853989063
1772656053692111400,7.264111328125,0.010193477234244346,0.01005673564467579,-0.007906503374804742
1772656053702093000,7.274093017578125,0.002412321838736534,0.006575195405539125,-0.006770297852531075
1772656053712076300,7.284076171875,0.007647884404659271,0.0084375917439349,-0.0011314243158791213
1772656053722058000,7.29405810546875,0.010042670586705207,0.0019447773922234772,-0.008572145942994392
1772656053732041200,7.304041259765625,0.0013625205248594284,0.0023280593550764023,-0.009063244795030914
1772656053742023200,7.314023193359375,-0.00013385551273822782,0.004706570255756378,-0.0021266504648840053
1772656053752005000,7.324005126953125,0.012884031492471694,0.006975026644393801,0.00922652733165305
1772656053761988000,7.333988037109375,0.004804185411334038,0.00456272307196632,-0.00456621650357265
1772656053771970300,7.34397021484375,0.009893032982945442,0.007067015776783227,-0.00714913653570693
1772656053781952300,7.3539521484375,0.008095043650269508,0.010211725276988,-0.004634094108012504
1772656053791935200,7.363935302734375,0.010488076266646384,0.01145240952046588,-0.001022767176479101
1772656053801917200,7.373917236328125,0.002406476619839668,0.007374784818012267,0.0026873576541431247
1772656053811899100,7.383899169921875,0.013185060265660286,0.009808898363448679,-0.0048608977343654255
1772656053821882400,7.39388232421875,0.00824877290725708,0.008473722503241151,0.001179240946401842
1772656053831864000,7.403864013671875,0.014085223975777625,-0.0020081614846363663,-0.00005565744368359446
1772656053841846300,7.41384619140625,0.006904372560977936,-0.0029677272317931054,-0.007631755253765732
1772656053851828700,7.423828857421875,0.006903203517198562,0.006824256529472768,-0.011363489127997308
1772656053861810700,7.433810791015625,0.0052589434415102,0.008888641713373363,-0.0013840610698098315
1772656053871793700,7.443793701171875,0.009751578685641289,-0.00002005640733987093,-0.013752471190341748
1772656053881775900,7.45377587890625,0.008704699981212616,-0.000978635773807764,-0.005634882348123938
1772656053891757800,7.4637578125,0.006610358050465583,-0.001162449641805142,0.000049214003165252504
1772656053901740800,7.47374072265625,0.008707622590661048,-0.0004465016584843397,-0.0015101214351598172
1772656053911723000,7.483722900390625,0.018436989444494248,-0.00046001872718334194,0.000009576112520880996
1772656053921704700,7.49370458984375,0.001678162345290184,0.004721786091197282,-0.0070007775735808535
1772656053931688000,7.50368798828125,0.013346972829103469,0.014289075984805822,0.0025087679505348204
1772656053941669600,7.513669677734375,0.008259294301271439,-0.005768683061935008,-0.006896522614662535
1772656053951651800,7.52365185546875,0.013044775012135504,0.0002897036615759134,-0.004315063887252472
1772656053961634800,7.533634765625,0.002568389183282852,0.0007992423526011407,0.007057709092320874
1772656053971616800,7.54361669921875,-0.0011719663888216018,-0.0023580709008499978,-0.004389499096642248
1772656053981599700,7.553599853515625,0.007657236754894256,0.00469321758383885,-0.006456144736288115
1772656053991581700,7.563581787109375,0.01364274090528488,-0.0005099222835153341,-0.0011506952719297259
1772656054001564000,7.57356396484375,0.00286824891269207,0.003525123652536422,0.002387995681655593
1772656054011547000,7.583546875,0.001370119309425354,-0.0005985869476571679,-0.001545471309754066
1772656054021528800,7.59352880859375,0.002118307328224182,-0.0022454225729219616,-0.006982200737274251
1772656054031510800,7.6035107421875,0.008554477855563163,0.005474485888332129,-0.007775410641310736
1772656054041494000,7.613493896484375,0.00017360300123691558,0.007578837756440043,-0.003437486468278803
1772656054051475700,7.623475830078125,0.0039127895295619965,0.0008004844616167247,0.0001490987476427108
1772656054061459000,7.633458984375,0.0042108956933021545,-0.006484996371436864,0.004078186391456984
1772656054071440600,7.643440673828125,0.005257189875841141,0.004754793311655521,-0.0007641756057972088
1772656054081422800,7.6534228515625,0.005558218649029731,0.005250614004582166,-0.0021166405275231228
1772656054091405800,7.66340576171875,0.008400748598575591,0.0019448321911506353,0.0017345413081813602
1772656054101387800,7.6733876953125,0.005108721315860748,0.0055442631889134645,0.0021764307236298917
1772656054111369700,7.68336962890625,0.008550970724225044,0.004450914994254708,-0.00467576412553899
1772656054121352700,7.693352783203125,0.009745148944854736,0.0017551183053292332,-0.0003099564317381009
1772656054131334700,7.703334716796875,0.007347440153360366,0.0040672859715297814,-0.001980378428567201
1772656054141316900,7.71331689453125,0.008994038316607474,0.007423044406529516,0.005357595210126601
1772656054151299800,7.7232998046875,0.005850479593873023,0.0002602218387648463,-0.0013129959944402799
1772656054161281800,7.73328173828125,0.007792845833301544,-0.0025432912746444344,0.000025691563682630658
1772656054171264800,7.7432646484375,-0.000886135184764862,0.005100994667131454,-0.0026742378776660187
1772656054181246700,7.753246826171875,-0.003129530197381973,0.006400843485631048,-0.003936421566898934
1772656054191229000,7.76322900390625,0.007792261311411857,0.0036793460998684165,-0.002495515743317082
1772656054201211600,7.773211669921875,0.01078676695227623,-0.00011708704102784395,-0.004996671209554188
1772656054211193900,7.78319384765625,0.011085457637906073,0.0068999338478781275,-0.006947129423893057
1772656054221175600,7.793175537109375,0.0052495910912752144,0.01400329957967624,-0.0066869669506326316
1772656054231158800,7.80315869140625,0.0052460839599370954,0.0033927477108314633,-0.0029822124148719013
1772656054241140700,7.813140625,0.006589315262436867,0.006304707901086658,-0.006729933876101858
1772656054251123700,7.823123779296875,-0.0002951835542917251,0.001741418573539704,0.0008642293136334046
1772656054261105700,7.833105712890625,0.009278700476884841,0.0020326931376941503,-0.007266072879685089
1772656054271087900,7.843087890625,0.005392214432358741,-0.0016602430961094796,-0.007413299330649897
1772656054281070600,7.853070556640625,0.004497311419248581,-0.005287548481486737,-0.0004638409523526206
1772656054291052800,7.863052734375,-0.004182838642597198,-0.0003534348138608038,0.0005613739095395431
1772656054301034800,7.87303466796875,0.011529109752178192,0.008302347991708666,-0.004316561724594794
1772656054311017700,7.883017822265625,-0.00044131402671337126,0.0006317402985878288,0.0006075739717110991
1772656054321000000,7.893,0.0010527239233255386,0.0034174072280526158,0.004755400666431524
1772656054330982700,7.902982666015625,0.00374620079100132,0.0013491130540147422,-0.00352673108773306
1772656054340964900,7.91296484375,0.0004541735082864761,0.0005947692890651523,-0.001824055355694145
1772656054350946600,7.922946533203125,0.0011994389176368714,0.009691993985511361,-0.015834268733346833
1772656054360929800,7.9329296875,0.016315174984931943,0.0034715485680848358,-0.013075161017244681
1772656054370911700,7.942911865234375,0.007787000614404678,0.00237401738865301,0.002465129738207906
1772656054380893700,7.952893798828125,0.00808627582192421,0.006862049522902816,0.012444772425526753
1772656054390876700,7.962876708984375,0.002398293313384056,0.0036802776816301044,-0.003698950416059233
1772656054400859000,7.97285888671875,0.003444587495923042,0.004491082607861608,0.004581181177264079
1772656054410841600,7.982841552734375,0.004490881678462028,0.010060407172795384,0.00032501243697479365
1772656054420823800,7.99282373046875,0.012569558715820313,0.007762998684309423,0.0026787587891565633
1772656054430804700,8.0028046875,0.005087678527832031,0.010931618783064185,-0.0067524927677819506
1772656054440787000,8.012786865234375,0.010623685345053672,0.010191047815140335,-0.008499692628136836
1772656054450770000,8.02277001953125,0.003890577697753906,0.00505472610630095,-0.003696826957631856
1772656054460752000,8.032751953125,0.009426584514975547,0.004578103304188699,0.003156285773566924
1772656054470733800,8.04273388671875,0.005087678527832031,0.003973634605016559,0.002659798360359855
1772656054480716800,8.052716796875,0.012720949885249137,0.0056924942868761715,0.0009775306621100752
1772656054490698800,8.06269873046875,0.013022563180327415,0.0061903060074895615,-0.0028824555345578116
1772656054500680700,8.0726806640625,0.005541267514228821,0.000608268091455102,0.005796201256522909
1772656054510663700,8.08266357421875,-0.0019376900643110274,0.00407895814301446,0.003034677821048535
1772656054520646000,8.09264599609375,0.011678747355937958,0.007218461745139211,-0.0044074457452865316
1772656054530628600,8.102628662109375,0.007490063494443893,0.007889328477717936,-0.006917953561758622
1772656054540610800,8.11261083984375,0.004945055186748504,-0.002201857425831258,-0.0018519297433085738
1772656054550593000,8.122593017578126,0.01347498312294483,0.00947095337966457,-0.008198380727157928
1772656054560575700,8.13257568359375,0.01571720909178257,-0.0018080358026549218,-0.011594722334295511
1772656054570558000,8.142557861328125,0.0015010522127151488,-0.0026859328820370136,-0.004063961503282189
1772656054580541000,8.152541015625,0.0012035305708646773,0.002621635474171489,-0.005875166510557755
1772656054590523000,8.16252294921875,0.003747369834780693,0.010967840873915701,-0.0019395029954845085
1772656054600504800,8.1725048828125,0.003149403941631317,0.006609499533940106,-0.0011866707676090299
1772656054610487800,8.18248779296875,0.006294131708145141,-0.0021525383913889528,-0.00794432376769837
1772656054620469800,8.1924697265625,0.008240005078911782,0.007270338062848896,0.0016904099055100232
1772656054630451700,8.20245166015625,0.011534370449185372,0.0002747435544617474,0.002569891587202437
1772656054640434700,8.2124345703125,0.004953823015093803,0.006954550111945718,0.0006042540700407699
1772656054650417000,8.2224169921875,0.008095628172159194,0.006190050279162824,0.0017297555352095513
1772656054660399600,8.232399658203125,0.010939327165484427,0.010951236798986791,0.0035236988804303107
1772656054670381800,8.2423818359375,0.0039051907449960707,0.00548131748791784,0.001296460418170318
1772656054680363800,8.25236376953125,0.005551204386353492,0.004579692473076284,-0.006313996319239959
1772656054690346800,8.2623466796875,0.007496493235230445,-0.0006691314332187175,-0.008572397104743867
1772656054700328700,8.27232861328125,0.004054243826866149,0.0028145642303861675,-0.007376775845699012
1772656054710312000,8.28231201171875,0.006149754801392555,0.0028579467143863436,-0.0022628120991401374
1772656054720294000,8.2922939453125,0.01497778890132904,0.0010717391510494053,-0.002818427554750815
1772656054730275800,8.30227587890625,0.0028588965624570845,0.0011131306073628366,-0.00686104944248218
1772656054740258800,8.3122587890625,0.006749474260210991,0.015325762088783085,-0.001765511835180223
1772656054750240800,8.32224072265625,0.01303542266190052,0.00729001087769866,-0.005144957106444053
1772656054760223700,8.3322236328125,0.00765139153599739,0.005564922384452074,-0.0000974416256416589
1772656054770205700,8.342205810546876,0.01677986988723278,0.007697915825154632,-0.0026003597907023504
1772656054780188000,8.35218798828125,-0.0005751695394515991,0.00002582856100052595,-0.002883624578337185
1772656054790170600,8.362170654296875,0.0057101943403482435,0.00553343126764521,0.0008513652654830366
1772656054800152800,8.37215283203125,0.009597849428653717,0.01253883478399366,-0.0020418445585295556
1772656054810134800,8.382134765625,0.0009165303230285644,0.0005479162063449621,0.00923585684900172
1772656054820117800,8.39211767578125,0.010192308190464973,0.006706639765482396,0.00008902085716836154
1772656054830099700,8.402099609375,0.004054828348755837,0.0036501200053840875,-0.004144388062041253
1772656054840083000,8.4120830078125,0.00554828177690506,0.004287413261923939,0.006465940044517628
1772656054850064600,8.422064697265625,0.006296469795703887,-0.0021635529757477344,0.003795615723566152
1772656054860048000,8.4320478515625,0.00779518392086029,0.0009851751124486327,-0.009669517292222008
1772656054870030800,8.44203076171875,-0.0016290625065565108,0.0034556020802818236,-0.00013746310877613724
1772656054880012800,8.4520126953125,0.003011456775665283,-0.003623396395239979,-0.0004238286023726687
1772656054889995800,8.461995849609375,-0.0050660512179136275,0.005548373108450323,0.00422072296757251
1772656054899978000,8.47197802734375,0.008701777371764183,-0.0007866751319728792,0.0005731602454558015
1772656054909959700,8.481959716796876,0.006605097353458404,-0.005190335184708237,0.006045919967582449
1772656054919943000,8.49194287109375,0.0018196166425943374,-0.0004939940620213747,0.009327946446090937
1772656054929924600,8.501924560546875,-0.004618307450413704,0.0030211196531541645,-0.0007850859630852937
1772656054939907800,8.511907958984375,0.007799275574088096,0.0056944853145629165,-0.007489259776845574
1772656054949889800,8.521889892578125,0.006153846454620361,0.005853621399030089,-0.006687428174936212
1772656054959871700,8.531871826171875,0.0013666121780872343,0.004455024913791567,-0.006251406811270862
1772656054969854700,8.541854736328125,0.010942834296822548,0.008988448826037347,-0.0038361760628176853
1772656054979837000,8.5518369140625,0.004058920001983642,0.002428761516883969,-0.0017242482430301605
1772656054989819600,8.561819580078126,0.009445289215445518,0.004704688825923949,0.00017342947130091486
1772656054999801900,8.5718017578125,0.002716273221373558,0.006910089915711432,0.00686445610912051
1772656055009783800,8.58178369140625,0.008405424773693083,0.003122004478052258,0.0007737654180498794
1772656055019766800,8.591766845703125,0.001371288353204727,0.0034590909453108905,-0.003298224128060974
1772656055029749000,8.6017490234375,0.0052589434415102,-0.003271386353485286,-0.002708994097216055
1772656055039731700,8.611731689453125,0.012590016981959343,0.011645374809298663,-0.002117626908211969
1772656055049714000,8.6217138671875,0.004956161102652549,0.003937028921674936,0.004868163158791139
1772656055059695600,8.631695556640626,0.014234277057647704,-0.0011774462815374136,0.0035316310251364484
1772656055069681000,8.641680908203124,0.014982465076446532,0.009728764065634459,0.00038903585020452736
1772656055079663900,8.651663818359374,0.008249357429146766,0.006694492669962346,-0.0029017675898037848
1772656055089645800,8.661645751953126,0.0060059624165296555,0.0009322210825048387,0.007908444170141592
1772656055099627800,8.671627685546875,0.002713350611925125,0.00814737662570551,-0.0014994995764456688
1772656055109610800,8.68161083984375,0.002117138284444809,0.006223605488892644,0.002809499896201305
1772656055119593000,8.691593017578125,0.008704115459322929,0.008466543843783437,-0.006374928159662522
1772656055129575700,8.70157568359375,0.0025689737051725384,0.00011546133952215313,-0.003913195954938419
1772656055139558000,8.711557861328124,0.01319616618156433,0.0021924137440510094,0.0007231038098921999
1772656055149539600,8.72153955078125,0.004817629414796829,-0.004579729005694389,-0.003798949324968271
1772656055159522800,8.731522705078126,0.014396774142980575,0.005732753232028335,-0.010099478807859122
1772656055169504800,8.7415048828125,0.007514028891921043,0.0007942008513025939,0.001836275516450405
1772656055179488000,8.751488037109375,0.0057183776468038554,-0.0032289537175558504,-0.003021699608466588
1772656055189469700,8.7614697265625,0.004520692294836044,0.0004389028739184141,-0.006100207438087091
1772656055199453000,8.771452880859375,0.0070651160806417465,0.0019080986436456442,-0.005771098781307228
1772656055209434600,8.7814345703125,0.0051221653193235395,-0.00005865311836823821,-0.007978258003341034
1772656055219416800,8.791416748046874,0.00602057546377182,-0.0071691061780788,-0.0019163687150692565
1772656055229399800,8.80139990234375,0.005721300256252289,0.0018311974825337529,-0.0033270940295187755
1772656055239381800,8.8113818359375,0.004675590595602989,-0.001992105398979038,0.0015485948486020787
1772656055249364700,8.82136474609375,0.015899579921364784,0.0006493855531327426,-0.004922720057354308
1772656055259346700,8.8313466796875,0.0070709612995386115,0.006666874010674655,-0.00046414234645199027
1772656055269329000,8.841328857421875,0.005122749841213226,0.0031079211537726223,-0.0033276876845629885
1772656055279312000,8.851311767578125,0.0069172320425510405,0.004930113345943391,0.00150499316889327
1772656055289293800,8.8612939453125,0.016642507243156433,0.006603946575988084,-0.006574775280430913
1772656055299276800,8.87127685546875,0.00796294170320034,-0.0029172756861895323,-0.0004969760369742289
1772656055309259000,8.881259033203126,0.002874678653478622,0.006903788039088248,0.007280918822367675
1772656055319240700,8.89124072265625,0.0024269348859786988,0.002139277051016688,-0.009648342073452658
1772656055329224000,8.901223876953125,-0.004752747485041618,0.007831278147548436,-0.004781494088913314
1772656055339205600,8.91120556640625,-0.0016109423279762267,0.00016209522653371094,-0.0041967849695589395
1772656055349188900,8.92118896484375,0.002280219891667366,0.009880246566608547,-0.00007768661240115762
1772656055359170800,8.9311708984375,0.006321604236960411,0.00593295197924599,-0.005635530802095308
1772656055369152800,8.94115283203125,0.002131166809797287,-0.00037228564480319617,-0.008524968633288518
1772656055379135700,8.9511357421875,-0.002208323699235916,-0.00043619946017861366,-0.0022614375593839214
1772656055389117700,8.96111767578125,0.01320142687857151,0.005402279168646783,0.005449219016334973
1772656055399100700,8.9711005859375,0.0012310030996799469,0.006007624650653452,-0.0021088408135576174
1772656055409083000,8.981082763671875,0.008863689935207366,-0.002119549437239766,-0.003960076437122188
1772656055419065600,8.991065673828125,0.015445406413078308,0.0014388188977725804,-0.003759777225204743
1772656055429047800,9.0010478515625,0.010655834048986434,0.0011694456381723284,0.005286936560133472
1772656055439030000,9.011030029296874,-0.0055050271570682525,-0.003557509818486869,0.00006538425325416029
1772656055449012700,9.0210126953125,0.007213000118732452,0.0059573192355222996,-0.005304737078305334
1772656055458995000,9.030994873046875,0.008109656697511673,0.004925747698079795,-0.005552094868919812
1772656055468978000,9.04097802734375,0.017387772652506826,0.0005548939364030957,-0.004302355102729052
1772656055478959900,9.0509599609375,0.006765840873122215,0.002098689312301576,-0.009028726037498562
1772656055488941800,9.06094189453125,-0.00011690437793731689,0.004815218262001872,0.00010975311794318258
1772656055498924800,9.0709248046875,-0.008947276565432549,0.005976316196937114,-0.004399440535344183
1772656055508906800,9.08090673828125,0.0006283610314130782,-0.000930029125418514,-0.004675914822588674
1772656055518890000,9.090889892578126,0.0027238720059394833,-0.000334985841717571,-0.009540566283464431
1772656055528871700,9.10087158203125,-0.0076005381315946575,0.009074117815494536,-0.0038807001911336553
1772656055538855000,9.11085498046875,0.003922726401686668,-0.0029260069819167255,0.006834490229119547
1772656055548836600,9.120836669921875,0.004219663521647453,0.003288775879703462,0.0008351402164669707
1772656055558818800,9.13081884765625,0.002124152547121048,0.004367967684846371,-0.000514424928696826
1772656055568801800,9.1408017578125,0.005416764351725578,0.0018025559099391101,-0.005218931091530248
1772656055578783700,9.15078369140625,0.013795885640382767,-0.0032296843699179587,-0.0030139090276556087
1772656055588766700,9.1607666015625,0.014093991804122925,0.0017634842748753725,-0.00014800276909954845
1772656055598749000,9.1707490234375,0.010351882666349411,0.005721007995307445,-0.010395909037743694
1772656055608731000,9.18073095703125,0.0031669395983219143,0.009995525243040173,-0.00996935418874491
1772656055618713900,9.1907138671875,0.0007715688943862914,0.004797536474838853,-0.0028738018706440925
1772656055628695800,9.20069580078125,0.0015203414350748062,0.010700531707238406,0.002438323929673061
1772656055638678800,9.2106787109375,0.009301496830582618,0.004389430597983301,0.006102079734764993
1772656055648661000,9.220660888671874,0.006306991189718246,-0.0013968611858785152,0.009180130906659178
1772656055658643700,9.230643798828124,-0.0014735796838998795,-0.0015291275297291576,0.00775724479695782
1772656055668626000,9.2406259765625,0.006308160233497619,0.007726630462985485,-0.00018698763919528573
1772656055678608000,9.25060791015625,-0.004616553884744644,-0.0015718341602943837,-0.00498060142416507
1772656055688590800,9.2605908203125,0.009302081352472305,-0.0034489531437866387,-0.0002716656813863665
1772656055698572800,9.27057275390625,0.005261281529068946,0.009629687605332582,0.002479505323432386
1772656055708556000,9.28055615234375,-0.0014753332495689392,0.006523410419374704,-0.0029595210924511775
1772656055718537700,9.290537841796874,-0.0013256956458091735,0.008942874384950845,-0.0025404006312368436
1772656055728520000,9.30052001953125,-0.004618307450413704,0.0019964345142245293,-0.004006253666407429
1772656055738502700,9.310502685546876,0.004659223982691764,0.008480462771281599,-0.0028686005391413342
1772656055748484900,9.32048486328125,0.009298574221134186,0.006805515296384692,-0.0027760360180167478
1772656055758467800,9.3304677734375,0.011093640944361686,0.0004163987811654806,-0.0035303934826981273
1772656055768449800,9.34044970703125,0.0007698153287172317,-0.00012094123223796487,-0.010517384559521451
1772656055778432800,9.350432861328125,0.00001987374424934387,0.002078760769125074,0.0008242489296942948
1772656055788414700,9.360414794921875,0.005855740290880203,0.0032165691600181162,-0.006685441713826731
1772656055798397000,9.37039697265625,-0.004019757035374641,-0.0009484598312526941,-0.008261906383465975
1772656055808380000,9.3803798828125,0.0037613983601331707,0.006133881378825754,-0.005369450044701807
1772656055818361900,9.39036181640625,0.011693944925069808,0.00863073969585821,-0.005050524855218828
1772656055828344800,9.4003447265625,-0.0016238018095493317,0.010551624755840748,-0.0019989461317192763
1772656055838327000,9.4103271484375,0.005108721315860748,0.0054948528229258956,-0.005074225391214713
1772656055848309800,9.420309814453125,0.0018166940331459044,-0.007049096527602523,0.001612942488817498
1772656055858291500,9.43029150390625,0.008401917642354964,0.003078019205853343,-0.0008449674907373264
1772656055868273200,9.440273193359374,-0.004464578193426132,0.0048938181898556645,-0.0041909488838166
1772656055878256400,9.45025634765625,0.009153612792491913,0.002413253420498222,0.00020279712968040257
1772656055888238300,9.46023828125,0.007058686339855193,0.007342124657426029,-0.0035360606050817292
1772656055898221300,9.47022119140625,0.0024216741889715194,0.004730170327052473,0.005384158990066498
1772656055908203300,9.480203369140625,0.009456395131349563,-0.0032965025284327565,-0.00020591610195115208
1772656055918186500,9.4901865234375,0.001378302615880966,0.0016934147133491932,0.0009172518422361463
1772656055928168200,9.500168212890625,0.010506780967116356,0.0007988770264200865,-0.006963194642704911
1772656055938150400,9.510150390625,0.009460486784577369,0.0032684454777278005,-0.0045337298729224125
1772656055948133000,9.520133056640624,0.00003507131338119507,0.005109525033459067,-0.0006751775815151632
1772656055958115300,9.530115234375,0.009912322205305099,0.0007101392970420419,0.005918708824762143
1772656055968098300,9.540098388671876,0.009164134186506271,0.003109218061715364,-0.00020242723692208528
1772656055978080300,9.550080322265625,0.009615385085344314,0.002586454562935978,-0.00961946303884033
1772656055988063200,9.560063232421875,0.010811316871643066,0.006442143610399216,-0.0035824478969210755
1772656055998045400,9.57004541015625,0.008569090902805328,0.002624740746710449,0.0025576074943644924
1772656056008027400,9.58002734375,0.006025251638889313,-0.0012902042073197663,-0.002175946666439995
1772656056018010400,9.59001025390625,0.0021352584630250928,0.002598382462747395,0.008392962584341876
1772656056027992300,9.599992431640626,0.009769698864221573,0.004564220909308642,-0.00398738000257872
1772656056037975300,9.609975341796876,0.00961947673857212,0.0017447978407144546,-0.008068333739857188
1772656056047957500,9.61995751953125,0.010216858109831809,0.0016379399327561257,-0.008267801834712736
1772656056057940200,9.629940185546875,0.00782441001534462,0.004709365001041442,-0.0006941928092390299
1772656056067922400,9.63992236328125,0.0007937807261943817,0.005473353377170861,0.0037752944547450166
1772656056077904100,9.649904052734374,0.008426467561721801,0.0089341248229146,-0.003014872575458139
1772656056087887400,9.659887451171874,-0.006090133568644523,0.007546725585125386,-0.005569913653400726
1772656056097869300,9.669869384765626,0.004686111989617347,0.0026092691829428076,-0.0011954066299134864
1772656056107852300,9.679852294921876,0.01052139401435852,0.009262900119554251,-0.009219293873268178
1772656056117834200,9.689834228515625,0.003787701845169067,0.006268577141780406,0.0003450323116965592
1772656056127817500,9.6998173828125,0.007528057417273521,-0.0011615363263525068,-0.00801081313265022
1772656056137799200,9.709799072265625,0.009623568391799927,-0.00044412703830748793,-0.007427026461903005
1772656056147781400,9.719781494140625,0.0004974281281232833,-0.0003842500772327184,0.0004521413814043626
1772656056157764400,9.729764404296875,0.0025946926683187484,-0.00039460707446560263,0.0008016626385506242
1772656056167746300,9.739746337890624,0.01097322943508625,0.00007631663922220467,-0.001237350642075762
1772656056177729300,9.749729248046876,0.0015460603982210158,0.004548566682450473,-0.006386422234633937
1772656056187711200,9.759711181640625,0.00005085340440273285,0.004703538048453628,-0.003694265107787214
1772656056197694200,9.769694091796875,0.0010994856745004653,0.006598740677908063,-0.003922520905709825
1772656056207676400,9.779676513671875,-0.00802607006728649,-0.002809833256341517,-0.0062209203414618965
1772656056217659100,9.7896591796875,0.005591536396741867,-0.005403119418863207,-0.001243483555340208
1772656056227641300,9.799641357421875,0.0030512042641639707,0.0037197511754930015,0.0035454814539756623
1772656056237623300,9.809623291015624,-0.0035340193450450895,0.003072301851119846,-0.0015857302549062296
1772656056247606300,9.819606201171876,0.0011035773277282715,0.0016655768583528697,0.0015675096116261557
1772656056257588500,9.82958837890625,0.006793313401937485,-0.004808112667780369,-0.003421896173502318
1772656056267571200,9.8395712890625,0.011883914539217949,-0.0026821152234449983,0.001324722964852117
1772656056277553400,9.849553466796875,0.002905658313632011,-0.0035296719634905454,-0.008206614265963435
1772656056287536400,9.859536376953125,0.009338321709632873,0.0005048442495986818,-0.00030772337545640764
1772656056297518300,9.869518310546875,0.003351648515462875,-0.005129654506035149,-0.0031569935930427164
1772656056307500300,9.879500244140624,0.0018546879559755325,-0.005272570108063519,0.0005085386106045916
1772656056317483500,9.8894833984375,0.006043956339359283,-0.00630823329873383,-0.0066253227241570125
1772656056327465200,9.89946533203125,0.0012584756284952164,-0.0025220658235251903,-0.0048185655631357805
1772656056337448400,9.909448486328126,0.016072013878822327,0.003225738847162574,0.0011192817869363353
1772656056347430100,9.91943017578125,0.0054430678367614746,0.0016756963935680687,-0.007010805777250789
1772656056357413400,9.929413330078125,0.0009545242458581924,-0.0018564232553355394,-0.007960105858719908
1772656056367395300,9.939395263671875,-0.00009060089290142059,0.002853781995922327,-0.008382865882012992
1772656056377378300,9.94937841796875,-0.003830371943116188,-0.00169845621464774,0.001719699932076037
1772656056387360300,9.9593603515625,0.0030529578298330307,0.0031146248891949654,-0.0014737851798767223
1772656056397342500,9.969342529296876,0.005598550659418106,0.003804762577824294,-0.00003749159933067858
1772656056407325200,9.9793251953125,0.009938625690340996,0.0012467486580833792,0.004248816550895571
1772656056417307400,9.989307373046875,0.0005137947410345078,-0.00067468439117074,-0.003317070392426103
1772656056427290400,9.999290283203125,-0.003972410762310028,-0.003320066067110747,-0.01215798680682201
1772656056437272300,10.009272216796875,0.00291267257630825,0.00024303324194625017,-0.0023140947618056087
1772656056447255300,10.01925537109375,0.005909516304731369,0.0039351474918425085,-0.006740455270116217
1772656056457237200,10.0292373046875,0.009649287354946136,-0.003066876757331192,-0.0020195139957126227
1772656056467220200,10.03922021484375,0.005460018971562385,-0.0005405183511786163,-0.0018861334070097654
1772656056477202400,10.049202392578126,0.00426291814148426,0.004675097405258566,0.0032291226809145882
1772656056487184400,10.059184326171875,0.005458265405893325,0.003414375020749867,0.0021041372389765454
1772656056497167400,10.06916748046875,0.0145873282790184,0.0038277415946125983,-0.00111914478961844
1772656056507149300,10.0791494140625,0.013241174367070197,-0.006261672476958483,-0.005863361908332444
1772656056517132300,10.08913232421875,0.009201543587446213,0.0037687414163723584,-0.01196691208097618
1772656056527114500,10.099114501953125,0.008306056052446364,0.003644420916959643,0.0002711998905055225
1772656056537097200,10.10909716796875,0.0045662850022315975,0.004007792602945119,-0.00790993744090665
1772656056547079400,10.119079345703126,0.008011457020044327,-0.00144523037225008,-0.0022274393916595727
1772656056557061400,10.129061279296875,0.005765139397978783,-0.0004863770111463964,-0.0018073964818380772
1772656056567044400,10.13904443359375,0.012498247045278549,0.002829268609173596,-0.0029875507436925544
1772656056577026300,10.1490263671875,0.010553542718291281,0.000649422085750848,-0.012294184973696247
1772656056587009500,10.159009521484375,0.002620411631464958,-0.00266295386524871,0.002665237153880298
1772656056596991200,10.1689912109375,0.010998363876342773,0.0047424270204268395,-0.001097302850568667
1772656056606974500,10.178974365234374,0.008902852901816367,-0.0012327749316580594,-0.010525777928531169
1772656056616956200,10.1889560546875,0.009201543587446213,0.0020259528696537016,-0.01532808647661004
1772656056626939400,10.198939453125,0.00530862780213356,-0.0006270275908522308,-0.0019257073655724523
1772656056636921300,10.20892138671875,0.006204115337133408,-0.0014026150732301176,0.0046945464578224344
1772656056646904300,10.218904296875,0.0002174421429634094,-0.0025568631422705945,0.001921583746303804
1772656056656886300,10.22888623046875,0.001713233658671379,-0.006411054352391511,0.0005893259289674461
1772656056666868200,10.2388681640625,-0.0029255320578813553,0.0019700214313343165,-0.010780136282090097
1772656056676851200,10.248851318359375,0.012041735449433325,0.014335271480400114,-0.007076148931309581
1772656056686833400,10.25883349609375,0.011148001480102539,0.004049129260331392,-0.005521174574270844
1772656056696816400,10.26881640625,0.009800094002485275,-0.006631400838494301,-0.00768293288515415
1772656056706798300,10.27879833984375,-0.0038180969834327697,-0.005780209102947265,-0.0014276992821367458
1772656056716781300,10.28878125,-0.0011246201157569884,-0.0003755553141236305,0.0013747087195748462
1772656056726763300,10.29876318359375,0.004115034103393554,0.003573839898779988,-0.008313718769093975
1772656056736746200,10.308746337890625,0.010101707297563552,-0.00014627660289406777,-0.004600639362982474
1772656056746728400,10.318728515625,0.0006757073044776916,0.0043422852543182665,-0.00404037056514062
1772656056756710400,10.32871044921875,-0.0018669629156589508,0.00008643617443740367,-0.0007552936130203307
1772656056766693400,10.338693359375,-0.0012684125006198882,-0.0023314751548692584,-0.003070132726919837
1772656056776675300,10.34867529296875,0.014442951372265814,0.000023910598549991844,-0.004913915696390905
1772656056786658300,10.358658203125,0.013097381982207298,-0.0030014285719953473,-0.011109765528677961
1772656056796640500,10.368640625,0.002474281159043312,-0.0014530300862155854,-0.0007454572055954486
1772656056806623200,10.378623291015625,0.005316811108589172,0.0005141052682884037,0.007396229464840144
1772656056816605400,10.38860546875,-0.0003688333123922348,0.0037748240972869094,0.0010751640839967876
1772656056826588400,10.39858837890625,0.0009784896433353424,0.001905121235270053,0.0011431558528682217
1772656056836570400,10.4085703125,0.013099135547876357,-0.009951667835004627,-0.00715871264822781
1772656056846553300,10.41855322265625,0.003072247052192688,-0.006620148792117833,0.00039722372323740273
1772656056856534800,10.42853466796875,0.008308394140005112,-0.00046217415165156125,-0.001722654507565312
1772656056866516500,10.4385166015625,0.009656301617622374,-0.0012990451009012758,0.0033795503025408832
1772656056876499700,10.448499755859375,0.017289572975039483,-0.002704217457398772,-0.0007718017898267135
1772656056886481700,10.458481689453125,0.0035229134291410442,0.0019792276510968805,-0.001717841335129924
1772656056896464600,10.468464599609375,0.00007832593321800231,0.002704783712979406,-0.005677173420158214
1772656056906446600,10.478446533203124,-0.003963642933964729,-0.006488996693119406,0.0003836107564158737
1772656056916429800,10.488429931640624,0.0033721067816019057,-0.004612791025079786,0.0015715099333086981
1772656056926411500,10.49841162109375,0.0042681788384914396,0.004538593277707696,0.0005294261350063606
1772656056936394800,10.508394775390625,0.0032207156121730803,-0.00173551855571568,-0.0015542254383675753
1772656056946376400,10.51837646484375,0.0032189620465040204,0.000737575293239206,-0.005841405804851092
1772656056956359700,10.528359619140625,-0.0008206687331199646,-0.001051701010018587,0.004577852142439224
1772656056966341600,10.538341552734375,0.0089057755112648,-0.0004161613191477954,0.00024668193717952816
1772656056976323600,10.548323486328124,0.005317395630478858,0.0005076024622656405,-0.0004416930526262149
1772656056986306600,10.558306640625,0.006219312906265258,-0.0025628362253308293,0.00396915022614412
1772656056996288800,10.568288818359376,0.006668810239434242,-0.00008159560253843665,0.002520166127383709
1772656057006271500,10.578271484375,0.00682137045264244,-0.0013993088712915777,-0.0028126417013583705
1772656057016253700,10.588253662109375,0.012208324187994002,7.306523621082305e-7,-0.005337356139696203
1772656057026236700,10.598236572265625,0.005323825371265411,0.0026043007468804715,0.00025962818372063335
1772656057036218600,10.608218505859375,0.009513093754649161,-0.0010757029401138425,-0.0009754163368372246
1772656057046201600,10.61820166015625,-0.0026087211936712262,-0.0020671799291856587,0.0011162724125199019
1772656057056183600,10.62818359375,0.0036743045985698696,0.0023217757447622717,-0.005051598000875674
1772656057066166500,10.63816650390625,0.0035252515166997907,-0.003756101130507886,-0.003895103175821714
1772656057076148700,10.648148681640626,0.002626256850361824,0.00153400463424623,-0.00398157131629996
1772656057086130700,10.658130615234375,0.009960253000259399,-0.0010534545756876468,-0.00276278381079901
1772656057096113700,10.66811376953125,0.006819032365083694,0.001896682200487703,0.0003186922940425575
1772656057106095600,10.678095703125,0.007267945176362991,0.004470898336358368,0.005946158520691096
1772656057116078600,10.68807861328125,0.010562310546636582,0.0009449344336055219,0.001496316672093235
1772656057126060800,10.698060791015624,0.012956512206792831,-0.008460990885831415,-0.00022400888106785714
1772656057136043500,10.70804345703125,0.00412438645362854,0.00775717173172161,-0.004832370326202363
1772656057146025700,10.718025634765626,0.005920622220635414,0.006386212172079831,-0.006703708022879436
1772656057156008700,10.7280087890625,0.004573299264907836,-0.005229096292518079,-0.0011769028588430955
1772656057165990700,10.73799072265625,0.0024766192466020584,-0.0035664603099226947,0.0009732198131736367
1772656057175973600,10.7479736328125,-0.0015618424892425537,0.006374156408105045,-0.012256634008861147
1772656057185955800,10.757955810546875,0.0006844751328229904,0.0026708449107594786,-0.007357267427630722
1772656057195938600,10.7679384765625,-0.000813069948554039,-0.00022955270586535334,-0.008141303077945486
1772656057205920800,10.777920654296874,0.012203063490986822,0.002462152329832315,-0.006751789514883421
1772656057215902500,10.78790234375,0.008761398604512215,-0.0010055237807333468,-0.0025012376646278422
1772656057225885700,10.7978857421875,0.005467617756128311,-0.00786046770941466,-0.00038301253479439763
1772656057235867600,10.80786767578125,0.0018763152658939361,0.0033546807227656243,-0.007564704199810512
1772656057245850600,10.8178505859375,0.012351532050967215,-0.0034353630098514255,-0.006622263117390685
1772656057255832600,10.82783251953125,0.008762567648291588,-0.008213080539368093,-0.00007623444083146751
1772656057265815800,10.83781591796875,0.010407412245869637,-0.0009994776324369014,-0.0059823760449653485
1772656057275797500,10.847797607421874,0.013849661654233932,-0.003865315392334014,-0.011049710471089928
1772656057285780700,10.85778076171875,0.004721767824888229,-0.000018357640597969294,-0.002180864870152436
1772656057295762700,10.8677626953125,0.0036731355547904966,0.007919212159328162,-0.006818635072861797
1772656057305745700,10.87774560546875,0.009808861830830573,0.004010386418830603,-0.0038154803346609695
1772656057315727600,10.8877275390625,0.004569792133569717,-0.0036584677086211738,-0.005985449351463466
1772656057325710800,10.8977109375,0.0062146367311477655,-0.005101469591166824,-0.0021620094726327805
1772656057335692500,10.907692626953125,0.005017535901069641,0.0008899893759749829,-0.00007966394035611302
1772656057345674800,10.9176748046875,0.003967734587192536,-0.006827160872612148,0.004231326559977606
1772656057355657500,10.927657470703124,0.003219546568393707,-0.007579769338201731,-0.010366450047818943
1772656057365639700,10.9376396484375,0.005315057542920112,-0.003127173843514174,-0.004411286236764863
1772656057375622700,10.94762255859375,0.005913023436069489,0.005151921136770397,0.002330739935929887
1772656057385604600,10.9576044921875,0.007108370700478554,-0.003579977378621697,-0.004414204279636033
1772656057395587600,10.967587646484375,0.009651040920615195,0.002478866002615541,0.0030418245144654063
1772656057405569500,10.977569580078125,0.0026157354563474656,0.0027443668046966195,0.008550135040585882
1772656057415552500,10.987552490234375,0.01533551629781723,-0.007199062924925237,0.0012536898555234074
1772656057425534700,10.99753466796875,0.025211013624072073,-0.0016417941239662468,-0.001978912557265721
1772656057435517400,11.007517333984374,0.0090495678961277,0.0030039493226446208,-0.006740793196833692
1772656057445499600,11.017499755859374,0.057384267476201054,0.0012329027958214282,-0.012783849920472129
1772656057455482600,11.027482666015626,0.016534370693564414,0.006692264180257916,-0.01628909982875921
1772656057465464600,11.037464599609375,-0.06830722802877426,-0.01656215374963358,0.03762661018746439
1772656057475447600,11.047447509765625,-0.06142623634338379,-0.003446706387773156,0.02276151527983602
1772656057485429800,11.0574296875,0.05544073219299316,0.010729721269104629,-0.011464465284440666
1772656057495411700,11.06741162109375,0.06277589738667011,0.00877710763029754,-0.019375128811132163
1772656057505394700,11.077394775390625,-0.0015682722300291061,0.005254650858882814,-0.0014251693983329458
1772656057515376600,11.087376708984374,-0.03957914619445801,-0.01002007516240701,0.009740262707183136
1772656057525359600,11.097359619140626,0.008451602002978325,-0.005575516843702644,0.005580046888347715
