time,seconds_elapsed,z,y,x
1772656046504870100,0.0768701171875,-0.0006020881701260805,-0.012746398337185383,-0.005413799546658993
1772656046514853000,0.08685302734375,-0.00010860455222427845,0.008596173487603664,0.0035831574350595474
1772656046524835300,0.09683544921875,0.00018522143363952637,0.007301867473870516,0.005067040212452412
1772656046534817300,0.1068173828125,0.0000033276155591011047,-0.008498933166265488,-0.003026306629180908
1772656046544799200,0.11679931640625,-0.00014660111628472805,-0.0032393455039709806,-0.003083387855440378
1772656046554782500,0.126782470703125,-0.00039454130455851555,0.006182385608553886,0.005377475172281265
1772656046564764200,0.13676416015625,0.0010600106325000525,0.0019406223436817527,-0.001692274585366249
1772656046574746400,0.146746337890625,-0.0001242971047759056,-0.006664583459496498,-0.0035836510360240936
1772656046584728300,0.156728271484375,0.0008469289168715477,0.0009274448384530842,0.0013880913611501455
1772656046594710300,0.166710205078125,0.0009119100868701935,0.006334727164357901,0.0008155116811394691
1772656046604693200,0.176693359375,-0.0006878087297081947,-0.0029136217199265957,0.0003644013777375221
1772656046614675200,0.18667529296875,0.0002248566597700119,-0.0021769911982119083,-0.0032558999955654144
1772656046624657400,0.196657470703125,0.0007582209073007107,0.003054438391700387,0.0009164162911474705
1772656046634639400,0.206639404296875,-0.0006087797228246927,0.0031268764287233353,-0.001078824046999216
1772656046644622300,0.216622314453125,-0.001678740605711937,-0.0009690173901617527,-0.0003308318555355072
1772656046654604300,0.226604248046875,-0.0004989602603018284,-0.0015048454515635967,0.0007107304409146309
1772656046664586200,0.236586181640625,-0.001232042210176587,0.0014617403503507376,-0.0008087535388767719
1772656046674568200,0.246568115234375,0.001050819642841816,0.001594365807250142,0.0019790437072515488
1772656046684551200,0.25655126953125,-0.00010930397547781467,-0.0020023463293910027,-0.001550415065139532
1772656046694533400,0.266533447265625,-0.0007284891325980425,-0.0014590616337954998,-0.0021672029979526997
1772656046704515300,0.276515380859375,0.00008258875459432602,0.0007551980670541525,-0.0006034579128026962
1772656046714497300,0.286497314453125,-0.0007123649120330811,-0.001792914466932416,-0.0005709673278033733
1772656046724480500,0.29648046875,-0.0024939447175711393,-0.0015839777188375592,0.0020072751212865114
1772656046734462200,0.306462158203125,-0.0006933815311640501,-0.002261219546198845,0.0004463964141905308
1772656046744444400,0.3164443359375,-0.0005116194952279329,-0.0008038029773160815,0.0017843989189714193
1772656046754426400,0.32642626953125,0.001817847602069378,-0.0015550806419923902,-0.0003181667998433113
1772656046764409300,0.336409423828125,-0.000335383927449584,-0.0007049619453027844,0.0020670436788350344
1772656046774391300,0.346391357421875,-0.00002752244472503662,0.0008753578877076507,0.0021682437509298325
1772656046784373200,0.356373291015625,0.0008914356585592031,0.0008025899296626449,0.002052727621048689
1772656046794355500,0.36635546875,0.001750305062159896,-0.00020701438188552856,0.0004795985296368599
1772656046804338200,0.376338134765625,-0.0015542779583483934,-0.00014738459140062332,-0.0014243912883102894
1772656046814320400,0.3863203125,0.0015578921884298325,0.0016656954539939761,0.0002198442816734314
1772656046824302000,0.396302001953125,0.00012686988338828087,0.0008977740653790534,0.0006760507822036743
1772656046834284300,0.4062841796875,0.00018945406191051006,-0.0007195635698735714,-0.0010163881815969944
1772656046844267300,0.416267333984375,-0.000655807089060545,0.0020618783310055733,0.0014530429616570473
1772656046854249200,0.426249267578125,0.0007945504039525986,0.00023681402672082186,0.00154492212459445
1772656046864231200,0.436231201171875,-0.001813323237001896,0.002136814408004284,-0.00044431351125240326
1772656046874213000,0.446213134765625,0.0010772718815132976,-0.000798787921667099,-0.0015484602190554142
1772656046884196400,0.4561962890625,-0.0004838912282139063,0.00007747393101453781,-0.004498915281146765
1772656046894178000,0.466177978515625,-0.001866071717813611,0.001428761868737638,0.0007989108562469482
1772656046904160300,0.47616015625,0.0008509415201842785,-0.0013857769081369042,0.001817392883822322
1772656046914142200,0.48614208984375,-0.0003288388252258301,0.0020757997408509254,0.0000208243727684021
1772656046924125200,0.496125244140625,0.0003109173849225044,-0.00020418013446033,-0.0002830163575708866
1772656046934107400,0.506107421875,-0.0011828497517853975,-0.0005021877586841583,-0.0008255024440586567
1772656046944089000,0.516089111328125,-0.0012617544271051884,0.0006659956416115165,-0.000653192400932312
1772656046954071300,0.5260712890625,-0.0001980876550078392,-0.0005750373238697648,0.000928991474211216
1772656046964054000,0.536053955078125,-0.0003685469273477793,0.0026922321412712336,-0.00202910415828228
1772656046974036200,0.5460361328125,-0.002162718679755926,0.0009723627590574324,-0.00142669677734375
1772656046984018200,0.55601806640625,0.0012546083889901638,0.0020140428096055984,-0.002708533313125372
1772656046994000100,0.566000244140625,0.001472721341997385,-0.0001559008378535509,-0.001856854185461998
1772656047003983400,0.5759833984375,-0.0006894445978105068,-0.00005950033664703369,0.00007816404104232788
1772656047013965000,0.585965087890625,-0.0017299414612352848,-0.0011436732020229101,-0.0014073471538722515
1772656047023947300,0.595947265625,0.002228083787485957,-0.00006374693475663662,-0.0016293888911604881
1772656047033929200,0.60592919921875,-0.0008116483222693205,0.00024304911494255066,-0.001974268350750208
1772656047043912200,0.615912109375,-0.0006325345020741224,-0.00046951696276664734,0.00043385010212659836
1772656047053894400,0.625894287109375,-0.00010309810750186443,-0.0007438226602971554,-0.0023355712182819843
1772656047063876000,0.6358759765625,-0.00010374467819929123,-0.00034155999310314655,-0.00019705388695001602
1772656047073858300,0.6458583984375,-0.0016774064861238003,-0.00029628630727529526,0.00014889100566506386
1772656047083841000,0.655841064453125,-0.0011170816142112017,-0.00060285534709692,0.00430001737549901
1772656047093823200,0.6658232421875,-0.002442004391923547,0.0020560447592288256,0.0018520397134125233
1772656047103806200,0.67580615234375,0.0009322317782789469,0.0014195602852851152,0.0004619620740413666
1772656047113788200,0.6857880859375,-0.0005005488637834787,-0.00020736479200422764,0.0013541211374104023
1772656047123770000,0.69577001953125,0.0010945594403892756,-0.002453740919008851,-0.0009898529388010502
1772656047133753300,0.70575341796875,0.0004141218960285187,-0.001975703751668334,0.00011748960241675377
1772656047143735300,0.7157353515625,-0.00043207360431551933,0.000008043833076953888,-0.000459413044154644
1772656047153717200,0.72571728515625,-0.0015514001715928316,0.001130033633671701,0.00006416440010070801
1772656047163699200,0.73569921875,0.002115249168127775,0.00001868419349193573,0.0015545501373708248
1772656047173682200,0.74568212890625,-0.0014930679462850094,-0.00008491275366395712,-0.0039621880277991295
1772656047183664000,0.7556640625,0.0005872596520930529,-0.0017725862562656403,-0.0005588037893176079
1772656047193646000,0.76564599609375,0.00006368220783770084,0.004013664089143276,-0.0008240547031164169
1772656047203628300,0.775628173828125,-0.0015819231048226357,-0.003292510751634836,-0.0011121421121060848
1772656047213611000,0.785611083984375,0.0021899116691201925,0.0031262398697435856,0.00013528252020478249
1772656047223593200,0.79559326171875,0.0003449348732829094,-0.001715218648314476,-0.0020922720432281494
1772656047233575200,0.8055751953125,-0.0003714554477483034,-0.0008843124378472567,-0.0029247761704027653
1772656047243557000,0.81555712890625,0.0018492896342650056,0.000038477592170238495,-0.0000966126099228859
1772656047253540400,0.825540283203125,0.00011104438453912735,-0.0000070624519139528275,-0.0005831723101437092
1772656047263522000,0.83552197265625,0.0005530507769435644,0.00040795071981847286,-0.002173180226236582
1772656047273504300,0.845504150390625,0.000664637191221118,-0.0018349636811763048,-0.00033693062141537666
1772656047283486200,0.855486328125,0.00033101276494562626,-0.0012275283224880695,0.0017528182361274958
1772656047293469200,0.86546923828125,-0.00004449300467967987,-0.00018277019262313843,0.0002071196213364601
1772656047303451400,0.875451416015625,0.001059723668731749,-0.002896344754844904,0.0007633003406226635
1772656047313433000,0.88543310546875,-0.001666021766141057,-0.0002616798738017678,0.0016123158857226372
1772656047323415300,0.895415283203125,-0.0002817451022565365,-0.0007399223977699876,0.0019034957513213158
1772656047333397200,0.905397216796875,0.0008511636406183243,0.0017179088899865746,0.0008981525897979736
1772656047343380200,0.915380126953125,0.0014910621102899313,0.0022845822386443615,-0.00010311836376786232
1772656047353362200,0.925362060546875,-0.0007278837729245424,0.00025685131549835205,0.002031139098107815
1772656047363344100,0.93534423828125,-0.00040290202014148235,0.0005594701506197453,0.001741357147693634
1772656047373326300,0.945326416015625,-0.00020050187595188618,0.0017424463294446468,0.002253483049571514
1772656047383309000,0.95530908203125,0.00016966159455478191,-0.0002922388957813382,0.0008581466972827911
1772656047393291300,0.965291259765625,-0.0010964053217321634,0.002227643970400095,0.0006176633760333061
1772656047403273200,0.975273193359375,-0.00033176783472299576,0.0006586831295862794,0.002299860818311572
1772656047413255200,0.985255126953125,-0.0005882303230464458,0.00024136574938893318,0.001811437075957656
1772656047423238400,0.99523828125,-0.0011828378774225712,-0.0008867535507306457,0.000419380608946085
1772656047433220000,1.00522021484375,-0.0002768305130302906,0.0012222036020830274,-0.000852544791996479
1772656047443202300,1.015202392578125,0.000517986249178648,0.00019972003065049648,-0.00036096805706620216
1772656047453184000,1.02518408203125,0.0014559515984728932,-0.002210706938058138,-0.0018262392841279507
1772656047463167200,1.035167236328125,-0.002808182267472148,-0.0003331273328512907,0.0005068611353635788
1772656047473149200,1.045149169921875,-0.00042651710100471973,0.0021494715474545956,0.002284255111590028
1772656047483131100,1.055131103515625,-0.0013682732824236155,-0.001357836532406509,0.0006938017904758453
1772656047493113300,1.06511328125,-0.000027638161554932594,0.0006456595147028565,0.0005222940817475319
1772656047503096000,1.075095947265625,-0.001590554602444172,0.0021521863527595997,-0.0015544467605650425
1772656047513078300,1.085078369140625,0.0008201389573514462,-0.00033440697006881237,-0.00029423879459500313
1772656047523060000,1.09506005859375,-0.0007573659531772137,-0.0006307289004325867,0.0014873459003865719
1772656047533042200,1.105042236328125,-0.0010061052162200212,0.0009242907399311662,-0.0021782289259135723
1772656047543025200,1.115025146484375,-0.0011594139505177736,-0.0027814288623631,-0.000005898531526327133
1772656047553007000,1.125007080078125,0.0008121239952743053,-0.0029614586383104324,-0.0026030130684375763
1772656047562989300,1.1349892578125,0.0009839211124926805,0.0012113290140405297,0.0010471644345670938
1772656047572971000,1.144970947265625,0.0008683400228619576,-0.00032904348336160183,-0.002051157411187887
1772656047582954200,1.154954345703125,-0.0005789031274616718,-0.001118427375331521,-0.0017679785378277302
1772656047592936200,1.164936279296875,-0.0004758387804031372,0.0006392588838934898,-0.0009120386093854904
1772656047602918100,1.174918212890625,0.000006848480552434921,-0.0007173726335167885,-0.0005163727328181267
1772656047612900400,1.184900390625,-0.0018909198697656393,-0.0034282042179256678,0.0018455847166478634
1772656047622883000,1.194883056640625,0.0017510682810097933,0.0009425189928151667,-0.002285331953316927
1772656047632865300,1.204865234375,0.0012709003640338778,0.002820047549903393,-0.0005779797211289406
1772656047642847200,1.21484716796875,-0.0001824584323912859,0.0016370337689295411,-0.0003656023181974888
1772656047652829200,1.2248291015625,-0.0004303986206650734,0.0008223728509619832,0.0030397814698517323
1772656047662812200,1.234812255859375,-0.0005996502004563808,-0.0017545694718137383,0.0003678533248603344
1772656047672794000,1.244794189453125,-0.00036049820482730865,0.0007780967280268669,0.0008770497515797615
1772656047682776300,1.2547763671875,0.001458832179196179,-0.0010469258995726705,0.0012608433607965708
1772656047692758000,1.264758056640625,0.00015095388516783714,0.0016758899437263608,0.00018918747082352638
1772656047702741200,1.2747412109375,-0.0010716847609728575,0.0020803133957087994,0.001053681131452322
1772656047712723200,1.28472314453125,0.00033979048021137714,0.0011641859309747815,-0.0006784386932849884
1772656047722705200,1.294705078125,0.000057876575738191605,0.0012444022577255964,0.0015908395871520042
1772656047732687400,1.304687255859375,0.0005138097330927849,0.002290758304297924,0.0014683341141790152
1772656047742670300,1.31467041015625,0.002332791220396757,0.0019703609868884087,-0.0006860839203000069
1772656047752652300,1.32465234375,-0.0004475491587072611,0.0009045640472322702,-0.0006384137086570263
1772656047762634200,1.33463427734375,0.0012402231805026531,0.0007817453006282449,-0.00023918505758047104
1772656047772616200,1.3446162109375,0.0006886825431138277,0.0006725556449964643,0.000552839133888483
1772656047782599200,1.35459912109375,0.0007979073561728001,-0.0000963917700573802,-0.0014709299430251122
1772656047792581000,1.3645810546875,0.001190457260236144,0.002548393327742815,0.0013679999392479658
1772656047802563000,1.37456298828125,-0.0015093418769538403,-0.0001810688991099596,-0.0006982311606407166
1772656047812545300,1.384545166015625,0.0009152002166956663,-0.001664449693635106,0.0031127524562180042
1772656047822528000,1.394528076171875,0.0006490659434348345,0.000503715593367815,-0.0004474013112485409
1772656047832510200,1.40451025390625,0.001691959798336029,0.0008515245281159878,0.0010295878164470196
1772656047842492200,1.4144921875,-0.0024284932296723127,-0.0010720060672610998,0.0037954109720885754
1772656047852473900,1.424473876953125,0.0009750266326591372,0.0023355085868388414,0.0011157381813973188
1772656047862456800,1.434456787109375,0.0004075679462403059,-0.004297700710594654,0.0016258680261671543
1772656047872438800,1.444438720703125,0.0011396710760891438,0.00030743773095309734,0.001431723590940237
1772656047882420700,1.454420654296875,0.0006368148606270552,-0.001266765408217907,0.00015319930389523506
1772656047892403000,1.46440283203125,0.0021436314564198256,0.0005633588880300522,0.000645351130515337
1772656047902385700,1.4743857421875,-0.00043000071309506893,0.00024120195303112268,0.0004710354842245579
1772656047912367900,1.484367919921875,-0.001063833013176918,0.0016678572865203023,0.000420435331761837
1772656047922349600,1.494349609375,-0.000741421477869153,-0.0003629408311098814,-0.0015949858352541924
1772656047932331800,1.504331787109375,0.0017225350020453334,0.0009004628518596292,-0.001339854672551155
1772656047942314800,1.514314697265625,-0.00011146883480250835,0.000992229557596147,0.0010795823764055967
1772656047952296700,1.524296630859375,0.00016283662989735603,0.00006678106728941202,0.0009749201126396656
1772656047962279000,1.53427880859375,-0.001358148641884327,0.0010819875169545412,-0.0014668488875031471
1772656047972260600,1.544260498046875,0.00039181439206004143,0.0015784006100147963,-0.0011659115552902222
1772656047982243800,1.554243896484375,-0.0001325034536421299,-0.00006063445471227169,0.0005867192521691322
1772656047992225800,1.564225830078125,0.00004566204734146595,0.0006533588748425245,0.0014442570973187685
1772656048002207700,1.574207763671875,-0.0002929992042481899,0.0008345532696694136,-0.0018936693668365479
1772656048012190000,1.58418994140625,-0.0008032608311623335,0.00019912305288016796,0.0011204960756003857
1772656048022172700,1.594172607421875,0.00020495452918112278,-0.0001950151054188609,0.002160418312996626
1772656048032155000,1.60415478515625,0.001205504173412919,-0.0011494922218844295,0.0009002103470265865
1772656048042136600,1.614136474609375,-0.0007434973958879709,0.00317657133564353,-0.0002831108868122101
1772656048052118800,1.624118896484375,0.0014815735630691051,-0.0014541333075612783,0.000773897860199213
1772656048062101800,1.634101806640625,-0.0005442732945084572,-0.0007544467225670815,0.00042383791878819466
1772656048072083700,1.644083740234375,0.000628582900390029,0.00005222484469413757,0.001130374614149332
1772656048082066000,1.65406591796875,-0.001332155428826809,0.0005477371159940958,0.0002218303270637989
1772656048092047600,1.664047607421875,0.001228740089572966,-0.0014376493636518717,-0.0010556881316006184
1772656048102030800,1.67403076171875,-0.00011428282596170902,0.0016987978015094995,-0.00014507444575428963
1772656048112012800,1.6840126953125,-0.0023563981521874666,-0.0002141507575288415,0.001674929866567254
1772656048121994800,1.693994873046875,0.0003859854768961668,0.0003448951756581664,-0.00012531597167253494
1772656048131977000,1.70397705078125,-0.0006864694878458977,-0.0007259618723765016,0.0015921564772725105
1772656048141959700,1.713959716796875,0.0009830488124862313,-0.0007684186566621065,0.0021645522210747004
1772656048151942000,1.72394189453125,-0.002844446338713169,-0.0006400542333722115,0.0010912984143942595
1772656048161923800,1.733923828125,0.0011271481635048985,0.0003163021756336093,-0.0028261481784284115
1772656048171905800,1.74390576171875,-0.0006105643697082996,0.0011970095802098513,-0.0006450195796787739
1772656048181888800,1.753888671875,0.0012295384658500552,0.0022128536365926266,0.00023935968056321144
1772656048191870700,1.76387060546875,0.0027712425217032433,-0.000012750038877129555,-0.00028874538838863373
1772656048201852700,1.773852783203125,0.0011886681895703077,-0.00004410860128700733,-0.0011878414079546928
1772656048211834600,1.783834716796875,0.0021258345805108547,-0.0013181648682802916,-0.0004301718436181545
1772656048221817900,1.79381787109375,0.0017745454097166657,0.0005770048592239618,0.0008253320120275021
1772656048231799800,1.8037998046875,-0.0013386900536715984,-0.00007893180008977652,0.0005227969959378242
1772656048241781800,1.81378173828125,0.0016904346412047744,0.00028575980104506016,0.0008668610826134682
1772656048251763700,1.823763671875,-0.0009868412744253874,0.002733737463131547,0.00008948426693677902
1772656048261747000,1.833746826171875,0.0034082899801433086,-0.0010375723941251636,0.0013302438892424107
1772656048271728600,1.843728759765625,-0.0016288126353174448,0.0011219847947359085,0.0007235757075250149
1772656048281710800,1.8537109375,-0.0005746528040617704,-0.0000837007537484169,0.00072816526517272
1772656048291692800,1.86369287109375,0.001110861892811954,0.0001999258529394865,0.0012197848409414291
1772656048301675800,1.87367578125,0.00007019774056971073,0.0001519335201010108,-0.0012076017446815968
1772656048311657700,1.88365771484375,-0.00040757330134510994,-0.00006964150816202164,-0.0007319608703255653
1772656048321639700,1.8936396484375,-0.0005072474014014006,-0.00048719102051109076,0.001055754255503416
1772656048331622000,1.903621826171875,-0.002031374489888549,0.0017141778953373432,0.0001132613979279995
1772656048341604600,1.9136044921875,0.0007450713310390711,0.00004803622141480446,-0.0018042945303022861
1772656048351586800,1.9235869140625,0.000003114575520157814,0.0018105162307620049,0.0014676651917397976
1772656048361568800,1.93356884765625,0.0005229066591709852,-0.0012707081623375416,-0.00026922160759568214
1772656048371550700,1.94355078125,0.00020971894264221191,-0.0022414305713027716,0.001016019843518734
1772656048381534000,1.953533935546875,-0.0004392096307128668,-0.00045673351269215345,-0.0028068842366337776
1772656048391515600,1.963515625,-0.0005721012130379677,0.0009046744089573622,-0.001079025212675333
1772656048401497900,1.973497802734375,-0.0017823507077991962,0.0038525178097188473,0.0019081849604845047
1772656048411479800,1.983479736328125,-0.00037593557499349117,-0.00007724273018538952,0.0020378809422254562
1772656048421462800,1.993462890625,0.001602926873601973,-0.0010528967250138521,0.0018619929905980825
1772656048431445000,2.003445068359375,-0.00018112477846443653,0.0007228991016745567,-0.00036654016003012657
1772656048441426700,2.0134267578125,-0.00006833765655755997,-0.0017557087121531367,-0.0006619654595851898
1772656048451409000,2.023408935546875,-0.00045103393495082855,-0.0016505139647051692,0.000683995895087719
1772656048461391600,2.0333916015625,-0.0005929614417254925,-0.001808744389563799,-0.0008059567771852016
1772656048471373800,2.043373779296875,0.0008249054662883282,-0.0005123175214976072,-0.0008115493692457676
1772656048481355800,2.053355712890625,-0.0018209957052022219,-0.00031768076587468386,-0.0026948340237140656
1772656048491337700,2.063337646484375,-0.0010662556160241365,0.0008791438303887844,0.00022638728842139244
1772656048501321000,2.073321044921875,0.0011443785624578595,0.0032557861413806677,-0.0008186819031834602
1772656048511302700,2.083302734375,-0.0006383412983268499,0.00040753534995019436,-0.0017071124166250229
1772656048521284900,2.093284912109375,0.0007840010803192854,-0.0016635912470519543,-0.0007574395276606083
1772656048531266800,2.103266845703125,0.0007198189850896597,0.0008389812428504229,0.00018052570521831512
1772656048541249800,2.113249755859375,-0.0022103246301412582,0.000212243408896029,-0.0003546541556715965
1772656048551231700,2.123231689453125,-0.0006350649055093527,0.00017842126544564962,0.0015508374199271202
1772656048561213700,2.133213623046875,0.00005067931488156319,-0.0023667574860155582,0.00042729033157229424
1772656048571196000,2.14319580078125,-0.0007559922523796558,-0.00008975469972938299,-0.00048377690836787224
1772656048581178600,2.1531787109375,-0.0003057389985769987,0.000868131872266531,-0.0028988979756832123
1772656048591160800,2.163160888671875,-0.0011859135702252388,0.00005666667129844427,0.0009176777675747871
1772656048601142800,2.173142822265625,-0.0003261626698076725,0.0023679269943386316,0.0004978603683412075
1772656048611124700,2.183124755859375,-0.00006810249760746956,-0.00029283727053552866,0.000925830565392971
1772656048621107700,2.193107666015625,-0.0008509303443133831,0.0023616747930645943,0.0009945100173354149
1772656048631089700,2.203089599609375,0.0012116878060624003,0.0014727115631103516,0.002142864977940917
1772656048641071900,2.21307177734375,0.001127561554312706,0.0008939150720834732,0.0010760792065411806
1772656048651054800,2.223054931640625,0.0013411471154540777,0.0010316004045307636,0.0010071033611893654
1772656048661036800,2.233036865234375,0.0022296293172985315,-0.002029997296631336,0.000339010264724493
1772656048671018800,2.243018798828125,-0.0015185035299509764,0.0002443420235067606,-0.0004412955604493618
1772656048681000700,2.253000732421875,-0.002848509233444929,-0.00031757482793182135,-0.00010292697697877884
1772656048690983700,2.262983642578125,-0.0024959067814052105,-0.0007189131574705243,0.0032342802733182907
1772656048700966000,2.2729658203125,0.0006746836006641388,0.0013649608008563519,0.0007068440318107605
1772656048710947800,2.28294775390625,-0.002451867563650012,0.0007540315855294466,-0.0014194236136972904
1772656048720929800,2.2929296875,0.00019303266890347004,-0.00027908640913665295,0.0015252181328833103
1772656048730912800,2.302912841796875,0.00015415041707456112,-0.0015475500840693712,0.00029244087636470795
1772656048740894700,2.312894775390625,0.000045716529712080956,-0.0008144300663843751,0.0015377674717456102
1772656048750876700,2.322876708984375,0.00039645470678806305,-0.0003989768447354436,0.001352677820250392
1772656048760859000,2.33285888671875,-0.0005470355972647667,-0.0014814205933362246,-0.001461307518184185
1772656048770841900,2.342841796875,0.00013846205547451973,0.0009716171189211309,-0.0017324173822999
1772656048780823800,2.35282373046875,-0.001993849640712142,0.0016486274544149637,-0.00038006436079740524
1772656048790805800,2.3628056640625,-0.0001770411618053913,-0.000019842875190079212,0.004289522301405668
1772656048800787700,2.37278759765625,0.00004604272544384003,0.0002796584740281105,0.0015181079506874084
1772656048810770700,2.382770751953125,-0.001034668181091547,-0.0008215585257858038,0.0010336788836866617
1772656048820753000,2.3927529296875,0.0006090961396694183,0.0023577804677188396,-0.0009385473094880581
1772656048830734800,2.40273486328125,-0.0017054572235792875,-0.0002952604554593563,-0.0006722314283251762
1772656048840716800,2.412716796875,-0.0013911181595176458,0.0001338126603513956,0.0008386382833123207
1772656048850700000,2.422699951171875,0.0020347721874713898,-0.0014004344120621681,-0.00003141630440950394
1772656048860682200,2.43268212890625,-0.0005120513960719109,-0.0016568251885473728,-0.0010271533392369747
1772656048870664200,2.442664306640625,-0.00060499575920403,0.0005970080383121967,0.002029622904956341
1772656048880646100,2.452646240234375,-0.0006420784629881382,0.0006931551033630967,0.0012183922808617353
1772656048890629000,2.462629150390625,-0.0009299663361161947,0.0009221869404427707,-0.0009555462747812271
1772656048900611000,2.472611083984375,0.0013240018161013722,-0.00014696316793560982,0.0004201349802315235
1772656048910593300,2.48259326171875,-0.000395867507904768,-0.0013419236056506634,-0.00012607965618371964
1772656048920575200,2.4925751953125,0.0005266072694212198,0.0003309446619823575,-0.0009414269588887691
1772656048930558200,2.50255810546875,-0.001646798336878419,0.00017168757040053606,0.0014684677589684725
1772656048940540200,2.5125400390625,-0.0004405465442687273,-0.0017814228776842356,0.0009113093838095665
1772656048950522000,2.522522216796875,-0.0003939412999898195,-0.00027966639026999474,-0.0011909897439181805
1772656048960504000,2.532504150390625,-0.0007668964099138975,-0.00018843216821551323,-0.00024893321096897125
1772656048970487000,2.542487060546875,0.000132452929392457,0.0011585947358980775,0.0023042389657348394
1772656048980469200,2.55246923828125,0.0010653436183929443,-0.0015385778388008475,-0.0003185016103088856
1772656048990451200,2.562451171875,0.0009252612944692373,-0.002118081785738468,0.002715105190873146
1772656049000434200,2.57243408203125,0.0004225207958370447,-0.0002685652580112219,0.0027720502112060785
1772656049010416400,2.58241650390625,0.001158352242782712,0.000558079918846488,0.00039091799408197403
1772656049020398000,2.592398193359375,-0.00020263437181711197,-0.00021821260452270508,0.0018286982085555792
1772656049030380300,2.60238037109375,0.0009888639906421304,-0.00019477680325508118,-0.00013564946129918098
1772656049040363000,2.612363037109375,0.0007276509422808886,-0.0007162885740399361,0.0009790360927581787
1772656049050345200,2.62234521484375,0.0016022330382838845,0.00021741562522947788,0.001598753733560443
1772656049060327200,2.6323271484375,0.0009208305273205042,0.0006386132445186377,0.0020834780298173428
1772656049070309000,2.64230908203125,-0.0006251344457268715,0.0024197353050112724,-0.0018417551182210445
1772656049080292400,2.652292236328125,0.0015320127131417394,0.001444726949557662,-0.002143824938684702
1772656049090274000,2.662274169921875,-0.0003865284379571676,0.0007352608954533935,-0.00019146176055073738
1772656049100256300,2.67225634765625,0.0006950472015887499,0.0009079359006136656,-0.0009780721738934517
1772656049110238000,2.682238037109375,-0.0001656864769756794,0.00039474479854106903,-0.002179157454520464
1772656049120221200,2.69222119140625,0.0030657488387078047,-0.00014185626059770584,-0.0009683817625045776
1772656049130203100,2.702203125,-0.0010850538965314627,-0.000776753993704915,-0.004027820657938719
1772656049140185000,2.71218505859375,-0.00018475321121513844,0.0005887647857889533,0.0019153349567204714
1772656049150167300,2.722167236328125,-0.0012201901990920305,0.001459618448279798,0.0019576791673898697
1772656049160150000,2.73214990234375,0.0006155034061521292,-0.0019473051652312279,0.0013480349443852901
1772656049170132200,2.74213232421875,-0.00007931515574455261,-0.0005534065421670675,0.0023421929217875004
1772656049180114200,2.7521142578125,0.0021630553528666496,0.0011060237884521484,0.00044988933950662613
1772656049190096100,2.76209619140625,0.00004504341632127762,-0.001053001033142209,-0.00010085245594382286
1772656049200079000,2.7720791015625,-0.001638277666643262,0.00004988664295524359,-0.00021649058908224106
1772656049210061000,2.78206103515625,0.00011035380885004997,-0.0010776958661153913,-0.0010090470314025879
1772656049220043300,2.792043212890625,0.00008906982839107513,-0.0009650335414335132,0.0009197150357067585
1772656049230025000,2.80202490234375,-0.00005207769572734833,0.00008052343036979437,0.0014020137023180723
1772656049240008200,2.81200830078125,-0.0006518613081425428,-0.0005468307062983513,-0.0009249397553503513
1772656049249990100,2.821990234375,0.0010336532723158598,0.0017277752049267292,-0.0023705032654106617
1772656049259972000,2.83197216796875,0.00036999001167714596,-0.0005778969498351216,-0.0013489648699760437
1772656049269955000,2.841955078125,-0.0019951635040342808,0.0010698008118197322,0.0008524036966264248
1772656049279937300,2.851937255859375,0.0004556472413241863,0.00039738044142723083,-0.0019309804774820805
1772656049289919200,2.861919189453125,0.00026336684823036194,-0.0012468552449718118,0.001526867737993598
1772656049299901200,2.871901123046875,0.0005861395038664341,0.00009882391896098852,0.0017361503560096025
1772656049309884200,2.88188427734375,0.0004196919035166502,0.0011454462073743343,-0.0014982586726546288
1772656049319866000,2.8918662109375,-0.0006103981286287308,-0.0019639814272522926,-0.002213509753346443
1772656049329848000,2.90184814453125,0.000014379387721419334,0.000483996351249516,-0.0018808809109032154
1772656049339830300,2.911830322265625,-0.0001734814140945673,0.0011112390784546733,-0.0011566467583179474
1772656049349813200,2.921813232421875,0.0014353342121466994,-0.0006677524652332067,-0.00012520421296358109
1772656049359795200,2.931795166015625,0.0002197776921093464,0.000799749861471355,0.003306824015453458
1772656049369777200,2.941777099609375,0.0007638614624738693,-0.0014333106810227036,-0.00017499271780252457
1772656049379759000,2.951759033203125,0.0005486349109560251,0.00004660931881517172,-0.0011306577362120152
1772656049389742000,2.9617421875,-0.000852187629789114,-0.0016644718125462532,-0.0007330477237701416
1772656049399724300,2.971724365234375,-0.0008841492235660553,0.00007572106551378965,-0.001058037392795086
1772656049409706200,2.981706298828125,-0.0011984023731201887,0.002010773867368698,0.0012218949850648642
1772656049419688200,2.991688232421875,0.0007488373667001724,0.0020956252701580524,0.001952019752934575
1772656049429671200,3.001671142578125,0.0004068876150995493,0.001898018759675324,0.0030231429263949394
1772656049439653000,3.011653076171875,0.000738632632419467,0.0010916149476543069,0.0028938876930624247
1772656049449635300,3.02163525390625,-0.0017820494249463081,0.0012511382810771465,0.0008658906444907188
1772656049459618000,3.0316181640625,-0.0005941623821854591,0.0003239844227209687,-0.0020483480766415596
1772656049469600300,3.041600341796875,-0.0014977732207626104,0.0014859216753393412,0.0003218655474483967
1772656049479582000,3.05158203125,-0.0015156816225498915,0.0019036259036511183,0.003039215225726366
1772656049489564200,3.061564208984375,-0.000632045092061162,-0.00007217330858111382,-0.000962450634688139
1772656049499547100,3.071547119140625,0.0009401196148246527,2.1909363567829132e-7,-0.004349044989794493
1772656049509529000,3.081529052734375,-0.000035396311432123184,-0.0012109866365790367,-0.0025751134380698204
1772656049519511300,3.09151123046875,0.0009458186104893684,-0.0017464876873418689,0.0015797542873769999
1772656049529493000,3.101492919921875,-0.00018922053277492523,0.00010201230179518461,-0.0005800691433250904
1772656049539476200,3.111476318359375,-0.0008051157929003239,-0.0011338972253724933,0.00202684267424047
1772656049549458200,3.121458251953125,-0.00021309498697519302,-0.0022505605593323708,-0.00039583491161465645
1772656049559440100,3.131440185546875,-0.0008200882002711296,0.0007962993113324046,0.00035158172249794006
1772656049569422300,3.14142236328125,0.000898449681699276,-0.002730258507654071,0.00217238487675786
1772656049579405000,3.151405029296875,-0.001594960456714034,-0.0008183199679479003,-0.00020087463781237602
1772656049589387300,3.16138720703125,-0.0012631306890398264,-0.0023701442405581474,0.0013344374019652605
1772656049599369000,3.171368896484375,-0.00019035860896110535,0.0007203122368082404,-0.0023497086949646473
1772656049609351200,3.18135107421875,0.0017087416490539908,0.0014199246652424335,-0.0025031063705682755
1772656049619334100,3.191334228515625,0.0022080536000430584,-0.001229184796102345,0.0008273636922240257
1772656049629316000,3.201316162109375,-0.00017574173398315907,0.0027343977708369493,0.0016417584847658873
1772656049639298300,3.21129833984375,0.0005291705019772053,-0.00041194341611117125,0.0015419700648635626
1772656049649281300,3.22128125,-0.0016085491515696049,-0.000011403928510844707,-0.0017558224499225616
1772656049659263200,3.23126318359375,0.0003283026162534952,-0.00010741932783275843,-0.0014228848740458488
1772656049669245200,3.2412451171875,0.000350672984495759,0.001182615989819169,-0.000799971166998148
1772656049679227100,3.25122705078125,0.0003149143885821104,0.0006171045824885368,0.000874129356816411
1772656049689210000,3.261210205078125,-0.000014518620446324348,-0.0008385793771594763,-0.0003208308480679989
1772656049699192000,3.271192138671875,0.0011369220446795225,-0.0007302026497200131,0.0002822461538016796
1772656049709174300,3.28117431640625,-0.003971819765865803,0.0020416155457496643,0.0015754769556224346
1772656049719156200,3.29115625,0.0009563150815665722,-0.002836931962519884,-0.0017751231789588928
1772656049729139200,3.30113916015625,-0.0006069603841751814,0.0005852297181263566,-0.0033112340606749058
1772656049739121200,3.31112109375,-0.0012556519359350204,-0.0003910297527909279,-0.00045892922207713127
1772656049749103000,3.32110302734375,-0.0023675216361880302,0.00034426909405738115,-0.0005793040618300438
1772656049759085000,3.3310849609375,-0.0012228998821228743,0.0009696396300569177,-0.0009321938268840313
1772656049769068300,3.341068359375,0.0011505092261359096,-0.00006819423288106918,0.002267061499878764
1772656049779050000,3.351050048828125,-0.001165258465334773,-0.001884211553260684,0.000760361086577177
1772656049789032200,3.3610322265625,0.0007812459953129292,-0.00043145730160176754,-0.0009214249439537525
1772656049799015200,3.37101513671875,0.0005864421837031841,0.0007258499972522259,0.0026968312449753284
1772656049808997000,3.3809970703125,-0.000042862724512815475,-0.000892286654561758,0.00131491688080132
1772656049818979300,3.390979248046875,-0.00035087112337350845,0.0006600869819521904,0.00003934977576136589
1772656049828961000,3.4009609375,-0.00008668564260005951,0.001640130183659494,0.001179182669147849
1772656049838944300,3.4109443359375,-0.00030740885995328426,0.00011751602869480848,-0.0025855712592601776
1772656049848926000,3.420926025390625,0.0018137989100068808,-0.0002153791720047593,0.0014983864966779947
1772656049858908200,3.430908203125,0.0010000390466302633,-0.0009204876841977239,-0.00010356120765209198
1772656049868890000,3.44089013671875,-0.0009970655664801598,-0.00047680491115897894,0.0011366731487214565
1772656049878873000,3.450873046875,-0.0013786957133561373,0.0004914851160719991,0.00008421158418059349
1772656049888855000,3.46085498046875,0.001026405137963593,0.0001649815822020173,0.0005009965971112251
1772656049898837000,3.4708369140625,0.0017214090330526233,0.00009436148684471846,0.00008515873923897743
1772656049908819000,3.48081884765625,-0.0008493403438478708,-0.002516335342079401,-0.000032819341868162155
1772656049918802000,3.490802001953125,-0.001644061878323555,-0.0011152324732393026,-0.004471184685826302
1772656049928784100,3.5007841796875,-0.0005324585363268852,-0.0008308070246130228,-0.0010338425636291504
1772656049938766000,3.51076611328125,-0.0014706472866237164,0.0017405360704287887,-0.0000467873178422451
1772656049948749000,3.5207490234375,-0.00043094903230667114,-0.000545787625014782,-0.000380481593310833
1772656049958731300,3.530731201171875,0.00021008867770433426,-0.0007156118517741561,-0.0010426086373627186
1772656049968713000,3.540712890625,-0.000029862159863114357,-0.0033236457966268063,-0.0010141124948859215
1772656049978695200,3.550695068359375,0.00027346634306013584,-0.0005170149961486459,0.0007868288084864616
1772656049988678000,3.560677978515625,-0.001217104960232973,0.0002766069956123829,-0.0005713836289942265
1772656049998660000,3.57066015625,-0.0007299690041691065,0.0015127378283068538,-0.001457924023270607
1772656050008642000,3.58064208984375,0.0012133397394791245,0.0016275200759992003,0.0017402658704668283
1772656050018624000,3.5906240234375,-0.00039187283255159855,0.0006934510311111808,0.0010145679116249084
1772656050028607200,3.600607177734375,0.0010241300333291292,0.0005831961752846837,-0.003129044082015753
1772656050038589000,3.6105888671875,0.0006715897470712662,-0.00033563515171408653,0.00021598907187581062
1772656050048571100,3.620571044921875,0.0006023475434631109,0.0023312545381486416,0.00019521638751029968
1772656050058553000,3.630552978515625,-0.001032455824315548,0.000634367810562253,0.0007321243174374104
1772656050068536000,3.6405361328125,0.0016368305077776313,0.0005278412718325853,0.0007635494694113731
1772656050078518300,3.650518310546875,-0.0003461851738393307,-0.003208939917385578,0.0004646754823625088
1772656050088500000,3.6605,0.00017978926189243793,0.0006515784189105034,0.0016266123857349157
1772656050098483200,3.670483154296875,0.0007879650220274925,-0.0010527779813855886,-0.001504808198660612
1772656050108465000,3.68046484375,-0.00026025506667792797,-0.0008037725929170847,0.0007434319704771042
1772656050118447000,3.690447021484375,0.0006215029861778021,-0.0010870813857764006,0.002932509407401085
1772656050128429000,3.700428955078125,-0.000009399838745594025,-0.0016218442469835281,-0.0027986131608486176
1772656050138412000,3.710412109375,0.00018560560420155525,0.0030478942207992077,0.0006801271811127663
1772656050148394000,3.72039404296875,-0.0016935209278017282,-0.001859779004007578,-0.002179575152695179
1772656050158376000,3.7303759765625,-0.00032701482996344566,0.0007890822598710656,-0.001904715783894062
1772656050168358100,3.740358154296875,0.00011480366811156273,-0.000771263730712235,-0.000008545350283384323
1772656050178341000,3.750341064453125,-0.0004996703937649727,-0.004058954305946827,-0.0008995668031275272
1772656050188323000,3.760322998046875,-0.001200348138809204,-0.0015771545004099607,-0.0006929053924977779
1772656050198305000,3.770304931640625,0.00026704580523073673,0.0004519564099609852,0.00265475339256227
1772656050208287000,3.780286865234375,-0.0017074216157197952,0.004381184466183186,0.0015431498177349567
1772656050218270000,3.79027001953125,-0.0004695884417742491,0.003075006417930126,-0.0005464144051074982
1772656050228252200,3.800252197265625,0.0013783789472654462,-0.00030081672593951225,0.0003268360160291195
1772656050238234000,3.810234130859375,0.0005034804344177246,-0.0015519537264481187,-0.00027810875326395035
1772656050248217000,3.820217041015625,0.0008499578107148409,0.0009018828859552741,0.0017357736360281706
1772656050258199000,3.830198974609375,-0.0004965874832123518,-0.0006301829125732183,0.00029879575595259666
1772656050268181000,3.840180908203125,0.0012219503987580538,0.00048514886293560266,-0.0010769935324788094
1772656050278163000,3.850162841796875,0.0012469664216041565,0.0013789524091407657,0.0007776566781103611
1772656050288146000,3.86014599609375,0.0023947888985276222,0.00014990358613431454,-0.00109427934512496
1772656050298128100,3.870128173828125,-0.000012164702638983727,0.0005054230568930507,-0.0007673809304833412
1772656050308110000,3.880110107421875,0.0011673492845147848,0.002070562681183219,-0.000503994058817625
1772656050318092000,3.890092041015625,0.00024280627258121967,0.0015050002839416265,-0.000990232452750206
1772656050328075300,3.9000751953125,-0.00010739942081272602,-0.0005267251981422305,0.0005442812107503414
1772656050338057000,3.910056884765625,-0.0005543914157897234,0.0011213310062885284,-0.0012518786825239658
1772656050348039200,3.9200390625,0.00014841672964394093,-0.000963125261478126,-0.001174380537122488
1772656050358022000,3.93002197265625,0.0037921222392469645,-0.0017159641720354557,0.0003502289764583111
1772656050368004000,3.940004150390625,0.001514320494607091,-0.001270417356863618,0.00169752212241292
1772656050377986300,3.949986328125,0.0019251396879553795,-0.002989094937220216,-0.0020424616523087025
1772656050387968000,3.959968017578125,-0.0014229866210371256,-0.0033025487791746855,0.0011525324080139399
1772656050397951200,3.969951171875,-0.001104641007259488,-0.001762150670401752,-0.001140886452049017
1772656050407933000,3.979932861328125,0.0005454535130411386,-0.0015453692758455873,0.0026354757137596607
1772656050417915100,3.9899150390625,-0.0009890336077660322,-0.0014880766393616796,-0.0004910090938210487
1772656050427897000,3.99989697265625,0.0024847937747836113,0.0007391249528154731,-0.00033548055216670036
1772656050437879000,4.009879150390625,-0.0013885500375181437,0.0011837815400213003,-0.000057674944400787354
1772656050447861200,4.019861328125,0.0006572902202606201,-0.001753418706357479,-0.00034795980900526047
1772656050457844000,4.029843994140625,-0.0017782577779144049,0.0005742969224229455,0.0013854089193046093
1772656050467826200,4.039826171875,0.00028036581352353096,-0.0015676834154874086,-0.001215167809277773
1772656050477807900,4.049807861328125,-0.0011461128015071154,0.0025624018162488937,-0.001309822779148817
1772656050487790000,4.0597900390625,-0.0016182910185307264,-0.00012233084999024868,0.00008087977766990662
1772656050497773000,4.06977294921875,0.001094757579267025,0.0001861309865489602,0.0004868963733315468
1772656050507755000,4.079755126953125,0.0029057071078568697,-0.001536667812615633,0.00042138248682022095
1772656050517737200,4.0897373046875,0.0006131520494818687,-0.00195716368034482,0.0006180549971759319
1772656050527719000,4.099718994140625,-0.00014691404066979885,0.0008756407187320292,0.000622316263616085
1772656050537702100,4.1097021484375,-0.0004151887260377407,-0.00033395306672900915,0.00007866322994232178
1772656050547684000,4.11968408203125,0.0005659197922796011,0.00196595280431211,0.00010556122288107872
1772656050557666000,4.129666015625,-0.0026960233226418495,0.0009708066936582327,-0.0016590231098234653
1772656050567649000,4.13964892578125,0.0001596843358129263,0.0015335326315835118,-0.0004246481694281101
1772656050577631000,4.149630859375,0.0015030199429020286,0.0007439047330990434,0.0020168679766356945
1772656050587613200,4.15961328125,-0.002946589607745409,0.004211074206978083,-0.0032572560012340546
1772656050597595000,4.169594970703125,-0.0007762827444821596,0.0003854249371215701,0.00018568243831396103
1772656050607578000,4.179578125,0.0007347946520894766,-0.0008300417102873325,0.0005484051071107388
1772656050617560000,4.18956005859375,0.0017752381972968578,-0.000857512466609478,0.0012423554435372353
1772656050627542000,4.1995419921875,0.00021116365678608418,-0.0014814911410212517,-0.0004354361444711685
1772656050637524200,4.209524169921875,0.0007806161884218454,-0.0022096973843872547,0.0014705737121403217
1772656050647507200,4.219507080078125,0.0007688982877880335,-0.0007787809008732438,-0.0009744744747877121
1772656050657489200,4.2294892578125,0.00039131310768425465,-0.0005563264712691307,-0.0023079123347997665
1772656050667471000,4.23947119140625,-0.0004161573015153408,-0.001429577125236392,-0.0005286545492708683
1772656050677454000,4.2494541015625,-0.0008027805015444756,0.0010080626234412193,0.0015921685844659805
1772656050687436000,4.25943603515625,-0.00042541068978607655,0.002931663766503334,0.0006941505707800388
1772656050697418000,4.26941796875,0.001065208576619625,0.001581393415108323,0.0016472397837787867
1772656050707400200,4.279400146484375,-0.0014900942333042622,-0.00021597393788397312,0.0014408447314053774
1772656050717383200,4.289383056640625,0.0011666249483823776,-0.0007139169611036777,0.00040853675454854965
1772656050727365000,4.299365234375,-0.00166990770958364,0.0003351022023707628,0.0011339818593114614
1772656050737347000,4.30934716796875,0.0007875459268689156,0.00040077255107462406,-0.0007727527990937233
1772656050747330300,4.319330322265625,0.001981707289814949,-0.0004149536835029721,-0.001134676393121481
1772656050757312000,4.32931201171875,-0.00026410468854010105,0.0020830719731748104,-0.002003876492381096
1772656050767294200,4.339294189453125,-0.0015171219129115343,0.00044576043728739023,-0.0010134465992450714
1772656050777276200,4.349276123046875,0.000673704082146287,0.00038819946348667145,-0.0009257211349904537
1772656050787259100,4.359259033203125,-0.0008315145969390869,0.0030809217132627964,-0.002108963206410408
1772656050797241000,4.369240966796875,-0.0015729076694697142,0.0009521669126115739,0.00037786131724715233
1772656050807223000,4.37922314453125,0.0005046243313699961,0.00018863857258111238,-0.0032136780209839344
1772656050817205200,4.389205322265625,0.001119125634431839,0.002037790836766362,-0.0005768383853137493
1772656050827188000,4.39918798828125,0.002038448816165328,-0.0022845198400318623,-0.0010247821919620037
1772656050837172000,4.409171875,-0.0014098805841058493,0.0002846971619874239,-0.0023595010861754417
1772656050847154400,4.419154541015625,-0.002557436702772975,0.001635985099710524,0.0007241726852953434
1772656050857136400,4.429136474609375,0.00220656581223011,-0.0006143540376797318,0.0018262448720633984
1772656050867118300,4.439118408203125,0.00041851960122585297,-0.0017936016665771604,0.00017242180183529854
1772656050877101300,4.449101318359375,-0.001025949139147997,-0.0009010618086904287,0.0008734159637242556
1772656050887083500,4.45908349609375,0.00040416838601231575,0.0008164107566699386,0.0011357374023646116
1772656050897065500,4.4690654296875,-0.001646470744162798,0.0030269473791122437,0.00028638215735554695
1772656050907047400,4.47904736328125,-0.0011657699942588806,0.0017611468210816383,-0.0007288143970072269
1772656050917030400,4.489030517578125,-0.002901151543483138,-0.0007226380985230207,-0.0011223829351365566
1772656050927012400,4.499012451171875,0.00009650248102843761,-0.0010230427142232656,0.0004600672982633114
1772656050936994600,4.50899462890625,0.0013834332348778844,-0.0002964186714962125,-0.00046909274533391
1772656050946977300,4.518977294921875,-0.001886928454041481,0.00034593569580465555,0.0007250688504427671
1772656050956959500,4.52895947265625,-0.0003917599096894264,-0.0007031823042780161,0.00008039409294724464
1772656050966941400,4.53894140625,-0.0010586155112832785,-0.0014922770205885172,0.0000881170853972435
1772656050976923400,4.54892333984375,-0.0019671062473207712,-0.00007510324940085411,0.00032530631870031357
1772656050986906600,4.55890673828125,-0.001954322913661599,-0.0006503459298983216,0.00036285677924752235
1772656050996888300,4.568888427734375,-0.000553610734641552,-0.0006706141866743565,-0.003109483513981104
1772656051006870500,4.57887060546875,-0.0017206077463924885,-0.0013736886903643608,2.896413207054138e-7
1772656051016853200,4.588853271484375,-0.001832017209380865,-0.0018916188273578882,-0.0016667041927576065
1772656051026835500,4.59883544921875,-0.00004343828186392784,-0.00007481023203581572,-0.002247805707156658
1772656051036817700,4.608817626953125,-0.003044615965336561,0.0006353729404509068,0.0018607419915497303
1772656051046799400,4.61879931640625,-0.0011609620414674282,0.0005339065100997686,0.00047749606892466545
1772656051056782600,4.628782470703125,-0.0011398328933864832,-0.000805228017270565,-0.0032304488122463226
1772656051066764300,4.638764404296875,0.00021118903532624245,0.001801474136300385,-0.002291950862854719
1772656051076746500,4.64874658203125,-0.0019138813950121403,0.001520098652690649,0.00011266209185123444
1772656051086728400,4.658728515625,-0.000660597812384367,-0.0007286745822057128,-0.00042875856161117554
1772656051096711400,4.66871142578125,-0.0004348526708781719,0.0014701227191835642,0.001135725760832429
1772656051106693600,4.678693603515625,-0.0006497697904706001,0.0022299224510788918,-0.001413984689861536
1772656051116675300,4.68867529296875,0.001292145112529397,0.0011519177351146936,-0.0001471852883696556
1772656051126658600,4.698658447265625,-0.0030434811487793922,0.0010650986805558205,-0.0010529262945055962
1772656051136640500,4.708640625,-0.0016353190876543522,-0.0006594299338757992,0.0036742654629051685
1772656051146622500,4.71862255859375,0.00039693922735750675,0.0004271396901458502,0.001027083257213235
1772656051156604400,4.7286044921875,-0.0010029810946434736,-0.0027562864124774933,-0.0019429000094532967
1772656051166587400,4.73858740234375,-0.0017428069841116667,-0.0009184388909488916,0.0018108254298567772
1772656051176569300,4.7485693359375,0.0007781051099300385,0.00019135500770062208,-0.0015619262121617794
1772656051186551300,4.75855126953125,0.0008034049533307552,-0.0014946924056857824,0.00007511908188462257
1772656051196534300,4.7685341796875,0.0002868038136512041,0.002344992011785507,-0.0012331977486610413
1772656051206516500,4.7785166015625,-0.001616557128727436,0.002023282228037715,-0.0010526352562010288
1772656051216498400,4.78849853515625,0.0018509747460484505,-0.00041339744348078966,0.0004288880154490471
1772656051226480400,4.79848046875,-0.0010231086052954197,-0.0008823800599202514,0.0006195702590048313
1772656051236463600,4.808463623046875,-0.0005111470818519592,0.0017485263524577022,0.0015335241332650185
1772656051246445300,4.8184453125,-0.0003281880635768175,-0.0025873661506921053,0.001993451965972781
1772656051256427500,4.828427490234375,-0.0006264748517423868,-0.0009303124388679862,-0.0008155093528330326
1772656051266410200,4.83841015625,-0.000813961261883378,-0.000712732202373445,0.00025401636958122253
1772656051276392400,4.848392333984375,0.001960932742804289,-0.0013885064981877804,-0.002129902131855488
1772656051286374700,4.858374755859375,0.0018762442050501704,-0.000034289201721549034,-0.00012853648513555527
1772656051296356400,4.8683564453125,-0.00018399814143776894,-0.00051700952462852,-0.00032619014382362366
1772656051306339600,4.878339599609375,0.00007006758823990822,0.0003051082603633404,-0.00003057951107621193
1772656051316321300,4.8883212890625,-0.00029449770227074623,0.000928075984120369,-0.0005385489203035831
1772656051326303500,4.898303466796875,-0.00033337995409965515,-0.0021143192425370216,0.0007693297229707241
1772656051336286500,4.908286376953125,0.000030449824407696724,-0.0021735522896051407,-0.0022414783015847206
1772656051346268400,4.918268310546875,0.0010187489679083228,0.0010882876813411713,0.0014832187443971634
1772656051356250600,4.928250732421875,-0.0009897679556161165,0.0006879890570417047,-0.00023837527260184288
1772656051366232300,4.938232421875,0.0007564667612314224,-0.0007807441288605332,-0.001300976611673832
1772656051376215600,4.948215576171875,-0.0001504675019532442,-0.00043624755926430225,0.0002893200144171715
1772656051386197500,4.958197509765625,0.0007795083802193403,-0.003746024100109935,0.0008584372699260712
1772656051396179500,4.968179443359375,-0.0015364380087703466,-0.0006299654487520456,0.0011100368574261665
1772656051406161700,4.97816162109375,-0.00018728082068264484,-0.0007404866628348827,-0.001660982146859169
1772656051416144400,4.988144287109375,0.002254377119243145,-0.0008292486891150475,-0.00047045154497027397
1772656051426126600,4.998126708984375,-0.0011195815168321133,0.0004780970048159361,-0.001888318918645382
1772656051436108300,5.0081083984375,-0.0019340368453413248,0.002789937425404787,0.0011745232623070478
1772656051446091500,5.018091552734375,-0.0007555882912129164,0.0020714164711534977,0.0005801054649055004
1772656051456073500,5.028073486328125,0.0005474283825606108,-0.0004619924584403634,0.001721458276733756
1772656051466055400,5.038055419921875,0.0006456989794969559,-0.000817790743894875,-0.0011092154309153557
1772656051476037400,5.048037353515625,0.00005025463178753853,-0.0013379352167248726,-0.00008065439760684967
1772656051486020600,5.0580205078125,0.0016031437553465366,-0.0006154195871204138,0.0008618382271379232
1772656051496002600,5.06800244140625,-0.0011951678898185492,-0.0014581222785636783,0.001579665346071124
1772656051505984500,5.077984619140625,-0.0009645379614084959,0.00036561046727001667,-0.0005596517585217953
1772656051515967500,5.087967529296875,0.0021250497084110975,-0.002954204333946109,-0.004150798078626394
1772656051525949400,5.097949462890625,0.0003252855967730284,-0.0027432821225374937,-0.0008215806446969509
1772656051535931400,5.107931396484375,-0.001826462335884571,-0.0007140369853004813,0.0004921415820717812
1772656051545913300,5.117913330078125,-0.00013349088840186596,-0.00009352038614451885,-0.0003270464949309826
1772656051555896600,5.127896484375,-0.0012678953353315592,-0.00047873181756585836,-0.001504845917224884
1772656051565878300,5.137878173828125,0.0009635674068704247,0.00008186360355466604,0.0027183948550373316
1772656051575860500,5.147860595703125,0.0019337318371981382,0.0015255534090101719,0.0019610023591667414
1772656051585843500,5.157843505859375,-0.0014652605168521404,0.0011870656162500381,0.00040145544335246086
1772656051595825400,5.167825439453125,-0.00043533765710890293,-0.0011162467999383807,-0.0009610457345843315
1772656051605807600,5.1778076171875,0.0007521659135818481,-0.0006938696606084704,-0.0015027327463030815
1772656051615789300,5.187789306640625,-0.0008182332385331392,0.000766820041462779,-0.0019294624216854572
1772656051625772500,5.1977724609375,0.0006736693903803825,-0.00019990745931863785,-0.0025603650137782097
1772656051635754200,5.207754150390625,-0.0007045075763016939,-0.000581125495955348,0.0007159984670579433
1772656051645736400,5.217736328125,-0.004107228480279446,-0.0009015037212520838,0.0003836359828710556
1772656051655719400,5.227719482421875,-0.0011460199020802975,-0.0008690444519743323,-0.0018445122987031937
1772656051665701400,5.237701416015625,0.0022026386577636003,-0.0007151135941967368,-0.001484719105064869
1772656051675683600,5.24768359375,-0.0004907709080725908,0.0006234713364392519,-0.0017757546156644821
1772656051685665300,5.257665283203125,-0.0005874438211321831,0.0005030964966863394,0.0010820836760103703
1772656051695648500,5.2676484375,0.00037920568138360977,-0.000461893854662776,-0.001001305878162384
1772656051705630500,5.27763037109375,0.0022170532029122114,-0.00037001469172537327,-0.0006500347517430782
1772656051715612400,5.2876123046875,0.000436112517490983,0.002113856142386794,0.00038714194670319557
1772656051725595400,5.297595458984375,-0.0012946759816259146,0.0002906561130657792,-0.0004618740640580654
1772656051735577300,5.307577392578125,-0.0028668229933828115,-0.002018293831497431,-0.0019258358515799046
1772656051745559600,5.3175595703125,-0.0002912802156060934,0.0006744283018633723,0.001702721230685711
1772656051755541500,5.32754150390625,-0.00022038700990378857,-0.00016956916078925133,0.0013264294248074293
1772656051765524500,5.3375244140625,0.000849404837936163,-0.0014886327553540468,-0.0017548478208482265
1772656051775506400,5.34750634765625,0.0005817944183945656,0.0003663513343781233,-0.0015478301793336868
1772656051785488400,5.35748828125,-0.0017777662724256516,0.0009152288548648357,0.0003901519812643528
1772656051795471400,5.367471435546875,-0.000014064135029911995,0.0010591413592919707,0.0001407167874276638
1772656051805453600,5.37745361328125,-0.0012428464833647013,-0.0014503552811220288,0.0013258233666419983
1772656051815435500,5.387435546875,-0.0013962308876216412,-0.0008666671346873045,0.00013277772814035416
1772656051825417500,5.39741748046875,-0.0002097927499562502,-0.004147681873291731,0.002832956612110138
1772656051835400400,5.407400390625,-0.0012493438553065062,-0.0008623201865702868,0.0014545177109539509
1772656051845382400,5.41738232421875,0.0019270083867013454,-0.0006247663404792547,0.0005690166726708412
1772656051855364000,5.427364013671875,0.0010471796849742532,-0.0025436999276280403,-0.0012486176565289497
1772656051865347000,5.43734716796875,0.0004410441033542156,0.000285908579826355,-0.0006765704602003098
1772656051875329300,5.447329345703125,-0.0010943803936243057,0.0007640270050615072,-0.0026340223848819733
1772656051885311200,5.457311279296875,-0.0008861212991178036,0.0008324702503159642,0.0003601699136197567
1772656051895293200,5.467293212890625,0.0016084853559732437,0.0001653662184253335,-0.00016580522060394287
1772656051905276200,5.477276123046875,-0.0018911748193204403,0.0013105254620313644,0.0007013198919594288
1772656051915258000,5.487258056640625,0.0007065972313284874,0.001961681991815567,-0.0014995480887591839
1772656051925240000,5.497239990234375,-0.0003445523325353861,0.0007648574537597597,0.0016935821622610092
1772656051935223000,5.50722314453125,-0.00024410709738731384,-0.00040915876161307096,0.0005706008523702621
1772656051945205200,5.517205322265625,0.00019185221754014492,0.002803944982588291,0.0006630122661590576
1772656051955187200,5.527187255859375,0.002205756725743413,-0.0012580952607095242,0.0025437509175390005
1772656051965169200,5.537169189453125,-0.0010291850194334984,0.002999766729772091,0.0010433259885758162
1772656051975152000,5.547152099609375,-0.0005052222404628992,0.00010074791498482227,0.0023212842643260956
1772656051985134000,5.557134033203125,0.0006178326439112425,-0.0020066113211214542,0.002611036179587245
1772656051995116300,5.5671162109375,-0.00039336574263870716,0.0006087137153372169,-0.0008129766210913658
1772656052005099000,5.57709912109375,-0.0005728628020733595,0.0004550493322312832,-0.00015783915296196938
1772656052015081200,5.587081298828125,-0.0013162989635020494,-0.0016198764787986875,0.0006837118417024612
1772656052025063200,5.597063232421875,0.0005154232494533062,-0.0002534084487706423,0.0011590858921408653
1772656052035046100,5.607046142578125,-0.00045475387014448643,-0.0007749183569103479,0.0005789021961390972
1772656052045028000,5.617028076171875,-0.0006337184458971024,0.0008860951638780534,0.001161868218332529
1772656052055010000,5.627010009765625,-0.0003592921420931816,0.0021107294596731663,0.00028416234999895096
1772656052064992300,5.6369921875,-0.002186486730352044,-0.001089325058273971,0.0015499629080295563
1772656052074975200,5.646975341796875,0.00009888643398880959,0.0006791685009375215,-0.0004913876764476299
1772656052084957200,5.656957275390625,0.0009550926042720675,0.0021423092111945152,-0.0018799598328769207
1772656052094939100,5.666939208984375,0.0004251296631991863,-0.00044939795043319464,0.0008826625999063253
1772656052104922000,5.676922119140625,0.0007891838904470205,-0.00027709128335118294,-0.00016475887969136238
1772656052114904000,5.686904052734375,0.0021008052863180637,-0.0008449599845334888,0.0018330470193177462
1772656052124886300,5.69688623046875,-0.0008345306850969791,-0.0006167270475998521,0.00019520288333296776
1772656052134868200,5.7068681640625,0.001795675023458898,0.0001930260332301259,0.0006758943200111389
1772656052144851200,5.716851318359375,0.0009775519138202071,0.0002556103281676769,-0.0013220091350376606
1772656052154833200,5.726833251953125,0.0004974603652954102,0.0010324405739083886,-0.001713779754936695
1772656052164815000,5.736815185546875,0.0011906811269000173,-0.00014787237159907818,0.001098518492653966
1772656052174798300,5.74679833984375,0.0011225946946069598,-0.0006907848874107003,-0.0024677542969584465
1772656052184780000,5.756780029296875,-0.0018244592938572168,0.0003949858946725726,0.001621529459953308
1772656052194762200,5.76676220703125,0.0022658323869109154,-0.001650315010920167,0.0027204053476452827
1772656052204745000,5.776744873046875,-0.00031157489866018295,-0.0000673320610076189,0.0007392796687781811
1772656052214727200,5.78672705078125,-0.000499058747664094,0.001200380502268672,-0.0005467794835567474
1772656052224709400,5.79670947265625,-0.0017147918697446585,0.001932483515702188,-0.002300471067428589
1772656052234691000,5.806691162109375,0.000028233742341399193,-0.0002857145154848695,0.0019254477228969336
1772656052244674300,5.81667431640625,0.000005597015842795372,0.0019436175934970379,-0.0004389067180454731
1772656052254656000,5.826656005859375,-0.00024522608146071434,-0.0007980724330991507,0.0011462573893368244
1772656052264638200,5.83663818359375,-0.0007421718910336494,-0.0016532132867723703,-0.0016298219561576843
1772656052274621200,5.84662109375,0.002169695682823658,-0.00041736068669706583,-0.0022663483396172523
1772656052284603100,5.85660302734375,0.0013523714151233435,-0.001943884533829987,-0.002865026704967022
1772656052294585300,5.86658544921875,0.000759239075705409,0.0009628862026147544,0.0006301612593233585
1772656052304568000,5.876568115234375,-0.00022666319273412228,0.0031085950322449207,0.0016738539561629295
1772656052314550300,5.88655029296875,0.0014398786006495357,0.0002612078096717596,0.00020267022773623466
1772656052324532200,5.8965322265625,-0.000588384922593832,-0.0003366719465702772,0.0015033581294119358
1772656052334514200,5.90651416015625,-0.0006839644629508257,0.001044591423124075,0.0016751575749367476
1772656052344497200,5.9164970703125,-0.00017450167797505856,0.0003108904929831624,-0.0017818915657699108
1772656052354479000,5.92647900390625,0.0002276608720421791,0.0002736537717282772,0.0004557296633720398
1772656052364461000,5.9364609375,-0.0004517114721238613,-0.0016318380367010832,-0.001971741672605276
1772656052374444300,5.9464443359375,0.002180238952860236,0.00025305687449872494,0.0016184768173843622
1772656052384426200,5.95642626953125,-0.000703431898728013,-0.00046599667984992266,-0.000337082426995039
1772656052394408200,5.966408203125,0.0031983726657927036,0.0009273432660847902,0.0006535565480589867
1772656052404391200,5.97639111328125,-0.000623263418674469,-0.002390422858297825,-0.001314785797148943
1772656052414373000,5.986373046875,-0.0012931851670145988,0.0007654869114048779,0.0012381894048303366
1772656052424355300,5.996355224609375,-0.0012324652634561062,-0.0014233652036637068,-0.0017605298198759556
1772656052434337000,6.0063369140625,0.00017933174967765808,-0.0012001845752820373,-0.0021150782704353333
1772656052444320300,6.0163203125,-0.00001614447683095932,-0.002019106410443783,0.00015739677473902702
1772656052454302000,6.026302001953125,-0.002948241075500846,-0.0019100713543593884,0.002969452878460288
1772656052464284200,6.0362841796875,0.000660075806081295,-0.0020621379371732473,-0.0007294113747775555
1772656052474267100,6.04626708984375,0.0008343420922756195,-0.0010356626007705927,0.00024215877056121826
1772656052484249000,6.0562490234375,-0.0009640904609113932,0.00024664949160069227,-0.000715247355401516
1772656052494231300,6.066231201171875,0.00002667331136763096,0.00022231950424611568,0.002790665253996849
1772656052504214000,6.076214111328125,-0.00000927923247218132,-0.0001305494224652648,-0.0003830236382782459
1772656052514196200,6.0861962890625,-0.00014523649588227272,0.0007135742926038802,-0.00016096606850624084
1772656052524178200,6.09617822265625,0.0008270835969597101,-0.0005671398248523474,0.0014124296139925718
1772656052534160100,6.10616015625,-0.0001490679569542408,0.0013461357448250055,0.0036652754060924053
1772656052544143000,6.11614306640625,0.0012357758823782206,-0.0020390083082020283,-0.0015222961083054543
1772656052554125000,6.126125,-0.0003562907222658396,0.0004348898073658347,-0.00031904177740216255
1772656052564107300,6.136107177734375,0.00029964582063257694,-0.000029032817110419273,-0.001336636021733284
1772656052574090200,6.14609033203125,0.00006867293268442154,0.0011925776489078999,-0.0017524953000247478
1772656052584072200,6.156072265625,0.0009903929894790053,-0.000832756282761693,-0.0015967004001140594
1772656052594054100,6.16605419921875,-0.00044427975080907345,0.001901400275528431,-0.0004752008244395256
1772656052604037000,6.176037109375,0.0009035461116582155,0.00044731434900313616,0.0017032648902386427
1772656052614019000,6.18601904296875,-0.0002970225177705288,0.00027655146550387144,0.0016733219381421804
1772656052624001300,6.196001220703125,0.0001906021498143673,0.0014568644110113382,0.00019872980192303658
1772656052633984000,6.20598388671875,-0.0009732898324728012,0.0017228813376277685,-0.001686889212578535
1772656052643966200,6.21596630859375,-0.00001668231561779976,-0.00009845453314483166,-0.00023573264479637146
1772656052653948200,6.2259482421875,0.0008120969869196415,-0.0006036406848579645,0.0017931004986166954
1772656052663931100,6.23593115234375,0.0009292762260884047,0.0021402142010629177,0.0012958883307874203
1772656052673913300,6.245913330078125,0.0028620772063732147,-0.0003207479603588581,-0.0006978921592235565
1772656052683895000,6.25589501953125,-0.0010711452923715115,-0.0011399362701922655,0.00009706150740385056
1772656052693878300,6.265878173828125,0.0005288331303745508,-0.0008559750858694315,-0.0009546889923512936
1772656052703860000,6.27585986328125,0.0011376318288967013,-0.0027777119539678097,0.00266055203974247
1772656052713842200,6.28584228515625,-0.0004787910729646683,-0.0022092442959547043,0.0030079158022999763
1772656052723824400,6.295824462890625,0.00045278272591531277,-0.0016481162747368217,0.00002464279532432556
1772656052733807000,6.30580712890625,-0.0001477207988500595,-0.0006697584176436067,0.0021443217992782593
1772656052743789300,6.315789306640625,-0.0010132479947060347,-0.00007054710295051336,-0.0018541482277214527
1772656052753771000,6.32577099609375,-0.0015090578235685825,-0.0002877615625038743,-0.0007885592058300972
1772656052763754200,6.335754150390625,0.0008763356599956751,-0.0015572903212159872,0.0013262571301311255
1772656052773736200,6.345736083984375,0.0005182356107980013,-0.0006933610420674086,0.00019474700093269348
1772656052783718100,6.35571826171875,-0.0005028201267123222,-0.0005000156816095114,0.002836336614564061
1772656052793701000,6.365701171875,-0.001384899253025651,-0.0006729905726388097,-0.000998019240796566
1772656052803683000,6.37568310546875,-0.0003310863394290209,0.0006668457644991577,0.0005394234322011471
1772656052813665000,6.3856650390625,0.0010865699732676148,0.001328280195593834,-0.0004395502619445324
1772656052823648300,6.395648193359375,-0.0034804849419742823,0.002925644163042307,-0.0005961442366242409
1772656052833630200,6.405630126953125,0.001039569964632392,0.0026255822740495205,0.0009644355159252882
1772656052843612200,6.415612060546875,0.00043583125807344913,0.002112657530233264,-0.00004969630390405655
1772656052853595100,6.42559521484375,-0.000727563165128231,0.0015147854574024677,-0.0024710409343242645
1772656052863577000,6.4355771484375,0.00021359790116548538,-0.0005920412950217724,0.00007360940799117088
1772656052873559300,6.445559326171875,0.001119842054322362,0.00021187006495893002,0.0003514527343213558
1772656052883542000,6.4555419921875,0.000054045114666223526,-0.00032688735518604517,0.00038128020241856575
1772656052893524200,6.465524169921875,0.0018879337003454566,0.0005149956559762359,-0.0020530568435788155
1772656052903506000,6.475505859375,-0.00005084741860628128,0.0014817231567576528,0.00011395756155252457
1772656052913489200,6.4854892578125,-0.0003569195978343487,0.002146792598068714,0.000012330245226621628
1772656052923471000,6.49547119140625,-0.0010112584568560123,0.0025795563124120235,0.003645680844783783
1772656052933453000,6.505453125,-0.003291637636721134,0.0009475296828895807,-0.0009179473854601383
1772656052943436000,6.51543603515625,0.00009856629185378551,-0.0007369196973741055,-0.002376826945692301
1772656052953418200,6.525418212890625,0.0005746711976826191,0.0011348165571689606,0.0014134703669697046
1772656052963400200,6.535400146484375,0.0023938766680657864,-0.002329423325136304,-0.0005953521467745304
1772656052973383200,6.545383056640625,0.0010161033133044839,-0.00041229790076613426,0.0010914911981672049
1772656052983365000,6.555365234375,-0.00023371819406747818,0.000986926956102252,0.0013096039183437824
1772656052993347000,6.56534716796875,0.0019845955539494753,-0.0032525421120226383,-0.0005237185396254063
1772656053003329300,6.575329345703125,0.0007001529447734356,0.0004159619566053152,0.0006800303235650063
1772656053013312000,6.58531201171875,0.00024474039673805237,-0.001540637225843966,-0.0007698265835642815
1772656053023294200,6.595294189453125,0.002174200490117073,-0.0017017583595588803,0.0005995710380375385
1772656053033276200,6.605276123046875,-0.002293938072398305,-0.002581246430054307,0.0004910617135465145
1772656053043259100,6.615259033203125,-0.0004856516607105732,-0.0009734963532537222,-0.0008809990249574184
1772656053053241300,6.625241455078125,0.0008049407042562962,-0.0012112943222746253,0.0027307153213769197
1772656053063223000,6.63522314453125,0.0007543405517935753,-0.0008530990453436971,0.0010585165582597256
1772656053073206300,6.645206298828125,0.0020874831825494766,-0.0013924043159931898,0.002308641327545047
1772656053083188000,6.65518798828125,-0.0010939291678369045,0.0015687645645812154,0.001571211963891983
1772656053093170200,6.665170166015625,0.001321581774391234,-0.002088786568492651,-0.0009830906055867672
1772656053103153200,6.675153076171875,-0.0013415792491286993,0.0011940922122448683,0.001778607489541173
1772656053113135000,6.685135009765625,-0.0010976288467645645,-0.00007371173705905676,0.0014445905108004808
1772656053123117300,6.695117431640625,-0.0002126605249941349,0.0003649109276011586,-0.0016225720755755901
1772656053133100300,6.705100341796875,0.002330656396225095,0.0012278230860829353,-0.00033517926931381226
1772656053143082200,6.715082275390625,0.0007079923525452614,-0.0008907215669751167,0.00023074261844158173
1772656053153064200,6.725064208984375,-0.0024575120769441128,0.0001869093393906951,-0.0004396396689116955
1772656053163047200,6.735047119140625,-0.0005083447322249413,-0.0001430563861504197,-0.0007781274616718292
1772656053173029000,6.745029052734375,-0.0015609592664986849,0.001871903077699244,-0.0017605205066502094
1772656053183011000,6.755010986328125,-0.000011532101780176163,-0.000880740350112319,0.002753004664555192
1772656053192994000,6.764994140625,0.0018797771772369742,0.0008278898312710226,0.0011858036741614342
1772656053202976300,6.774976318359375,-0.000020920997485518456,0.0005027177976444364,-0.0007527112029492855
1772656053212958200,6.784958251953125,0.0005533131770789623,0.00035945349372923374,0.000002332497388124466
1772656053222941200,6.794941162109375,-0.00042566494084894657,0.0003991345874965191,-0.0009537423029541969
1772656053232923400,6.80492333984375,-0.0018050044309347868,0.0013920710189267993,-0.0000225692056119442
1772656053242905000,6.814905029296875,0.0012547012884169817,0.00040723406709730625,-0.0012297802604734898
1772656053252888300,6.824888427734375,0.0020511182956397533,-0.0028127708937972784,0.0005643381737172604
1772656053262870000,6.8348701171875,0.000012468546628952026,0.0021822538692504168,0.0012495694682002068
1772656053272853200,6.844853271484375,0.001670215162448585,0.00029327080119401217,0.000642566941678524
1772656053282835200,6.854835205078125,-0.00014526164159178734,0.0007265671156346798,-0.0000977921299636364
1772656053292817200,6.864817138671875,-0.0006124828942120075,0.0021431276109069586,0.0009506519418209791
1772656053302800100,6.874800048828125,0.0012786276638507843,0.0018246136605739594,0.00041003013029694557
1772656053312782000,6.884781982421875,0.003034721128642559,-0.00014175684191286564,0.0004067281261086464
1772656053322764000,6.894763916015625,-0.0007775938138365746,-0.0009718642104417086,-0.003924903459846973
1772656053332747300,6.904747314453125,-0.0002864995039999485,0.00000521691981703043,-0.002165180630981922
1772656053342729200,6.914729248046875,-0.0005956925451755524,0.00047100381925702095,0.0023424860555678606
1772656053352711200,6.924711181640625,-0.00024581956677138805,-0.0010975172044709325,0.0015646079555153847
1772656053362694100,6.934694091796875,0.0009526029461994767,-0.00009723391849547625,0.0014186669141054153
1772656053372676000,6.944676025390625,0.001967072021216154,0.000028385198675096035,-0.00037387944757938385
1772656053382658300,6.954658203125,-0.001867080805823207,-0.0007103757234290242,0.00048365816473960876
1772656053392641000,6.96464111328125,-0.0002564932219684124,-0.00045627658255398273,-0.0017499104142189026
1772656053402623200,6.974623291015625,0.0010375366546213627,0.0009685145341791213,0.002408615779131651
1772656053412605000,6.98460498046875,0.00024959095753729343,-0.001699600601568818,-0.003319358918815851
1772656053422588200,6.994588134765625,-0.0006220617797225714,0.0009792732307687402,0.00043463287875056267
1772656053432570000,7.004570068359375,0.0003716452047228813,-0.0003320905379951,-0.0013564778491854668
1772656053442552000,7.014552001953125,0.00048775901086628437,0.0014101493870839477,0.0022963141091167927
1772656053452535000,7.02453515625,-0.00028163683600723743,-0.0004031300777569413,-0.0016022236086428165
1772656053462517200,7.034517333984375,-0.0010230608750134706,0.00007490720599889755,-0.001527921762317419
1772656053472499200,7.044499267578125,0.0010081658838316798,0.00014058127999305725,0.0002894597128033638
1772656053482482200,7.054482177734375,0.001350381993688643,-0.0007214839570224285,-0.00017526187002658844
1772656053492464000,7.064464111328125,-0.0005022326949983835,0.0008756764000281692,-0.002047539222985506
1772656053502446000,7.074446044921875,-0.0009973144624382257,0.0015989909879863262,-0.0016938713379204273
1772656053512429300,7.08442919921875,0.0008432217873632908,0.0010250909253954887,0.0006083217449486256
1772656053522411000,7.094410888671875,-0.0002446796279400587,0.00013293197844177485,-0.002176013309508562
1772656053532393200,7.104393310546875,-0.001487014815211296,-0.0003852368099614978,-0.0011550108902156353
1772656053542376000,7.1143759765625,-0.0004880630876868963,0.00289258174598217,0.00011451775208115578
1772656053552358100,7.124358154296875,-0.0006810573395341635,-0.0008942140266299248,-0.000484648160636425
1772656053562341000,7.134341064453125,0.0005647693760693073,-0.0008862246759235859,0.00031856121495366096
1772656053572323000,7.144322998046875,-0.001194286858662963,0.002388659166172147,0.001124632079154253
1772656053582305300,7.15430517578125,0.001279523246921599,-0.002043906133621931,0.00017068767920136452
1772656053592288300,7.164288330078125,-0.0006502228789031506,-0.0016817105934023857,0.003020939417183399
1772656053602270200,7.174270263671875,-0.0006962956395000219,0.0002086012391373515,-0.0031887530349195004
1772656053612252200,7.184252197265625,0.00019232532940804958,0.0002874248893931508,-0.0030312445014715195
1772656053622235100,7.194235107421875,0.0009044546168297529,-0.003125149756669998,0.0014663019683212042
1772656053632217000,7.204217041015625,-0.0008874246850609779,-0.0010043540969491005,-0.0017999210394918919
1772656053642199300,7.21419921875,0.0010228606406599283,-0.000705014681443572,-0.0008912505581974983
1772656053652182000,7.22418212890625,-0.00003532972186803818,-0.0009449506178498268,0.0014786229003220797
1772656053662164200,7.234164306640625,-0.0003170922864228487,0.0004907594993710518,0.0005816700868308544
1772656053672146200,7.244146240234375,-0.0016464150976389647,0.001062740571796894,-0.00018011033535003662
1772656053682129200,7.254129150390625,-0.00031084008514881134,-0.002066739834845066,0.00029180198907852173
1772656053692111400,7.264111328125,0.0006075166165828705,-0.0007818188751116395,0.0005027828738093376
1772656053702093000,7.274093017578125,0.0001878023613244295,-0.0013892858987674117,-0.00028577912598848343
1772656053712076300,7.284076171875,0.0002942928113043308,-0.0008823324460536242,-0.00026534078642725945
1772656053722058000,7.29405810546875,-0.00023754057474434376,0.0008718917961232364,0.0017874238546937704
1772656053732041200,7.304041259765625,-0.0003349641337990761,0.00022310914937406778,0.0006181593053042889
1772656053742023200,7.314023193359375,-0.00016904901713132858,0.0006071369862183928,0.00024957768619060516
1772656053752005000,7.324005126953125,-0.0024006490129977465,-0.0006925100460648537,0.0008415547199547291
1772656053761988000,7.333988037109375,0.001583173405379057,0.0017919529927894473,-0.0019821948371827602
1772656053771970300,7.34397021484375,-0.000052800169214606285,0.002487687161192298,0.0006463942117989063
1772656053781952300,7.3539521484375,0.0019520274363458157,-0.00061755848582834,0.0026144704315811396
1772656053791935200,7.363935302734375,-0.0006432649679481983,0.0010768568608909845,0.002032224088907242
1772656053801917200,7.373917236328125,-0.0005242216866463423,0.0017487723380327225,0.0023496728390455246
1772656053811899100,7.383899169921875,0.00157591060269624,-0.0014537553070113063,-0.0043645985424518585
1772656053821882400,7.39388232421875,0.0002890711184591055,-0.00033176562283188105,-0.0005621369928121567
1772656053831864000,7.403864013671875,-0.000871703727170825,0.0009416635148227215,-0.0022059716284275055
1772656053841846300,7.41384619140625,-0.0002607747446745634,0.0008734866278246045,0.0008657181169837713
1772656053851828700,7.423828857421875,0.0021065506152808666,0.0011543112341314554,0.0006218245252966881
1772656053861810700,7.433810791015625,0.00196167454123497,0.0029844355303794146,-0.0008972426876425743
1772656053871793700,7.443793701171875,-0.000022662337869405746,-0.0010492810979485512,-0.00031640660017728806
1772656053881775900,7.45377587890625,-0.0008061642292886972,0.0004040059866383672,-0.001183532178401947
1772656053891757800,7.4637578125,0.001090771285817027,-0.0013952211011201143,-0.003356972709298134
1772656053901740800,7.47374072265625,-0.0006658497732132673,-0.0010865607764571905,-0.0015881005674600601
1772656053911723000,7.483722900390625,-0.0014795407187193632,-0.0014265431091189384,-0.0020807888358831406
1772656053921704700,7.49370458984375,0.001767918118275702,-0.0009748709853738546,0.001836987677961588
1772656053931688000,7.50368798828125,0.00027773366309702396,-0.0002587295603007078,0.0007077055051922798
1772656053941669600,7.513669677734375,-0.0014535875525325537,-0.002688597422093153,0.0014730978291481733
1772656053951651800,7.52365185546875,0.00004256679676473141,-0.0010216290829703212,0.0002628038637340069
1772656053961634800,7.533634765625,0.00014403322711586952,-0.00131590839009732,-0.001965196803212166
1772656053971616800,7.54361669921875,0.0012904470786452293,0.00023668690118938684,0.0038845979142934084
1772656053981599700,7.553599853515625,0.0004672640934586525,0.0031485871877521276,-0.0008329255506396294
1772656053991581700,7.563581787109375,0.0023126117885112762,-0.0019498936599120498,-0.0005208454094827175
1772656054001564000,7.57356396484375,-0.0007630730979144573,-0.0018231271533295512,0.0007982184179127216
1772656054011547000,7.583546875,-0.0004297157283872366,-0.00135330343618989,0.002094575436785817
1772656054021528800,7.59352880859375,-0.00171389221213758,0.00042595446575433016,-0.0005512749776244164
1772656054031510800,7.6035107421875,-0.0011225154157727957,-0.0006414658855646849,-0.0022134161554276943
1772656054041494000,7.613493896484375,0.0014753983123227954,-0.0011123127769678831,0.00039807939901947975
1772656054051475700,7.623475830078125,-0.0004055777098983526,0.0008762800134718418,0.0008899497333914042
1772656054061459000,7.633458984375,0.0031220456585288048,0.001118095126003027,0.0009048634674400091
1772656054071440600,7.643440673828125,-0.0006488498765975237,0.0006709611043334007,0.00009901262819766998
1772656054081422800,7.6534228515625,0.0012116344878450036,-0.0002544873859733343,-0.0035218214616179466
1772656054091405800,7.66340576171875,0.0010138694196939468,-0.0003131612902507186,0.0011783270165324211
1772656054101387800,7.6733876953125,-0.003017357550561428,0.0015382682904601097,-0.0006219698116183281
1772656054111369700,7.68336962890625,-0.000012651318684220314,-0.0008475286886096001,-0.0006799832917749882
1772656054121352700,7.693352783203125,-0.0024132246617227793,0.0003032231470569968,0.002426061313599348
1772656054131334700,7.703334716796875,-0.00008152006193995476,0.0025149004068225622,-0.0011529754847288132
1772656054141316900,7.71331689453125,0.00039039202965795994,0.0014962413115426898,0.0015557254664599895
1772656054151299800,7.7232998046875,0.00012940634042024612,-0.00044247263576835394,0.0031985039822757244
1772656054161281800,7.73328173828125,-0.0006522315088659525,-0.0005482003325596452,0.0024197956081479788
1772656054171264800,7.7432646484375,0.0006985191721469164,0.0002473593922331929,-0.0019419058226048946
1772656054181246700,7.753246826171875,-0.0005214749835431576,0.00014349620323628187,-0.00010139541700482368
1772656054191229000,7.76322900390625,-0.0004967860877513885,0.0009235444013029337,0.001613294705748558
1772656054201211600,7.773211669921875,-0.000017949845641851425,0.0012300742091611028,-0.00028447387740015984
1772656054211193900,7.78319384765625,0.0005460826214402914,-0.0020246512722223997,-0.00045350007712841034
1772656054221175600,7.793175537109375,-0.0011668626684695482,-0.0015149221289902925,0.0006160251796245575
1772656054231158800,7.80315869140625,0.0007291189394891262,0.00010791036766022444,0.0023753189016133547
1772656054241140700,7.813140625,0.000921665458008647,-0.000615936703979969,0.0007385401986539364
1772656054251123700,7.823123779296875,-0.000466217752546072,-0.0017517314990982413,0.0006151660345494747
1772656054261105700,7.833105712890625,0.002217449713498354,-0.000055564334616065025,-0.0005659456364810467
1772656054271087900,7.843087890625,0.0004729488864541054,-0.0023249094374477863,-0.0037331911735236645
1772656054281070600,7.853070556640625,-0.001136399107053876,-0.0005057041998952627,0.000187781173735857
1772656054291052800,7.863052734375,0.0005295819137245417,-0.002469779923558235,-0.0011374750174582005
1772656054301034800,7.87303466796875,0.0003490196540951729,0.0007819394813850522,-0.0016333553940057755
1772656054311017700,7.883017822265625,0.001112117082811892,-0.0006033761892467737,-0.00018301187083125114
1772656054321000000,7.893,-0.0014783397782593966,-0.00034132134169340134,0.001240447862073779
1772656054330982700,7.902982666015625,0.000900681596249342,0.0009532306576147676,0.002773340092971921
1772656054340964900,7.91296484375,-0.00006391527131199837,-0.0007487955735996366,-0.0006288480944931507
1772656054350946600,7.922946533203125,-0.000473658787086606,0.000770365702919662,0.002797139110043645
1772656054360929800,7.9329296875,-0.000625725369900465,-0.0010483070509508252,-0.0022202562540769577
1772656054370911700,7.942911865234375,0.00006839423440396786,0.000942784536164254,0.0003312844783067703
1772656054380893700,7.952893798828125,0.000806089723482728,-0.00004737882409244776,-0.001992057077586651
1772656054390876700,7.962876708984375,0.0016259968979284167,-0.0015766344731673598,0.0009696721099317074
1772656054400859000,7.97285888671875,-0.0005266361404210329,-0.0009252253221347928,0.000479383859783411
1772656054410841600,7.982841552734375,-0.00016899104230105877,0.0017005844274535775,0.0008070254698395729
1772656054420823800,7.99282373046875,-0.0008310528937727213,0.0010821984615176916,0.001977484906092286
1772656054430804700,8.0028046875,-0.0005482526030391455,-0.0006042411550879478,0.000728455837816
1772656054440787000,8.012786865234375,-0.000035327859222888947,0.0015747572761029005,-0.0019363034516572952
1772656054450770000,8.02277001953125,0.0009690946899354458,-0.0013406079960986972,0.00009069964289665222
1772656054460752000,8.032751953125,-0.0006098935846239328,0.0006229405989870429,0.0012995083816349506
1772656054470733800,8.04273388671875,0.0011574088130146265,0.0009573042625561357,-0.00018612155690789223
1772656054480716800,8.052716796875,0.0006154554430395365,0.000869153649546206,-0.0018191719427704811
1772656054490698800,8.06269873046875,-0.0016207282897084951,0.0006036009872332215,0.0004825582727789879
1772656054500680700,8.0726806640625,-0.002670812653377652,-0.00024408323224633932,-0.0018610232509672642
1772656054510663700,8.08266357421875,-0.0003269086591899395,-0.0004741627490147948,-0.0007058335468173027
1772656054520646000,8.09264599609375,-0.00010586646385490894,-0.00007468857802450657,0.0010494559537619352
1772656054530628600,8.102628662109375,-0.000990088563412428,-0.0005746191600337625,0.0006027296185493469
1772656054540610800,8.11261083984375,-0.00036637624725699425,0.0011452502803876996,-0.0003016800619661808
1772656054550593000,8.122593017578126,0.0011058993404731154,-0.00032435497269034386,0.0011965138837695122
1772656054560575700,8.13257568359375,-0.00007041892968118191,-0.0011462063994258642,0.0010532359592616558
1772656054570558000,8.142557861328125,-0.0014665115159004927,-0.0011095500085502863,-0.0006315675564110279
1772656054580541000,8.152541015625,0.0010736113181337714,-0.0009130088146775961,-0.00046112528070807457
1772656054590523000,8.16252294921875,-0.0004027225077152252,-0.0009564883075654507,-0.0014969692565500736
1772656054600504800,8.1725048828125,0.0003320437390357256,0.0009095885907299817,-0.0003278413787484169
1772656054610487800,8.18248779296875,-0.0014428072609007359,0.0009871770162135363,-0.00024976255372166634
1772656054620469800,8.1924697265625,0.001480544451624155,0.001420739572495222,-0.0005981037393212318
1772656054630451700,8.20245166015625,-0.000825975788757205,-0.0006197232287377119,-0.002273119054734707
1772656054640434700,8.2124345703125,0.0032995271030813456,0.0010362303582951427,0.0006161443889141083
1772656054650417000,8.2224169921875,0.0011004796251654625,-0.0008554508676752448,0.0004238029941916466
1772656054660399600,8.232399658203125,-0.0015802583657205105,0.00028065359219908714,0.0007055653259158134
1772656054670381800,8.2423818359375,-0.00020326743833720684,0.00203357613645494,0.00025762803852558136
1772656054680363800,8.25236376953125,0.0005152532830834389,0.0010183791164308786,-0.0010292110964655876
1772656054690346800,8.2623466796875,-0.0016415296122431755,0.0005443403497338295,0.0010984730906784534
1772656054700328700,8.27232861328125,0.0015270992880687118,0.002014937810599804,-0.000053876545280218124
1772656054710312000,8.28231201171875,-0.00027093058452010155,0.0007158145308494568,0.0003415420651435852
1772656054720294000,8.2922939453125,-0.00046587386168539524,0.00008730846457183361,-0.0009974949061870575
1772656054730275800,8.30227587890625,0.0017068797023966908,-0.00041275564581155777,0.00009192153811454773
1772656054740258800,8.3122587890625,-0.0014534937217831612,-0.001915577333420515,-0.0009309984743595123
1772656054750240800,8.32224072265625,0.0002785678952932358,-0.0005854385672137141,-0.0018528727814555168
1772656054760223700,8.3322236328125,-0.00226182141341269,-0.0005449583986774087,-0.0011050575412809849
1772656054770205700,8.342205810546876,0.00014877226203680038,-0.002720852382481098,-0.0018283543176949024
1772656054780188000,8.35218798828125,-0.0018664419185370207,-0.00011548202019184828,-0.003222252707928419
1772656054790170600,8.362170654296875,-0.0017275928985327482,-0.0009326398139819503,0.0027784265112131834
1772656054800152800,8.37215283203125,0.00039441371336579323,-0.0009568746900185943,0.00009768875315785408
1772656054810134800,8.382134765625,-0.00047973357141017914,-0.0013871153350919485,0.0015881930012255907
1772656054820117800,8.39211767578125,0.0011754210572689772,-0.0028161676600575447,0.0005309181287884712
1772656054830099700,8.402099609375,0.0008187172934412956,-0.0010601372923702002,0.0019064948428422213
1772656054840083000,8.4120830078125,-0.00138105358928442,0.0015588152455165982,0.00037224777042865753
1772656054850064600,8.422064697265625,0.0010057693580165505,-0.0019653523340821266,-0.000758628360927105
1772656054860048000,8.4320478515625,0.0006904511246830225,-0.001603961456567049,-0.0020199017599225044
1772656054870030800,8.44203076171875,0.0015988975064828992,-0.0009740992682054639,-0.0004641488194465637
1772656054880012800,8.4520126953125,0.0005679877940565348,0.00014176522381603718,0.00015237322077155113
1772656054889995800,8.461995849609375,0.00019998126663267612,0.0010415494907647371,-0.0018748058937489986
1772656054899978000,8.47197802734375,0.0002929256297647953,-0.0006319809472188354,0.000595542136579752
1772656054909959700,8.481959716796876,0.0016409914242103696,-0.0007245650049299002,0.0002149287611246109
1772656054919943000,8.49194287109375,-0.0004983257967978716,0.0006067493231967092,0.0012610182166099548
1772656054929924600,8.501924560546875,-0.00160304200835526,0.0020874645560979843,0.0015091386158019304
1772656054939907800,8.511907958984375,-0.00017319060862064362,-0.00022016442380845547,0.0005759671330451965
1772656054949889800,8.521889892578125,0.0018165662186220288,0.0005844032857567072,-0.0013731331564486027
1772656054959871700,8.531871826171875,-0.001086812000721693,0.0006437917472794652,0.0006181122735142708
1772656054969854700,8.541854736328125,-0.0018079180736094713,-0.00005141180008649826,0.00010901782661676407
1772656054979837000,8.5518369140625,0.002298410050570965,-0.0010572876781225204,-0.0002624932676553726
1772656054989819600,8.561819580078126,0.000013840850442647934,0.0007835010183043778,0.0007951967418193817
1772656054999801900,8.5718017578125,-0.0013411755207926035,0.002590722171589732,-0.0017832759767770767
1772656055009783800,8.58178369140625,-0.0018426061142235994,-0.0008121373830363154,-0.000398190226405859
1772656055019766800,8.591766845703125,-0.0001773315016180277,-0.00024728092830628157,0.002563777379691601
1772656055029749000,8.6017490234375,-0.0005679989699274302,-0.0007249854970723391,0.00035550957545638084
1772656055039731700,8.611731689453125,0.0005792907904833555,-0.0005010135937482119,-0.00025115860626101494
1772656055049714000,8.6217138671875,-0.000567879993468523,-0.0006043174071237445,0.0003908374346792698
1772656055059695600,8.631695556640626,0.001928567187860608,-0.00005810311995446682,-0.0009324876591563225
1772656055069681000,8.641680908203124,-0.00044840993359684944,0.0016484162770211697,-0.0023689824156463146
1772656055079663900,8.651663818359374,-0.0003325624857097864,-0.0015111579559743404,-0.00024191569536924362
1772656055089645800,8.661645751953126,0.0014710836112499237,-0.0015257438644766808,-0.001421564258635044
1772656055099627800,8.671627685546875,0.0011038336670026183,0.0023691290989518166,-0.00021568499505519867
1772656055109610800,8.68161083984375,-0.000815108884125948,-0.0008930083131417632,-0.0040992130525410175
1772656055119593000,8.691593017578125,0.0002549493219703436,0.0013613575138151646,0.0004992675967514515
1772656055129575700,8.70157568359375,-0.00037537445314228535,-0.002597775775939226,0.0004931557923555374
1772656055139558000,8.711557861328124,0.0008771102875471115,-0.0016020198818296194,-0.0021849190816283226
1772656055149539600,8.72153955078125,0.0024954192340373993,-0.0006761305266991258,-0.0008958242833614349
1772656055159522800,8.731522705078126,-0.0008423204999417067,-0.0006694725016131997,-0.0033232951536774635
1772656055169504800,8.7415048828125,0.0011233548866584897,-0.00101582077331841,0.00018156925216317177
1772656055179488000,8.751488037109375,0.0004889899864792824,0.0009296184289269149,-0.000037342775613069534
1772656055189469700,8.7614697265625,-0.0017672537360340357,-0.0000914956908673048,-0.0003401506692171097
1772656055199453000,8.771452880859375,0.00042399531230330467,-0.001364486524835229,-0.0006376258097589016
1772656055209434600,8.7814345703125,-0.0013282843865454197,0.0020515467040240765,-0.00005726516246795654
1772656055219416800,8.791416748046874,-0.0004078960046172142,0.0007284883176907897,0.0006727073341608047
1772656055229399800,8.80139990234375,-0.00011931057088077068,0.001085486263036728,-0.001076933927834034
1772656055239381800,8.8113818359375,-0.0009539453312754631,0.001779239741154015,0.00001869071274995804
1772656055249364700,8.82136474609375,0.00048536411486566067,-0.0006267249118536711,-0.0009245485998690128
1772656055259346700,8.8313466796875,-0.0011096030939370394,0.0008686400251463056,0.00034897495061159134
1772656055269329000,8.841328857421875,-0.00038025365211069584,0.0010433202842250466,0.0018965848721563816
1772656055279312000,8.851311767578125,0.001603268668986857,0.0010840666946023703,-0.0002437978982925415
1772656055289293800,8.8612939453125,0.0008850907906889915,-0.000668202294036746,-0.00008915690705180168
1772656055299276800,8.87127685546875,0.0009444792522117496,0.0008069225586950779,0.0005721063353121281
1772656055309259000,8.881259033203126,-0.0027724220417439938,0.0029101907275617123,0.0015858528204262257
1772656055319240700,8.89124072265625,0.000621510436758399,0.0013692856300622225,-0.001987576950341463
1772656055329224000,8.901223876953125,-0.0001638664398342371,0.001376363099552691,-0.0022473856806755066
1772656055339205600,8.91120556640625,-0.00035801087506115437,0.0008104413864202797,-0.0012902459129691124
1772656055349188900,8.92118896484375,0.0017904136329889297,0.0008031814359128475,0.00007686298340559006
1772656055359170800,8.9311708984375,-0.0006346609443426132,-0.0009297375800088048,-0.002008924726396799
1772656055369152800,8.94115283203125,-0.00023742555640637875,0.0014188565546646714,0.0003927871584892273
1772656055379135700,8.9511357421875,-0.0006446228362619877,-0.002907448448240757,0.002262325957417488
1772656055389117700,8.96111767578125,0.001406136085279286,-0.0003043108154088259,0.0007886979728937149
1772656055399100700,8.9711005859375,0.0010170482564717531,0.0023415395990014076,0.002048373455181718
1772656055409083000,8.981082763671875,0.002553324680775404,0.0010467703687027097,0.0006109713576734066
1772656055419065600,8.991065673828125,-0.000026745721697807312,0.0001562093384563923,0.0019529382698237896
1772656055429047800,9.0010478515625,0.0010814834386110306,-0.0005643839249387383,0.0021974293049424887
1772656055439030000,9.011030029296874,0.002275644801557064,0.0004502803785726428,0.0004735649563372135
1772656055449012700,9.0210126953125,0.0009503160836175084,0.00045038387179374695,0.00040221307426691055
1772656055458995000,9.030994873046875,-0.0018004628363996744,-0.001769360969774425,-0.0009922180324792862
1772656055468978000,9.04097802734375,-0.0010508464183658361,-0.0002199026057496667,-0.00031282752752304077
1772656055478959900,9.0509599609375,-0.00036241929046809673,0.001216340227983892,-0.0024665258824825287
1772656055488941800,9.06094189453125,0.0020799608901143074,0.00004889711271971464,-0.0021453378722071648
1772656055498924800,9.0709248046875,0.0030749179422855377,0.0008574328385293484,0.0011516555678099394
1772656055508906800,9.08090673828125,-0.002202927367761731,0.0016404432244598866,0.0010800666641443968
1772656055518890000,9.090889892578126,-0.0005938454996794462,0.0011283173225820065,-0.0015362231060862541
1772656055528871700,9.10087158203125,0.0006581880152225494,-0.0016573220491409302,0.0024464258458465338
1772656055538855000,9.11085498046875,-0.0010185383725911379,0.0006058320868760347,-0.0003632092848420143
1772656055548836600,9.120836669921875,-0.0021129960659891367,-0.0018143419874832034,-0.0014593834057450294
1772656055558818800,9.13081884765625,0.0013906587846577168,-0.0006944829365238547,0.0021265626419335604
1772656055568801800,9.1408017578125,0.00028474372811615467,0.001863733516074717,0.0003987387754023075
1772656055578783700,9.15078369140625,-0.00015600956976413727,0.00033934006933122873,0.0004687798209488392
1772656055588766700,9.1607666015625,0.0027103580068796873,5.0175003707408905e-8,0.0008830088190734386
1772656055598749000,9.1707490234375,-0.00015520327724516392,-0.000908886780962348,0.0009740889072418213
1772656055608731000,9.18073095703125,-0.001688650343567133,-0.0003136220620945096,0.0015344687271863222
1772656055618713900,9.1907138671875,-0.0008670652750879526,-0.0008877996588125825,-0.0017734435386955738
1772656055628695800,9.20069580078125,0.0007898584008216858,0.0013998285867273808,-0.001334980595856905
1772656055638678800,9.2106787109375,-0.0005158896092325449,-0.0013200577814131975,0.0011521452106535435
1772656055648661000,9.220660888671874,-0.0010199847165495157,0.00013889081310480833,0.000011387746781110764
1772656055658643700,9.230643798828124,0.0008175962138921022,0.0016294621163979173,-0.000342546496540308
1772656055668626000,9.2406259765625,0.001505796448327601,0.0008304908405989408,-0.002465449273586273
1772656055678608000,9.25060791015625,0.0010056548053398728,0.0009513983386568725,0.0013234298676252365
1772656055688590800,9.2605908203125,0.00004172115586698055,0.00022820162121206522,0.0018546385690569878
1772656055698572800,9.27057275390625,-0.00014150445349514484,0.00013046362437307835,0.0005704620853066444
1772656055708556000,9.28055615234375,-0.00022529391571879387,0.0010605680290609598,0.0005161534063518047
1772656055718537700,9.290537841796874,0.0003403616137802601,-0.0004670211346819997,0.002504203002899885
1772656055728520000,9.30052001953125,0.001241421210579574,0.0016382888425141573,-0.0006037340499460697
1772656055738502700,9.310502685546876,0.0016022794879972935,0.0007764899637550116,0.0007619345560669899
1772656055748484900,9.32048486328125,0.0007292772643268108,0.000025315326638519764,0.0002498272806406021
1772656055758467800,9.3304677734375,0.0006714866030961275,0.000374189461581409,-0.00003646267578005791
1772656055768449800,9.34044970703125,-0.00029765372164547443,-0.0005594324320554733,0.001539355143904686
1772656055778432800,9.350432861328125,-0.0005679645109921694,0.0009194208541885018,-0.0015786737203598022
1772656055788414700,9.360414794921875,0.000025198329240083694,-0.00015053816605359316,0.000037021469324827194
1772656055798397000,9.37039697265625,0.0032976907677948475,0.0022039625328034163,-0.00017443345859646797
1772656055808380000,9.3803798828125,-0.0008183636236935854,0.0017938620876520872,0.0012205918319523335
1772656055818361900,9.39036181640625,0.00011986796744167805,0.0011320665944367647,0.00048449402675032616
1772656055828344800,9.4003447265625,0.0005611232481896877,-0.0014671583194285631,-0.0030477321706712246
1772656055838327000,9.4103271484375,0.0019994964823126793,-0.001241056015715003,0.001166453817859292
1772656055848309800,9.420309814453125,-0.00037879287265241146,0.0011238274164497852,-0.0015377434901893139
1772656055858291500,9.43029150390625,-0.0026334249414503574,0.0007536479970440269,-0.001225620973855257
1772656055868273200,9.440273193359374,-0.0037594791501760483,0.0009087920770980418,0.0007479931227862835
1772656055878256400,9.45025634765625,0.0004326025955379009,-0.0005636696005240083,-0.00035215867683291435
1772656055888238300,9.46023828125,-0.0001511983573436737,0.0004772235406562686,-0.0012329397723078728
1772656055898221300,9.47022119140625,0.0006275100167840719,0.0012181149795651436,-0.0010651606135070324
1772656055908203300,9.480203369140625,-0.000612717354670167,-0.00012044899631291628,-0.000708757434040308
1772656055918186500,9.4901865234375,0.0005667966324836016,0.001126975635997951,0.00061776302754879
1772656055928168200,9.500168212890625,0.0010983520187437534,0.000695342430844903,-0.0023459349758923054
1772656055938150400,9.510150390625,0.00030286586843430996,-0.0004974874900653958,0.0001321365125477314
1772656055948133000,9.520133056640624,-0.002394960029050708,-0.00025687378365546465,-0.0007718824781477451
1772656055958115300,9.530115234375,-0.0003938607405871153,0.00011277291923761368,-0.0010744179598987103
1772656055968098300,9.540098388671876,-0.00019296398386359215,-0.00010575540363788605,-0.0029895007610321045
1772656055978080300,9.550080322265625,-0.001117347041144967,-0.0008027047151699662,-0.00012154271826148033
1772656055988063200,9.560063232421875,-0.000008378410711884499,0.002507151337340474,-0.002201882191002369
1772656055998045400,9.57004541015625,0.0007705960888415575,-0.0006167365936562419,-0.0014458107762038708
1772656056008027400,9.58002734375,0.0008482958655804396,0.0007423483766615391,-0.00005930475890636444
1772656056018010400,9.59001025390625,0.0033745705150067806,0.0007583273109048605,0.00031220633536577225
1772656056027992300,9.599992431640626,0.0005806286353617907,0.0019817189313471317,0.00020388932898640633
1772656056037975300,9.609975341796876,-0.001640714006498456,0.00011697353329509497,-0.0020499438978731632
1772656056047957500,9.61995751953125,0.0009091866668313742,-0.0005110816564410925,0.002290027681738138
1772656056057940200,9.629940185546875,0.0011781658977270126,0.0028716656379401684,-0.002119634300470352
1772656056067922400,9.63992236328125,-0.0010045345406979322,-0.0027423847932368517,-0.002236063126474619
1772656056077904100,9.649904052734374,0.0018591624684631824,-0.0011862998362630606,0.001272385474294424
1772656056087887400,9.659887451171874,0.001365839154459536,0.0006190305575728416,0.00045365653932094574
1772656056097869300,9.669869384765626,-0.0012123668566346169,-0.0012273391475901008,-0.0021229516714811325
1772656056107852300,9.679852294921876,-0.0002351989969611168,0.0011787493713200092,-0.000012773089110851288
1772656056117834200,9.689834228515625,-0.0012538579758256674,-0.0008862658869475126,0.0023228193167597055
1772656056127817500,9.6998173828125,0.000773564213886857,-0.0003522487822920084,-0.0009844452142715454
1772656056137799200,9.709799072265625,-0.0010573589242994785,0.0008709411486051977,0.0004938752390444279
1772656056147781400,9.719781494140625,0.0028646427672356367,-0.0007716022664681077,-0.0006713126786053181
1772656056157764400,9.729764404296875,-0.0003135737497359514,-0.0005369778955355287,-0.0009221825748682022
1772656056167746300,9.739746337890624,0.0006369536276906729,-0.0005758390761911869,0.0018699509091675282
1772656056177729300,9.749729248046876,-0.0006134004797786474,0.0030026505701243877,-0.0013423538766801357
1772656056187711200,9.759711181640625,0.00025048479437828064,0.0015954365953803062,0.0015411200001835823
1772656056197694200,9.769694091796875,-0.000507184537127614,-0.00042004359420388937,-0.0008533280342817307
1772656056207676400,9.779676513671875,0.0015726961428299546,0.00022658903617411852,0.0013445941731333733
1772656056217659100,9.7896591796875,-0.0008582372684031725,0.0009680130169726908,-0.00213455967605114
1772656056227641300,9.799641357421875,-0.0009968704544007778,0.0008440521196462214,-0.0008721915073692799
1772656056237623300,9.809623291015624,0.002909720642492175,-0.0007586382562294602,0.0016365062911063433
1772656056247606300,9.819606201171876,0.0007538064382970333,0.002012366196140647,0.0002251206897199154
1772656056257588500,9.82958837890625,-0.00021931249648332596,0.00037638633511960506,-0.0018220511265099049
1772656056267571200,9.8395712890625,0.002037264173850417,0.0013201192487031221,0.0008899965323507786
1772656056277553400,9.849553466796875,0.0019517767941579223,0.002301760483533144,0.0007352670654654503
1772656056287536400,9.859536376953125,-0.0009892296511679888,0.0006736926734447479,0.0004491410218179226
1772656056297518300,9.869518310546875,0.0015849819174036384,-0.0008419123478233814,0.0007348982617259026
1772656056307500300,9.879500244140624,0.00012924917973577976,0.0005657332949340343,-0.00002837320789694786
1772656056317483500,9.8894833984375,-0.0006233600433915854,0.0006805155426263809,-0.0015234719030559063
1772656056327465200,9.89946533203125,0.0006687194108963013,0.0032794433645904064,0.0016194961499422789
1772656056337448400,9.909448486328126,-0.0016956350300461054,-0.0018031997606158257,0.001982218585908413
1772656056347430100,9.91943017578125,0.0008423523977398872,0.00000462785828858614,0.00010579917579889297
1772656056357413400,9.929413330078125,-0.0014346505049616098,0.00003871624357998371,0.00047731027007102966
1772656056367395300,9.939395263671875,0.0005482446867972612,0.0019025042420253158,-0.000058992765843868256
1772656056377378300,9.94937841796875,-0.00020063621923327446,0.0006694606272503734,-0.0007519470527768135
1772656056387360300,9.9593603515625,-0.0001714872196316719,-0.0009509915253147483,-0.0014786208048462868
1772656056397342500,9.969342529296876,0.0009062939789146185,-0.00003246718551963568,0.0002827937714755535
1772656056407325200,9.9793251953125,0.0009019178105518222,0.00169281882699579,-0.0019681272096931934
1772656056417307400,9.989307373046875,0.0008997872937470675,0.0017801704816520214,-0.0014549358747899532
1772656056427290400,9.999290283203125,-0.0016916005406528711,0.0027934531681239605,0.0006762314587831497
1772656056437272300,10.009272216796875,0.0009185636881738901,0.0008786403341218829,-0.0012052920646965504
1772656056447255300,10.01925537109375,-0.0027510153595358133,0.0006998986937105656,-0.00012975512072443962
1772656056457237200,10.0292373046875,0.002009651158004999,-0.0027499599382281303,0.0006196582689881325
1772656056467220200,10.03922021484375,-0.0006404013838618994,-0.0004896365571767092,-0.0012729950249195099
1772656056477202400,10.049202392578126,-0.0019141915254294872,-0.0031131163705140352,0.0010980172082781792
1772656056487184400,10.059184326171875,0.0011140459682792425,0.0021283202804625034,-0.0007554665207862854
1772656056497167400,10.06916748046875,0.0014275000430643559,0.0002683686325326562,0.00040061166509985924
1772656056507149300,10.0791494140625,-0.004807078745216131,0.0006100491154938936,-0.0009721731767058372
1772656056517132300,10.08913232421875,0.0004726382903754711,0.002090500434860587,0.0009663419332355261
1772656056527114500,10.099114501953125,0.0006020225118845701,0.0019430472748354077,-0.001241288147866726
1772656056537097200,10.10909716796875,-0.0005758937913924456,-0.000004788744263350964,-0.0011326312087476254
1772656056547079400,10.119079345703126,0.00011199363507330418,0.0015871269861236215,-0.0019993195310235023
1772656056557061400,10.129061279296875,0.002298182575032115,-0.0012435468379408121,0.0010872839484363794
1772656056567044400,10.13904443359375,-0.0005802458617836237,-0.0013712318614125252,-0.0011825920082628727
1772656056577026300,10.1490263671875,-0.00039622141048312187,-0.0019121200311928988,-0.0011495687067508698
1772656056587009500,10.159009521484375,-0.0009995633736252785,0.0005208883667364717,0.0028790421783924103
1772656056596991200,10.1689912109375,-0.00034708878956735134,0.00048786518163979053,-0.00035403529182076454
1772656056606974500,10.178974365234374,-0.0007866695523262024,0.0010146620916202664,0.0023333083372563124
1772656056616956200,10.1889560546875,0.0002474358770996332,-0.000833837897516787,0.00009385636076331139
1772656056626939400,10.198939453125,-0.0009891102090477943,-0.0003665989497676492,0.0032169814221560955
1772656056636921300,10.20892138671875,-0.00041306857019662857,-0.0007066846592351794,0.0004896381869912148
1772656056646904300,10.218904296875,-0.0012335237115621567,0.0006979163154028356,-0.0002536955289542675
1772656056656886300,10.22888623046875,0.00023680739104747772,0.0021376211661845446,0.0011673672124743462
1772656056666868200,10.2388681640625,0.0020280417520552874,0.001548425992950797,-0.002314439043402672
1772656056676851200,10.248851318359375,0.001102060661651194,-0.0008276462322100997,-0.0032745087519288063
1772656056686833400,10.25883349609375,0.0012878179550170898,-0.0000746619189158082,-0.001982517074793577
1772656056696816400,10.26881640625,0.0006537192966789007,-0.0009745440911501646,0.00032431306317448616
1772656056706798300,10.27879833984375,-0.0007832713890820742,-0.00041116378270089626,0.0004068119451403618
1772656056716781300,10.28878125,0.00006574438884854317,-0.00022420985624194145,0.00019908510148525238
1772656056726763300,10.29876318359375,0.006402826867997646,0.00043173483572900295,0.00008466793224215508
1772656056736746200,10.308746337890625,0.0009284330299124122,0.0030072778463363647,-0.0003347797319293022
1772656056746728400,10.318728515625,-0.000476594315841794,0.0011368629056960344,-0.0011184727773070335
1772656056756710400,10.32871044921875,-0.0006768640596419573,-0.001693811034783721,-0.000745097640901804
1772656056766693400,10.338693359375,0.00048766075633466244,-0.0006496441783383489,0.0004029073752462864
1772656056776675300,10.34867529296875,-0.0017030555754899979,-0.0006989127723500133,-0.0013081738725304604
1772656056786658300,10.358658203125,0.0003677862696349621,-0.0007835752330720425,0.0009770155884325504
1772656056796640500,10.368640625,0.002352107549086213,-0.0011521568521857262,0.00012800004333257675
1772656056806623200,10.378623291015625,0.0010957673657685518,-0.0009477963903918862,0.0011058056261390448
1772656056816605400,10.38860546875,0.0010140083031728864,0.0010242743883281946,0.00004560127854347229
1772656056826588400,10.39858837890625,-0.0008173563983291388,-0.0007015258306637406,0.0016888065729290247
1772656056836570400,10.4085703125,-0.0007004435174167156,-0.0009633145527914166,0.0004123533144593239
1772656056846553300,10.41855322265625,-0.00011432194150984287,-0.0007127011194825172,-0.0010433648712933064
1772656056856534800,10.42853466796875,-0.0010967620182782412,-0.0017454749904572964,-0.0010516205802559853
1772656056866516500,10.4385166015625,-0.0008883555419743061,-0.0012309738667681813,-0.0011612004600465298
1772656056876499700,10.448499755859375,0.000007265480235219002,0.0016716052778065205,0.0015815889928489923
1772656056886481700,10.458481689453125,0.0000759754329919815,0.00018452550284564495,0.00118114217184484
1772656056896464600,10.468464599609375,0.0009239257778972387,-0.002073302399367094,0.0005342606455087662
1772656056906446600,10.478446533203124,-0.0006137432064861059,0.000009000767022371292,0.000739117618650198
1772656056916429800,10.488429931640624,0.0033349257428199053,-0.0028421792667359114,0.0006190091371536255
1772656056926411500,10.49841162109375,-0.0003427923657000065,-0.00020178337581455708,0.00026248395442962646
1772656056936394800,10.508394775390625,0.00017652404494583607,0.0005998281994834542,0.00005475711077451706
1772656056946376400,10.51837646484375,-0.0005550859495997429,0.0016001065960153937,-0.0008179605938494205
1772656056956359700,10.528359619140625,-0.0006251269951462746,0.002029408235102892,-0.00020223809406161308
1772656056966341600,10.538341552734375,0.00018566916696727276,0.0019341027364134789,-0.00023355986922979355
1772656056976323600,10.548323486328124,-0.0005339169874787331,0.002160205040127039,-0.000961668323725462
1772656056986306600,10.558306640625,0.0012485767947509885,0.0005652860272675753,-0.0011832998134195805
1772656056996288800,10.568288818359376,-0.0005341432988643646,-0.000049904221668839455,-0.0029138214886188507
1772656057006271500,10.578271484375,-0.0016292673535645008,0.0020537131931632757,0.0008589301723986864
1772656057016253700,10.588253662109375,-0.00017038756050169468,0.0020329405087977648,0.000017105136066675186
1772656057026236700,10.598236572265625,0.002134832087904215,-0.0016706279711797833,-0.0013375007547438145
1772656057036218600,10.608218505859375,0.0017918167868629098,0.0015454054810106754,0.002548583783209324
1772656057046201600,10.61820166015625,-0.0017440374940633774,-0.0009942895267158747,-0.00008623162284493446
1772656057056183600,10.62818359375,-0.00019194744527339935,-0.0007218481041491032,-0.0018306020647287369
1772656057066166500,10.63816650390625,-0.0007188022136688232,0.00011066743172705173,-0.0010396880097687244
1772656057076148700,10.648148681640626,-0.00128552271053195,-0.001759936916641891,-0.0006077233701944351
1772656057086130700,10.658130615234375,0.0009599442128092051,0.001971062971279025,-0.0020537632517516613
1772656057096113700,10.66811376953125,0.0004307741764932871,-0.0009078141301870346,0.00030393293127417564
1772656057106095600,10.678095703125,0.0020040159579366446,-0.0009274765616282821,-0.0009759534150362015
1772656057116078600,10.68807861328125,0.0005704362411051989,0.0018214383162558079,-0.000849719624966383
1772656057126060800,10.698060791015624,-0.0012537587899714708,-0.00004759558942168951,0.0006300159730017185
1772656057136043500,10.70804345703125,-0.0012945050839334726,-0.00038901297375559807,0.0007991264574229717
1772656057146025700,10.718025634765626,-0.00003644521348178387,0.0009997591841965914,-0.000815157312899828
1772656057156008700,10.7280087890625,-0.0017712283879518509,0.001519075478427112,-0.0002473713830113411
1772656057165990700,10.73799072265625,0.0001228188630193472,0.00008512195199728012,0.0027803753037005663
1772656057175973600,10.7479736328125,0.0034554984886199236,-0.000872550648637116,-0.0030399630777537823
1772656057185955800,10.757955810546875,-0.0011671243701130152,-0.0007707859622314572,0.0010833407286554575
1772656057195938600,10.7679384765625,-0.00036950758658349514,0.0011320426128804684,0.0016732309013605118
1772656057205920800,10.777920654296874,0.0006193455774337053,-0.0009125270880758762,0.0015236935578286648
1772656057215902500,10.78790234375,-0.00035696919076144695,-0.0014970910269767046,-0.0006736805662512779
1772656057225885700,10.7978857421875,0.0006903575267642736,-0.0002096225507557392,-0.00002423767000436783
1772656057235867600,10.80786767578125,-0.0015078154392540455,-0.0004506387049332261,0.00035552913323044777
1772656057245850600,10.8178505859375,-0.002557173604145646,-0.00018942099995911121,-0.0019896896556019783
1772656057255832600,10.82783251953125,0.0012820392148569226,0.00010592362377792597,-0.0008690315298736095
1772656057265815800,10.83781591796875,0.0023491368629038334,-0.001063303672708571,0.0014563968870788813
1772656057275797500,10.847797607421874,0.0006830634083598852,-0.0006771452026441693,-0.0008610859513282776
1772656057285780700,10.85778076171875,-0.0010901649948209524,-0.0020524081774055958,0.0008936412632465363
1772656057295762700,10.8677626953125,-0.0007724498864263296,0.001104503171518445,-0.0013037328608334064
1772656057305745700,10.87774560546875,0.00011976412497460842,0.0015335563803091645,0.00043466920033097267
1772656057315727600,10.8877275390625,0.00017382646910846233,0.00008479680400341749,0.0011356133036315441
1772656057325710800,10.8977109375,0.0012404017616063356,0.0007754271500743926,0.0005720052868127823
1772656057335692500,10.907692626953125,-0.0011457903310656548,-0.00008211075328290462,0.0012220831122249365
1772656057345674800,10.9176748046875,-0.0003269293811172247,-0.000940654193982482,0.0018191784620285034
1772656057355657500,10.927657470703124,0.0007897340692579746,-0.0010133585892617702,-0.0010815365239977837
1772656057365639700,10.9376396484375,0.0010655400110408664,-0.0006460814038291574,-0.0005309754051268101
1772656057375622700,10.94762255859375,0.00006685475818812847,0.0005142578156664968,0.0008267038501799107
1772656057385604600,10.9576044921875,-0.0017457352951169014,0.0007175385253503919,0.0002496754750609398
1772656057395587600,10.967587646484375,0.00291213346645236,0.0010951748117804527,-0.000628102570772171
1772656057405569500,10.977569580078125,0.0019579557701945305,-0.0021964889019727707,-0.0007087686099112034
1772656057415552500,10.987552490234375,-0.0012458271812647581,0.000355352065525949,0.0003335922956466675
1772656057425534700,10.99753466796875,-0.00007646414451301098,-0.0027999822050333023,0.0019688275642693043
1772656057435517400,11.007517333984374,-0.0007824681233614683,-0.0018985024653375149,0.0018127663061022758
1772656057445499600,11.017499755859374,-0.0009890871588140726,0.027752073481678963,0.009529398754239082
1772656057455482600,11.027482666015626,0.0004535473417490721,0.004573783837258816,0.0018317981157451868
1772656057465464600,11.037464599609375,-0.00023132353089749813,-0.02011297456920147,-0.01054910197854042
1772656057475447600,11.047447509765625,-0.00007552863098680973,-0.020945744588971138,-0.007759174797683954
1772656057485429800,11.0574296875,0.0004396496806293726,0.0012542151380330324,-0.0031046494841575623
1772656057495411700,11.06741162109375,-0.00038513122126460075,0.010300707072019577,0.0032336742151528597
1772656057505394700,11.077394775390625,-0.0017863407265394926,-0.004740095231682062,0.0008939756080508232
1772656057515376600,11.087376708984374,-0.0005192088428884745,-0.007623766083270311,-0.0008594496175646782
1772656057525359600,11.097359619140626,-0.001421731198206544,0.002830478362739086,0.002166024874895811
