time,seconds_elapsed,z,y,x
1772556549684398000,0.089398193359375,0.8580950851947069,-0.5822855089366435,0.6417315312482417
1772556549694382000,0.099382080078125,0.8875947359234094,-0.6713537854433059,0.5432179655261338
1772556549704366000,0.109365966796875,0.855830647394061,-0.6409881655350327,0.4951055303946137
1772556549714351000,0.11935107421875,0.6868225727319717,-0.6525611144289374,0.4230838118873536
1772556549724335000,0.129335205078125,0.40235681180953975,-0.6022969080910087,0.41100671286359425
1772556549734319000,0.139319091796875,0.21806524329781532,-0.5131628728717565,0.4078827356241643
1772556549744303000,0.14930322265625,0.09882570041120052,-0.4078688532292843,0.3230838069997728
1772556549754287400,0.159287353515625,-0.006642506754398345,-0.36137305951416493,0.13891279612779617
1772556549764271400,0.169271240234375,-0.12835107010304928,-0.4832034956768155,-0.02163841583430767
1772556549774255400,0.17925537109375,-0.2510439683139324,-0.5085422273337841,-0.03710939508005977
1772556549784239400,0.1892392578125,-0.35986031686365605,-0.44439650289863347,-0.03175152130872011
1772556549794223400,0.199223388671875,-0.5059831905007363,-0.49708442925214763,-0.010053922633081674
1772556549804207400,0.209207275390625,-0.5535042356103659,-0.5875970593482256,0.03965060399547219
1772556549814191400,0.21919140625,-0.22805296882688997,-0.7301338911920785,0.23173078055679797
1772556549824175400,0.22917529296875,0.006372457641363144,-1.4847621721714734,0.4069577297337353
1772556549834159000,0.2391591796875,0.14430676412582397,-1.9830343499034642,0.5356814325414597
1772556549844143000,0.24914306640625,-0.1493196238517761,-1.5245157981500028,0.4646580774217844
1772556549854127000,0.259127197265625,-0.47950902507305143,-1.2413415383428335,0.5038517314299941
1772556549864111000,0.269111083984375,-0.8598644329547882,-1.1194666785165668,0.4670256833359599
1772556549874095000,0.27909521484375,-1.163112635758519,-0.980553005605936,-0.007240764908492564
1772556549884079000,0.2890791015625,-1.4787889429807661,-0.726212626095116,-0.4506378815062344
1772556549894063400,0.2990634765625,-1.9151532383322714,-0.01626665966808796,-0.7068859943345188
1772556549904047400,0.30904736328125,-2.4186826059401034,0.4226251083344221,-0.8322310144893824
1772556549914031400,0.31903125,-2.581725634717941,0.8868813269570469,-0.8482600660093128
1772556549924015400,0.329015380859375,-2.4815531958729027,1.1427297729432582,-0.9225457839258014
1772556549933999400,0.338999267578125,-2.230530854868889,1.1804802424058318,-1.126511190200597
1772556549943983400,0.3489833984375,-1.5727788937985896,1.267379942701757,-1.0812200961001217
1772556549953967400,0.35896728515625,-0.7332780344367027,1.4021385417595504,-1.094212848664075
1772556549963951400,0.368951416015625,-0.47562429259419436,1.3492831498846412,-1.0843098788090049
1772556549973935400,0.378935302734375,-0.4842109191536903,1.354363814149797,-0.9670350601240992
1772556549983919000,0.388919189453125,-0.4624976845175028,1.271072367478907,-0.8545346162341535
1772556549993904400,0.398904296875,-0.38520460147857666,1.153828966845572,-0.8122985257901251
1772556550003888400,0.408888427734375,-0.18900515303015708,1.0192223434790968,-0.7659275274984538
1772556550013872000,0.4188720703125,-0.06683657095432281,0.9107347884923219,-0.7667102023087441
1772556550023856000,0.428856201171875,-0.05701601868569851,0.7859209526047111,-0.787005386840552
1772556550033840000,0.438840087890625,-0.04701192654371261,0.6983639574438333,-0.7362929983437061
1772556550043824000,0.44882421875,-0.16041911001503467,0.5289347347602248,-0.6208000946395099
1772556550053808000,0.45880810546875,-0.17932663958072662,0.3073690821260214,-0.45129707606732844
1772556550063792000,0.468792236328125,-0.09458324053585529,0.07014759519845247,-0.2763281933046877
1772556550073776000,0.478776123046875,0.02108896525800228,-0.1442477274149656,-0.3032997868604958
1772556550083760400,0.488760498046875,0.3800555481523275,-0.20324849017709493,-0.2587592919316143
1772556550093744400,0.498744384765625,0.678586074784398,-0.13769611381441355,-0.16399163473956285
1772556550103728400,0.508728271484375,1.058506598380208,-0.12390636565387249,-0.23228417665585874
1772556550113712400,0.51871240234375,1.3984662829875945,-0.017201310169696806,-0.22498225614465772
1772556550123696400,0.5286962890625,1.6614830131679772,0.04983692083656788,-0.27318967608325184
1772556550133680400,0.538680419921875,1.8327391590178013,0.10089490790069103,-0.34208054921887815
1772556550143664400,0.548664306640625,1.9729092617303132,0.08988631489127874,-0.3981012001916766
1772556550153648000,0.558648193359375,2.029357709661126,0.03469254319667816,-0.3987885248687118
1772556550163632000,0.568632080078125,1.9663141012489795,-0.013933248284459113,-0.4829221945174038
1772556550173616000,0.5786162109375,1.738563914760947,-0.11635434283912181,-0.6641763680946081
1772556550183600000,0.58860009765625,1.676966413503885,-0.23811025246083736,-0.48993075810521836
1772556550193584000,0.598584228515625,1.568445833030343,-0.2882023171022534,-0.5618530348259956
1772556550203568000,0.608568115234375,1.3294307406842707,-0.4181877104088664,-0.5894403491273522
1772556550213552000,0.61855224609375,1.3429641759961843,-0.548440522480011,-0.5261197504047304
1772556550223536000,0.6285361328125,1.236631460955739,-0.6566016219913959,-0.5382958528235554
1772556550233520400,0.638520263671875,1.1178495987087487,-0.7894862438708543,-0.4754524431586265
1772556550243504400,0.64850439453125,0.9636164838522672,-0.7788736644417047,-0.4117524166643619
1772556550253488400,0.65848828125,0.9093728524893522,-0.7261752166941762,-0.5693917597677558
1772556550263473200,0.66847314453125,1.1035223826706408,-0.8041989520952105,-0.5355187162604182
1772556550273457400,0.67845751953125,1.0868968265622854,-0.8445496671840548,-0.29591592368688435
1772556550283444200,0.6884443359375,1.1399860271930693,-0.8264823878347873,-0.07511460648868233
1772556550293428200,0.69842822265625,1.21773737539351,-0.7759890489161014,-0.01682495113797486
1772556550303412200,0.708412109375,1.1822393610328434,-0.7563467753350734,-0.13132005771016703
1772556550313396200,0.718396240234375,0.8947861087322234,-0.7629618095606565,-0.12961514435526914
1772556550323380200,0.728380126953125,0.5527881962954998,-0.7226479193508625,-0.1143433592097368
1772556550333364000,0.738364013671875,0.11387421646118163,-0.7973696905970573,-0.12478530391287058
1772556550343348000,0.748347900390625,-0.17293664628267288,-0.7421823486432433,-0.19741382920686154
1772556550353332000,0.75833203125,-0.545310992282629,-0.6686778442323208,-0.36139633079189803
1772556550363316000,0.76831591796875,-0.848407803916931,-0.5288724831789732,-0.588887866343744
1772556550373300000,0.778300048828125,-1.1161527316629887,-0.28284225137382746,-0.7708268438473344
1772556550383284000,0.788283935546875,-1.37456518291831,0.052988370604813095,-0.812640544160828
1772556550393268200,0.798268310546875,-1.6100433333098887,0.2008370451211929,-1.0555397113986313
1772556550403252200,0.808252197265625,-1.5836089153707027,0.16667583232223987,-0.9000143647745251
1772556550413236200,0.818236328125,-1.0826578738182782,-0.17404548430740832,-0.7699675236042588
1772556550423220200,0.82822021484375,-0.8070125482112169,-1.0105094601914286,-1.178358939402923
1772556550433204200,0.838204345703125,-0.8612450736582279,-1.495263107919693,-1.2782920895993708
1772556550443188200,0.848188232421875,-1.146723226493597,-1.3533105057045816,-1.0899686352230609
1772556550453172200,0.858172119140625,-1.5532622924238442,-1.6966861362352965,-1.030416302992776
1772556550463156200,0.86815625,-2.017378518053889,-1.8840818082422017,-0.5553519823689014
1772556550473140200,0.87814013671875,-2.873813561081886,-1.4664339037984608,-0.39814273777846243
1772556550483124000,0.8881240234375,-3.7941672417908903,-0.6883879223525524,0.22114055908992886
1772556550493108000,0.89810791015625,-4.373592100599408,0.49497868914455173,1.0008902757138014
1772556550503092000,0.908092041015625,-4.581251100695133,1.1570520205453036,1.474222804109007
1772556550513076000,0.918075927734375,-3.8426141695737837,1.3611480674624443,1.5748307117618618
1772556550523060000,0.92806005859375,-2.5259575702667236,1.5053297439038753,1.5829074891030788
1772556550533045000,0.938044921875,-1.350085406178236,1.6891709382995963,1.3850754710167645
1772556550543029000,0.948029052734375,-0.20077567032277582,1.909300128389895,0.920602760099247
1772556550553013000,0.958012939453125,0.43438101257979866,1.758793925102055,0.6360726287037134
1772556550562997000,0.9679970703125,0.653375061160326,1.4645307005256414,0.7026059789277612
1772556550572981000,0.97798095703125,0.7529939577758312,1.1905226207315922,0.941116994209215
1772556550582965200,0.98796533203125,0.9166033882647753,0.9291787921994924,1.1383009967155755
1772556550592949200,0.99794921875,1.0380892487734557,0.8256424298793077,1.0456834302295
1772556550602933200,1.007933349609375,1.060845270460844,0.6795885298252106,1.0183997019845992
1772556550612917200,1.017917236328125,1.079825280740857,0.5102542919486761,1.1008192611917853
1772556550622901200,1.0279013671875,1.1394839228898286,0.31689123596996066,1.1409757688827813
1772556550632885200,1.03788525390625,1.1088725115269422,0.2971720977604389,1.020912634653598
1772556550642869200,1.047869140625,1.3218833940446375,0.37991789324730635,1.0244877897266298
1772556550652853000,1.05785302734375,1.3353712366491555,0.5101829802781344,0.9582007424138486
1772556550662837000,1.0678369140625,1.3108335922420025,0.6562728284284473,0.7563556162286549
1772556550672821000,1.077821044921875,1.2737404176443814,0.7405176303014159,0.5656924668584019
1772556550682805000,1.087804931640625,1.2183026080608368,0.6869999751254916,0.5311322448045015
1772556550692789000,1.0977890625,1.0626607954502105,0.7519850729942321,0.3722371294863522
1772556550702773000,1.10777294921875,0.9804051215678453,0.8614882347643374,0.010535422539710997
1772556550712757000,1.117757080078125,1.0241916563242672,1.0504860812708734,-0.3484896125435829
1772556550722741200,1.1277412109375,0.8989619331121445,1.010159623840451,-0.677162690917775
1772556550732725200,1.137725341796875,0.8910410769850015,0.8391308570057153,-0.8576964412659406
1772556550742709200,1.147709228515625,0.9655582655698061,0.7365247612729668,-0.7868091336160897
1772556550752693200,1.157693359375,1.018222518786788,0.3399357192099094,-0.7986245860289782
1772556550762677200,1.16767724609375,1.1870628356665371,0.030354513992369173,-0.6375488387361169
1772556550772662300,1.177662353515625,1.4220786292433738,-0.1610018783390522,-0.25550650068074465
1772556550782646300,1.187646240234375,1.5843313844263553,-0.3075055679872632,0.12493074026554822
1772556550792630300,1.19763037109375,1.437878840443492,-0.45894992890805003,0.48825712580457326
1772556550802614300,1.2076142578125,0.9765180510014295,-0.6337678588926792,0.7161793078586459
1772556550812598300,1.217598388671875,0.41810792317092416,-0.7316609546288847,0.7335878310382365
1772556550822582000,1.22758203125,0.13920973324775696,-0.7343012400045991,0.6831243758011609
1772556550832566000,1.23756591796875,0.2240256130069494,-0.8047244372740388,0.7727747630447149
1772556550842550000,1.247550048828125,0.2331710424929857,-0.7449705180570483,0.8197706152364611
1772556550852534000,1.257533935546875,0.30386195078790185,-0.8142007061496377,0.6745270817171782
1772556550862518000,1.26751806640625,0.4149567656636238,-0.9289061127379536,0.2891895015086979
1772556550872502000,1.277501953125,0.5545172120451927,-1.1736156173333525,-0.3891375570133328
1772556550882486000,1.287486083984375,0.6874667158544063,-1.3887117816925048,-1.0482694281347096
1772556550892470000,1.297469970703125,0.9003419892936945,-1.448852069878578,-0.9882827230751514
1772556550902454000,1.3074541015625,0.7788666501790285,-1.2620517334163188,-0.2704134528355673
1772556550912438300,1.317438232421875,0.508577883169055,-1.1666887406796216,0.14005685159638523
1772556550922422300,1.32742236328125,0.5286550410360098,-0.9845327228918671,0.3685595369521528
1772556550932406300,1.33740625,0.599446487095952,-0.834202168431878,0.42408721677623684
1772556550942390300,1.347390380859375,0.5422849224597215,-0.6976531788259744,0.3710797030795365
1772556550952374300,1.357374267578125,0.28703531914949415,-0.6784981042400002,0.34591110382508483
1772556550962358300,1.367358154296875,-0.11102233416140078,-0.7069292489543557,0.3364210256198421
1772556550972342000,1.377342041015625,-0.4392290371328592,-0.6776470403686166,0.33863322177659716
1772556550982326000,1.387325927734375,-0.6344120020151138,-0.6451578524351119,0.34195794575251637
1772556550992310000,1.39731005859375,-0.705104663875699,-0.5382362315908074,0.25548184116352346
1772556551002295000,1.407294921875,-0.9077999040842055,-0.4677244792550802,0.2574697453114204
1772556551012279000,1.417279052734375,-1.0463532192498446,-0.6900164003372192,0.25149127369001506
1772556551022263000,1.427262939453125,-1.042217142358422,-1.2753671420633792,0.0854213896379806
1772556551032247000,1.4372470703125,-1.1678291428864,-1.5878800168186424,0.15690881860544903
1772556551042231000,1.44723095703125,-1.3757371493071318,-1.348867262560129,0.5301753459384665
1772556551052215000,1.457215087890625,-1.4243307920843362,-1.1287322272509335,0.6646554568484425
1772556551062199000,1.467198974609375,-1.5115531484633684,-1.1810180025443433,0.49859381090179083
1772556551072183000,1.47718310546875,-1.7992016310751437,-1.019960302364826,0.43265996094085274
1772556551082167000,1.4871669921875,-2.299259523180127,-0.513913691239059,0.7121863657649606
1772556551092151000,1.497151123046875,-2.7184675165474412,0.0663949646666646,0.8051413475118577
1772556551102135300,1.50713525390625,-3.067474430963397,0.5694809724211692,0.43027514816354956
1772556551112119300,1.517119384765625,-3.0914626247942447,0.918300839832425,-0.21652121045989914
1772556551122103300,1.527103271484375,-2.7738211549788714,1.166205048815906,-0.6357317063115536
1772556551132087300,1.53708740234375,-2.0820243009656667,1.500219853544235,-0.7028957556545734
1772556551142071000,1.547071044921875,-1.2713128982365132,1.8047411450237034,-0.865019623760879
1772556551152055000,1.557054931640625,-0.5858335568070412,1.8324661872953176,-0.9300044293686747
1772556551162039000,1.5670390625,-0.19177870939671993,1.7477148972049354,-1.1183129784367978
1772556551172023000,1.57702294921875,0.17768413307070732,1.7843971529141067,-1.064149134311825
1772556551182007000,1.587007080078125,0.5942074173986911,1.7303174799412488,-0.9850437411539256
1772556551191991000,1.596990966796875,0.9743991591513156,1.574199281990528,-0.8155980057269334
1772556551201976000,1.60697607421875,1.0631798508882522,1.440364519779384,-0.5164859163472428
1772556551211960000,1.6169599609375,1.2918109118640422,1.2621236296087504,-0.3707364060672
1772556551221944000,1.626944091796875,1.2133926241874695,1.0401321527779102,-0.40793059335388243
1772556551231928000,1.636927978515625,0.7493553090125322,0.8877344366550445,-0.11289119677320122
1772556551241912000,1.646912109375,0.6897492738336324,0.6670689477309584,-0.09916161783467978
1772556551251896000,1.65689599609375,0.6636164691895247,0.5716898806422949,-0.09320183264743537
1772556551261880000,1.666880126953125,0.49384267085194583,0.3844190040588379,0.03558233164325356
1772556551271864000,1.676864013671875,0.49090194122493264,0.2242328260168433,0.1103837074643001
1772556551281845000,1.686844970703125,0.623999329072237,0.06266250014007091,0.1259506578978151
1772556551291829000,1.6968291015625,0.7389630943357944,-0.027186113089323043,0.2600899012145586
1772556551301813200,1.706813232421875,1.047969422274828,0.0838560948163271,0.14806443615891038
1772556551311797200,1.71679736328125,1.2623726359337568,0.1348173435077071,-0.033900461237225676
1772556551321781200,1.72678125,1.299877313941717,0.1538967225089669,-0.2063523744765669
1772556551331765200,1.73676513671875,1.5572773732841014,0.29630086788386106,-0.41267669190242884
1772556551341749200,1.746749267578125,1.6130337472975254,0.3227528214797377,-0.45344387883767484
1772556551351733200,1.756733154296875,1.3241782269835471,0.22207915511429308,-0.28900786133147777
1772556551361717200,1.76671728515625,1.2226760008394717,0.06746668555140495,-0.26816253210362045
1772556551371701200,1.776701171875,1.2381266679495573,-0.04198065437823534,-0.25275117409061637
1772556551381685000,1.78668505859375,1.153812307971716,-0.1925461866378784,-0.2682592704763636
1772556551391670300,1.796670166015625,1.0850637659162283,-0.2776364994242787,-0.32587774856723845
1772556551401654300,1.806654296875,1.0472551365256308,-0.34247020612359047,-0.46341319192722435
1772556551411638000,1.816637939453125,1.0140788431107997,-0.3705895084097981,-0.5007609258078038
1772556551421622000,1.8266220703125,0.9032990855336189,-0.45588644968420267,-0.46138106504511084
1772556551431606000,1.83660595703125,1.0820172378271817,-0.6303834771513939,-0.6257404736511409
1772556551441590000,1.846590087890625,1.8275871830821036,-0.41729923713654277,-0.4392877085175365
1772556551451574000,1.856573974609375,0.7101818210095167,-0.8441209203779697,-0.1689795061547309
1772556551461558000,1.86655810546875,0.2284615496277809,-0.9982491135552525,-0.30390315958112474
1772556551471542000,1.8765419921875,0.42587680360674857,-1.1784314931824802,-0.545559487150982
1772556551481526000,1.886526123046875,0.9857517432928085,-1.2200991360887885,-0.44748708932511505
1772556551491510300,1.89651025390625,0.9638315879076719,-1.2343950802057981,-0.32609621362350877
1772556551501494300,1.906494384765625,0.6405857222139835,-1.206498773020506,-0.5423150984022767
1772556551511478300,1.916478271484375,0.45043490628004074,-1.3063038398578761,-0.5288037287916988
1772556551521462300,1.926462158203125,0.2806266211509704,-1.3737404225319623,-0.4089952999759465
1772556551531446300,1.9364462890625,0.09282382964789866,-1.3388909352079033,-0.54088908418715
1772556551541430300,1.94643017578125,-0.10668109008669853,-1.2323559755936264,-0.6926212490733713
1772556551551414000,1.9564140625,-0.4132347641766071,-1.0539420669436455,-0.7996738758862018
1772556551561398000,1.96639794921875,-0.8259118944704532,-0.7678890368297696,-0.8761465824529528
1772556551571383300,1.97638330078125,-1.3106658344596624,-0.4323191116139292,-0.9468925088707357
1772556551581367000,1.986366943359375,-1.7137737568974494,-0.021605974869430063,-0.8841548976678401
1772556551591351000,1.99635107421875,-1.956350341117382,0.381024393184483,-0.7349865188550203
1772556551601335000,2.0063349609375,-2.001499980920553,0.6948167863562703,-0.5762574808187783
1772556551611319000,2.016319091796875,-1.8072843997657297,0.7591828755438327,-0.38530857330970464
1772556551621303000,2.026302978515625,-1.4395043958187101,0.36321430346667766,-0.36688619691245256
1772556551631287000,2.036287109375,-0.8243897994697094,-0.5066928000748158,-0.6781407421696931
1772556551641271000,2.04627099609375,-0.7232271805435418,-1.1020689689919352,-0.7971306942094117
1772556551651255000,2.056255126953125,-1.2717302468657492,-1.4087442236348986,-0.6988217842139304
1772556551661239000,2.066239013671875,-1.729088230407238,-1.8813298791855573,-0.7201876667171716
1772556551671223000,2.07622314453125,-2.2364672591805457,-2.046625947587192,-0.6160362412385643
1772556551681207300,2.086207275390625,-2.700405790156126,-1.8297142582386732,-0.43041744271107013
1772556551691191300,2.09619140625,-2.8168764528512953,-1.4389946927309036,-0.23396219287067652
1772556551701175300,2.10617529296875,-2.8086230037689206,-0.7681897733420133,0.09069529318660498
1772556551711159300,2.1161591796875,-2.6414737087160347,0.027009002956748008,0.46177463093996046
1772556551721143000,2.12614306640625,-2.314746430647373,0.711766459852457,0.7078703291967511
1772556551731128300,2.13612841796875,-1.8559113602906465,1.3161828443154693,0.7794402122832834
1772556551741112300,2.1461123046875,-1.1382371376991272,1.972018158109486,1.0470298033371568
1772556551751096000,2.156095947265625,-0.35771278344094753,2.515634036912024,1.3185495734468102
1772556551761080000,2.166080078125,0.2041536223232746,2.775932155783474,1.4417023442544041
1772556551771064000,2.17606396484375,0.47650282899439333,2.642017606334388,1.545442850844562
1772556551781048000,2.186048095703125,0.44008185456991195,2.2606907230719924,1.7259541701652108
1772556551791032000,2.196031982421875,0.5486673169732094,1.770239448224008,1.8219328105822203
1772556551801016000,2.20601611328125,0.7030664360463619,1.3435071968317032,1.8866744550839065
1772556551811000000,2.216,0.694645813703537,0.9693740244656801,1.879863459894806
1772556551820984000,2.225984130859375,0.674611910456419,0.5691317205920815,1.7962587094910443
1772556551830968000,2.235968017578125,0.7022779160171747,0.2531879946053028,1.6885510528355836
1772556551840952000,2.2459521484375,0.691760613656044,0.10827011284381151,1.5722063546076417
1772556551850936000,2.25593603515625,0.6607172406166791,0.12019172904491424,1.395743726155907
1772556551860920000,2.265920166015625,0.6311836876183747,0.2003150670737028,1.1124198287449776
1772556551870904300,2.275904296875,0.6767091749966144,0.2860223427146673,0.8585223706960677
1772556551880888300,2.285888427734375,0.7246048986375332,0.35671646587997674,0.6265778012581169
1772556551890873000,2.295873046875,0.8377817804843187,0.40658319733291864,0.4397225197382271
1772556551900857000,2.305857177734375,0.9666261870622634,0.489953846719861,0.2899764871679246
1772556551910841300,2.31584130859375,1.1105676250070333,0.5133078343003988,0.15378434817567466
1772556551920825300,2.325825439453125,1.2625386401504277,0.4993476980090141,0.027021424046903848
1772556551930809000,2.33580908203125,1.3080442537844181,0.4770142856478691,-0.012299947994202375
1772556551940793000,2.34579296875,1.2776713273525238,0.3540627365007996,-0.043363487038761375
1772556551950777000,2.355777099609375,1.2457950106203555,0.16311141783893107,-0.0011800035648047923
1772556551960761000,2.365760986328125,1.257967094451189,-0.05659983910024166,0.049332624576240776
1772556551970745000,2.3757451171875,1.2338807009428738,-0.2369596211209893,0.12479717701375484
1772556551980729000,2.38572900390625,1.2427215945243835,-0.3957409008011222,0.21309403075650332
1772556551990713000,2.395713134765625,1.2484610149592161,-0.49590106468647716,0.295868321685493
1772556552000697000,2.405697021484375,1.2279922274261712,-0.5654489404261112,0.3898020122714341
1772556552010681000,2.41568115234375,1.203199146953225,-0.6149141053408383,0.49178427701741456
1772556552020665000,2.4256650390625,1.1026432617485522,-0.6374117683529853,0.5684887465134263
1772556552030649000,2.435649169921875,0.9405489119976759,-0.668724021461606,0.5917023027099668
1772556552040633000,2.445633056640625,0.808179838424921,-0.674706895263493,0.5945949554115534
1772556552050618000,2.4556181640625,0.7302578098326921,-0.6389855935409665,0.5401986177049577
1772556552060602000,2.46560205078125,0.7248579966157674,-0.5758432009294628,0.47000046136304735
1772556552070586000,2.475586181640625,0.7410568517446517,-0.5277499088898301,0.3852347043558955
1772556552080570000,2.485570068359375,0.8380547522068024,-0.5078633051589131,0.33994463316872714
1772556552090554000,2.49555419921875,0.9293062179714441,-0.49725131025165314,0.3839354583255946
1772556552100538000,2.5055380859375,0.8886217408835887,-0.5193135044559836,0.48488516515344376
1772556552110522000,2.515522216796875,0.7290858434438705,-0.5288239678621292,0.595107727239281
1772556552120506000,2.525506103515625,0.5128408013105392,-0.5243506218403577,0.65618851114586
1772556552130490000,2.535489990234375,0.24598259327113628,-0.5145283160060644,0.698055037625134
1772556552140474000,2.54547412109375,-0.029251228925585744,-0.4922518945291638,0.7008620578698813
1772556552150458000,2.5554580078125,-0.2865150946676731,-0.46586891451627016,0.6236654209427536
1772556552160442000,2.565442138671875,-0.5976309621065855,-0.4789592822358012,0.5615875888228417
1772556552170426000,2.575426025390625,-0.843415402457118,-0.5566957251280545,0.511631863912195
1772556552180410000,2.58541015625,-0.911314634206891,-0.599189005203545,0.4653678331263363
1772556552190395100,2.59539501953125,-0.9508990410983562,-0.6187970842540264,0.4556276526175439
1772556552200379100,2.605379150390625,-1.0414128402382135,-0.6743795630052686,0.41155207178667186
1772556552210363100,2.615363037109375,-1.1012959387928247,-0.877535698723793,0.34422274887934323
1772556552220347100,2.62534716796875,-0.9851327346116304,-1.5424349012002347,0.26141090241894127
1772556552230331100,2.6353310546875,-1.007687096247077,-2.121122093383968,0.33042379449903964
1772556552240315100,2.645315185546875,-1.5132985308259725,-1.866222034163773,0.6614315263658762
1772556552250299100,2.655299072265625,-1.892844960412383,-1.6308444215372204,0.731939333178848
1772556552260283100,2.665283203125,-2.0332289981365204,-1.947556501547992,0.3258297447070479
1772556552270267100,2.67526708984375,-2.438627661859989,-2.0081369347169993,-0.10686404543817042
1772556552280251100,2.685251220703125,-3.1441806540250776,-1.1943880639880895,-0.2651997733078897
1772556552290234600,2.695234619140625,-3.7943852684557435,-0.24778584330081938,-0.42644291305691
1772556552300218600,2.705218505859375,-4.054314554014802,0.36748832752406596,-0.8452280048370361
1772556552310202600,2.71520263671875,-3.9001533353507516,0.6874462575882673,-1.4050669964268803
1772556552320186600,2.7251865234375,-3.4616683945834636,0.8326330194190144,-1.9730729278594255
1772556552330171600,2.735171630859375,-2.7802345291525126,1.2962415877878666,-2.1974179820790884
1772556552340155600,2.74515576171875,-1.6268120972812175,1.8644860041514038,-2.001775875252485
1772556552350139600,2.7551396484375,-0.1292079791933298,2.21413501586318,-1.8131442317098379
1772556552360123600,2.76512353515625,0.8094318843126297,2.4713567960292098,-1.5805229320541023
1772556552370107600,2.775107666015625,1.1741495780795812,2.5787463266462085,-1.386913792359829
1772556552380091600,2.785091552734375,1.271792206186056,2.47257815451771,-1.2097436001606285
1772556552390075600,2.79507568359375,1.3422773627758025,2.1843872355923057,-1.0155158901765942
1772556552400059600,2.8050595703125,1.389511407637596,1.794042348615825,-0.7665200865641236
1772556552410043600,2.815043701171875,1.3623808241277933,1.3265239133268594,-0.5154851783394814
1772556552420027600,2.825027587890625,1.2444704840183258,0.9282929492756724,-0.29874197742566466
1772556552430011400,2.835011474609375,1.1595055511772632,0.6229033505290746,-0.12385317416191101
1772556552439995600,2.84499560546875,1.1290262417614458,0.4204351970747113,-0.014798048420250415
1772556552449979600,2.854979736328125,1.165925355091691,0.2676847219914198,0.027290304116159677
1772556552459964400,2.86496435546875,1.0486100582659243,0.10631810199320316,0.012813158213347196
1772556552469948400,2.874948486328125,0.6833581114917994,-0.04913900170028209,-0.01776990383788943
1772556552479932700,2.8849326171875,0.352297772654891,-0.1278340604916215,0.03770589966848492
1772556552489916700,2.894916748046875,0.35138942563831804,-0.06742459997534751,0.14771101961135863
1772556552499900700,2.904900634765625,0.459170001399517,0.02750029360502958,0.14533844526112077
1772556552509884700,2.914884765625,0.6892997765004635,0.16290011317580938,0.09977101843729615
1772556552519868700,2.92486865234375,0.8919926786214113,0.3309118702769279,0.028005905039608477
1772556552529852700,2.934852783203125,0.9352660031586885,0.4643365903824567,-0.09652867551520466
1772556552539836700,2.944836669921875,1.066803886604309,0.49113107380568977,-0.1910318365521729
1772556552549820700,2.954820556640625,1.3144775017023085,0.44136049620360135,-0.20509119543433188
1772556552559804700,2.9648046875,1.4926526331603527,0.37046149811595674,-0.2413360826395452
1772556552569788700,2.97478857421875,1.5417840360760688,0.2538558108642697,-0.24711072051823138
1772556552579772700,2.984772705078125,1.4893839867532253,0.030490707592666148,-0.28235037620365616
1772556552589756700,2.994756591796875,1.3470944076687097,-0.19272943425029515,-0.3328894539602101
1772556552599741700,3.00474169921875,1.3708978925824165,-0.33743045839071273,-0.33217604499384756
1772556552609725700,3.0147255859375,1.3205600364863872,-0.4542302069097757,-0.3810366681441664
1772556552619709700,3.024709716796875,1.2655728932797907,-0.5179650124564766,-0.43226738142669197
1772556552629693400,3.034693359375,1.2474445313930511,-0.5600935508728027,-0.4531526408061385
1772556552639677400,3.044677490234375,1.2342319985985755,-0.5531035458549857,-0.4015259139433503
1772556552649661400,3.054661376953125,1.2021703884273767,-0.56909723380059,-0.3472070253871381
1772556552659645400,3.0646455078125,1.1667232274711132,-0.5979857668936253,-0.33539179216995835
1772556552669629700,3.074629638671875,1.261810910397768,-0.6364569518461823,-0.3351780032888055
1772556552679613700,3.08461376953125,1.3245903149157763,-0.6807987823978066,-0.30672830000445245
1772556552689597700,3.09459765625,1.2803648042201996,-0.7058540209382772,-0.25252485452145335
1772556552699581700,3.104581787109375,1.110189439344406,-0.7565294384256005,-0.1896500268049538
1772556552709565700,3.114565673828125,0.9235288036137819,-0.7715238862007856,-0.14831877624616027
1772556552719550700,3.12455078125,0.7084323469936847,-0.7662365934476256,-0.14408449967727063
1772556552729534700,3.13453466796875,0.4461731571823358,-0.7518041634693742,-0.20502631350457667
1772556552739518700,3.144518798828125,0.1308680213600397,-0.8134770680502057,-0.28277926914021373
1772556552749502700,3.154502685546875,-0.19307517894804477,-0.8752849971875548,-0.2961297491006553
1772556552759486700,3.16448681640625,-0.5268354243934155,-0.8210872507929802,-0.36623613550588485
1772556552769470700,3.174470703125,-0.9841904853254556,-0.6181500185221434,-0.4907436819233
1772556552779454700,3.184454833984375,-1.4565876325666904,-0.2991229395672679,-0.6069644615106284
1772556552789438700,3.194438720703125,-1.795551291874051,-0.015921207231283187,-0.7728701862432062
1772556552799422700,3.204422607421875,-1.8843530263990163,0.19443799173384904,-0.9168598472438753
1772556552809406500,3.214406494140625,-1.6567565691679715,0.2561173260554671,-0.9579692717455327
1772556552819390500,3.224390380859375,-1.1197668305069208,0.11931816108077764,-0.9686807815045118
1772556552829374500,3.23437451171875,-0.38381051677167416,-0.44716246048063035,-1.1710152255766093
1772556552839359500,3.244359375,0.41395197253525257,-1.4797916902825234,-1.4893671817488967
1772556552849343500,3.254343505859375,0.5976788929015397,-2.236708666720986,-1.5706236154608428
1772556552859327500,3.264327392578125,0.11457447368502616,-2.5412705824717876,-1.4291624500244855
1772556552869311500,3.2743115234375,-0.5409399375915527,-2.7186966491281983,-1.2358150300063193
1772556552879295500,3.28429541015625,-1.2828671424299478,-2.766756915681064,-1.0714550734110175
1772556552889279500,3.294279541015625,-1.9985171657174825,-2.5156498190030456,-0.9155940650917589
1772556552899263700,3.304263671875,-2.5996324628084895,-1.8622320877447722,-0.7976176740087568
1772556552909247700,3.314247802734375,-2.9114637850403784,-0.8353402325510978,-0.5423759617440402
1772556552919231700,3.324231689453125,-2.935021186238527,0.31764030077159405,-0.23099019132256507
1772556552929215700,3.3342158203125,-2.80118320915699,1.2913628758355975,0.022807459613680837
1772556552939199700,3.34419970703125,-2.3248715188205242,2.0638056304469705,0.24492314734607934
1772556552949183700,3.354183837890625,-1.5313257704257963,2.5879332571864126,0.40669674070999023
1772556552959168800,3.364168701171875,-0.6184288354635238,2.8609461884632705,0.5576251149326562
1772556552969152800,3.37415283203125,0.07640344072282314,2.9723323875010013,0.7297578974865376
1772556552979136800,3.38413671875,0.3904261355191469,2.875423042105138,0.9669928284175694
1772556552989120800,3.394120849609375,0.5067191035598516,2.5049802486896513,1.202081102708727
1772556552999104800,3.404104736328125,0.539128504255414,2.079542421022057,1.3756465484142302
1772556553009088500,3.414088623046875,0.529973137897253,1.6224010028406977,1.4106468423858285
1772556553019072500,3.424072509765625,0.48569969640672206,1.1863853747963904,1.4543537360347807
1772556553029056500,3.434056396484375,0.40272856773138044,0.7941907682999968,1.5325897990122437
1772556553039040500,3.44404052734375,0.26267420035302635,0.44011692588329315,1.5463621576465665
1772556553049024500,3.4540244140625,0.15428221469521522,0.22053192567229268,1.5794067875057458
1772556553059008500,3.464008544921875,0.14391630350351334,0.1969064276739955,1.574081793090701
1772556553068993500,3.47399365234375,0.12245792041122913,0.28139146804362536,1.4062006766319275
1772556553078977500,3.4839775390625,0.1728477989554405,0.36190497443377967,1.1476154991582035
1772556553088961500,3.49396142578125,0.3403863855868578,0.4158554680690169,0.8946671585276722
1772556553098945500,3.503945556640625,0.5562707777142525,0.5221361606612801,0.6522888733588159
1772556553108929500,3.513929443359375,0.7973644299000501,0.6364885160282254,0.3956625748679042
1772556553118913500,3.52391357421875,1.028235378757119,0.7144646128952503,0.13025602694153784
1772556553128897800,3.533897705078125,1.1352291880548,0.7048749467730522,-0.019163988544791937
1772556553138881800,3.5438818359375,1.0173410597771406,0.602059299942851,-0.010370587366819381
1772556553148865800,3.55386572265625,0.9790928699254989,0.3501356261849403,-0.057141106370091434
1772556553158849800,3.563849853515625,1.0061007038384675,0.028599779279530047,-0.11778656759932636
1772556553168833800,3.573833740234375,1.054863857963681,-0.24045944593548774,-0.09255158857777714
1772556553178817500,3.583817626953125,1.284752225524187,-0.4149287086129188,-0.10530804816782474
1772556553188802800,3.593802734375,1.564736457118392,-0.5168120430290699,-0.13602204312235117
1772556553198786800,3.603786865234375,1.6181681875765324,-0.6194277833729982,-0.041081951972842215
1772556553208770600,3.6137705078125,1.4843652818083761,-0.6892845789313315,0.1371875797703862
1772556553218754600,3.623754638671875,1.3507944312304259,-0.7188648936808109,0.2985620908141136
1772556553228738600,3.633738525390625,1.2629425447762013,-0.7020563822209834,0.37799803110063074
1772556553238722600,3.64372265625,1.1354296790629625,-0.6714046388477086,0.421421431633085
1772556553248706600,3.65370654296875,0.9504968900382518,-0.6638099459350109,0.36954467553198334
1772556553258690600,3.663690673828125,0.985775124168396,-0.5735603506892919,0.30395649720355866
1772556553268674600,3.673674560546875,0.9293944807767868,-0.44192952826321125,0.20754355702251195
1772556553278658600,3.683658447265625,0.7397299870550632,-0.3871265094518661,0.12438625812530517
1772556553288642800,3.693642822265625,0.6059574764251708,-0.4074611492112279,0.0816978938691318
1772556553298627800,3.7036279296875,0.5526987644463778,-0.44715749204456806,0.0880754660770297
1772556553308611800,3.71361181640625,0.5532359400629997,-0.5128720732316374,0.07123217556476592
1772556553318595800,3.723595947265625,0.45873102546036243,-0.6089888069450855,0.1007610523879528
1772556553328579800,3.733579833984375,0.2104974383920431,-0.6553282410547137,0.1835100627452135
1772556553338563800,3.743563720703125,0.029525369691848755,-0.6365937299683689,0.18916253554895518
1772556553348547800,3.7535478515625,-0.12170797882676124,-0.6027919981315731,0.1658889197282493
1772556553358531800,3.76353173828125,-0.27938042048215866,-0.6041171092554927,0.12335866864323615
1772556553368516000,3.77351611328125,-0.3842442320138216,-0.6652487465664744,0.08828779365345835
1772556553378500000,3.7835,-0.4799579378843307,-0.7086901211470366,0.09682049806863069
1772556553388483800,3.79348388671875,-0.63283379291296,-0.7155462706521153,0.12069558691382408
1772556553398467800,3.8034677734375,-0.7462789703071117,-0.6583262538269162,0.14860504584163425
1772556553408452900,3.813452880859375,-0.8253893319010734,-0.6523451335906982,0.12710749978274105
1772556553418436900,3.823436767578125,-0.7928057436823844,-0.9507496957555412,0.03606251637563109
1772556553428420900,3.8334208984375,-0.6659609864890575,-1.518219328354299,0.0032991876758635044
1772556553438404900,3.84340478515625,-0.7120370934873819,-1.823447891320288,0.09982844771295785
1772556553448388900,3.853388916015625,-1.0198387218117713,-1.7398405105680226,0.32155703582391143
1772556553458372900,3.863372802734375,-1.4235095388293266,-1.6697873156547545,0.295668707460165
1772556553468356900,3.87335693359375,-1.9331249483525752,-1.6221707012161612,-0.05097995339184999
1772556553478340900,3.8833408203125,-2.536467273843288,-1.2295023397281766,-0.45198432767912744
1772556553488324900,3.893324951171875,-3.198782012784481,-0.42170156374871726,-0.6178998431533574
1772556553498308900,3.903308837890625,-3.653190498870611,0.31463030530065295,-0.7971111857913434
1772556553508294000,3.9132939453125,-3.578730008909106,0.7681538252457976,-1.1117466056585312
1772556553518278000,3.92327783203125,-3.0546418373972175,1.1209876044735312,-1.3847205200992523
1772556553528262000,3.933261962890625,-2.3008231192350386,1.5019506228595971,-1.4862313679412007
1772556553538246000,3.943245849609375,-1.5319617302417754,1.7849165006130934,-1.4817299648687243
1772556553548230000,3.95322998046875,-0.89721713527143,1.9445891761749983,-1.3841795450903474
1772556553558214000,3.9632138671875,-0.4838713119357824,2.0015315451025963,-1.240161680908501
1772556553568198000,3.973197998046875,-0.24987317096889017,1.9480311333224176,-1.0244321870818733
1772556553578182000,3.983181884765625,0.008186813586950302,1.771729394520819,-0.823841079545766
1772556553588164900,3.993164794921875,0.256197697815299,1.5275807386785745,-0.6441849157497287
1772556553598148900,4.00314892578125,0.5260644400209188,1.2985729533448815,-0.5077335412994027
1772556553608132900,4.0131328125,0.7901566904783248,1.0205673283472656,-0.4023592960275709
1772556553618118000,4.023117919921875,0.9786223298043012,0.6737710757181048,-0.31401568053364753
1772556553628102000,4.033101806640625,1.113553947341442,0.3665466627597809,-0.2251636771261692
1772556553638086000,4.0430859375,1.159448268032074,0.19420885915309188,-0.1528144802302122
1772556553648070000,4.05306982421875,1.2061129885733126,0.16423925282508134,-0.008026654589176178
1772556553658054000,4.063053955078125,1.1916273671030997,0.18404665383994578,0.15500658344700932
1772556553668038000,4.073037841796875,0.9839338802158832,0.21510785479694602,0.2182077205084264
1772556553678022000,4.08302197265625,0.7834884647607803,0.2739011122882366,0.28894918994680047
1772556553688006000,4.093005859375,0.6176753867477178,0.4385451465219259,0.45358577152639623
1772556553697990000,4.102989990234375,0.529581508231163,0.5997755729198455,0.5994029402151704
1772556553707974000,4.112973876953125,0.6376958459913731,0.6739186674952506,0.6066710315220057
1772556553717958000,4.1229580078125,0.8254320019990206,0.7431997089922427,0.626817309102416
1772556553727943000,4.13294287109375,1.0131728341817856,0.7812710809722543,0.6656088120505214
1772556553737927000,4.142927001953125,1.0925398008853195,0.6553785099372267,0.6879635594606399
1772556553747911000,4.152910888671875,1.1366524988561868,0.39471126549243923,0.6856934225715696
1772556553757895000,4.16289501953125,1.1881652439504862,0.11613923878371715,0.5515323510155081
1772556553767878700,4.172878662109375,1.2137900990724564,-0.15270195976644754,0.3237685743935406
1772556553777863000,4.18286279296875,1.2405915967583656,-0.37018911091536283,0.11297288370728492
1772556553787847000,4.192846923828125,1.309414957615733,-0.4812646365687251,-0.07167085924297571
1772556553797831000,4.202830810546875,1.3289683838695288,-0.5358718405470252,-0.153011610237509
1772556553807815000,4.21281494140625,1.3763918138235807,-0.6005147008493542,-0.2066534763149917
1772556553817799000,4.222798828125,1.4209136771172284,-0.6256453427135944,-0.2989326776921749
1772556553827784000,4.232783935546875,1.4521201317638157,-0.615942571605742,-0.344183147521317
1772556553837768000,4.242767822265625,1.4778221437752246,-0.5683700885698199,-0.3851641233377158
1772556553847752000,4.252751953125,1.4858277555763721,-0.4778627191707492,-0.3681049981176853
1772556553857736000,4.26273583984375,1.4952256985187529,-0.3813406195268035,-0.3028860914930701
1772556553867720000,4.272719970703125,1.5105881028234958,-0.34084143587797877,-0.2578049868814647
1772556553877704000,4.282703857421875,1.493640475153923,-0.3785661863774061,-0.23741379462927578
1772556553887688000,4.29268798828125,1.4891384875595568,-0.33016134417057036,-0.1743951745279133
1772556553897672000,4.302671875,1.4572417125612496,-0.2230170204862952,-0.1597691216737032
1772556553907656000,4.312656005859375,1.3209808922469615,-0.17251403695642947,-0.17359467179998755
1772556553917640000,4.322639892578125,1.1673141791015862,-0.16540245138555765,-0.20511852183267473
1772556553927625000,4.332625,1.0624071129500865,-0.14806436309367418,-0.28675372572913765
1772556553937609000,4.34260888671875,0.91493457826972,-0.1893462215527892,-0.4476481981709599
1772556553947593000,4.352593017578125,0.7052326741695404,-0.32712738330215213,-0.5764540263041854
1772556553957577000,4.362576904296875,0.4829781624883413,-0.4663730646461248,-0.6558391131862997
1772556553967560700,4.372560791015625,0.16005612192153928,-0.4748372338697314,-0.7872672526471316
1772556553977544700,4.382544677734375,-0.19898586429655551,-0.29474545513540507,-0.8462975337646901
1772556553987528700,4.39252880859375,-0.7111760927438735,-0.10769640460908413,-0.9568867372058332
1772556553997512700,4.4025126953125,-1.1283481963694095,0.040058161883056165,-1.0403267985671758
1772556554007497000,4.4124970703125,-1.203430617621541,0.0840431418210268,-1.0657216443255544
1772556554017481000,4.42248095703125,-0.953946738231182,-0.01591360844671726,-0.9565507832497357
1772556554027465700,4.4324658203125,-0.575833556318283,-0.4252256462216377,-0.8710150647833943
1772556554037449700,4.44244970703125,-0.05509001905918121,-1.6291557377979158,-0.9906747327782213
1772556554047433700,4.452433837890625,0.18748773420453071,-2.60591665764451,-0.9414175115257502
1772556554057418000,4.46241796875,-0.24493162291347978,-2.4957795818850395,-0.6493338229455053
1772556554067402000,4.472402099609375,-0.8365531154721975,-2.346628884859383,-0.5159823142066597
1772556554077386000,4.482385986328125,-1.5741373226702213,-2.3928449848502873,-0.5732546457409858
1772556554087370000,4.492369873046875,-2.432411271563172,-2.117124840441346,-0.619163287217915
1772556554097354000,4.50235400390625,-3.3172938259184357,-1.2919672714695334,-0.5116597748324274
1772556554107338000,4.512337890625,-4.061978220510483,-0.2591647309273481,-0.23316607405692338
1772556554117322000,4.522322021484375,-4.269507456746697,0.6933586965024471,0.03280892140716314
1772556554127307000,4.53230712890625,-3.866638603761792,1.4785513348326087,0.3217768160544336
1772556554137291000,4.542291015625,-2.8941712894558904,2.0231518407583238,0.5623895528554916
1772556554147275000,4.55227490234375,-1.7528215726941823,2.3150644105553626,0.7171605739809572
1772556554157259000,4.562259033203125,-0.6634592328011989,2.3899539395838976,0.8840206768289208
1772556554167242800,4.57224267578125,0.0837993961930275,2.1747861712932584,1.127920034085214
1772556554177226800,4.582226806640625,0.34688217734694476,1.6860110129639505,1.3592887033313512
1772556554187210800,4.592210693359375,0.35263971796035765,1.1364160597518085,1.4720444371566175
1772556554197194800,4.60219482421875,0.2613233702659607,0.6913163770198821,1.4143657167784869
1772556554207178800,4.6121787109375,0.14434534257054327,0.3746019589215517,1.3086844513840972
1772556554217162800,4.622162841796875,-0.050524903100728984,0.15312310778796673,1.2775798496767878
1772556554227147800,4.632147705078125,-0.3280424523204565,-0.015396598835289477,1.239611645810306
1772556554237131800,4.6421318359375,-0.4771422959417104,-0.11156272464841603,1.147206041574478
1772556554247115800,4.65211572265625,-0.469088168823719,-0.0488642764121294,1.0070517209529877
1772556554257099800,4.662099853515625,-0.2289940490692854,0.12698738053441047,0.8129914764903485
1772556554267083800,4.672083740234375,-0.015709025785326958,0.24333792398124932,0.5538447196111083
1772556554277067800,4.68206787109375,0.14768471612632272,0.3242863146573305,0.2725098040603101
1772556554287051500,4.692051513671875,0.3253226719677448,0.38170448440313337,-0.05725011970251798
1772556554297035500,4.702035400390625,0.4731242924720049,0.4589367771655321,-0.34994419526606796
1772556554307019500,4.71201953125,0.6148299341887236,0.5084630246177315,-0.6260435482509434
1772556554317003500,4.72200341796875,0.7703758852094411,0.47506081349253654,-0.8651594706229865
1772556554326988500,4.731988525390625,0.889559313994646,0.35564591403901574,-0.9732765848621725
1772556554336972500,4.74197265625,0.9462012386709451,0.210547999535501,-0.9201610807463526
1772556554346956500,4.75195654296875,1.0214677843183277,0.04983282918334007,-0.7754305382505059
1772556554356940500,4.7619404296875,1.1652525703966616,-0.043944647927582264,-0.5580040312476456
1772556554366924500,4.771924560546875,1.2523556843101977,-0.08528437405377626,-0.2586231713965535
1772556554376908500,4.781908447265625,1.340346102452278,-0.08970628214925527,0.03675575933679938
1772556554386892500,4.791892578125,1.4025450767338274,-0.07323854695111513,0.26847280362918974
1772556554396876500,4.80187646484375,1.4984388153463601,-0.021596037997305393,0.4046745872326195
1772556554406860500,4.811860595703125,1.6079402235507965,0.03478022148013115,0.44951720691323277
1772556554416844500,4.821844482421875,1.6523200480252502,0.0874152486026287,0.4833506490625441
1772556554426829600,4.83182958984375,1.622531058961153,0.12365443671941756,0.4417044873356819
1772556554436813600,4.8418134765625,1.5757307293415068,0.1779398613974452,0.4124915445938706
1772556554446797600,4.851797607421875,1.460015853449702,0.23304975420087576,0.359065951615572
1772556554456781300,4.86178125,1.3819564622133969,0.21995207995772362,0.24532895166799423
1772556554466765300,4.871765380859375,1.2879203341662884,0.12314181102216243,0.14840966940000652
1772556554476749300,4.881749267578125,1.2030226213425397,0.0034971944659948346,0.06076528821662068
1772556554486733300,4.8917333984375,1.1142898604005576,-0.09022738341391086,-0.0496028198197484
1772556554496717600,4.901717529296875,0.9680039051562547,-0.16607552834153175,-0.1450347861394286
1772556554506701600,4.91170166015625,0.8278414012283086,-0.29036212548464535,-0.21186507348343728
1772556554516686300,4.921686279296875,0.7592828287869692,-0.4732309677168727,-0.25921675337553024
1772556554526670300,4.93167041015625,0.6987526645004749,-0.6794000215157866,-0.2846415558807552
1772556554536654600,4.941654541015625,0.6215320621758699,-0.8414847266554832,-0.2577589557826519
1772556554546638600,4.951638671875,0.3751812201142311,-1.0269146515473724,-0.19875673171579836
1772556554556622600,4.96162255859375,-0.03383154245316982,-1.1793518228977917,-0.10089359272643923
1772556554566606600,4.971606689453125,-0.47703357487022874,-1.2267705766767263,-0.001218582009524107
1772556554576590600,4.981590576171875,-0.8172744145065546,-1.1920493919074535,0.02544789111986756
1772556554586574600,4.99157470703125,-1.0110101031899452,-1.2014955579057336,0.10437047505676746
1772556554596558600,5.00155859375,-1.0222107116401196,-1.5705927819311618,0.159127901160717
1772556554606542600,5.01154248046875,-1.0925064831376075,-2.2156635406047105,0.23886837735176086
1772556554616527600,5.021527587890625,-1.3859557609826325,-2.046737883529067,0.4830288697622716
1772556554626511600,5.03151171875,-1.7698960416138172,-1.450590730239451,0.5239797427013516
1772556554636495600,5.04149560546875,-2.0237597435235974,-1.38617524895221,0.35183176257833837
1772556554646479600,5.051479736328125,-2.4160411515206097,-1.379944245608151,0.045347792723774906
1772556554656463400,5.06146337890625,-2.9323440759837625,-0.834495013898611,-0.238500713083148
1772556554666447400,5.071447265625,-3.3264778338491916,-0.044404666654765605,-0.5387129091918468
1772556554676431400,5.081431396484375,-3.3348230528682468,0.5712243089571595,-0.8249037403412163
1772556554686415400,5.091415283203125,-2.9609950009286403,0.9481853982254862,-1.1073352189570664
1772556554696399400,5.1013994140625,-2.3522400027394292,1.100370056119561,-1.4273099540255962
1772556554706384400,5.11138427734375,-1.5968091732054948,1.2113143566086888,-1.5900151291511953
1772556554716368400,5.121368408203125,-0.7904781775176525,1.3435013516128063,-1.5711198745451866
1772556554726352400,5.131352294921875,-0.20665771409869194,1.5160659497126936,-1.358826346516609
1772556554736336400,5.14133642578125,0.032203064468503,1.6091133589833975,-1.0930519881911576
1772556554746320400,5.1513203125,0.13439093478918074,1.5835422798752783,-0.9283473098114132
1772556554756304400,5.161304443359375,0.17101064665615556,1.5466048803612589,-0.8162666987687349
1772556554766288600,5.17128857421875,0.2184627181828022,1.4687024332523344,-0.6655157269395887
1772556554776272600,5.181272705078125,0.34592999118864537,1.2833952579572796,-0.5015396550953388
1772556554786256600,5.191256591796875,0.507309470668435,1.074748708128929,-0.3392049207173288
1772556554796240600,5.20124072265625,0.6701333037376404,0.8804477867782116,-0.16388766290843484
1772556554806225700,5.2112255859375,0.7951058373183012,0.6854144594997167,-0.06527940464019776
1772556554816209700,5.221209716796875,0.8407797932565212,0.4805389526426792,-0.013777327070385217
1772556554826193700,5.231193603515625,0.7712076598584652,0.3181181474164128,0.052949353768676516
1772556554836177700,5.241177734375,0.7205126608878374,0.2108107421249151,0.1362213650867343
1772556554846161700,5.25116162109375,0.6736012721091509,0.10595686746537684,0.18591098640710113
1772556554856145400,5.2611455078125,0.6235854875743388,0.03508154251426458,0.24308628730773923
1772556554866129400,5.27112939453125,0.6838672300577163,-0.022006372363865375,0.3182423583179712
1772556554876113400,5.281113525390625,0.8880214369028806,-0.01661474245339632,0.3215548438668251
1772556554886097400,5.291097412109375,1.0735556989520787,0.05528349580466747,0.29319018851742146
1772556554896082400,5.30108251953125,1.1558452751040458,0.11583265705257653,0.2949789716303348
1772556554906066400,5.31106640625,1.20865448974967,0.1514697876229882,0.2980820522122085
1772556554916050400,5.321050537109375,1.284155428674817,0.13286211778670548,0.3399175990313291
1772556554926034400,5.331034423828125,1.2927005541801453,0.05688800839185714,0.3452404014892876
1772556554936018400,5.341018310546875,1.262275020778179,-0.0684925214678049,0.31842955145314333
1772556554946002400,5.35100244140625,1.2304103944838047,-0.19467033918499946,0.3085926325716078
1772556554955986400,5.360986328125,1.212912147194147,-0.300970905521512,0.275460470559448
1772556554965970400,5.370970458984375,1.1834101583778858,-0.40283991915136574,0.21192425632476805
1772556554975954400,5.380954345703125,1.1461042178124188,-0.5088140300124884,0.16566811658442018
1772556554985939500,5.390939453125,1.1442734952539204,-0.5962929915010928,0.08044204858914017
1772556554995923500,5.40092333984375,1.149946280193329,-0.6096098614528774,0.023885171847790477
1772556555005907500,5.410907470703125,1.1455226185321807,-0.6021946167603135,0.007484218275547027
1772556555015891500,5.420891357421875,1.128138353011012,-0.5600479581654072,0.07310746791735291
1772556555025875500,5.43087548828125,1.1550853966474532,-0.4977808870837092,0.17837854507565498
1772556555035859700,5.440859619140625,1.211248597896099,-0.5066638662412762,0.21006839932501314
1772556555045843700,5.45084375,1.2765817785501479,-0.5895525773301721,0.24267127676606176
1772556555055827700,5.46082763671875,1.2765765178531407,-0.6270476107269525,0.2824048828698695
1772556555065811500,5.4708115234375,1.2110866853326558,-0.5981301438003778,0.2931149313241243
1772556555075795500,5.48079541015625,1.1419009209036826,-0.6063455989599228,0.24835823636129498
1772556555085780500,5.490780517578125,0.9961638317137956,-0.651472734670341,0.1374427235752344
1772556555095764500,5.500764404296875,0.7747814266920089,-0.6919663653612137,0.004697656296938657
1772556555105748500,5.51074853515625,0.49536768846213813,-0.727896925920248,-0.1635949635721743
1772556555115732500,5.520732421875,0.03410334513187408,-0.7678557190820574,-0.2898100445598364
1772556555125716500,5.530716552734375,-0.2863525975823402,-0.6501487925902009,-0.4155627687327563
1772556555135700500,5.540700439453125,-0.6665870094329118,-0.39907238331139083,-0.7162703471429646
1772556555145684500,5.5506845703125,-1.0912941847383975,-0.10706132157593964,-0.9637815382208674
1772556555155668500,5.56066845703125,-1.3655401649415493,0.10625789623856544,-1.122964749765396
1772556555165652500,5.570652587890625,-1.4448586163282393,0.21591069561243056,-1.1388850071486085
1772556555175637500,5.580637451171875,-1.3612252243518828,0.09519231234490871,-1.0756554477103053
1772556555185621500,5.59062158203125,-1.0046744704276322,-0.549857988062501,-1.172014319616556
1772556555195605500,5.60060546875,-0.6585059943079948,-1.6608078903853893,-1.353667940840125
1772556555205589500,5.610589599609375,-0.7968588184654712,-2.3402526278257367,-1.276460197997093
1772556555215573500,5.620573486328125,-1.3379267663508654,-2.5829692050382493,-1.0027676138930022
1772556555225557500,5.6305576171875,-2.0894763705372807,-2.5739795506358143,-0.6938854968555271
1772556555235541500,5.64054150390625,-2.9679549030691383,-2.169740578341484,-0.3519170297089964
1772556555245525500,5.650525390625,-3.842299696797132,-1.377730368950963,0.0668439505431801
1772556555255509500,5.660509521484375,-4.398769796475768,-0.3995484763905406,0.5575863172922283
1772556555265494500,5.67049462890625,-4.4081648168087,0.5819815575540065,1.1068151406057178
1772556555275478500,5.680478515625,-3.840480080154538,1.4328291558384894,1.508985928323865
1772556555285462500,5.690462646484375,-2.890077298140526,1.9871847475811837,1.8166852653175591
1772556555295448000,5.700447998046875,-1.880188892456889,2.244937858144939,2.1340914650723337
1772556555305432000,5.71043212890625,-1.0045973135381936,2.19995129994899,2.3796285065330562
1772556555315416000,5.720416015625,-0.4074468284249306,1.9234578330799936,2.435037966804951
1772556555325400000,5.730400146484375,-0.15755319918990135,1.6107053043499588,2.3627809782370925
1772556555335383800,5.7403837890625,-0.011404022067785262,1.2137111886173486,2.2018011655993757
1772556555345367800,5.750367919921875,0.03369593337476253,0.7702882069259882,1.995760414355248
1772556555355353000,5.76035302734375,0.048904023900628084,0.3979764047682285,1.8074930740803479
1772556555365336800,5.7703369140625,0.20527473530769347,0.09775924022346734,1.6170668022058903
1772556555375320800,5.78032080078125,0.4400245714247226,-0.12414748093336819,1.4106480114296078
1772556555385304800,5.790304931640625,0.6285884104281664,-0.19178221652805805,1.2153661162175238
1772556555395288800,5.800288818359375,0.7635416552752256,-0.07343962248116731,1.1132956617314367
1772556555405273000,5.810273193359375,0.8696867387890815,0.09378858302682637,1.0326588212225585
1772556555415257000,5.820257080078125,1.0008113652586936,0.27104133894294496,0.8340275425173341
1772556555425241000,5.830240966796875,1.1214210274547338,0.42729982214719053,0.49445554205328224
1772556555435225000,5.84022509765625,1.2402753704160452,0.5738187093645334,0.10259221333786844
1772556555445209900,5.8502099609375,1.3238158234119415,0.7138692773506045,-0.25561302979514
1772556555455194000,5.860194091796875,1.339492115971446,0.7802715485408902,-0.5145213017433882
1772556555465178000,5.87017822265625,1.3434171804606914,0.7806123248025775,-0.6577232464324683
1772556555475162000,5.880162109375,1.26037123298347,0.7583107688844204,-0.7062941659212112
1772556555485146000,5.89014599609375,1.1508207249403,0.6484723838105797,-0.7063930231858044
1772556555495130000,5.900130126953125,1.0802373686730862,0.4968029819622636,-0.6207074479199945
1772556555505114000,5.910114013671875,1.1452969930827617,0.33619244102835655,-0.4720668193083256
1772556555515098000,5.92009814453125,1.3163234218299389,0.21879443435519932,-0.4059720796972513
1772556555525082000,5.93008203125,1.4430255556821823,0.17770108420550823,-0.45720147780552506
1772556555535067100,5.940067138671875,1.46941964161098,0.15195610983520746,-0.47595257470048963
1772556555545051100,5.950051025390625,1.3341069158017635,0.1282613459929824,-0.2873833288695663
1772556555555035100,5.96003515625,1.298124332794547,0.1483656841278076,-0.10467829889692365
1772556555565019000,5.970018798828125,1.0398819774091244,0.11905541849136352,0.1042040324486792
1772556555575003000,5.9800029296875,0.7915478525757789,0.0023328268617391584,0.2967029458787292
1772556555584987000,5.98998681640625,0.660613195720315,-0.08715046018660068,0.4495310893081128
1772556555594971000,5.999970947265625,0.683565616762638,-0.17422727061510085,0.4919359239151701
1772556555604955000,6.009954833984375,0.8583253868192434,-0.23954759178757667,0.5125711905889213
1772556555614940000,6.01993994140625,1.0264239454209805,-0.31978724967241284,0.5405077567193657
1772556555624924000,6.029923828125,1.0694868420779704,-0.3915285438030958,0.55908338744957
1772556555634908000,6.039907958984375,0.9879892930865287,-0.44146074170768257,0.5944478385584429
1772556555644892000,6.049891845703125,0.8860217875182628,-0.45072482913732526,0.5804228934025392
1772556555654876000,6.0598759765625,0.7268862875729799,-0.5472592037409544,0.5872887240514159
1772556555664860000,6.06985986328125,0.6411854416728019,-0.645071927717328,0.4969740642128512
1772556555674844000,6.079843994140625,0.4676794710695743,-0.6213935304880142,0.48459319646954535
1772556555684828200,6.089828125,0.29442250679135323,-0.6306804142713547,0.45491928515248
1772556555694812200,6.099812255859375,0.20973639089167118,-0.6794868230164051,0.4118978164844215
1772556555704797000,6.109796875,0.045694998726248735,-0.676421005704999,0.43228937406279144
1772556555714781000,6.119781005859375,-0.155625445997715,-0.7265805826246738,0.47729343138281255
1772556555724765200,6.12976513671875,-0.2552648008793592,-0.638749738958478,0.45320437099337574
1772556555734749200,6.139749267578125,-0.2780442034423351,-0.5303817186981439,0.451093150993064
1772556555744733200,6.149733154296875,-0.31141689621210095,-0.5224924267530441,0.4040476875059306
1772556555754717200,6.15971728515625,-0.47937166242897505,-0.7782476414978504,0.24540179770849643
1772556555764701000,6.169700927734375,-0.4263584496438503,-1.1162427480340003,0.21254479937590656
1772556555774685000,6.179684814453125,-0.6593202333003282,-1.3493266967654227,0.38968635000251234
1772556555784669000,6.1896689453125,-1.2269359963715076,-1.3685335015386342,0.7746862957544625
1772556555794654000,6.199654052734375,-1.7767969070434568,-1.2544763297259807,1.3166481237396597
1772556555804638000,6.209637939453125,-2.3084423620671033,-1.1547890440493822,1.1841984592113644
1772556555814622000,6.2196220703125,-2.640793909758329,-1.0820476329654454,0.8832344218220561
1772556555824606000,6.22960595703125,-2.793420758461952,-0.5888228017508983,0.8078786635212599
1772556555834590000,6.23958984375,-2.9125884051561353,0.16836977675855158,0.575427021344006
1772556555844574000,6.249573974609375,-2.8702000467598436,0.6919272023946046,0.0372210387609899
1772556555854558000,6.259557861328125,-2.849855762389302,0.9746697927862406,-0.6108703829079866
1772556555864542000,6.2695419921875,-2.7078502609431743,1.3424568109959363,-1.1787035881221293
1772556555874527000,6.27952685546875,-2.3769062419623137,1.736035273066163,-1.4697688934400677
1772556555884511000,6.289510986328125,-1.9872318015933035,1.9778139849066734,-1.5740581199541688
1772556555894495000,6.299494873046875,-1.539690863189101,2.114679785376787,-1.5307944400280713
1772556555904479000,6.30947900390625,-1.316910281807184,2.0391835226267574,-1.4072332345500587
1772556555914463000,6.319462890625,-0.9703004916608333,1.7172212670028209,-1.2727151662498712
1772556555924447000,6.329447021484375,-0.4828209261000156,1.3466893339991568,-1.1858213111728428
1772556555934431000,6.339430908203125,-0.09430267002880573,1.1806909625470638,-1.014033542664349
1772556555944415000,6.3494150390625,0.03028232553899288,1.0128612840145825,-0.9974068175122142
1772556555954399200,6.359399169921875,-0.12183072842359542,0.7745575548082589,-1.0374277161248027
1772556555964384000,6.369384033203125,-0.16760580664873123,0.4286240564882755,-0.6112815940573811
1772556555974368000,6.379367919921875,-0.2880933037698269,0.03986088574528694,-0.18186726397424935
1772556555984352000,6.38935205078125,-0.43153672906458374,-0.43991585035324093,0.047450025700032705
1772556555994336000,6.3993359375,-0.3826736216962337,-0.6368962200462818,0.20493571261167526
1772556556004320000,6.409320068359375,-0.3292442293256521,-0.6175175658375024,0.2020601571753621
1772556556014304000,6.419303955078125,-0.06396013873517513,-0.5808090066432953,0.1104816514134407
1772556556024288000,6.4292880859375,0.1828220804810524,-0.2285176637291908,-0.08853519254326819
1772556556034272000,6.43927197265625,0.24850948140025136,0.03583411444723606,-0.4215083792641759
1772556556044257000,6.449257080078125,0.39405660097599027,0.21714579036533832,-0.6914385420948267
1772556556054241000,6.459240966796875,0.4163350682795047,0.32513270235359665,-0.8654828573584556
1772556556064225000,6.46922509765625,0.4411626355439424,0.34586744734644886,-1.0372630270823835
1772556556074209000,6.479208984375,0.6071411332517862,0.325680399364233,-1.1792179673850536
1772556556084193000,6.489193115234375,0.6945861924707889,0.2645259656995535,-1.3378756206855178
1772556556094177000,6.499177001953125,0.5955687688797712,0.1136748944967985,-1.4341983983650803
1772556556104161000,6.5091611328125,0.6602315029263496,-0.033870120897889135,-1.4594687409609555
1772556556114145000,6.51914501953125,0.8037222744941711,-0.14035714971721172,-1.3969327898100017
1772556556124129000,6.52912890625,0.8742331500470638,-0.22532383612394333,-1.3044091121524573
1772556556134114000,6.539114013671875,0.9504577270716428,-0.22428864785730837,-1.318146837864816
1772556556144098000,6.54909814453125,0.9628133507758379,-0.2183276936262846,-1.4079346608176826
1772556556154082000,6.55908203125,0.9053636168479919,-0.254974293500185,-1.4991659605771301
1772556556164066000,6.569066162109375,0.8150561539351939,-0.23973989948928354,-1.5107938545286654
1772556556174050000,6.579050048828125,0.7562333780884742,-0.24929917047321795,-1.500843246139586
1772556556184034000,6.589033935546875,0.7889473146885633,-0.25386370190978047,-1.4839733598813414
1772556556194017800,6.599017822265625,0.831874602267146,-0.22679858485162258,-1.4572645089149474
1772556556204001800,6.609001708984375,0.8740963719248771,-0.17747662779986859,-1.449788473945856
1772556556213987000,6.618987060546875,0.8229764255404471,-0.09043839581608772,-1.5299217488467693
1772556556223970800,6.628970703125,0.8315694818407297,-0.0843652133822441,-1.5388216791391371
1772556556233954800,6.638954833984375,0.7851303867489099,-0.10947335115373134,-1.3946499395698309
1772556556243938800,6.648938720703125,0.5646598358750343,-0.09383096086382865,-1.2536229277670383
1772556556253922800,6.6589228515625,0.598586655396223,-0.1967553287655115,-1.123783664932847
1772556556263907000,6.668906982421875,0.5294441455870866,-0.26459610832631586,-0.8714525794178247
1772556556273891000,6.67889111328125,0.30730887637138365,-0.33974224246442314,-0.5937023904860019
1772556556283875000,6.688875,-0.08742752356231212,-0.3992465708345175,-0.23429507808685301
1772556556293859800,6.69885986328125,-0.5518535457938909,-0.4368769210487604,0.013060557103157042
1772556556303844000,6.708843994140625,-1.08187110735476,-0.41318975599110125,0.1551420463949442
1772556556313828000,6.718828125,-1.2717951287955045,-0.32081659272015095,0.21300036112368106
1772556556323812000,6.72881201171875,-1.3515169002860783,-0.2650999661952257,0.14323592002391813
1772556556333796000,6.738796142578125,-1.1596341459929942,-0.37005613218545913,-0.15019406859874723
1772556556343780000,6.748780029296875,-0.9106225602895021,-0.4909481184542179,-0.4328519033163786
1772556556353764000,6.75876416015625,-0.594352963349223,-0.6527899547487497,-0.8229018989995122
1772556556363748000,6.768748046875,-0.476413981667161,-0.8515566233366727,-1.0142615062013267
1772556556373732000,6.778732177734375,-0.4682137240767479,-1.1879390339791773,-0.5541723441302776
1772556556383717000,6.788717041015625,-1.0151479336470366,-1.6421289088785647,0.1522527546942234
1772556556393701000,6.798701171875,-1.2601257337898015,-2.113460472714901,1.0527411667212843
1772556556403685000,6.80868505859375,-1.394672151401639,-2.291910913982987,2.133954979211092
1772556556413669000,6.818669189453125,-1.8512363542169332,-2.3091256681561467,2.878884288474917
1772556556423652900,6.82865283203125,-2.2704630522847173,-2.1753139945596454,3.043937780292332
1772556556433636900,6.838636962890625,-2.3355811288833617,-1.6676935582458972,2.9252272297158837
1772556556443620900,6.848620849609375,-1.944818893277645,-1.0364280375629662,2.5741438012868163
1772556556453604900,6.85860498046875,-1.1984002222388983,-0.21031623660624027,2.0914055850341913
1772556556463590000,6.86858984375,-0.3549053248047829,0.5996557459324598,1.1686156170889734
1772556556473574000,6.878573974609375,0.2869505634754896,1.2885218071907758,0.3508949201196432
1772556556483558000,6.888557861328125,0.6352624813646077,1.7577800718843937,-0.23594050720632076
1772556556493542000,6.8985419921875,0.8753466642469168,1.9757190584540365,-0.5804892731696367
1772556556503526000,6.90852587890625,1.0642454342931509,2.0203116488963366,-0.6095686526596545
1772556556513510000,6.918510009765625,1.294468732896447,1.8860797040611503,-0.2627227156698704
1772556556523494000,6.928493896484375,1.5019137979805468,1.633674384266138,0.23276859917193649
1772556556533478100,6.93847802734375,1.512678353101015,1.3270914840817452,0.7871224373489618
1772556556543463000,6.948462890625,1.4027496593952178,0.9859832139611243,1.3330290574371815
1772556556553447000,6.958447021484375,1.1521253777980804,0.6422551167309284,1.8106258191481233
1772556556563431000,6.968430908203125,0.8715817587554454,0.40617549331486225,2.2027011831790206
1772556556573415200,6.978415283203125,0.6101420686334371,0.2960164979845285,2.2630329022839666
1772556556583399200,6.988399169921875,0.5222463430374861,0.18677461749911306,1.9768170828238127
1772556556593383200,6.998383056640625,0.6709738462150097,0.19586744001507758,1.5843515504315495
1772556556603367200,7.0083671875,0.888747997611761,0.3894745338827371,1.0235177025854587
1772556556613351200,7.01835107421875,1.0345265878558159,0.6352648194521665,0.4129349044471979
1772556556623335000,7.0283349609375,1.0402128167986868,0.8063362563848495,-0.20119974095374343
1772556556633320200,7.0383203125,1.0648936690688133,0.8582102360069751,-0.7480588394612073
1772556556643304200,7.04830419921875,1.0456325037598608,0.842024240359664,-1.0831558864682913
1772556556653288000,7.058287841796875,0.9103039958596228,0.7413812613934279,-1.136724687309563
1772556556663272000,7.06827197265625,0.6611188071548938,0.6304577114313841,-0.6916130218788981
1772556556673256000,7.078255859375,0.6512035623401403,0.4341372669517994,-0.16140169131159782
1772556556683240000,7.088239990234375,0.7267834117203951,0.31620237692296504,0.20657851138263938
1772556556693224000,7.098223876953125,0.8133616249769926,0.2995733136832714,0.3758227328881621
1772556556703209000,7.108208984375,0.9954530530959367,0.33421821834594007,0.27692659758925436
1772556556713193000,7.11819287109375,1.2015846974939106,0.3736138246670365,0.04186199643462896
1772556556723177000,7.128177001953125,1.3153911094158888,0.41923838850557804,-0.033525545243918896
1772556556733161000,7.138160888671875,1.4562901109248398,0.1800833031669259,-0.2592500711232424
1772556556743145000,7.14814501953125,1.4393921676158905,0.061949091173708434,-0.4230506402701139
1772556556753129000,7.15812890625,1.3447294321030379,-0.011413666678965092,-0.5216071683511138
1772556556763113000,7.168113037109375,1.2204530640929936,-0.2710191271111369,-0.6128831840351223
1772556556773097000,7.178096923828125,1.0068448002040387,-0.36137218273133037,-0.4970151634082198
1772556556783081000,7.1880810546875,1.034101055920124,-0.3996463838070631,-0.4323398621410131
1772556556793066000,7.19806591796875,1.0857008947759865,-0.4486541603431105,-0.3345958194866776
1772556556803050000,7.208050048828125,1.0859282737910747,-0.452228511698544,-0.23379501961022614
1772556556813034000,7.218033935546875,1.087617542052269,-0.4472746886834502,-0.12596096009612082
1772556556823018000,7.22801806640625,0.9719523505210876,-0.46840486273467535,0.037599662815034386
1772556556833002000,7.238001953125,0.7404080324470996,-0.39922961969971654,0.15776304254829882
1772556556842986000,7.247986083984375,0.47546822524964805,-0.33048604608029125,0.1881000208839774
1772556556852970000,7.257969970703125,0.20124562592208384,-0.2996227057829499,0.11563918030709028
1772556556862954000,7.2679541015625,-0.024778467425704002,-0.35876141571104525,-0.07556523633301257
1772556556872939000,7.27793896484375,-0.256900877648592,-0.41872284019887446,-0.2294862165004015
1772556556882923000,7.287923095703125,-0.5126251127332448,-0.4913263041168451,-0.3397904655203223
1772556556892907000,7.297906982421875,-0.7030383789956569,-0.6919745486676693,-0.3653817106336355
1772556556902891000,7.30789111328125,-0.8278454928815364,-0.8981959171757101,-0.19874124188572168
1772556556912875000,7.317875,-0.937844329214096,-1.1957196048527956,-0.011533201405405997
1772556556922859000,7.32785888671875,-0.8905635226011276,-1.7428914225712417,0.10473287862837315
1772556556932843000,7.337843017578125,-0.771946495527029,-2.4149556943714616,0.2504863344311714
1772556556942827000,7.347826904296875,-1.0267524467229843,-2.4539704846814274,0.9056862729310989
1772556556952812000,7.35781201171875,-1.252655544039607,-2.3181369498685003,1.5522545766860245
1772556556962796000,7.367796142578125,-1.461459622517228,-2.237684526015818,1.723125522610545
1772556556972780000,7.377780029296875,-1.8006863166749476,-2.05449039735198,1.54990392190665
1772556556982764000,7.387763916015625,-2.0476316174983977,-1.6687734624370931,1.1822323467701672
1772556556992748000,7.397748046875,-2.2238450934946536,-0.9109364485442638,0.9807888601884245
1772556557002732000,7.40773193359375,-2.258698964732885,-0.1794704319655895,0.7616133175611496
1772556557012716000,7.417716064453125,-2.2113836713284254,0.3566217733338475,0.26112463282346726
1772556557022700000,7.427699951171875,-2.0983879912674426,0.7971610162824392,-0.4076280302107334
1772556557032685000,7.43768505859375,-1.7737965561836957,1.1154577351361512,-1.1313874179348349
1772556557042669000,7.4476689453125,-1.5436650275170802,1.568870780444145,-1.5452727549746632
1772556557052653000,7.457653076171875,-1.3577081561416386,2.047671949508786,-1.5863862711295484
1772556557062637000,7.467636962890625,-1.0738310087621212,2.2282944741189477,-1.4581301858335733
1772556557072621000,7.47762109375,-0.7431079390555619,2.170537281677127,-1.1111123994082213
1772556557082604800,7.487604736328125,-0.4341372669517994,2.0049048209279774,-0.7231850949674844
1772556557092588800,7.4975888671875,-0.11954174070358276,1.8611913465201853,-0.4032295029908418
1772556557102572800,7.50757275390625,0.029541736304759977,1.7492969056993721,-0.19976123258322476
1772556557112557800,7.517557861328125,0.15062076957821846,1.544900122269988,0.021257307562232017
1772556557122541800,7.527541748046875,0.35299160013794895,1.2310709042191506,0.21481354802548885
1772556557132525800,7.53752587890625,0.4343944565832615,0.8849906909048557,0.19036270511895417
1772556557142509800,7.547509765625,0.5293862779200077,0.5514835434377193,0.15746961255967615
1772556557152494000,7.557494140625,0.6000771862149238,0.2693675605118275,0.04900836105793714
1772556557162478000,7.56747802734375,0.7516045492440462,0.10053951859176158,-0.04751695345640182
1772556557172462000,7.577462158203125,0.8631406781464814,0.012203063490986822,-0.1104161849617958
1772556557182446000,7.587446044921875,1.0056155506700277,-0.040673955693840975,-0.25851035867184396
1772556557192430800,7.597430908203125,1.069905359750986,-0.023223639199137686,-0.3458899514392018
1772556557202415000,7.6074150390625,1.0422259101867675,0.05033639479130506,-0.43479543859958647
1772556557212399000,7.617399169921875,1.0774801789194346,0.10755027413666247,-0.6022723581716418
1772556557222383000,7.627383056640625,0.9736275902569294,0.17152531818002462,-0.8172963340774178
1772556557232367000,7.6373671875,0.8672142111957073,0.2527504799708724,-0.9743646723598242
1772556557242351000,7.64735107421875,0.910229177057743,0.3982087522193789,-1.0261147333413363
1772556557252335000,7.657335205078125,0.9311679201900959,0.5296741549506783,-0.9606836452707648
1772556557262319000,7.667319091796875,0.9989894105285405,0.49445992596745486,-0.8472513273581862
1772556557272304000,7.67730419921875,1.1487269675314427,0.44884559126198287,-0.6593190642565488
1772556557282288000,7.6872880859375,1.0933160459548235,0.24769670371264219,-0.4794868132412433
1772556557292271600,7.697271728515625,0.8147060253232717,-0.015430793365836143,-0.3869277720093727
1772556557302255600,7.707255615234375,0.5767915876954793,-0.08992781594544648,-0.35277678834348913
1772556557312239600,7.717239501953125,0.5299614474594593,-0.09094488403350114,-0.3704860480353236
1772556557322223600,7.7272236328125,0.4998264214366674,-0.07926233728528022,-0.3968786726593971
1772556557332207600,7.73720751953125,0.4982353528529405,-0.005486322456598282,-0.3707432376667857
1772556557342192600,7.747192626953125,0.5737573345661163,0.058958092664182185,-0.3232224848181009
1772556557352176600,7.7571767578125,0.8868471324265003,0.03752338270843029,-0.32943887511491776
1772556557362160600,7.76716064453125,1.3380489314258097,-0.0551122308909893,-0.46329614141881464
1772556557372144600,7.77714453125,1.5470757127434014,-0.09202274239808321,-0.5464677611023188
1772556557382128600,7.787128662109375,1.3712994591206311,-0.16879004799723624,-0.5696934461280703
1772556557392112600,7.797112548828125,1.0454641614556313,-0.36913404890447854,-0.5029302326709032
1772556557402096400,7.807096435546875,0.6189613349050284,-0.5297992426350713,-0.32321108664125203
1772556557412080600,7.81708056640625,0.09024141193926334,-0.6592901304230093,-0.17725421722084284
1772556557422065700,7.827065673828125,-0.2869324432969093,-0.7164493569716811,0.059086395218968385
1772556557432049400,7.83704931640625,-0.5203986693441868,-0.6814724438756704,0.308541048514843
1772556557442033400,7.847033447265625,-1.0413853677093983,-0.5595040605470538,0.3038772944875061
1772556557452017700,7.857017578125,-0.9578227028816938,-0.5983268354162573,0.3111477238819003
1772556557462001700,7.867001708984375,-1.012151674440503,-0.5814180784523487,0.75079557094872
1772556557471985700,7.876985595703125,-1.578873119020462,-0.7039028868705034,0.4915209499061107
1772556557481969700,7.8869697265625,-1.3597054674386977,-0.9252996126785874,0.19330299635455012
1772556557491953700,7.89695361328125,-1.1790630690842867,-0.7175859597861767,-0.0018682780899107454
1772556557501938700,7.906938720703125,-0.5111678996622562,-1.3763228402405976,-0.5725749929137528
1772556557511922700,7.916922607421875,-0.6082429570138455,-1.6761670798197388,-1.0851242639318108
1772556557521906700,7.92690673828125,-1.282829733029008,-1.8901941536426543,-0.9299372093513607
1772556557531890700,7.936890625,-2.579118667089939,-2.06807673189491,-0.3264716958723962
1772556557541874700,7.946874755859375,-4.001038890901207,-2.067809897652268,0.42522871496155856
1772556557551858700,7.956858642578125,-4.86654512913525,-1.805118746164441,0.9861141468644141
1772556557561842700,7.9668427734375,-4.604879229041933,-1.3154282265558839,1.5103532711543142
1772556557571826700,7.97682666015625,-3.6638089235186575,-0.7907888509020209,1.5657932726949453
1772556557581811700,7.986811767578125,-3.138625357985496,-0.23979046063274143,0.8393618162173777
1772556557591795700,7.996795654296875,-2.5947014361470937,0.6805410082444548,0.0883049274513498
1772556557601779700,8.00677978515625,-2.278003969183564,1.5119523769140242,-0.3740292370675131
1772556557611763700,8.016763671875,-1.495106456053257,1.5506655539289116,-0.7769010491944849
1772556557621747700,8.026747802734375,-0.3264782717436552,1.4806018376216292,-0.7815037206843495
1772556557631731500,8.0367314453125,0.3292226020157337,1.4503598440930245,-0.4211758959067985
1772556557641715500,8.046715576171875,0.415648255059123,1.2863482625439762,0.004145648437365889
1772556557651699500,8.056699462890625,0.43095805239379403,0.9421592698037624,0.4369410723261535
1772556557661684500,8.0666845703125,0.45488194881677624,0.792176213607192,0.970893708313629
1772556557671668500,8.07666845703125,0.4561404244452715,0.7299488900139928,1.4561205995768307
1772556557681652500,8.086652587890624,0.2620002466142177,0.701342973254621,2.1216418794743714
1772556557691636500,8.096636474609374,0.13862696492373944,0.6038844695433974,2.268566132622212
1772556557701620500,8.106620361328124,0.12202888134419917,0.6132973177939653,2.2703990471377966
1772556557711604500,8.1166044921875,0.26627485519349575,0.5956523555099964,1.8716481508657334
1772556557721588700,8.126588623046874,0.5665414118379354,0.6682727705627679,1.5835981017157434
1772556557731572700,8.13657275390625,0.8593447929948568,0.5984352642267942,1.072984986392036
1772556557741557500,8.1465576171875,0.8494248720049857,0.5933578148320316,0.7899208358958363
1772556557751541500,8.15654150390625,0.8087462401360273,0.6560857814237475,0.5702673735585063
1772556557761525500,8.166525390625,0.9211305103003978,0.6559995644450187,0.350830038189888
1772556557771509800,8.176509765625,1.2170903096616268,0.4564893840134144,0.04592109909970313
1772556557781493800,8.18649365234375,1.6894284201920031,0.3772103878542781,-0.12828604204282165
1772556557791477800,8.196477783203125,1.9758061522155999,0.521353193590045,-0.1450204653531313
1772556557801461800,8.206461669921875,2.103709478551149,0.5887567507773638,-0.217116564270854
1772556557811445800,8.21644580078125,2.1603923197597266,0.5228939932912587,-0.2104205006983131
1772556557821430800,8.2264306640625,2.0271394490897654,0.44747284160405393,-0.07582253556232899
1772556557831414800,8.236414794921876,1.7176994059085844,0.4030509315535426,0.13807981590237467
1772556557841398800,8.246398681640626,1.4676163915812968,0.2647460381910205,0.2987111073633656
1772556557851382800,8.2563828125,1.3421277251720427,0.13833207363039254,0.3332879517585039
1772556557861366500,8.266366455078124,1.3445190042227506,0.07326192782670259,0.40330600229315455
1772556557871350500,8.2763505859375,1.437074538323283,-0.04744681082963943,0.34460203052051364
1772556557881334500,8.28633447265625,1.4222978249520062,-0.16837036128044128,0.37410606516338885
1772556557891319600,8.296319580078125,1.3132061665922403,-0.3049430240228772,0.5007813110087067
1772556557901303600,8.306303466796875,1.1861053888112305,-0.5686766703009605,0.5223407433226704
1772556557911287600,8.31628759765625,1.046786934491992,-0.8031585031315683,0.40134325085282324
1772556557921271600,8.326271484375,0.9537392329603434,-0.8650938580408691,0.21793789059109986
1772556557931255600,8.336255615234375,0.9126613726407289,-0.8367825403138994,0.032820611844956875
1772556557941239600,8.346239501953125,0.9064116645961999,-0.7982087717697024,-0.1280976067986339
1772556557951223600,8.3562236328125,0.9521236144572496,-0.8334951892063022,-0.2674167187049985
1772556557961207600,8.36620751953125,1.0732137536466122,-0.8572001821815967,-0.3484134420348331
1772556557971192600,8.376192626953125,1.1324731673449278,-0.8863695780426263,-0.33478494885060933
1772556557981177600,8.386177490234376,1.11665366692245,-0.8819012004569172,-0.2916741579312831
1772556557991161600,8.39616162109375,1.0262556031167507,-0.8672881532147526,-0.2516591410702094
1772556558001145600,8.4061455078125,0.9148165048480034,-0.9035036681950092,-0.27927323378063734
1772556558011129600,8.416129638671874,0.7675760253578424,-0.9265639335259794,-0.3561472146246582
1772556558021113600,8.426113525390624,0.6509364358365536,-0.8848623883500695,-0.3632246056649834
1772556558031097600,8.43609765625,0.4268091160207987,-0.7861027389124036,-0.2599325369620696
1772556558041082600,8.44608251953125,0.09860241304934024,-0.7419502934530376,-0.1900389165246859
1772556558051066600,8.456066650390625,-0.2783797190070152,-0.7920613550558686,-0.02746975233629346
1772556558061050600,8.466050537109375,-0.6612216830074786,-0.9646437810733913,0.12432186025273985
1772556558071034600,8.47603466796875,-0.8353495849013328,-1.5008125587403773,0.053057704947399906
1772556558081018600,8.4860185546875,-0.9552619124829769,-2.027934398859739,-0.02568571846373379
1772556558091002600,8.496002685546875,-1.5043226126879452,-1.640970386493206,0.28241226245872675
1772556558100986600,8.505986572265625,-1.8711282186448572,-0.7944033881373703,0.6594791501890868
1772556558110970600,8.515970703125,-1.8535919774323701,-0.36119244225025177,0.867610955428332
1772556558120955600,8.52595556640625,-2.270419797664881,-0.33178236950114365,0.9263031636979431
1772556558130939600,8.535939697265626,-3.2015748583734034,0.061911827903240915,1.0839943100538103
1772556558140923600,8.545923583984376,-3.725276660916209,0.7644533632926642,1.2686471861585973
1772556558150907400,8.555907470703126,-3.774582251355052,1.2810218068242072,1.0654841823078691
1772556558160891600,8.5658916015625,-3.59787602340579,1.4886666322641073,0.49789373634103684
1772556558170875600,8.575875732421874,-3.337016178998351,1.449839765741676,-0.365495546271652
1772556558180859600,8.585859619140624,-2.8963088860064743,1.4253506366513669,-0.9629623307924717
1772556558190843600,8.59584375,-2.264544768151641,1.460149270571023,-1.1930077886108308
1772556558200828700,8.60582861328125,-1.780290009856224,1.7984816462375222,-1.5089415046602486
1772556558210812700,8.615812744140625,-0.8659364463448525,1.7278820694878696,-1.5662601595543324
1772556558220796700,8.625796630859375,-0.11852759522497654,1.6510700479641556,-1.5736308344528078
1772556558230780700,8.63578076171875,0.437011945605278,1.576672101844847,-1.4296915884651242
1772556558240764700,8.6457646484375,0.8040957839816808,1.4267822768896816,-1.0539111603487283
1772556558250748700,8.655748779296875,0.9769014973610639,1.2563356938570738,-0.6097158791106194
1772556558260732700,8.665732666015625,1.013039563190937,0.6738866649217903,-0.5475772567141801
1772556558270717700,8.6757177734375,0.7092179444134235,0.20058277809917927,-0.4619343515463173
1772556558280701700,8.68570166015625,-0.15287468598484993,0.10933511172682046,-0.23038035232853143
1772556558290688800,8.695688720703124,-1.193144785928726,0.04977744573429226,0.0749018039882183
1772556558300672800,8.7056728515625,-1.7238801403701305,-0.11417553749531507,0.3215521039204672
1772556558310656500,8.715656494140624,-1.324132049754262,-0.25590076069533824,0.18480284250210968
1772556558320640500,8.725640625,-0.7865951986044645,-0.31676059532761575,-0.11314736349135637
1772556558330624500,8.73562451171875,-0.35817280216813085,-0.12156243287622928,-0.19023980939164756
1772556558340608500,8.7456083984375,0.1260720192551613,-0.06621040187999606,-0.1745916469480842
1772556558350593500,8.755593505859375,0.4213829993188381,-0.059026627855747936,-0.18456810216447336
1772556558360577500,8.76557763671875,0.6164952370524406,-0.01007306572496891,-0.15179779573464766
1772556558370561500,8.7755615234375,0.8281348312169313,0.03733955057412386,-0.11019284280100837
1772556558380545500,8.785545654296875,1.0390122088372706,0.0804267048895359,-0.1342197520738933
1772556558390529500,8.795529541015625,1.1442869392573833,0.09200871387273073,-0.15911692310897632
1772556558400513500,8.805513427734375,1.1259475649684667,0.07902326783239841,-0.1786466579599306
1772556558410497800,8.815497802734376,1.1589005710214375,0.00548354597762227,-0.23184004961755125
1772556558420482600,8.825482666015626,1.264587973895669,-0.08595014448612928,-0.32711010337378826
1772556558430466600,8.835466552734376,1.4069786752671003,-0.13135156709328294,-0.34699005816821005
1772556558440450600,8.845450439453124,1.4925953500151634,-0.19881956781893967,-0.3134375518521294
1772556558450434600,8.8554345703125,1.57835464810431,-0.3128571581482887,-0.27049349580183624
1772556558460418800,8.865418701171874,1.66918058193326,-0.4311211340010166,-0.22827965372223405
1772556558470402800,8.87540283203125,1.7120979326397179,-0.540080544283241,-0.24517085676314307
1772556558480386800,8.88538671875,1.7274550762474536,-0.5991825754627585,-0.2744143042410724
1772556558490370800,8.895370849609375,1.7557435976207256,-0.6426870784074068,-0.2716205088040791
1772556558500355800,8.90535595703125,1.8969331065088508,-0.7351078802123665,-0.365125763111189
1772556558510339800,8.91533984375,2.1057342623770237,-0.8913102493152022,-0.46094300242140884
1772556558520323800,8.92532373046875,2.166357365643978,-0.9304211934760213,-0.3207874031582847
1772556558530307800,8.935307861328125,1.7925731528460978,-0.9362465386286377,-0.3241709811819717
1772556558540291600,8.94529150390625,1.6372639331907033,-1.2207353881657124,-0.18110117497257888
1772556558550275600,8.955275634765625,1.4256670091241597,-1.2080793202102185,-0.09133782887384295
1772556558560259600,8.965259521484375,0.9400374553442,-1.1750444810926914,-0.1474306683000177
1772556558570244600,8.97524462890625,0.5177765041470528,-1.0359016756013035,-0.14700615927763283
1772556558580228600,8.985228515625,0.04508475787341595,-0.810277979747951,-0.2241044138642028
1772556558590212600,8.995212646484376,-0.3908919994652271,-0.5024436181977391,-0.3534014961130917
1772556558600196600,9.005196533203126,-0.842585381373763,-0.07706453498005866,-0.43776897451765834
1772556558610180600,9.0151806640625,-1.4011761264681815,0.3452086911767721,-0.4675336693907156
1772556558620164600,9.02516455078125,-1.8759902717232704,0.5631047153875232,-0.442198043006286
1772556558630148600,9.035148681640624,-2.0894839693218468,0.6184083771973848,-0.31060455691590905
1772556558640133600,9.045133544921875,-1.8156600139230488,0.5182894221052528,-0.20146589934295042
1772556558650117600,9.05511767578125,-1.129371109676361,0.13833411945700644,-0.23675120253469795
1772556558660101600,9.0651015625,-0.3277373318940401,-0.7226347676083446,-0.5861047749638557
1772556558670085600,9.075085693359375,-0.07644961795210838,-1.5407923946902156,-1.0003373180061579
1772556558680069600,9.085069580078125,-0.5896008003860712,-1.490505684259534,-0.8592346836838871
1772556558690053600,9.0950537109375,-1.0582336266577244,-1.4914786209449171,-0.9086677729599177
1772556558700037600,9.10503759765625,-1.4256056343257426,-1.991385998663306,-1.2502744941219688
1772556558710021600,9.115021728515625,-2.274881453248858,-1.6220391837909818,-0.8578607649821788
1772556558720006700,9.125006591796875,-3.292196209540963,-0.5132397375002503,-0.1630761821287684
1772556558729990700,9.13499072265625,-4.114494005167484,0.46970425489544865,0.3957571578161791
1772556558739974700,9.144974609375,-4.360681765621901,1.0879165249988436,0.7467027486771345
1772556558749958700,9.154958740234376,-3.888402691802382,1.6350012489557266,0.9943380775913595
1772556558759942700,9.164942626953126,-3.048639382112026,2.1243486542150376,1.2301657720729708
1772556558769926700,9.1749267578125,-2.1232956380307675,2.3838570840135214,1.3551517496570944
1772556558779910700,9.18491064453125,-1.2239970203101633,2.184037983763218,1.3779255992621182
1772556558789895700,9.194895751953124,-0.7855044807583094,1.7642837546899914,1.4578385094106197
1772556558799879400,9.20487939453125,-0.3139443688631058,1.3021592873990535,1.5982213780909775
1772556558809863700,9.21486376953125,-0.1082160445690155,0.8761591496735811,1.6350040254347025
1772556558819847700,9.22484765625,0.061650108227133744,0.4245788727506995,1.5849088920533656
1772556558829831700,9.234831787109375,0.15232348184287547,0.117734106759727,1.5186987824343143
1772556558839815700,9.244815673828125,0.13332593590617178,-0.05875117191523313,1.5197297329172492
1772556558849799700,9.254799560546875,0.2598632345855236,-0.14231500578671694,1.4954446019664407
1772556558859783700,9.26478369140625,0.44504444541335103,-0.15199644184559583,1.4689315658330917
1772556558869768700,9.274768798828125,0.6299421631246804,-0.15419453641176223,1.4521426358565688
1772556558879752700,9.284752685546875,0.8575362822681665,-0.1356611008554697,1.2982704632669686
1772556558889736700,9.29473681640625,1.0311819536030291,-0.030906887178122996,0.9845134336695075
1772556558899720700,9.304720703125,1.1770301019519567,0.08494535135775803,0.5970945902075618
1772556558909704700,9.31470458984375,1.2776099525541067,0.18044219960719346,0.23807978425733745
1772556558919688700,9.324688720703126,1.3814116878122091,0.23337065671831367,-0.0641645022008568
1772556558929672700,9.334672607421876,1.4471329910010098,0.3424868649974465,-0.28883389300405976
1772556558939657700,9.34465771484375,1.384044958925247,0.4335021839186549,-0.4664635194085538
1772556558949641700,9.354641845703124,1.2935977952808142,0.4641752623409032,-0.5194258787892758
1772556558959625700,9.364625732421874,1.2671534404695033,0.4324924223542213,-0.5004419960517436
1772556558969609700,9.374609619140625,1.2604390375226735,0.36765579304546114,-0.44012737421207127
1772556558979593700,9.38459375,1.2729741094470024,0.3015127573132515,-0.3314083120243624
1772556558989577700,9.39457763671875,1.2522937249898909,0.23368892888724802,-0.17808591880463062
1772556558999561500,9.4045615234375,1.2175509129106998,0.17300006690770386,-0.050329818920046086
1772556559009546800,9.414546630859375,1.1391109979242087,0.16035422808527947,0.10952617731951177
1772556559019530800,9.42453076171875,1.0918313603550196,0.12836246827989817,0.2663773291872814
1772556559029514500,9.434514404296875,1.0853934362620115,0.0027288404420018194,0.23950711364671587
1772556559039498500,9.44449853515625,1.1157879900038241,-0.09192103558927774,0.15066921182982623
1772556559049482500,9.454482421875,1.1139444079637526,-0.1167208380639553,0.029600809548236427
1772556559059466500,9.464466552734375,1.1362257978767156,-0.18751111508011817,-0.08688497765082866
1772556559069450500,9.474450439453125,1.2010714872747659,-0.32215923950076103,-0.21952249290142206
1772556559079435500,9.484435546875,1.247978199878335,-0.44960283937007184,-0.25851660574954
1772556559089419500,9.49441943359375,1.2644570409923792,-0.5365650835081934,-0.2168845456132665
1772556559099403500,9.504403564453124,1.2410662285327911,-0.5709238647058605,-0.15683646575529128
1772556559109387500,9.514387451171874,1.1368196721166373,-0.5955106089517473,-0.0832944423455745
1772556559119371800,9.524371826171874,0.9949258143514395,-0.6064578271627425,0.07044044066518544
1772556559129355800,9.534355712890624,0.8917407496869564,-0.5659013603687286,0.234970200869441
1772556559139339800,9.54433984375,0.7938824330031872,-0.5348565260246396,0.30226934783421455
1772556559149324500,9.554324462890625,0.6924591173142194,-0.5349927196249366,0.430422228484042
1772556559159308500,9.56430859375,0.5522597885072231,-0.4968333771005273,0.5435461380345746
1772556559169292800,9.574292724609375,0.3743576287716627,-0.42897798449248076,0.6602997458569705
1772556559179276800,9.58427685546875,0.2240209368318319,-0.3370022961065173,0.9444712000079453
1772556559189260800,9.5942607421875,0.054257075366377826,-0.2827934437960386,1.1823337613180278
1772556559199244800,9.604244873046875,-0.17304186022281645,-0.28416297858357425,1.2124532975107432
1772556559209228800,9.614228759765625,-0.2610159117519855,-0.4256283818036318,1.1075833484992383
1772556559219212800,9.624212890625,-0.08005962514281273,-0.954297451364994,1.0125534601744264
1772556559229197800,9.63419775390625,0.15293956791460514,-1.726833144956827,0.9765493229225277
1772556559239181800,9.644181884765626,-0.06421557480096816,-1.752786501380801,1.1161578462295234
1772556559249165800,9.654165771484376,-0.8121276992678642,-1.1217401764065027,1.2746373664841055
1772556559259149600,9.664149658203126,-1.84156310146451,-0.7251338909476995,1.1620952754095195
1772556559269133600,9.674133544921874,-3.137178081786632,-0.1503448752462864,0.845547519114986
1772556559279117600,9.68411767578125,-4.0484278340637685,0.5796873091369867,0.45110542595274744
1772556559289098200,9.69409814453125,-4.109015866017342,1.1114438233196735,-0.1852609797994606
1772556559299083300,9.704083251953126,-3.6776270209908484,1.4190896765604615,-1.136296598090604
1772556559309067300,9.7140673828125,-2.9988053838849065,1.59340491771996,-2.1017411010876295
1772556559319051300,9.72405126953125,-2.0661241365224123,1.7108268897905945,-2.671829684013128
1772556559329035300,9.73403515625,-1.3180863398492335,1.7695318844765424,-2.873265571810305
1772556559339019300,9.744019287109374,-0.6803817260295152,1.9632234417572616,-2.6276433362841605
1772556559349003300,9.754003173828124,-0.3076502371549606,1.9288094232410191,-2.1923694665178655
1772556559358987300,9.7639873046875,-0.3319482275873422,1.5779846457481383,-1.8023842066340148
1772556559368972300,9.77397216796875,-0.47885494507849213,1.2170517312169074,-1.4202074285440147
1772556559378956300,9.783956298828125,-0.2936065142333507,0.8294131805896758,-1.0739466710310428
1772556559388940300,9.793940185546875,-0.001370119309425354,0.45545127313733097,-0.7264409549582749
1772556559398924300,9.80392431640625,0.21832594006061554,0.1503165259346366,-0.4609879375416785
1772556559408908300,9.813908203125,0.3318938670516014,-0.05937018059641123,-0.22771133404867722
1772556559418892000,9.82389208984375,0.24349662167429922,-0.22435148396044968,-0.032220499660493805
1772556559428876300,9.833876220703125,-0.0190577516913414,-0.34743893444687124,0.12943163188137113
1772556559438861000,9.843861083984375,-0.25629765105843544,-0.3587833352819085,0.2793176209116354
1772556559448845000,9.853844970703125,-0.3054495122402906,-0.3310150383904576,0.3673759166581556
1772556559458829000,9.8638291015625,-0.16083236699104309,-0.2009516114115715,0.3783252172283828
1772556559468813000,9.87381298828125,0.1322714584171772,0.027602877196669578,0.3283307312099263
1772556559478797300,9.88379736328125,0.4270867639183998,0.17575170370340346,0.17319195448430255
1772556559488781300,9.89378125,0.5897013381510973,0.2847644516080618,-0.03282192701920867
1772556559498765300,9.903765380859374,0.7036427746295929,0.39136166280359025,-0.16915829678773878
1772556559508750000,9.91375,0.8130553355067968,0.43931905350387096,-0.2907958407267928
1772556559518734300,9.923734375,0.8845961386293172,0.32176381044238805,-0.46485710712522266
1772556559528718300,9.93371826171875,0.9226075971156358,0.15647241821587085,-0.6555296088457108
1772556559538702300,9.943702392578125,0.8787924207866191,-0.06367138492166996,-0.8337281942445784
1772556559548686300,9.953686279296875,0.8445324237883091,-0.29085838456898927,-0.9843085587471723
1772556559558670300,9.96367041015625,0.8902408665180206,-0.4652554587930441,-1.1016276549652217
1772556559568654300,9.973654296875,0.9256523716390133,-0.5820230586081743,-1.088159247713536
1772556559578639400,9.983639404296875,0.9741203422099352,-0.6184636145159602,-0.9082103115160017
1772556559588623400,9.993623291015625,1.06956224540174,-0.5860623971268535,-0.7321335405766963
1772556559598607400,10.003607421875,1.1066226867735385,-0.518357811166346,-0.5844033413408324
1772556559608591400,10.01359130859375,1.1730056687414645,-0.4380439190015197,-0.4088795646417886
1772556559618575400,10.023575439453126,1.2288210794657468,-0.2901113655939698,-0.1996184631116688
1772556559628559400,10.033559326171876,1.2909247766792773,-0.14652122530490158,0.012986523752566426
1772556559638543400,10.04354345703125,1.4651871186077594,-0.11548632783293723,0.20883352376781403
1772556559648528400,10.0535283203125,1.7081722836285829,-0.15346359178870916,0.3230367895202711
1772556559658512400,10.063512451171874,1.7987024493813513,-0.13923662125468253,0.4428394461823627
1772556559668496100,10.07349609375,1.7591005068331955,-0.12542524578422307,0.49700361910089846
1772556559678480100,10.083480224609374,1.576045786640048,-0.09421382270157337,0.5050779122240842
1772556559688464100,10.093464111328124,1.2480571103334426,-0.09743775318413972,0.4911728305881843
1772556559698448100,10.1034482421875,0.9548825577765703,-0.10820026247799396,0.3871839752601459
1772556559708432100,10.11343212890625,0.6329664793819189,-0.09689648591428994,0.23494313019942492
1772556559718417200,10.123417236328125,0.33269875369369983,-0.08724076881855726,0.13661189877428115
1772556559728401200,10.133401123046875,0.08657704421281814,-0.08474047643542289,0.023447090957779436
1772556559738385200,10.14338525390625,-0.12138649178743362,-0.031282150231301785,-0.14714149436140433
1772556559748369200,10.153369140625,-0.44675943263769147,0.05955079786032438,-0.33691132988743483
1772556559758353200,10.163353271484375,-0.8377361877769232,0.09404080422222613,-0.5037829039774835
1772556559768337200,10.173337158203125,-1.1194827528685332,0.005029518599808215,-0.6326014454618096
1772556559778321200,10.183321044921875,-1.1095371129155158,-0.20118775825500487,-0.8002486800994724
1772556559788306200,10.19330615234375,-0.8361609012842178,-0.4600438616245985,-1.0292255588382482
1772556559798290200,10.203290283203126,-0.3400058618366718,-0.8638754221618175,-1.2798562701761722
1772556559808274200,10.213274169921876,0.2714145561695099,-1.6529384721845388,-1.6602831358589232
1772556559818258200,10.223258056640624,0.40476270390748975,-2.2884049516886473,-2.0464618430666626
1772556559828242200,10.2332421875,-0.21818974646031855,-2.6120067912131546,-2.0576149591133
1772556559838226400,10.243226318359374,-1.4025456612557172,-2.892915444175899,-1.9783467766091227
1772556559848210400,10.25321044921875,-3.064475249147415,-2.5645047430649397,-1.6008584485962987
1772556559858195200,10.2631953125,-4.671927981442213,-1.5095590520367026,-0.8565221367895602
1772556559868179200,10.27317919921875,-5.647644068410992,-0.4081181518152356,-0.14931911239512263
1772556559878163500,10.28316357421875,-5.786513609918952,0.42571752139180896,0.39455676905047143
1772556559888147500,10.2931474609375,-5.095590031608939,1.216890403175354,0.6990534010127186
1772556559898131200,10.303131103515625,-3.5732682363718746,1.9266577981650828,0.5307744443427771
1772556559908115200,10.313115234375,-1.4666542685508728,2.4126392341226337,0.4367552674304694
1772556559918099200,10.32309912109375,0.42207215062677855,2.404968261103332,0.8277133178692311
1772556559928084200,10.333084228515625,1.4033148920625447,2.1937387090444562,1.4225997305080293
1772556559938068200,10.343068115234376,1.4246288982480764,1.806849515479803,1.9893259973935782
1772556559948052200,10.35305224609375,1.0560445921808481,1.3510022287622094,2.364036823517084
1772556559958036200,10.3630361328125,0.7388157948195934,0.9397837728440761,2.4735528447687622
1772556559968020200,10.373020263671876,0.5666735137850046,0.5477884883120656,2.421206279198825
1772556559978004200,10.383004150390626,0.378034855979681,0.1767518206566572,2.3555527805492282
1772556559987988200,10.39298828125,0.3067535805761814,-0.07505962489843368,2.249950717870891
1772556559997973200,10.40297314453125,0.35390345428586006,-0.10147738396376371,2.128265389267355
1772556560007957200,10.412957275390625,0.40289807907938957,0.14257979420274494,2.0199217727959153
1772556560017941200,10.422941162109375,0.42293022876083847,0.5074640767082572,1.8296730494454503
1772556560027925200,10.43292529296875,0.4071721031367779,0.6738029321610928,1.4793823788292706
1772556560037909200,10.4429091796875,0.4243880263537168,0.7005439318314194,1.0197545506596564
1772556560047893200,10.452893310546875,0.6039473056465386,0.8301353573843836,0.613305208839476
1772556560057877200,10.462877197265625,0.6807610807359218,0.9056403879627585,0.25385665111448613
1772556560067862300,10.4728623046875,0.777189072355628,0.7095996372073888,-0.23370514936968684
1772556560077846300,10.48284619140625,0.9124258103191852,0.5041571441173553,-0.6327671574175358
1772556560087830300,10.492830322265625,1.0647013613671064,0.40540597024708985,-0.8346104569718241
1772556560097814300,10.502814208984375,1.178961362275481,0.39462417173087594,-0.9512446396656333
1772556560107798300,10.51279833984375,0.7625824548542499,0.6588076076030731,-0.877724937685579
1772556560117782300,10.5227822265625,0.7519546778559685,0.5374392359942197,-0.9079341249231249
1772556560127766000,10.53276611328125,0.7484148132920265,0.3056242842853069,-0.9458942916136235
1772556560137751300,10.542751220703124,0.66597501501441,0.1831213556885719,-0.7907020494014024
1772556560147735300,10.5527353515625,0.7139981644272804,0.012370236751437187,-0.5236527757693081
1772556560157719000,10.562718994140624,0.896829012736678,-0.20857582267969846,-0.27342545760050413
1772556560167703000,10.572703125,1.0956827750861644,-0.40599136891961096,-0.1399100635368377
1772556560177687300,10.582687255859375,1.1902695227533577,-0.6088382925584912,-0.0899205094218254
1772556560187671300,10.59267138671875,1.1495797849684952,-0.8122849356561899,-0.10876103816591202
1772556560197655300,10.6026552734375,1.0237994421362877,-0.9227674638524651,-0.11609123492352663
1772556560207640000,10.61264013671875,0.8563350897848606,-0.9993398314014077,-0.07122896069437265
1772556560217624000,10.6226240234375,0.7194084990382195,-1.0460036751598119,-0.03781469380520284
1772556560227608300,10.6326083984375,0.6498866345226765,-1.076753910471499,0.0059624155357480045
1772556560237592300,10.64259228515625,0.7108522676169872,-1.1072422799766064,-0.03767835407443344
1772556560247576300,10.652576416015625,1.0068032991498708,-1.0498781785055995,-0.09909998730793594
1772556560257560300,10.662560302734375,1.363274558097124,-0.8927698004737495,-0.10202193916924297
1772556560267544300,10.67254443359375,1.5797043091475962,-0.7248445526123046,-0.007667831214144825
1772556560277529300,10.682529296875,1.5967115580499172,-0.6276876621961593,0.12684066554009912
1772556560287513300,10.692513427734376,1.365514445978403,-0.5432172348737716,0.2443295653671026
1772556560297501200,10.702501220703125,0.8677572320312261,-0.45803135275840756,0.4221410511445254
1772556560307485200,10.712485107421875,0.3188385706454515,-0.4511754955142736,0.608304843268916
1772556560317469000,10.722468994140625,-0.0660959817200899,-0.5242939232170581,0.6835415782999247
1772556560327453000,10.732452880859375,-0.24526538491249084,-0.5585723326548934,0.7341526253141463
1772556560337437000,10.74243701171875,-0.1983762079656124,-0.5616019096091389,0.6912400238480418
1772556560347422000,10.752421875,-0.13147066342830657,-0.5559829006835818,0.5810498296618462
1772556560357406000,10.762406005859376,-0.24023557405173776,-0.5748369464963674,0.45386312716305255
1772556560367390000,10.772389892578126,-0.25305589265823364,-1.1122042862981558,0.23443631318844854
1772556560377374000,10.7823740234375,-0.2162964800596237,-1.906770902173221,0.2224074372205883
1772556560387358000,10.79235791015625,-0.6285241130203009,-1.79580468211323,0.6268946851875633
1772556560397342000,10.802342041015624,-1.2941840707361698,-1.10215314014405,0.9061546210952103
1772556560407326000,10.812325927734374,-1.9655881250619887,-0.7010393141329289,0.6482122715696692
1772556560417311000,10.82231103515625,-2.8793595047712324,-0.2495771106317639,0.37245157595463096
1772556560427295000,10.832294921875,-3.746250475361943,0.43231443543881176,0.2520174895212054
1772556560437279000,10.842279052734375,-4.080627391400933,0.9050354078069329,-0.014590323953703044
1772556560447263000,10.852262939453125,-3.868697289857268,1.1168392526224256,-0.44457631644494827
1772556560457247000,10.8622470703125,-3.2534523451268673,1.129615732087195,-1.0150283989205955
1772556560467231000,10.87223095703125,-2.4000568159252404,1.050861928845942,-1.582678210391849
1772556560477215000,10.882215087890625,-1.5409867482185362,0.9242667624995112,-1.9052891391828655
1772556560487200000,10.892199951171875,-0.2913555204361677,0.7880877752497791,-2.038196557416022
1772556560497184000,10.90218408203125,0.48578445208072657,1.2751061530396341,-1.847478755249083
1772556560507168000,10.91216796875,0.6883820771336555,1.378782216091454,-1.5510858251675963
1772556560517152000,10.922152099609375,0.6017091713309287,1.2673901718348264,-1.2566798311196268
1772556560527136000,10.932135986328126,0.2651221780270338,0.9286272957965731,-0.9216884364441037
1772556560537120000,10.9421201171875,0.06896949132978916,0.589121784697473,-0.654012774541974
1772556560547104000,10.95210400390625,0.049185178929567336,0.37769174163043495,-0.4728694774607196
1772556560557089000,10.962089111328124,0.21060791302919388,0.2689817760646343,-0.4039742934761569
1772556560567073000,10.972072998046874,0.34173429306447506,0.23450842857658863,-0.354308235694468
1772556560577056800,10.982056884765624,0.34209143593907354,0.2150786287024617,-0.3601430427951738
1772556560587041000,10.992041015625,0.10405191062688827,0.21745850957632062,-0.3343374242788181
1772556560597025000,11.00202490234375,-0.27387773141264915,0.19586247157901523,-0.290971635685116
1772556560607009000,11.012009033203125,-0.43324061037302014,0.17129150942414997,-0.26248923570755867
1772556560616993000,11.021992919921875,-0.24443302574157713,0.24078970080316064,-0.20889223168510943
1772556560626978000,11.03197802734375,0.1529500893086195,0.34721243221461773,-0.12133837832938879
1772556560636962000,11.041962158203125,0.5596522368460893,0.3600806816160679,-0.07783171996027231
1772556560646946000,11.051946044921875,0.8922305790305137,0.32023879283219575,-0.014822890600562095
1772556560656930000,11.061929931640625,1.141510460281372,0.23651626126766204,0.025886136406660078
1772556560666914000,11.0719140625,1.2765589821964503,0.1166620936140418,0.008342515605315565
1772556560676898000,11.08189794921875,1.3087573704898356,-0.0038438159465789793,-0.07104257127679885
1772556560686882000,11.091882080078125,1.3158762625843285,-0.13948241270929573,-0.18922632150016724
1772556560696866000,11.101865966796876,1.2024188102304936,-0.26224194641560317,-0.30548125908542423
1772556560706851000,11.11185107421875,1.0868465576797723,-0.4253443041652441,-0.380985230217874
1772556560716835000,11.1218349609375,1.062571948122978,-0.5147334831893444,-0.39189423531033096
1772556560726819000,11.131819091796874,1.0766922434121369,-0.5597919375777244,-0.3142118972254917
1772556560736803000,11.141802978515624,1.1706833632737397,-0.6085773035347462,-0.27042521633859723
1772556560746787000,11.151787109375,1.281660104727745,-0.6416089277818798,-0.28093429886065424
1772556560756771000,11.16177099609375,1.3892507108747958,-0.6686109164759516,-0.2880305772645399
1772556560766755000,11.171755126953125,1.48956168140769,-0.6866992386132479,-0.2634650950023904
1772556560776740000,11.181739990234375,1.5340034652024506,-0.6673053868353367,-0.18393102810364215
1772556560786724000,11.19172412109375,1.460517957752943,-0.5805941948488355,-0.10152922374885529
1772556560796708000,11.2017080078125,1.399358847913146,-0.49517742658704517,-0.0782568865697831
1772556560806691800,11.21169189453125,1.4505962831974029,-0.4879062665402889,0.03845920225381851
1772556560816675800,11.22167578125,1.6126801115542648,-0.5377659837305545,0.1362450747558847
1772556560826659800,11.231659912109375,1.6409604496210812,-0.5392132599294185,0.2301748563516885
1772556560836643800,11.241643798828125,1.4932517680972814,-0.5249556019961834,0.27122064103260635
1772556560846628900,11.25162890625,1.2381576476097107,-0.5557821174144745,0.20363423809166997
1772556560856612900,11.26161279296875,0.9288567206382751,-0.5785077439635992,-0.012374876393936574
1772556560866596900,11.271596923828126,0.6631266398459672,-0.5518193512633442,-0.25730112901255486
1772556560876580900,11.281580810546876,0.4021066364407539,-0.5089467164814472,-0.41613238531425595
1772556560886564900,11.29156494140625,0.07798515695631504,-0.4153092323631048,-0.46299109405763444
1772556560896548900,11.301548828125,-0.25208383275568486,-0.31336393862664697,-0.5445594432629645
1772556560906533000,11.311533203125,-0.6228209329426289,-0.16588643551021814,-0.683582567897439
1772556560916518000,11.321517822265625,-1.0501946971088647,0.017874094864726065,-0.829255871136114
1772556560926502000,11.331501953125,-1.2930541899234056,0.1417822140842676,-1.0171455372050404
1772556560936486000,11.34148583984375,-1.2851742503285408,0.19713556025475262,-1.202429770015925
1772556560946470100,11.35147021484375,-1.111233979961276,0.10527589946389197,-1.269580375355482
1772556560956454100,11.3614541015625,-0.6725964789807796,-0.10717822595387697,-1.2502972904756664
1772556560966438100,11.371438232421875,-0.061323360490798944,-0.6440861315503716,-1.2788717891834676
1772556560976422100,11.381422119140625,0.455570515602827,-1.6870497083619236,-1.311394879386574
1772556560986407200,11.3914072265625,0.23723463867008684,-2.0808008966505525,-1.1630104905582963
1772556560996391200,11.40139111328125,-0.5136895270943641,-1.9110987022444605,-0.9188195299442857
1772556561006375200,11.411375244140626,-1.1713351051807404,-1.9560624640867113,-0.8314632449872791
1772556561016359200,11.421359130859376,-2.036372556859255,-1.8407827647417783,-0.6702694973379373
1772556561026343200,11.43134326171875,-3.201777102947235,-1.109654309554398,-0.18587560456646604
1772556561036327000,11.441326904296876,-4.248475190111995,-0.016111176845431327,0.33499884732961654
1772556561046311000,11.451310791015626,-4.680985732644796,0.8587161397024988,0.6566322363253683
1772556561056295000,11.461294921875,-4.48892060752213,1.3775155571565032,0.7714002598211169
1772556561066280000,11.471280029296874,-3.4418227073848247,1.7599758283630011,0.6841115602076053
1772556561076264000,11.481263916015624,-2.020003021338582,2.1080083447888494,0.6187912390351296
1772556561086248000,11.491248046875,-0.8778454953253269,2.3371485243305563,0.7276460198991
1772556561096232000,11.50123193359375,0.07464987505376339,2.181742274041474,0.9828117443181574
1772556561106216000,11.5112158203125,0.4514122268795967,1.8191206757709384,1.3561593192644417
1772556561116200000,11.521199951171875,0.09860124400556088,1.25092506698519,1.5963281116902828
1772556561126184000,11.531183837890625,-0.07723989154696465,0.6286074073895812,1.6289746821425855
1772556561136169000,11.5411689453125,-0.03593582125604153,0.07759703442156314,1.5323501450374721
1772556561146153000,11.551153076171875,-0.017232874351739882,-0.24933745665699242,1.446665519619733
1772556561156137000,11.561136962890625,-0.11290332560241222,-0.4385734958335757,1.4347175999335944
1772556561166121000,11.571120849609375,-0.07575520594716072,-0.5310059880763291,1.3938514826685189
1772556561176105000,11.58110498046875,0.07358312260508537,-0.4464531431674957,1.2552362081825732
1772556561186089000,11.5910888671875,0.3091320001453161,-0.29114246220737694,0.9145087540730833
1772556561196073000,11.601072998046876,0.5068816006451845,-0.1498386792898178,0.5933587281474844
1772556561206057000,11.611056884765626,0.6354331617563963,-0.09802636672705412,0.2738415275881067
1772556561216042000,11.6210419921875,0.7363175482630729,-0.09452420382499695,-0.04923394997473806
1772556561226026000,11.63102587890625,0.8259738537907599,-0.017064239786565304,-0.3040296355050057
1772556561236010000,11.641010009765624,0.8482546591818332,-0.004972819976508617,-0.6039143532250076
1772556561245994000,11.650993896484374,0.8301835804402827,-0.052933133286237714,-0.8299876194767654
1772556561255978000,11.66097802734375,0.8513830203354358,-0.10232084905058145,-0.9059193510346114
1772556561265962000,11.6709619140625,0.9027139791220427,-0.11735738240182399,-0.778272483678162
1772556561275946000,11.680946044921875,1.022882911813259,-0.1056453172981739,-0.5093467851823196
1772556561285931000,11.690930908203125,1.0829431205004454,-0.14364274725914,-0.31379359874818474
1772556561295911200,11.7009111328125,1.165115792274475,-0.19009528635442255,-0.17057410013610497
1772556561305895200,11.710895263671874,1.2641636110037564,-0.176261699052155,0.03783664990868419
1772556561315879200,11.720879150390624,1.342988725915551,-0.169433898858726,0.17652668839758262
1772556561325863200,11.73086328125,1.4489210434615611,-0.14486410574764014,0.22999462268026544
1772556561335847200,11.74084716796875,1.532070451313257,-0.14089929376989602,0.18542243570517747
1772556561345831200,11.7508310546875,1.538674379622936,-0.13910510382950306,0.049196266579162325
1772556561355816200,11.760816162109375,1.472453894740343,-0.14372194997519253,-0.11112891807472333
1772556561365800200,11.77080029296875,1.4808441219449042,-0.11021247908324003,-0.2334666644386947
1772556561375784200,11.7807841796875,1.5269167218118904,-0.05350830282568931,-0.32741712349634616
1772556561385768200,11.790768310546875,1.5133961459815501,-0.11483254009932278,-0.40408107831887896
1772556561395752200,11.800752197265625,1.5412906996011733,-0.2676128257989883,-0.42618075498938557
1772556561405736200,11.810736083984375,1.5581167467176913,-0.41027825245857236,-0.46222076727226374
1772556561415720200,11.82072021484375,1.4791291347205637,-0.5260650245428085,-0.49151926940567786
1772556561425704200,11.8307041015625,1.343132518300414,-0.5694044000536203,-0.4367519794948399
1772556561435689200,11.840689208984376,1.1613830354869366,-0.564665973354876,-0.33673071262352167
1772556561445673200,11.850673095703126,0.9365133728712797,-0.5361398438334465,-0.2252097812902182
1772556561455657200,11.8606572265625,0.6790846719563007,-0.4600973453775048,-0.04631235430645756
1772556561465641200,11.87064111328125,0.48382688827216624,-0.45249388463646173,0.13876355124968104
1772556561475625200,11.880625244140624,0.28856150580346585,-0.48836570074558255,0.2776840283604339
1772556561485609000,11.89060888671875,0.0588332972407341,-0.4749216972827911,0.38029085474554447
1772556561495593000,11.900593017578124,-0.17529460758566856,-0.4403118639335036,0.44247777326311916
1772556561505578200,11.910578125,-0.47100364705622194,-0.3822597801983356,0.4623756290404126
1772556561515562000,11.92056201171875,-0.6935141793251037,-0.6142065415933727,0.47965997785106296
1772556561525546000,11.9305458984375,-0.6856032600700855,-1.3284566349551081,0.6037293520469218
1772556561535530000,11.940530029296875,-0.9043962331205606,-1.5506836741074919,0.8342866318449378
1772556561545514000,11.950513916015625,-1.2108540456205605,-1.119265018464625,0.9474478777311742
1772556561555498200,11.960498291015625,-1.359921156015992,-1.0457727890133857,0.9569855944704264
1772556561565482200,11.970482177734375,-1.806679419609904,-1.0477166165575384,0.8077698693845421
1772556561575466200,11.98046630859375,-2.517760235285759,-0.6406061804801225,0.6769729404993355
1772556561585451000,11.990450927734376,-3.1883588184475897,0.10743629236817359,0.5203597621059045
1772556561595434200,12.000434326171876,-3.49843365240097,0.7287023970842361,0.24668986475765703
1772556561605418200,12.010418212890626,-3.3262095383018253,1.000669034178555,-0.2710023951720446
1772556561615402200,12.02040234375,-2.8393729468196627,1.0863429920718073,-0.8471893680378794
1772556561625386200,12.03038623046875,-2.2355612502515316,1.0608967083871363,-1.3668236288808286
1772556561635370200,12.040370361328126,-1.7567402074426413,1.080806108471751,-1.6509727250695228
1772556561645354200,12.050354248046874,-1.3728490266501903,1.1931494621038436,-1.6583365318357943
1772556561655338000,12.060337890625,-1.1857710422903298,1.3107736787483095,-1.4481750473998487
1772556561665323300,12.0703232421875,-1.0666308681249619,1.3557058764085173,-1.1443565704274923
1772556561675307300,12.080307373046875,-0.9243880507916211,1.280110244937241,-0.816970974580571
1772556561685291000,12.090291015625,-0.5919932484805583,1.117496839748323,-0.5573834881965071
1772556561695275000,12.10027490234375,-0.14281564878523348,1.0028767733559012,-0.32386352266799656
1772556561705259000,12.110259033203125,0.19915537564456462,0.8916606701880693,-0.12199122534808703
1772556561715243000,12.120242919921875,0.44211891335546966,0.7483502236232161,0.0033483879792969673
1772556561725227000,12.13022705078125,0.4821107320040464,0.5965066342517733,0.10523812473677098
1772556561735212000,12.1402119140625,0.3913461729735136,0.46487259695529937,0.15059869474372825
1772556561745196000,12.150196044921875,0.23361937078237532,0.3578954465314746,0.15263951638895085
1772556561755180000,12.160179931640625,0.06726677906513213,0.26055004780590535,0.11504055682681501
1772556561765164000,12.1701640625,-0.07470891176462173,0.16257073509097097,0.08543260515173896
1772556561775148000,12.18014794921875,-0.09244973563849926,0.06856792479157447,0.15964206122793256
1772556561785132300,12.19013232421875,0.07314297762215137,0.07450666719079017,0.19671063110725953
1772556561795116300,12.2001162109375,0.31221944476664065,0.1032818030372262,0.17607412232449277
1772556561805100300,12.210100341796876,0.5879594629198313,0.13513853828608988,0.1513443894113414
1772556561815085000,12.2200849609375,0.9108505238264799,0.18247867387086153,0.16746787774907423
1772556561825069300,12.2300693359375,1.1534282770901918,0.21777122878730296,0.14511577895376832
1772556561835053300,12.24005322265625,1.3560118736177682,0.19955460409522055,0.07043684220230206
1772556561845037300,12.250037353515625,1.4936521655917168,0.10241261898726224,-0.020843995787296444
1772556561855021300,12.260021240234375,1.5282488471984863,-0.04116583086401224,-0.11741837360775098
1772556561865005300,12.27000537109375,1.5392051254987715,-0.19980916337817906,-0.14966273820102213
1772556561874989300,12.2799892578125,1.506540873259306,-0.31829262720048423,-0.14423095894325524
1772556561884973000,12.28997314453125,1.4587743289560078,-0.37990181889533997,-0.06810509305279702
1772556561894958300,12.299958251953125,1.4573504336327314,-0.46698710489124057,0.06502016918212175
1772556561904942300,12.3099423828125,1.5130834267705677,-0.5841171082779765,0.15572718933913857
1772556561914926000,12.319926025390625,1.4519436061531303,-0.6418015277445316,0.26976098027620465
1772556561924910000,12.32991015625,1.424569861537218,-0.6971057740762829,0.4150823282720521
1772556561934894000,12.33989404296875,1.399793147677183,-0.7523845937058329,0.5477670801978558
1772556561944878000,12.349878173828126,1.3660340859383344,-0.7754802226111293,0.6265398073352872
1772556561954862000,12.359862060546876,1.3530191215425729,-0.7945879509240389,0.6690874479465186
1772556561964847000,12.36984716796875,1.4387369185775518,-0.8353986847400665,0.6596990034848451
1772556561974831000,12.3798310546875,1.542811625558138,-0.8935755638986825,0.6001908026572317
1772556561984815000,12.389815185546874,1.5918004051327705,-0.9278387757673859,0.5600885459041223
1772556561994799000,12.399799072265624,1.4722066419810056,-0.8737631944477557,0.5827050860555842
1772556562004783000,12.409783203125,1.3713082269489765,-0.7708639609873295,0.5349379937630147
1772556562014770200,12.419770263671875,1.2968302013307809,-0.664309419889748,0.43758404640480875
1772556562024754000,12.42975390625,1.1026783330619334,-0.5472863840088248,0.3324466786287725
1772556562034738200,12.43973828125,0.8573907363176345,-0.49585430293530225,0.21645799076426772
1772556562044723200,12.44972314453125,0.6061357556015252,-0.5065376095131039,0.04267996175400913
1772556562054707000,12.45970703125,0.27718261817693707,-0.43296851543337106,-0.10979520351924002
1772556562064691000,12.46969091796875,-0.18538637801110744,-0.17521569713056087,-0.2291867220971733
1772556562074675200,12.47967529296875,-0.664624769449234,0.12279898893386125,-0.2855172427367419
1772556562084659200,12.4896591796875,-1.0692921962887048,0.3069672233268618,-0.4066236024085432
1772556562094643200,12.499643310546874,-1.2861246829211712,0.3005313450604677,-0.6049488839045166
1772556562104627200,12.509627197265624,-1.2865467077255248,0.15698504391312598,-0.821816368785128
1772556562114611200,12.519611083984374,-1.0579559787601232,-0.4090314672678709,-0.9543270427856594
1772556562124596200,12.52959619140625,-0.5798959834516048,-1.6623258937329053,-1.1793469275269657
1772556562134580200,12.539580322265625,-0.46934652749896044,-2.489746146939695,-1.3343274266846477
1772556562144564200,12.549564208984375,-0.9521978487372398,-2.718283099891245,-1.1942140956606715
