time,seconds_elapsed,z,y,x
1772556549684398000,0.089398193359375,-8.821358859956264,-3.933478097325563,-1.697574463377148
1772556549694382000,0.099382080078125,-8.790106228080392,-4.000182566332817,-1.7038070741564035
1772556549704366000,0.109365966796875,-8.75415228664577,-4.07528982976526,-1.7109110609427094
1772556549714351000,0.11935107421875,-8.716824718770384,-4.152451687639951,-1.7159525622412561
1772556549724335000,0.129335205078125,-8.681805427837372,-4.22516182680279,-1.7159962552525103
1772556549734319000,0.139319091796875,-8.651341315990686,-4.29005457021296,-1.708832208842039
1772556549744303000,0.14930322265625,-8.625774913057684,-4.347015643841028,-1.6940635326467453
1772556549754287400,0.159287353515625,-8.604702314412593,-4.396653827235102,-1.6729975098729133
1772556549764271400,0.169271240234375,-8.58684224807322,-4.440172943226993,-1.649663834428042
1772556549774255400,0.17925537109375,-8.57114023655057,-4.478430193167925,-1.62775843822062
1772556549784239400,0.1892392578125,-8.557642457073927,-4.5110020909488195,-1.6087255287095903
1772556549794223400,0.199223388671875,-8.546792561757565,-4.536126010811329,-1.5957072033129631
1772556549804207400,0.209207275390625,-8.537878018417954,-4.55454955625236,-1.5909436421729624
1772556549814191400,0.21919140625,-8.529936704024673,-4.569580828906595,-1.590439930434525
1772556549824175400,0.22917529296875,-8.522847038024663,-4.582893022683263,-1.5901421165317295
1772556549834159000,0.2391591796875,-8.515632868862152,-4.59653108741343,-1.5894295843482016
1772556549844143000,0.24914306640625,-8.508712129688263,-4.6098777679815885,-1.5878377851121126
1772556549854127000,0.259127197265625,-8.504582482537627,-4.62011274627,-1.580195015273988
1772556549864111000,0.269111083984375,-8.504606447935103,-4.625569842632115,-1.5640189564988016
1772556549874095000,0.27909521484375,-8.509013158461451,-4.625919386722147,-1.5388149571374057
1772556549884079000,0.2890791015625,-8.518050451397896,-4.619441130618751,-1.5079688602358101
1772556549894063400,0.2990634765625,-8.532095343363284,-4.6042429769650095,-1.4746804847486317
1772556549904047400,0.30904736328125,-8.551099903562665,-4.578809552761912,-1.443457663489133
1772556549914031400,0.31903125,-8.573457865843176,-4.544922188468277,-1.4177020215943454
1772556549924015400,0.329015380859375,-8.596417885670066,-4.50628383025527,-1.4019247528783976
1772556549933999400,0.338999267578125,-8.615352303242682,-4.471011149083077,-1.3986233732454478
1772556549943983400,0.3489833984375,-8.621582137542962,-4.454660902784765,-1.4123409329526126
1772556549953967400,0.35896728515625,-8.61159032036066,-4.4646214480459685,-1.4415461307793855
1772556549963951400,0.368951416015625,-8.588075004738569,-4.4969104372322555,-1.4809277085751293
1772556549973935400,0.378935302734375,-8.55644418720007,-4.542991512666642,-1.522785028834641
1772556549983919000,0.388919189453125,-8.522342595633864,-4.5943739093795415,-1.5594193537488579
1772556549993904400,0.398904296875,-8.490698918613791,-4.643976436938345,-1.5848960325717925
1772556550003888400,0.408888427734375,-8.465734573227166,-4.686241461215913,-1.5940071213968097
1772556550013872000,0.4188720703125,-8.450236559844017,-4.71691687772572,-1.5857425663985312
1772556550023856000,0.428856201171875,-8.445991177359224,-4.732612751768529,-1.561407020434737
1772556550033840000,0.438840087890625,-8.454049980652332,-4.731097086508572,-1.5218880799949168
1772556550043824000,0.44882421875,-8.474718090149759,-4.710407934223115,-1.4702359264299272
1772556550053808000,0.45880810546875,-8.507135674151778,-4.670203057345748,-1.4100452232308684
1772556550063792000,0.468792236328125,-8.549382578250766,-4.612097782118618,-1.3442472015440463
1772556550073776000,0.478776123046875,-8.598914963182807,-4.538361807039379,-1.2776213507309555
1772556550083760400,0.488760498046875,-8.652171921595931,-4.453623084169626,-1.2147223384212702
1772556550093744400,0.498744384765625,-8.705296778061985,-4.363701990225911,-1.1603010854691267
1772556550103728400,0.508728271484375,-8.754667834952473,-4.275139909675717,-1.1177462844647466
1772556550113712400,0.51871240234375,-8.798045204386115,-4.1933015844225885,-1.0867409053482115
1772556550123696400,0.5286962890625,-8.834211911788582,-4.121925031951069,-1.0662165151704102
1772556550133680400,0.538680419921875,-8.863162696462869,-4.062400829836726,-1.0543375690672545
1772556550143664400,0.548664306640625,-8.886165970909595,-4.013533338554203,-1.0478468918737023
1772556550153648000,0.558648193359375,-8.905055964818596,-3.9730046365499496,-1.0419223241303115
1772556550163632000,0.568632080078125,-8.922218112021683,-3.936649128577113,-1.0330562961075453
1772556550173616000,0.5786162109375,-8.940921058925985,-3.8979736532241103,-1.0178999357689171
1772556550183600000,0.58860009765625,-8.963120615774393,-3.853430747142434,-0.9919304319277406
1772556550193584000,0.598584228515625,-8.98807677785456,-3.8040868705198165,-0.9559211070440709
1772556550203568000,0.608568115234375,-9.015865533012152,-3.7489202790930864,-0.9111256144408136
1772556550213552000,0.61855224609375,-9.04540960740447,-3.689745036546886,-0.8583272865153848
1772556550223536000,0.6285361328125,-9.07554697151482,-3.628719782219827,-0.7982671508934348
1772556550233520400,0.638520263671875,-9.105804162612557,-3.566913314387202,-0.7292799047112465
1772556550243504400,0.64850439453125,-9.136373488399386,-3.5036049175590276,-0.6494774691998958
1772556550253488400,0.65848828125,-9.16577727753818,-3.4409324805468318,-0.5647115295296534
1772556550263473200,0.66847314453125,-9.191584503489732,-3.3844568523481486,-0.48022137459348885
1772556550273457400,0.67845751953125,-9.211769797906278,-3.339617009146511,-0.4007968324838206
1772556550283444200,0.6884443359375,-9.224756120729445,-3.311596198798716,-0.32800906150750814
1772556550293428200,0.69842822265625,-9.22963395589888,-3.303880217593908,-0.26194984986754133
1772556550303412200,0.708412109375,-9.226905992239713,-3.3155914059147236,-0.2035688812378794
1772556550313396200,0.718396240234375,-9.218228180265426,-3.342345849588513,-0.15290062414370476
1772556550323380200,0.728380126953125,-9.206031546515225,-3.377572061270475,-0.10667139067659154
1772556550333364000,0.738364013671875,-9.191938723754882,-3.416724506485462,-0.06809759929950815
1772556550343348000,0.748347900390625,-9.177169024646282,-3.456648520594835,-0.03916319037128705
1772556550353332000,0.75833203125,-9.163326377254723,-3.4933424667418,-0.019730668817111288
1772556550363316000,0.76831591796875,-9.151573980140686,-3.5240620146542785,-0.008465441586196538
1772556550373300000,0.778300048828125,-9.142252609565853,-3.548179680083692,-0.0042959650340824735
1772556550383284000,0.788283935546875,-9.135830467563867,-3.5646836556389925,-0.004231164731895842
1772556550393268200,0.798268310546875,-9.132140965396164,-3.574117546677589,-0.00838362107972789
1772556550403252200,0.808252197265625,-9.131042064243555,-3.5769168220072984,-0.011128989677311619
1772556550413236200,0.818236328125,-9.130108582785725,-3.5793145307987926,-0.0027610639236372663
1772556550423220200,0.82822021484375,-9.1286250662297,-3.5830657000258563,0.01522586250292952
1772556550433204200,0.838204345703125,-9.126765702098607,-3.5876270165920254,0.038245322041120376
1772556550443188200,0.848188232421875,-9.125897687092422,-3.5893691840842363,0.06929051257823593
1772556550453172200,0.858172119140625,-9.128468414363265,-3.581929973994195,0.1059551504323259
1772556550463156200,0.86815625,-9.135112090161442,-3.56377413957864,0.14010764106870627
1772556550473140200,0.87814013671875,-9.148071524977684,-3.5296667027935382,0.15692692051772028
1772556550483124000,0.8881240234375,-9.169536922332643,-3.4739313715681432,0.14756646004151552
1772556550493108000,0.89810791015625,-9.198538560411334,-3.397648926876485,0.11510694572706706
1772556550503092000,0.908092041015625,-9.23269392799139,-3.3050998225167394,0.06375246906755491
1772556550513076000,0.918075927734375,-9.266537160882352,-3.209621094445884,-0.00019422502198249275
1772556550523060000,0.92806005859375,-9.293467837905883,-3.13024448313117,-0.05839961396462749
1772556550533045000,0.938044921875,-9.309798210459947,-3.080501085796952,-0.09250591367199085
1772556550543029000,0.948029052734375,-9.31408100234568,-3.0674951814904805,-0.09355572411902248
1772556550553013000,0.958012939453125,-9.30729236511886,-3.088772947318852,-0.0646066062454367
1772556550562997000,0.9679970703125,-9.291953341689705,-3.1352342542424796,-0.016966452242695957
1772556550572981000,0.97798095703125,-9.271114551800489,-3.1961154239237306,0.04080493882948067
1772556550582965200,0.98796533203125,-9.247826615193485,-3.2614304843991992,0.10563640333935617
1772556550592949200,0.99794921875,-9.224612912866473,-3.3235429494410753,0.1759579668652266
1772556550602933200,1.007933349609375,-9.20382380733788,-3.376058149576187,0.2494796781392768
1772556550612917200,1.017917236328125,-9.1870410148412,-3.415169093737006,0.32447891461998224
1772556550622901200,1.0279013671875,-9.174723969581724,-3.4401273016437885,0.4004412239791825
1772556550632885200,1.03788525390625,-9.16670783638656,-3.452131335431337,0.47396706343907863
1772556550642869200,1.047869140625,-9.163043468660115,-3.4519778984352945,0.5411704584117979
1772556550652853000,1.05785302734375,-9.163213564530015,-3.4421824806079266,0.5977310614801943
1772556550662837000,1.0678369140625,-9.167256702440977,-3.4227728467389937,0.6452998181890696
1772556550672821000,1.077821044921875,-9.175054808971286,-3.3934427073583007,0.6879713774409145
1772556550682805000,1.087804931640625,-9.185756820249557,-3.3557866381809114,0.728666668183729
1772556550692789000,1.0977890625,-9.199355137491226,-3.308992446041107,0.7699467000119388
1772556550702773000,1.10777294921875,-9.214663181260228,-3.254642139433324,0.8171100907903164
1772556550712757000,1.117757080078125,-9.229868933698535,-3.1962893191859125,0.87386723934412
1772556550722741200,1.1277412109375,-9.244400732398033,-3.1366596108704803,0.9342400941770523
1772556550732725200,1.137725341796875,-9.257728416004776,-3.0793551306322215,0.9911731838196516
1772556550742709200,1.147709228515625,-9.26939781101048,-3.0280747329890727,1.0389484228860586
1772556550752693200,1.157693359375,-9.279116071948408,-2.9868752921164035,1.0709650248717517
1772556550762677200,1.16767724609375,-9.286047917038202,-2.960707416158914,1.0834688248749822
1772556550772662300,1.177662353515625,-9.288976371705532,-2.953704843920469,1.077465858133137
1772556550782646300,1.187646240234375,-9.28722572864592,-2.966714839880168,1.056607779021561
1772556550792630300,1.19763037109375,-9.281582754322885,-2.9960327043011783,1.0229330345652996
1772556550802614300,1.2076142578125,-9.274072817084193,-3.0353461852967736,0.9739774266079068
1772556550812598300,1.217598388671875,-9.267226896712183,-3.0763167858496305,0.9083855950176716
1772556550822582000,1.22758203125,-9.262165521669388,-3.113480103074014,0.8300110734175891
1772556550832566000,1.23756591796875,-9.258246302399039,-3.146606127606332,0.7444009014755487
1772556550842550000,1.247550048828125,-9.254971226251126,-3.1764322338104245,0.6528129702981561
1772556550852534000,1.257533935546875,-9.251891380414365,-3.203119749727845,0.5593845988858491
1772556550862518000,1.26751806640625,-9.247615602791308,-3.230121738421917,0.4672285854969173
1772556550872502000,1.277501953125,-9.241578076192736,-3.25879955137372,0.37926140209995207
1772556550882486000,1.287486083984375,-9.232821353763342,-3.291503843362629,0.302325991658587
1772556550892470000,1.297469970703125,-9.220940361833572,-3.329076325909793,0.2487736487617716
1772556550902454000,1.3074541015625,-9.207354319551586,-3.368484207190573,0.21983592449845746
1772556550912438300,1.317438232421875,-9.192646579763293,-3.4096780951052903,0.1993212337307632
1772556550922422300,1.32742236328125,-9.176511437520384,-3.45431715503782,0.17238036410678176
1772556550932406300,1.33740625,-9.158867059758306,-3.5024452261298893,0.13570707715535535
1772556550942390300,1.347390380859375,-9.140311412370204,-3.5519048380866645,0.09519110676851122
1772556550952374300,1.357374267578125,-9.122686908352375,-3.597695406141877,0.05960676583126187
1772556550962358300,1.367358154296875,-9.108150433477759,-3.6346561865314837,0.03542845168921631
1772556550972342000,1.377342041015625,-9.098073276099562,-3.6598981798157095,0.02438758439499652
1772556550982326000,1.387325927734375,-9.09233151757717,-3.6741315800905228,0.025551974832138512
1772556550992310000,1.39731005859375,-9.089723965427279,-3.680496731208265,0.035264032074855636
1772556551002295000,1.407294921875,-9.089038905772567,-3.682025255949795,0.049436966300127096
1772556551012279000,1.417279052734375,-9.088900958606601,-3.6820951063156127,0.06663821253774221
1772556551022263000,1.427262939453125,-9.087650081762671,-3.6848201473653313,0.08426768042505718
1772556551032247000,1.4372470703125,-9.084142365902661,-3.6931302950710054,0.09762476365622133
1772556551042231000,1.44723095703125,-9.077795627224445,-3.7085841770514842,0.1020435025470797
1772556551052215000,1.457215087890625,-9.068557258757949,-3.731347505262494,0.09325896966215222
1772556551062199000,1.467198974609375,-9.057350805088877,-3.758967918115854,0.07032836772599257
1772556551072183000,1.47718310546875,-9.04593275449574,-3.78684815094918,0.03555609209029935
1772556551082167000,1.4871669921875,-9.036836424848437,-3.8086674763083455,-0.004999056104529881
1772556551092151000,1.497151123046875,-9.031974956291913,-3.8199043251156803,-0.046329063412663525
1772556551102135300,1.50713525390625,-9.032221624529361,-3.8185619705960154,-0.08910140245812945
1772556551112119300,1.517119384765625,-9.036216247123479,-3.8076533308297393,-0.1376709337073844
1772556551122103300,1.527103271484375,-9.040964902955293,-3.7938407863155006,-0.1952058708338067
1772556551132087300,1.53708740234375,-9.042184800139069,-3.787131351804733,-0.2586754130404442
1772556551142071000,1.547071044921875,-9.03707140264809,-3.794621707560122,-0.3202597990876064
1772556551152055000,1.557054931640625,-9.024641544663906,-3.8189053772062063,-0.3770801125381142
1772556551162039000,1.5670390625,-9.005546968093514,-3.85790438542515,-0.4325311103967949
1772556551172023000,1.57702294921875,-8.981313275068997,-3.907754750265181,-0.48564749129544943
1772556551182007000,1.587007080078125,-8.953712151437998,-3.964706471543014,-0.531533409483917
1772556551191991000,1.596990966796875,-8.925243597322702,-4.023916200880706,-0.564359976145625
1772556551201976000,1.60697607421875,-8.899102609372138,-4.079074024479091,-0.5809563426921144
1772556551211960000,1.6169599609375,-8.876791408842802,-4.127084898932278,-0.5832032813686877
1772556551221944000,1.626944091796875,-8.86107069261968,-4.162320462964475,-0.571746798461303
1772556551231928000,1.636927978515625,-8.856421405509113,-4.175871141672134,-0.5443170858744532
1772556551241912000,1.646912109375,-8.863104828795791,-4.166793224464357,-0.5035786866422742
1772556551251896000,1.65689599609375,-8.880216707116364,-4.135758034731447,-0.4556688248781487
1772556551261880000,1.666880126953125,-8.906319116622209,-4.084508032226562,-0.4057857998775318
1772556551271864000,1.676864013671875,-8.93899213669002,-4.016947530911863,-0.3590814779782667
1772556551281845000,1.686844970703125,-8.974974719697236,-3.9393239007443186,-0.31928247848805036
1772556551291829000,1.6968291015625,-9.011827655798196,-3.8568072378382086,-0.2870247246902436
1772556551301813200,1.706813232421875,-9.0460993432343,-3.777211430814862,-0.2667270924730226
1772556551311797200,1.71679736328125,-9.07525061891675,-3.706966220460832,-0.2619331361947581
1772556551321781200,1.72678125,-9.097492845863103,-3.651077159978449,-0.275031760285981
1772556551331765200,1.73676513671875,-9.11173179909587,-3.613018355219066,-0.3046859439892694
1772556551341749200,1.746749267578125,-9.119005004969239,-3.5909874329358336,-0.34487277375329284
1772556551351733200,1.756733154296875,-9.122242671716213,-3.5781516244992613,-0.3897483458554372
1772556551361717200,1.76671728515625,-9.123840754562616,-3.568687338322401,-0.43633123333211987
1772556551371701200,1.776701171875,-9.126122728019952,-3.5571026989907026,-0.4809219606108963
1772556551381685000,1.78668505859375,-9.13129223961234,-3.538218550300598,-0.5204805024087429
1772556551391670300,1.796670166015625,-9.14065452671945,-3.50909270132035,-0.5523453844314441
1772556551401654300,1.806654296875,-9.154470870625973,-3.469248474448919,-0.5747724664254114
1772556551411638000,1.816637939453125,-9.171871502760052,-3.4206288204476234,-0.5886007930306717
1772556551421622000,1.8266220703125,-9.191277044975758,-3.3666058460980652,-0.5973050546204671
1772556551431606000,1.83660595703125,-9.208236947605013,-3.318402956204116,-0.6057770052917302
1772556551441590000,1.846590087890625,-9.218188432776927,-3.2886256575778123,-0.6167047881498933
1772556551451574000,1.856573974609375,-9.225160025355219,-3.2674715181291103,-0.6248479817908257
1772556551461558000,1.86655810546875,-9.232455443060397,-3.246820067505538,-0.6247478093519806
1772556551471542000,1.8765419921875,-9.237735429289936,-3.2313886896178126,-0.6267014276377857
1772556551481526000,1.886526123046875,-9.237966315436363,-3.2293750117078424,-0.6336445978391915
1772556551491510300,1.89651025390625,-9.234152310106158,-3.239021084192395,-0.6399641562495381
1772556551501494300,1.906494384765625,-9.228436855068802,-3.2547964532122013,-0.6423657374985515
1772556551511478300,1.916478271484375,-9.221293413054942,-3.275001036851108,-0.6422600851669907
1772556551521462300,1.926462158203125,-9.21294351786077,-3.2985441172629595,-0.6416103160213679
1772556551531446300,1.9364462890625,-9.203808025246857,-3.3238165056854485,-0.6422953026108443
1772556551541430300,1.94643017578125,-9.194342862287163,-3.349247884061932,-0.6457374058887362
1772556551551414000,1.9564140625,-9.185418966597318,-3.3721886146664617,-0.6533072566211223
1772556551561398000,1.96639794921875,-9.178409380096197,-3.3888939580127593,-0.6652704469416291
1772556551571383300,1.97638330078125,-9.174291423383355,-3.396757530994713,-0.6817631704505532
1772556551581367000,1.986366943359375,-9.172810829436779,-3.396416170211136,-0.7030510923467576
1772556551591351000,1.99635107421875,-9.172647163307666,-3.391433705623448,-0.7287685211230069
1772556551601335000,2.0063349609375,-9.171790254217386,-3.3873958284094927,-0.757761683634296
1772556551611319000,2.016319091796875,-9.16773601039052,-3.3916076008856293,-0.7874013273555786
1772556551621303000,2.026302978515625,-9.158129393133521,-3.411032724584639,-0.8148018869131803
1772556551631287000,2.036287109375,-9.141175335723162,-3.4507729065597057,-0.8375385463129729
1772556551641271000,2.04627099609375,-9.117689830717444,-3.507667052431404,-0.8569633046858012
1772556551651255000,2.056255126953125,-9.09082345110178,-3.571195229490101,-0.8797053709130733
1772556551661239000,2.066239013671875,-9.064571403992176,-3.629523499818146,-0.9113112001407891
1772556551671223000,2.07622314453125,-9.042616761815548,-3.67252326811105,-0.9560564238615333
1772556551681207300,2.086207275390625,-9.027141544786096,-3.6950557101756334,-1.013735144239664
1772556551691191300,2.09619140625,-9.017662353301048,-3.698812432360649,-1.082100532196462
1772556551701175300,2.10617529296875,-9.011999505233764,-3.6893648050576444,-1.158808508823812
1772556551711159300,2.1161591796875,-9.00751388425231,-3.673826751925051,-1.2401891534373164
1772556551721143000,2.12614306640625,-9.002046266496182,-3.658729428297281,-1.3218334174230695
1772556551731128300,2.13612841796875,-8.994460925933717,-3.6493323621377347,-1.3972938782073556
1772556551741112300,2.1461123046875,-8.984148206233979,-3.6512513475015758,-1.4573359667159616
1772556551751096000,2.156095947265625,-8.97099471015036,-3.669190324296057,-1.4928773818269372
1772556551761080000,2.166080078125,-8.954960690194367,-3.704582832455635,-1.5017071694925426
1772556551771064000,2.17606396484375,-8.936414395156502,-3.754273622819781,-1.4887300528891383
1772556551781048000,2.186048095703125,-8.916153697416187,-3.8119837612494822,-1.4633400294363499
1772556551791032000,2.196031982421875,-8.895452854692936,-3.8718995930299163,-1.4316777938462792
1772556551801016000,2.20601611328125,-8.87582344059348,-3.928796076989174,-1.3981078249387442
1772556551811000000,2.216,-8.85902311244011,-3.9772397899016734,-1.3673546670176089
1772556551820984000,2.225984130859375,-8.84632145177722,-4.013340446330607,-1.343904379455745
1772556551830968000,2.235968017578125,-8.83882262045443,-4.03467987921834,-1.3292708739474415
1772556551840952000,2.2459521484375,-8.836984299111366,-4.040596409785747,-1.3235086571589112
1772556551850936000,2.25593603515625,-8.840956125351786,-4.031419416117668,-1.3249651395775377
1772556551860920000,2.265920166015625,-8.85032834933102,-4.008741720363497,-1.331190005441755
1772556551870904300,2.275904296875,-8.863980442586541,-3.9756364463582634,-1.3396071206532418
1772556551880888300,2.285888427734375,-8.880602491563558,-3.9351501221910117,-1.3490281522102654
1772556551890873000,2.295873046875,-8.898310582211613,-3.8914933512941,-1.3589463196344673
1772556551900857000,2.305857177734375,-8.915525336384773,-3.8482708801612255,-1.3691628854833542
1772556551910841300,2.31584130859375,-8.930628797492384,-3.808776781901717,-1.3811119742132723
1772556551920825300,2.325825439453125,-8.942389377912878,-3.775812377671897,-1.3954573104299604
1772556551930809000,2.33580908203125,-8.950335953003167,-3.7504867977574468,-1.4126989526100455
1772556551940793000,2.34579296875,-8.954978810372948,-3.73138345335871,-1.433709299673885
1772556551950777000,2.355777099609375,-8.957219867298006,-3.716705231925845,-1.4576369954891502
1772556551960761000,2.365760986328125,-8.958018908721208,-3.704541623662412,-1.4834594190098345
1772556551970745000,2.3757451171875,-8.958323444625735,-3.692823128817975,-1.5105910254329442
1772556551980729000,2.38572900390625,-8.958784047874808,-3.6799385128036137,-1.539032691541314
1772556551990713000,2.395713134765625,-8.959735649511218,-3.6650714908003805,-1.5686857792660593
1772556552000697000,2.405697021484375,-8.961712502542138,-3.6471488806188104,-1.5988737045198678
1772556552010681000,2.41568115234375,-8.965200929179787,-3.62536667239964,-1.628581152780354
1772556552020665000,2.4256650390625,-8.970438829833268,-3.598978431689739,-1.6580002856187521
1772556552030649000,2.435649169921875,-8.977734247538447,-3.567217265769839,-1.6868999246276914
1772556552040633000,2.445633056640625,-8.986472849789262,-3.531306578955054,-1.715679736649245
1772556552050618000,2.4556181640625,-8.995939766314626,-3.493256834284961,-1.7437338647447524
1772556552060602000,2.46560205078125,-9.004755525454879,-3.4568902203962204,-1.7705008756391702
1772556552070586000,2.475586181640625,-9.011227936339377,-3.426573408065736,-1.7963174539409577
1772556552080570000,2.485570068359375,-9.014103784036635,-3.406207496385276,-1.8204590847678481
1772556552090554000,2.49555419921875,-9.012729573073983,-3.39841377376914,-1.841704848022759
1772556552100538000,2.5055380859375,-9.006910073140263,-3.4043338114678856,-1.8591567719526587
1772556552110522000,2.515522216796875,-8.99686272637844,-3.4232544927760955,-1.8730128633476792
1772556552120506000,2.525506103515625,-8.983526274943351,-3.4527176108866926,-1.8829175867684185
1772556552130490000,2.535489990234375,-8.968208878824115,-3.4891754101902244,-1.888721450741589
1772556552140474000,2.54547412109375,-8.952446661546826,-3.5289594313070176,-1.8895833282679317
1772556552150458000,2.5554580078125,-8.938194264310598,-3.568061899900436,-1.88361404459998
1772556552160442000,2.565442138671875,-8.926652879598736,-3.6033041859343644,-1.871215750797838
1772556552170426000,2.575426025390625,-8.918043456685542,-3.6334561630919575,-1.8538808773763478
1772556552180410000,2.58541015625,-8.911944555288553,-3.65919763033092,-1.8324569810755549
1772556552190395100,2.59539501953125,-8.907375932198763,-3.682535835820436,-1.8077531863212584
1772556552200379100,2.605379150390625,-8.90320303042829,-3.7052138238355514,-1.7817836094148456
1772556552210363100,2.615363037109375,-8.898236932453512,-3.7292075706243515,-1.7563528155602515
1772556552220347100,2.62534716796875,-8.891398026344179,-3.7562326479330657,-1.7332465191304682
1772556552230331100,2.6353310546875,-8.881862136235833,-3.7871684689447283,-1.714721120750159
1772556552240315100,2.645315185546875,-8.870952619686722,-3.8188098078772423,-1.700963959684968
1772556552250299100,2.655299072265625,-8.860412520971893,-3.8481364401265976,-1.6897696348451077
1772556552260283100,2.665283203125,-8.85200884976387,-3.8714009958580133,-1.6806486091479658
1772556552270267100,2.67526708984375,-8.846890776097775,-3.8851904517576097,-1.6757687281519174
1772556552280251100,2.685251220703125,-8.845681984829902,-3.8873049596935507,-1.6772458149671554
1772556552290234600,2.695234619140625,-8.848795148414373,-3.876226224057376,-1.6864400520309806
1772556552300218600,2.705218505859375,-8.855819347962736,-3.8526977566927667,-1.7033995162688196
1772556552310202600,2.71520263671875,-8.864682453376055,-3.8210070256605744,-1.7284940639063715
1772556552320186600,2.7251865234375,-8.871462322774528,-3.787526488602161,-1.7669693405121565
1772556552330171600,2.735171630859375,-8.871745815891027,-3.7606229918465015,-1.8221470378547906
1772556552340155600,2.74515576171875,-8.862335013467073,-3.751415895301103,-1.8858090704262256
1772556552350139600,2.7551396484375,-8.842314554223417,-3.7691689941346644,-1.943507810679078
1772556552360123600,2.76512353515625,-8.812798536881804,-3.8149528401881456,-1.987735513331741
1772556552370107600,2.775107666015625,-8.776188761886953,-3.8835859391704197,-2.01659350515604
1772556552380091600,2.785091552734375,-8.736015156930684,-3.965961440040171,-2.0306585631266234
1772556552390075600,2.79507568359375,-8.696366452631354,-4.052911993740499,-2.029160433523357
1772556552400059600,2.8050595703125,-8.661150762343405,-4.137067948286235,-2.00985615972504
1772556552410043600,2.815043701171875,-8.632972131085396,-4.212733722384273,-1.9735865764699876
1772556552420027600,2.825027587890625,-8.613374281167983,-4.275536507777869,-1.923526222141087
1772556552430011400,2.835011474609375,-8.603527425414324,-4.322543173624575,-1.861538552522659
1772556552439995600,2.84499560546875,-8.603873462373018,-4.352163235862553,-1.789532031584531
1772556552449979600,2.854979736328125,-8.614286719837784,-4.363714849707484,-1.7095162455834447
1772556552459964400,2.86496435546875,-8.634039468055963,-4.356624599185586,-1.6259065267436206
1772556552469948400,2.874948486328125,-8.661735868754983,-4.330304747536778,-1.546990664808452
1772556552479932700,2.8849326171875,-8.695192732676864,-4.286475250421464,-1.4799129785746334
1772556552489916700,2.894916748046875,-8.730645738852024,-4.231513826178014,-1.42845912406072
1772556552499900700,2.904900634765625,-8.764655560481549,-4.171863367335498,-1.3952612033359706
1772556552509884700,2.914884765625,-8.79397167133689,-4.11423067805618,-1.3818660074509679
1772556552519868700,2.92486865234375,-8.817098864424228,-4.062574140577018,-1.3873138975933192
1772556552529852700,2.934852783203125,-8.833737280014157,-4.01852895488441,-1.4095738063268362
1772556552539836700,2.944836669921875,-8.843918482288718,-3.983522815693915,-1.444656810145825
1772556552549820700,2.954820556640625,-8.847832440862058,-3.959340268334746,-1.486561768939346
1772556552559804700,2.9648046875,-8.846592669934035,-3.945453489540517,-1.5302233621418475
1772556552569788700,2.97478857421875,-8.841704897892475,-3.9397292666748163,-1.572632032673806
1772556552579772700,2.984772705078125,-8.83509337079823,-3.937827524706721,-1.6140069762438534
1772556552589756700,2.994756591796875,-8.82927387086451,-3.93472459025532,-1.6529513316661117
1772556552599741700,3.00474169921875,-8.826292224705218,-3.927390886366367,-1.6859861707836388
1772556552609725700,3.0147255859375,-8.827878032591938,-3.9130926041617986,-1.7107473948135972
1772556552619709700,3.024709716796875,-8.834391944530605,-3.8912563276678322,-1.726853603222966
1772556552629693400,3.034693359375,-8.84484436496198,-3.863791982159018,-1.734998038972914
1772556552639677400,3.044677490234375,-8.857070809328556,-3.8348695467963814,-1.7367955899141727
1772556552649661400,3.054661376953125,-8.868853017058967,-3.808700501795113,-1.734252189041674
1772556552659645400,3.0646455078125,-8.878446774834394,-3.789089500135183,-1.728110909807682
1772556552669629700,3.074629638671875,-8.884350445920228,-3.7802462684661147,-1.7171015861459076
1772556552679613700,3.08461376953125,-8.885628795292973,-3.7845369513973592,-1.7009595757707952
1772556552689597700,3.09459765625,-8.881805437612533,-3.8028763256862756,-1.6798950143016873
1772556552699581700,3.104581787109375,-8.873537960004805,-3.83345441930145,-1.6538851053848862
1772556552709565700,3.114565673828125,-8.861803683069347,-3.8736762473136186,-1.622792047984898
1772556552719550700,3.12455078125,-8.847520890694856,-3.9204131563082334,-1.5881204014457762
1772556552729534700,3.13453466796875,-8.831115699338913,-3.9710575941354036,-1.553215384542197
1772556552739518700,3.144518798828125,-8.81329070431292,-4.022809993204474,-1.520952114319056
1772556552749502700,3.154502685546875,-8.794907490882277,-4.07278135407567,-1.4941345422811805
1772556552759486700,3.16448681640625,-8.776882589370011,-4.118150774109363,-1.4756529830425977
1772556552769470700,3.174470703125,-8.76110809713304,-4.1548406286031,-1.4665160291239618
1772556552779454700,3.184454833984375,-8.749445131868123,-4.1793806110978124,-1.466414176184684
1772556552789438700,3.194438720703125,-8.742826590511202,-4.190990677131712,-1.4727413333795965
1772556552799422700,3.204422607421875,-8.740216115751862,-4.192754764194786,-1.4831776794590055
1772556552809406500,3.214406494140625,-8.738268488815427,-4.1923344929561015,-1.4957880085766315
1772556552819390500,3.224390380859375,-8.732522638639807,-4.199935615609586,-1.5079710521928966
1772556552829374500,3.23437451171875,-8.718495282331109,-4.225720337468386,-1.5170745422333478
1772556552839359500,3.244359375,-8.693400588563085,-4.276018738336861,-1.5201444511979818
1772556552849343500,3.254343505859375,-8.658506969836354,-4.3474955363124606,-1.5165496415764093
1772556552859327500,3.264327392578125,-8.618329857748746,-4.429297913469374,-1.5086727707214653
1772556552869311500,3.2743115234375,-8.579022514232992,-4.507751856981217,-1.5003084086105227
1772556552879295500,3.28429541015625,-8.546976101630925,-4.5696752291917795,-1.4958770020343362
1772556552889279500,3.294279541015625,-8.52699129822254,-4.606052656735479,-1.4983594664998352
1772556552899263700,3.304263671875,-8.520686060598493,-4.613784127770364,-1.510392726381868
1772556552909247700,3.314247802734375,-8.525188048192858,-4.597402609550953,-1.534743469914794
1772556552919231700,3.324231689453125,-8.535748605173826,-4.564954338149726,-1.5724422091901302
1772556552929215700,3.3342158203125,-8.547631350669265,-4.5254804058954115,-1.6212363429754972
1772556552939199700,3.34419970703125,-8.55692466419339,-4.488682999373972,-1.6736631341747938
1772556552949183700,3.354183837890625,-8.560233642610907,-4.465286633956432,-1.7187193966060876
1772556552959168800,3.364168701171875,-8.555104463028908,-4.4641634751454,-1.7469449357457458
1772556552969152800,3.37415283203125,-8.540055946978926,-4.48965739736408,-1.755224249921739
1772556552979136800,3.38413671875,-8.515299106863141,-4.539243558309972,-1.7479513363093138
1772556552989120800,3.394120849609375,-8.48240338395536,-4.606640101234615,-1.7314989448107778
1772556552999104800,3.404104736328125,-8.44508166129887,-4.68263817602694,-1.7099368090830742
1772556553009088500,3.414088623046875,-8.407794425433874,-4.757608076815307,-1.6865787298493087
1772556553019072500,3.424072509765625,-8.375043079432844,-4.82287812910527,-1.6639958727717399
1772556553029056500,3.434056396484375,-8.35087952903509,-4.871216920338571,-1.6445188727550208
1772556553039040500,3.44404052734375,-8.338914950475097,-4.896773678660392,-1.6292613901294768
1772556553049024500,3.4540244140625,-8.341403844681382,-4.896856680768728,-1.616217638030648
1772556553059008500,3.464008544921875,-8.358422199499607,-4.8720340819403525,-1.6032611258238554
1772556553068993500,3.47399365234375,-8.388289514496922,-4.824538755793869,-1.5908533335410058
1772556553078977500,3.4839775390625,-8.42775584796667,-4.758557048103213,-1.5809661457769573
1772556553088961500,3.49396142578125,-8.47274123711884,-4.679928332546353,-1.5752188342966138
1772556553098945500,3.503945556640625,-8.51908622418642,-4.59542137260586,-1.5740566586494444
1772556553108929500,3.513929443359375,-8.563406427428125,-4.511353973126411,-1.5767518890827894
1772556553118913500,3.52391357421875,-8.603339209365844,-4.433108703929186,-1.5812915783390402
1772556553128897800,3.533897705078125,-8.63686153973937,-4.364262546718121,-1.5900388022877274
1772556553138881800,3.5438818359375,-8.662924786278605,-4.305589700736105,-1.6081095887683332
1772556553148865800,3.55386572265625,-8.681389248251914,-4.256874185144901,-1.6379536690205334
1772556553158849800,3.563849853515625,-8.692834771373867,-4.217554858930408,-1.6784632279329001
1772556553168833800,3.573833740234375,-8.69820302040875,-4.187317249315977,-1.7256950808376073
1772556553178817500,3.583817626953125,-8.699145854216814,-4.165627687816322,-1.7727935166209936
1772556553188802800,3.593802734375,-8.69736247793138,-4.151432281464338,-1.8143546304129063
1772556553198786800,3.603786865234375,-8.694680106979607,-4.141891130658984,-1.8486914920397102
1772556553208770600,3.6137705078125,-8.692857567727565,-4.133236115038395,-1.8764255944006143
1772556553218754600,3.623754638671875,-8.693362010118365,-4.122360500758886,-1.8978887997984886
1772556553228738600,3.633738525390625,-8.696938699561358,-4.107745115429163,-1.9131302080720662
1772556553238722600,3.64372265625,-8.703950039628147,-4.088717174354195,-1.9219873221360146
1772556553248706600,3.65370654296875,-8.7144433765918,-4.065785796099901,-1.9230821316353977
1772556553258690600,3.663690673828125,-8.726528366661071,-4.043357983453571,-1.915553343565762
1772556553268674600,3.673674560546875,-8.738232248458266,-4.025052219173312,-1.90069304356426
1772556553278658600,3.683658447265625,-8.74788504294455,-4.013116866707802,-1.881431001472473
1772556553288642800,3.693642822265625,-8.753874638748169,-4.009840913777053,-1.8604400897614657
1772556553298627800,3.7036279296875,-8.75493437693417,-4.017280416128039,-1.8392841967470943
1772556553308611800,3.71361181640625,-8.7502342364192,-4.036709631480276,-1.8189995336093008
1772556553318595800,3.723595947265625,-8.739526379922031,-4.0674852934941645,-1.801841185798496
1772556553328579800,3.733579833984375,-8.723979266700148,-4.106289948184788,-1.7891216972179709
1772556553338563800,3.743563720703125,-8.705214360475539,-4.149864301495254,-1.7799599011190235
1772556553348547800,3.7535478515625,-8.685511881139874,-4.194589578406513,-1.7713506243363022
1772556553358531800,3.76353173828125,-8.667002995502948,-4.236958647580445,-1.761142241793871
1772556553368516000,3.77351611328125,-8.651023920604587,-4.274737758615613,-1.748367369764298
1772556553378500000,3.7835,-8.638359084820747,-4.3062645312577486,-1.7335564618624746
1772556553388483800,3.79348388671875,-8.628836054193973,-4.3311315537497395,-1.7189746865414082
1772556553398467800,3.8034677734375,-8.621782628551125,-4.350193689355254,-1.7061828633770346
1772556553408452900,3.813452880859375,-8.61569541759193,-4.365602270889282,-1.6975541512414811
1772556553418436900,3.823436767578125,-8.60862504081428,-4.380538558736443,-1.6949448455259204
1772556553428420900,3.8334208984375,-8.59900088790059,-4.398301886703074,-1.6977955587819218
1772556553438404900,3.84340478515625,-8.587191792163253,-4.419582282879948,-1.702297546376288
1772556553448388900,3.853388916015625,-8.575822256886958,-4.440641145260631,-1.7048068988487124
1772556553458372900,3.863372802734375,-8.568242177021503,-4.455478356647491,-1.7042074716508389
1772556553468356900,3.87335693359375,-8.567993170696496,-4.457305864335597,-1.700677690089494
1772556553478340900,3.8833408203125,-8.577565885683894,-4.4417628427669404,-1.693070868347585
1772556553488324900,3.893324951171875,-8.597150291597842,-4.407852097597718,-1.682329547972232
1772556553498308900,3.903308837890625,-8.624275614410639,-4.358436909304559,-1.6722084053218365
1772556553508294000,3.9132939453125,-8.653844823244214,-4.301845838032663,-1.6659763790644704
1772556553518278000,3.92327783203125,-8.679041223821043,-4.2502091742977495,-1.6674378299191592
1772556553528262000,3.933261962890625,-8.69335031968057,-4.216376462800801,-1.6787532969206571
1772556553538246000,3.943245849609375,-8.69262609705925,-4.209344956728816,-1.700014403875172
1772556553548230000,3.95322998046875,-8.675998202863335,-4.231650019778311,-1.7293300763390957
1772556553558214000,3.9632138671875,-8.645518893447518,-4.279464787137508,-1.7639628521725534
1772556553568198000,3.973197998046875,-8.605680219534038,-4.344028444723785,-1.8005759881682692
1772556553578182000,3.983181884765625,-8.561771519702672,-4.415825852955877,-1.8349198640577493
1772556553588164900,3.993164794921875,-8.519186177429557,-4.486065510351955,-1.8625440763033925
1772556553598148900,4.00314892578125,-8.482295831927656,-4.548552069403231,-1.8792856600068508
1772556553608132900,4.0131328125,-8.454295479846,-4.59915062226206,-1.8823076381765305
1772556553618118000,4.023117919921875,-8.437009414002299,-4.63512736005038,-1.8715910138510166
1772556553628102000,4.033101806640625,-8.43098240879774,-4.655310316379368,-1.8485142357766626
1772556553638086000,4.0430859375,-8.435876610580086,-4.659544592948258,-1.8152194305486975
1772556553648070000,4.05306982421875,-8.449770111376047,-4.649776063127815,-1.7752046694159507
1772556553658054000,4.063053955078125,-8.470748601996899,-4.627834572693705,-1.732037289471179
1772556553668038000,4.073037841796875,-8.497537240201234,-4.5944019664302465,-1.6892950030706821
1772556553678022000,4.08302197265625,-8.528281922554969,-4.551441653364897,-1.6502024713493884
1772556553688006000,4.093005859375,-8.560589031919836,-4.501954568879306,-1.6183650253228843
1772556553697990000,4.102989990234375,-8.591157773184776,-4.450998580884933,-1.5971864820852875
1772556553707974000,4.112973876953125,-8.616522516065835,-4.404534059090912,-1.5893411754123865
1772556553717958000,4.1229580078125,-8.63367121926546,-4.36817036781162,-1.5966183268085121
1772556553727943000,4.13294287109375,-8.641398014125228,-4.344441409438848,-1.6193988984152674
1772556553737927000,4.142927001953125,-8.641008722546696,-4.331525521503389,-1.655669942975044
1772556553747911000,4.152910888671875,-8.63544115154743,-4.3252419111892575,-1.7005356512703
1772556553757895000,4.16289501953125,-8.628745453301072,-4.319908441206812,-1.747436080263555
1772556553767878700,4.172878662109375,-8.62444278767109,-4.3105388475760815,-1.791264554465562
1772556553777863000,4.18286279296875,-8.625207342302799,-4.293566085465252,-1.8279694603979586
1772556553787847000,4.192846923828125,-8.631781459996104,-4.268532181973755,-1.855362201975286
1772556553797831000,4.202830810546875,-8.642805542835593,-4.237717649254202,-1.874577920707315
1772556553807815000,4.21281494140625,-8.656111014610529,-4.204348463615775,-1.8882728301912546
1772556553817799000,4.222798828125,-8.669957753655314,-4.171287321013212,-1.8980464745782315
1772556553827784000,4.232783935546875,-8.68290842064321,-4.141336127124727,-1.9044211241766809
1772556553837768000,4.242767822265625,-8.694095585089922,-4.116334372337162,-1.907583241469413
1772556553847752000,4.252751953125,-8.702849384909868,-4.097307015784085,-1.9086311430871485
1772556553857736000,4.26273583984375,-8.708955300569533,-4.084743302287161,-1.9077102288499472
1772556553867720000,4.272719970703125,-8.712197058969736,-4.078854828770458,-1.9055057045429944
1772556553877704000,4.282703857421875,-8.712158480525016,-4.0800361475095155,-1.903151981023699
1772556553887688000,4.29268798828125,-8.709152868968248,-4.088038544440269,-1.899731651186198
1772556553897672000,4.302671875,-8.70389100291729,-4.101809003378451,-1.8941564814023673
1772556553907656000,4.312656005859375,-8.697216347458959,-4.119541059423983,-1.886316581556946
1772556553917640000,4.322639892578125,-8.690195070520042,-4.13907285836786,-1.8758914875239132
1772556553927625000,4.332625,-8.683599910038708,-4.159254061131179,-1.8617431351840494
1772556553937609000,4.34260888671875,-8.67783418611884,-4.178725069798529,-1.8449495290324092
1772556553947593000,4.352593017578125,-8.67268688635826,-4.1962674484908575,-1.8292695832110941
1772556553957577000,4.362576904296875,-8.668005450543761,-4.211149083541334,-1.8172214180208741
1772556553967560700,4.372560791015625,-8.664858969211577,-4.221239684922993,-1.808795534981042
1772556553977544700,4.382544677734375,-8.664199043998122,-4.224609453617036,-1.8040838501587508
1772556553987528700,4.39252880859375,-8.666762172484397,-4.218775632897019,-1.8054234281994401
1772556553997512700,4.4025126953125,-8.672914849895239,-4.203125936083495,-1.812364479508996
1772556554007497000,4.4124970703125,-8.681179989415407,-4.181718990917504,-1.8222839621074496
1772556554017481000,4.42248095703125,-8.688101897633075,-4.1630157517522575,-1.8320957465477288
1772556554027465700,4.4324658203125,-8.689726868486403,-4.156079230487347,-1.8401190401360392
1772556554037449700,4.44244970703125,-8.682548939681052,-4.168253652405738,-1.8464542345069348
1772556554047433700,4.452433837890625,-8.66610400083661,-4.200350041629374,-1.8509699583657084
1772556554057418000,4.46241796875,-8.6427938523978,-4.245693450438976,-1.8564973434850573
1772556554067402000,4.472402099609375,-8.617550690069795,-4.292342681150138,-1.8665476128563283
1772556554077386000,4.482385986328125,-8.597329155296087,-4.325883423963189,-1.8822985780872403
1772556554087370000,4.492369873046875,-8.588697520551085,-4.334500153400004,-1.9017812771923839
1772556554097354000,4.50235400390625,-8.596103997415304,-4.310614250899851,-1.9224952716581523
1772556554107338000,4.512337890625,-8.619060510110854,-4.254055036070943,-1.9455572905547915
1772556554117322000,4.522322021484375,-8.652597453531623,-4.171984071105719,-1.9742073387168346
1772556554127307000,4.53230712890625,-8.689302505594492,-4.078205424951016,-2.0086415232382713
1772556554137291000,4.542291015625,-8.722345528018474,-3.9896892293691635,-2.0429040044546127
1772556554147275000,4.55227490234375,-8.746201619902253,-3.922920462954044,-2.0700340034425255
1772556554157259000,4.562259033203125,-8.757574662309885,-3.8894723668605087,-2.0850120846047995
1772556554167242800,4.57224267578125,-8.755448171675205,-3.8921766573831436,-2.088892725430429
1772556554177226800,4.582226806640625,-8.741402110666035,-3.9250381857603784,-2.086228328526765
1772556554187210800,4.592210693359375,-8.719925607395172,-3.9760888663008807,-2.079423470817506
1772556554197194800,4.60219482421875,-8.696395094203949,-4.032873706579208,-2.0685814665466546
1772556554207178800,4.6121787109375,-8.67668150895238,-4.083220330503583,-2.0525331258043646
1772556554217162800,4.622162841796875,-8.666014568987489,-4.116723956176639,-2.030556125665456
1772556554227147800,4.632147705078125,-8.667421513175963,-4.126272705766558,-2.0050078429110347
1772556554237131800,4.6421318359375,-8.681277604570985,-4.1098637150183315,-1.9785925680637357
1772556554247115800,4.65211572265625,-8.70594150570631,-4.070210042282938,-1.9520131886959076
1772556554257099800,4.662099853515625,-8.73714153061211,-4.0150215312853454,-1.926744161274284
1772556554267083800,4.672083740234375,-8.770113241365552,-3.952854413446784,-1.9053717028997836
1772556554277067800,4.68206787109375,-8.801227341553568,-3.8911978754788636,-1.8887455622695386
1772556554287051500,4.692051513671875,-8.827581095471977,-3.836088274936378,-1.8784617764033376
1772556554297035500,4.702035400390625,-8.847293511679768,-3.791665488103032,-1.8759151606604456
1772556554307019500,4.71201953125,-8.860161176559329,-3.759190036433935,-1.8805359523288905
1772556554317003500,4.72200341796875,-8.86696734944284,-3.73865665923208,-1.8893693932563065
1772556554326988500,4.731988525390625,-8.869283809691668,-3.7278792446300386,-1.8997654073253274
1772556554336972500,4.74197265625,-8.868614532127976,-3.723889298211038,-1.9106831071808934
1772556554346956500,4.75195654296875,-8.86621857690215,-3.72403425963968,-1.9214878481812774
1772556554356940500,4.7619404296875,-8.862759960880876,-3.7269226745575663,-1.9318157654501498
1772556554366924500,4.771924560546875,-8.858584721022844,-3.7319708978578445,-1.9411992414757608
1772556554376908500,4.781908447265625,-8.854099100041388,-3.738322897233069,-1.949423756724596
1772556554386892500,4.791892578125,-8.849559703046083,-3.745663030862808,-1.9559360612280665
1772556554396876500,4.80187646484375,-8.845196247139572,-3.7539106347262856,-1.9598580569773911
1772556554406860500,4.811860595703125,-8.840823438882827,-3.7635996695697305,-1.9610066424906252
1772556554416844500,4.821844482421875,-8.836571042135358,-3.774186530035734,-1.9598248853601514
1772556554426829600,4.83182958984375,-8.832818411603569,-3.784688050305843,-1.9564859501957892
1772556554436813600,4.8418134765625,-8.829861899885534,-3.7946804520100352,-1.9504666899062693
1772556554446797600,4.851797607421875,-8.827273636958003,-3.804301097792387,-1.9434289002239702
1772556554456781300,4.86178125,-8.8243323228091,-3.8142476145282385,-1.9372811912491916
1772556554466765300,4.871765380859375,-8.82037803222537,-3.825026198174059,-1.9340350489348173
1772556554476749300,4.881749267578125,-8.815237162205577,-3.837063257448375,-1.9336293907433748
1772556554486733300,4.8917333984375,-8.809403633746504,-3.850029998788237,-1.9344420223005114
1772556554496717600,4.901717529296875,-8.803028838017582,-3.863665140908956,-1.9362746445551513
1772556554506701600,4.91170166015625,-8.796043801435827,-3.8785412230014797,-1.9382776549406349
1772556554516686300,4.921686279296875,-8.788687008932232,-3.895289236445725,-1.938061820232868
1772556554526670300,4.93167041015625,-8.781576884666086,-3.9138755712330338,-1.932837948104739
1772556554536654600,4.941654541015625,-8.776032694542408,-3.932553091435134,-1.9200667293369769
1772556554546638600,4.951638671875,-8.773442678049205,-3.94823610599637,-1.8996115319378672
1772556554556622600,4.96162255859375,-8.775632881569862,-3.9565100133448836,-1.872078066715598
1772556554566606600,4.971606689453125,-8.783738446614146,-3.954580798847973,-1.8378277143284678
1772556554576590600,4.981590576171875,-8.796641767328977,-3.943213893920183,-1.8001497255802152
1772556554586574600,4.99157470703125,-8.81150148280859,-3.9261362101301547,-1.7644500511676071
1772556554596558600,5.00155859375,-8.824691803771257,-3.909285905355215,-1.7357096943736074
1772556554606542600,5.01154248046875,-8.834302512681484,-3.8962843849629163,-1.7159411640644073
1772556554616527600,5.021527587890625,-8.840876630374789,-3.8872909311681982,-1.702425848931074
1772556554626511600,5.03151171875,-8.845694259789585,-3.880398249045014,-1.693098194745928
1772556554636495600,5.04149560546875,-8.85010564649105,-3.8728383351847526,-1.6873473761342466
1772556554646479600,5.051479736328125,-8.855860264495014,-3.8600653628513215,-1.6864235392875968
1772556554656463400,5.06146337890625,-8.864934966832399,-3.8377892336353656,-1.6895799574919044
1772556554666447400,5.071447265625,-8.877815491193532,-3.8053219652727246,-1.6953763688109813
1772556554676431400,5.081431396484375,-8.89296337596476,-3.7665856996431946,-1.702475387161225
1772556554686415400,5.091415283203125,-8.90751154127717,-3.7284520760819313,-1.7103408598393202
1772556554696399400,5.1013994140625,-8.917716124427319,-3.699425888083875,-1.7201674034573138
1772556554706384400,5.11138427734375,-8.919721619030833,-3.689013507401943,-1.7320893119193612
1772556554716368400,5.121368408203125,-8.911126224642992,-3.703884913319349,-1.7445502956941723
1772556554726352400,5.131352294921875,-8.891907144910096,-3.7449180577144023,-1.7549825501203535
1772556554736336400,5.14133642578125,-8.864861901596187,-3.8057930899158117,-1.76083624458462
1772556554746320400,5.1513203125,-8.834022526696323,-3.8773371079087253,-1.759742457998544
1772556554756304400,5.161304443359375,-8.804052920368314,-3.949635159139335,-1.7491203800886868
1772556554766288600,5.17128857421875,-8.779230029278994,-4.014337348413467,-1.7264412230297923
1772556554776272600,5.181272705078125,-8.762297014656662,-4.066355412681401,-1.6903521109081803
1772556554786256600,5.191256591796875,-8.754436364284157,-4.103114533019066,-1.6415480402506888
1772556554796240600,5.20124072265625,-8.755352310085296,-4.124291761082411,-1.5825328105717897
1772556554806225700,5.2112255859375,-8.7637571503371,-4.131119561275839,-1.516838979911804
1772556554816209700,5.221209716796875,-8.778156847089528,-4.124813154608011,-1.4492295248888432
1772556554826193700,5.231193603515625,-8.797020537513493,-4.106493069541454,-1.3854720691189168
1772556554836177700,5.241177734375,-8.818600501158834,-4.078343956638872,-1.3303292969591916
1772556554846161700,5.25116162109375,-8.841120960524679,-4.0430718599885695,-1.2878423004940152
1772556554856145400,5.2611455078125,-8.862931225794553,-4.003470501962304,-1.2613703270234167
1772556554866129400,5.27112939453125,-8.882211680325865,-3.963441273912787,-1.252130497252196
1772556554876113400,5.281113525390625,-8.897673453351855,-3.926785029427707,-1.257837476722151
1772556554886097400,5.291097412109375,-8.908879907020927,-3.895583250956237,-1.2754115657269953
1772556554896082400,5.30108251953125,-8.91620104368925,-3.870090497781336,-1.3015911321222782
1772556554906066400,5.31106640625,-8.919928539779782,-3.8505110603034494,-1.3337236155726016
1772556554916050400,5.321050537109375,-8.920910536554455,-3.835943898029625,-1.3686761248797177
1772556554926034400,5.331034423828125,-8.920327768230438,-3.8247628710627555,-1.4033278976745902
1772556554936018400,5.341018310546875,-8.919530480372906,-3.814453658494353,-1.436072960065305
1772556554946002400,5.35100244140625,-8.919687716761231,-3.802898245257139,-1.4654409472383558
1772556554955986400,5.360986328125,-8.921493304878473,-3.788774442836642,-1.4908170882962644
1772556554965970400,5.370970458984375,-8.92536050170064,-3.771301037727296,-1.511826120185852
1772556554975954400,5.380954345703125,-8.931449466225505,-3.7503210858017204,-1.5279688612133264
1772556554985939500,5.390939453125,-8.93919555030763,-3.7274858613982795,-1.5385110057547688
1772556554995923500,5.40092333984375,-8.947711449718474,-3.7051904429599642,-1.5428564876131712
1772556555005907500,5.410907470703125,-8.956006984376907,-3.685820848840475,-1.5411198730789124
1772556555015891500,5.420891357421875,-8.96286401066482,-3.672152388972044,-1.5338696096897124
1772556555025875500,5.43087548828125,-8.967215776133537,-3.666783263154328,-1.5212264012157917
1772556555035859700,5.440859619140625,-8.968312339198588,-3.6715173059388992,-1.5032364248864352
1772556555045843700,5.45084375,-8.965710047745704,-3.6873894133314487,-1.479725347048044
1772556555055827700,5.46082763671875,-8.959270370087028,-3.7143881871551274,-1.4509250767603517
1772556555065811500,5.4708115234375,-8.948847175750135,-3.7518352897569534,-1.4185393492013214
1772556555075795500,5.48079541015625,-8.934728049504756,-3.7977883548974987,-1.3848558369167148
1772556555085780500,5.490780517578125,-8.917380024340748,-3.850075299234688,-1.3519016618199646
1772556555095764500,5.500764404296875,-8.897858162268996,-3.905649010157585,-1.3207602352336048
1772556555105748500,5.51074853515625,-8.87731806306541,-3.9609973878920077,-1.2938752970479428
1772556555115732500,5.520732421875,-8.857633703908323,-4.012167895419895,-1.270910162654519
1772556555125716500,5.530716552734375,-8.839745580518246,-4.057450221692026,-1.25154962862432
1772556555135700500,5.540700439453125,-8.824178009030222,-4.0960412336319685,-1.2356025562994182
1772556555145684500,5.5506845703125,-8.810974244064091,-4.127982140032946,-1.223471462066099
1772556555155668500,5.56066845703125,-8.799491896063088,-4.154852903562784,-1.2151229551114142
1772556555165652500,5.570652587890625,-8.788408191990852,-4.180259732019901,-1.208180734758079
1772556555175637500,5.580637451171875,-8.77582460474968,-4.209029314908385,-1.1997340281259268
1772556555185621500,5.59062158203125,-8.759628087708354,-4.246625762853026,-1.1855262006837874
1772556555195605500,5.60060546875,-8.738585884201527,-4.2958162024796005,-1.1633861920028925
1772556555205589500,5.610589599609375,-8.713957638901471,-4.353187318213283,-1.1345006545845417
1772556555215573500,5.620573486328125,-8.689138839465379,-4.410194569070637,-1.1042794115830212
1772556555225557500,5.6305576171875,-8.668719151771068,-4.455845436394214,-1.0812653965465724
1772556555235541500,5.64054150390625,-8.657091257819532,-4.48000489513874,-1.0745782469328493
1772556555245525500,5.650525390625,-8.65722862046361,-4.476541602942347,-1.087821394061297
1772556555255509500,5.660509521484375,-8.668782864657043,-4.446764304316043,-1.117530157496035
1772556555265494500,5.67049462890625,-8.687669351434707,-4.399536104673147,-1.1570933024037628
1772556555275478500,5.680478515625,-8.707081907913087,-4.349714965927601,-1.198787321860343
1772556555285462500,5.690462646484375,-8.71985546476841,-4.314049486045539,-1.2342957114845514
1772556555295448000,5.700447998046875,-8.720438233092427,-4.305896574728191,-1.258412061739713
1772556555305432000,5.71043212890625,-8.705835707244276,-4.331988170579075,-1.2699160370506346
1772556555315416000,5.720416015625,-8.676154270207881,-4.39038336866349,-1.2725032770648599
1772556555325400000,5.730400146484375,-8.634703484922648,-4.471776288236677,-1.2710251673363149
1772556555335383800,5.7403837890625,-8.587371240383385,-4.563498586383462,-1.265668316478282
1772556555345367800,5.750367919921875,-8.540892982324957,-4.652336269004643,-1.2567002893857657
1772556555355353000,5.76035302734375,-8.50058552185595,-4.72863858744055,-1.2451549591511488
1772556555365336800,5.7703369140625,-8.469759590959548,-4.787102466847002,-1.2317499725244938
1772556555375320800,5.78032080078125,-8.449526365748047,-4.826313364250957,-1.217615429514274
1772556555385304800,5.790304931640625,-8.439521689084172,-4.847414019946753,-1.2030959788396953
1772556555395288800,5.800288818359375,-8.438603989717365,-4.852630001029372,-1.1884137388188392
1772556555405273000,5.810273193359375,-8.444491878712176,-4.846128948572278,-1.1730189666144548
1772556555415257000,5.820257080078125,-8.454709321343898,-4.8324444143518805,-1.155748317535594
1772556555425241000,5.830240966796875,-8.467130996021627,-4.815571897745132,-1.1350539045531303
1772556555435225000,5.84022509765625,-8.480041915521026,-4.798986089125275,-1.108605969545245
1772556555445209900,5.8502099609375,-8.492205231523513,-4.784909925238788,-1.0758623684592545
1772556555455194000,5.860194091796875,-8.502644207951427,-4.774697451043129,-1.03811847486794
1772556555465178000,5.87017822265625,-8.510459850138425,-4.769351998361945,-0.9978672746308147
1772556555475162000,5.880162109375,-8.515849726483225,-4.767850653888285,-0.9582745383024215
1772556555485146000,5.89014599609375,-8.519425246882438,-4.768594165731966,-0.9221130185317248
1772556555495130000,5.900130126953125,-8.521565766042471,-4.770752220548689,-0.8906323500536382
1772556555505114000,5.910114013671875,-8.521533032816649,-4.775940436841547,-0.8627006062287836
1772556555515098000,5.92009814453125,-8.517783324894308,-4.787230769401789,-0.8367682925928384
1772556555525082000,5.93008203125,-8.508763567614555,-4.807488836793601,-0.8120246772848069
1772556555535067100,5.940067138671875,-8.494306003195048,-4.836810208345949,-0.7889340898808092
1772556555545051100,5.950051025390625,-8.476160105651617,-4.872072660385072,-0.7668135896179825
1772556555555035100,5.96003515625,-8.456637659057975,-4.909834235763549,-0.7410735106185078
1772556555565019000,5.970018798828125,-8.438414020103215,-4.945616327762603,-0.71023632767573
1772556555575003000,5.9800029296875,-8.423664194738864,-4.975688225421309,-0.6743882577683776
1772556555584987000,5.98998681640625,-8.413337446513772,-4.998433141192794,-0.6338845440749079
1772556555594971000,5.999970947265625,-8.40681125961542,-5.014905552566051,-0.5887514900803565
1772556555604955000,6.009954833984375,-8.402155542764067,-5.028294610971212,-0.53890740885064
1772556555614940000,6.01993994140625,-8.396824118608237,-5.042625918662548,-0.48544111853577193
1772556555624924000,6.029923828125,-8.388561901697516,-5.061265737202763,-0.43129294690396636
1772556555634908000,6.039907958984375,-8.376046703517437,-5.086152341178059,-0.37852073980048295
1772556555644892000,6.049891845703125,-8.358624444073438,-5.118337869989872,-0.3261886411473155
1772556555654876000,6.0598759765625,-8.33595843875706,-5.158123352411389,-0.275593558887206
1772556555664860000,6.06985986328125,-8.308316983115672,-5.205010191270708,-0.22388547388389704
1772556555674844000,6.079843994140625,-8.277266011291742,-5.256371545195579,-0.16676290781749412
1772556555684828200,6.089828125,-8.244369119340181,-5.309483542180061,-0.10072715011835098
1772556555694812200,6.099812255859375,-8.210709426322579,-5.362281066387891,-0.024186771443136967
1772556555704797000,6.109796875,-8.177600937446952,-5.412333091279864,0.06226289723007939
1772556555714781000,6.119781005859375,-8.146268226072191,-5.45749266795516,0.15642185707241296
1772556555724765200,6.12976513671875,-8.117258404687046,-5.496691290399432,0.25862176489075644
1772556555734749200,6.139749267578125,-8.089690598803758,-5.530689421591163,0.3725121470354497
1772556555744733200,6.149733154296875,-8.061405584561824,-5.561772542119026,0.5008108658967539
1772556555754717200,6.15971728515625,-8.030069950577616,-5.59332152659297,0.6349162252102046
1772556555764701000,6.169700927734375,-7.993001325899362,-5.629869342267513,0.7660852022781968
1772556555774685000,6.179684814453125,-7.950078714495897,-5.6728661879509685,0.8861237865880132
1772556555784669000,6.1896689453125,-7.904698773068189,-5.718453050127625,0.9926834422521292
1772556555794654000,6.199654052734375,-7.8604627409785985,-5.7620314950913185,1.0874295451994984
1772556555804638000,6.209637939453125,-7.822771015965938,-5.799468368560076,1.157929241771251
1772556555814622000,6.2196220703125,-7.794034750825166,-5.82881545907557,1.2034619626078753
1772556555824606000,6.22960595703125,-7.774435147342086,-5.848586911994219,1.233926439780742
1772556555834590000,6.23958984375,-7.764204260706901,-5.856992921289801,1.2582321751281618
1772556555844574000,6.249573974609375,-7.761701922497153,-5.855322942250966,1.2812360340967774
1772556555854558000,6.259557861328125,-7.765286210724711,-5.8456724858522415,1.3033930669777094
1772556555864542000,6.2695419921875,-7.77216895597577,-5.831435286185145,1.3259469902217387
1772556555874527000,6.27952685546875,-7.77854842787981,-5.817101640406251,1.3512557651318609
1772556555884511000,6.289510986328125,-7.780811696636676,-5.807040265119076,1.3811752487078308
1772556555894495000,6.299494873046875,-7.776446487164497,-5.80339577113688,1.4205113799266516
1772556555904479000,6.30947900390625,-7.766540594699978,-5.802569257184863,1.476964211771637
1772556555914463000,6.319462890625,-7.751326658955216,-5.80382422568202,1.5501431374900043
1772556555924447000,6.329447021484375,-7.73033764694035,-5.80708702687025,1.6401210761874914
1772556555934431000,6.339430908203125,-7.70316322428882,-5.810777698081732,1.7511483787849544
1772556555944415000,6.3494150390625,-7.6719754743427035,-5.810092638427019,1.8852067206189036
1772556555954399200,6.359399169921875,-7.639422281262278,-5.800585974413156,2.0402989365227517
1772556555964384000,6.369384033203125,-7.60756408470869,-5.7784676661074155,2.2146485183432696
1772556555974368000,6.379367919921875,-7.578505163484811,-5.741801777011156,2.4017411157503723
1772556555984352000,6.38935205078125,-7.555220734009146,-5.6914849637031555,2.58766817650944
1772556555994336000,6.3993359375,-7.538243295723199,-5.63127336384654,2.762976520359516
1772556556004320000,6.409320068359375,-7.524485404005646,-5.569098939484357,2.9219240965172646
1772556556014304000,6.419303955078125,-7.512640652433038,-5.509441466379165,3.06213482350111
1772556556024288000,6.4292880859375,-7.50054981714487,-5.453820701444148,3.188727067238092
1772556556034272000,6.43927197265625,-7.486479790738224,-5.40258677329123,3.3068206549599766
1772556556044257000,6.449257080078125,-7.468772869133949,-5.354952915456891,3.422324810710549
1772556556054241000,6.459240966796875,-7.447207518535852,-5.310309471610188,3.536962997281551
1772556556064225000,6.46922509765625,-7.421607213333249,-5.268197007545829,3.6518808775767684
1772556556074209000,6.479208984375,-7.39126117490828,-5.227359385722876,3.7701930764853953
1772556556084193000,6.489193115234375,-7.356901224666833,-5.187603129395843,3.8903938656195995
1772556556094177000,6.499177001953125,-7.320881232258677,-5.14972844903171,4.006917427545786
1772556556104161000,6.5091611328125,-7.284537999245524,-5.115009602349996,4.116134758111834
1772556556114145000,6.51914501953125,-7.247716042804718,-5.085436886385083,4.21655444971621
1772556556124129000,6.52912890625,-7.209440380424261,-5.062569221016765,4.308682990576327
1772556556134114000,6.539114013671875,-7.168049216371775,-5.046994635266065,4.395144883976877
1772556556144098000,6.54909814453125,-7.121597846320271,-5.03933973659873,4.478647927571833
1772556556154082000,6.55908203125,-7.069385428524017,-5.0393537651240825,4.56060198815912
1772556556164066000,6.569066162109375,-7.012297513645887,-5.04441221755743,4.64240962601304
1772556556174050000,6.579050048828125,-6.951079951617121,-5.052510183817148,4.724934472225606
1772556556184034000,6.589033935546875,-6.8862301705658435,-5.063059050360322,4.8078731599360705
1772556556194017800,6.599017822265625,-6.818426215884089,-5.076058232665062,4.8901007767677305
1772556556204001800,6.609001708984375,-6.749167386218905,-5.091711728870869,4.969264329853654
1772556556213987000,6.618987060546875,-6.680839699923991,-5.110366160458326,5.041916309088468
1772556556223970800,6.628970703125,-6.614314679136872,-5.131851431557536,5.107379253602027
1772556556233954800,6.638954833984375,-6.5518643604427576,-5.156124287548661,5.163123937177658
1772556556243938800,6.648938720703125,-6.496144811308383,-5.183139135724306,5.206300231081247
1772556556253922800,6.6589228515625,-6.446573263409733,-5.214439698395132,5.236573204270005
1772556556263907000,6.668906982421875,-6.404216469195485,-5.249999087554216,5.2529912551075215
1772556556273891000,6.67889111328125,-6.372420231962203,-5.287529484525322,5.254015921980142
1772556556283875000,6.688875,-6.356116747415065,-5.32304445002079,5.237876688084006
1772556556293859800,6.69885986328125,-6.360056424951553,-5.352601383894681,5.202857397150993
1772556556303844000,6.708843994140625,-6.386541696295142,-5.374193622499704,5.1478644087255
1772556556313828000,6.718828125,-6.430800524738431,-5.387409077903628,5.078484583029151
1772556556323812000,6.72881201171875,-6.483956360864639,-5.3946431208103895,5.002651051148772
1772556556333796000,6.738796142578125,-6.535479627352952,-5.403112258470058,4.925878192591667
1772556556343780000,6.748780029296875,-6.573501607233285,-5.421831571987271,4.854193889345228
1772556556353764000,6.75876416015625,-6.5949851247668265,-5.453321519750356,4.789345569598675
1772556556363748000,6.768748046875,-6.596356413120031,-5.499961105850339,4.7338031305968755
1772556556373732000,6.778732177734375,-6.576126110517978,-5.559220519548655,4.692549913710356
1772556556383717000,6.788717041015625,-6.546339459541439,-5.621579652827978,4.659793599273264
1772556556393701000,6.798701171875,-6.513697419133782,-5.679217018282413,4.635582702602446
1772556556403685000,6.80868505859375,-6.486290941292047,-5.72267855886817,4.620536524640023
1772556556413669000,6.818669189453125,-6.4751978848695755,-5.745117769691348,4.60823292338401
1772556556423652900,6.82865283203125,-6.48992140674889,-5.745154010048508,4.587430373851955
1772556556433636900,6.838636962890625,-6.532990733146667,-5.725900443524122,4.550218833571672
1772556556443620900,6.848620849609375,-6.5964955293297765,-5.694121741947531,4.498178265210986
1772556556453604900,6.85860498046875,-6.666851506581902,-5.658919495663047,4.438479875573516
1772556556463590000,6.86858984375,-6.73013535349071,-5.63047139981389,4.3787493372321125
1772556556473574000,6.878573974609375,-6.777780901762843,-5.61439529428184,4.325579472580552
1772556556483558000,6.888557861328125,-6.80766341432929,-5.611995831924677,4.281542470194399
1772556556493542000,6.8985419921875,-6.821047212037444,-5.621937964746356,4.247059185834229
1772556556503526000,6.90852587890625,-6.820654413327574,-5.640943109467625,4.222418957835435
1772556556513510000,6.918510009765625,-6.8081655186325305,-5.665027164888381,4.210312340456247
1772556556523494000,6.928493896484375,-6.78606591502726,-5.688853446155786,4.213862434153259
1772556556533478100,6.93847802734375,-6.758374190503359,-5.706086320507526,4.235014820036292
1772556556543463000,6.948462890625,-6.730596541261672,-5.710042364656925,4.273742317837477
1772556556553447000,6.958447021484375,-6.709666565957665,-5.695067498365044,4.326311586247384
1772556556563431000,6.968430908203125,-6.702061351650953,-5.657557559660077,4.386889973589778
1772556556573415200,6.978415283203125,-6.7119146371454,-5.597676214671135,4.4482133340805765
1772556556583399200,6.988399169921875,-6.739090228840708,-5.52000786857903,4.503837606146932
1772556556593383200,6.998383056640625,-6.779031194084882,-5.4313879203617565,4.55138875413388
1772556556603367200,7.0083671875,-6.825619926780462,-5.339785156941414,4.589987364858389
1772556556613351200,7.01835107421875,-6.8735355241656295,-5.251734533044695,4.619976260408759
1772556556623335000,7.0283349609375,-6.919623906123638,-5.171714655390382,4.6413963573172685
1772556556633320200,7.0383203125,-6.961064170014858,-5.102381591445207,4.656144429115951
1772556556643304200,7.04830419921875,-6.997169502618909,-5.043997791537643,4.66562975808084
1772556556653288000,7.058287841796875,-7.029584164011478,-4.994530288535357,4.670117424888908
1772556556663272000,7.06827197265625,-7.062615495997667,-4.950196056768298,4.667483861514926
1772556556673256000,7.078255859375,-7.098489357933402,-4.90890075430572,4.656664945858717
1772556556683240000,7.088239990234375,-7.136959081581234,-4.870273502008617,4.638387823151052
1772556556693224000,7.098223876953125,-7.176401449653506,-4.8347901006951925,4.614591352500021
1772556556703209000,7.108208984375,-7.213194764521718,-4.803594167442619,4.589737189489603
1772556556713193000,7.11819287109375,-7.243052727168798,-4.777298573452234,4.570118589045107
1772556556723177000,7.128177001953125,-7.263485858866572,-4.754688682237267,4.561260159806907
1772556556733161000,7.138160888671875,-7.27240449385941,-4.735201891478896,4.567316391105949
1772556556743145000,7.14814501953125,-7.2710682768195865,-4.716725739067793,4.5885123238697645
1772556556753129000,7.15812890625,-7.262298110386729,-4.69708317322582,4.622425407126546
1772556556763113000,7.168113037109375,-7.24920248197019,-4.674802952356636,4.665368769057094
1772556556773097000,7.178096923828125,-7.235659694308042,-4.649541962110996,4.711408635698259
1772556556783081000,7.1880810546875,-7.223860535442829,-4.624136594958603,4.7543224792733785
1772556556793066000,7.19806591796875,-7.213660043945908,-4.602512792171537,4.790654314109683
1772556556803050000,7.208050048828125,-7.204310616320371,-4.587865550398826,4.818691198809445
1772556556813034000,7.218033935546875,-7.195225977110862,-4.581746190735697,4.83804910249114
1772556556823018000,7.22801806640625,-7.186551672267913,-4.583659623141586,4.849115563167631
1772556556833002000,7.238001953125,-7.1790148470222945,-4.591034828084707,4.853301032158732
1772556556842986000,7.247986083984375,-7.173247369536757,-4.6014197362378235,4.851993748952448
1772556556852970000,7.257969970703125,-7.169419920203089,-4.612380690713226,4.847241293728351
1772556556862954000,7.2679541015625,-7.166055996727943,-4.622973396398127,4.842121174235642
1772556556872939000,7.27793896484375,-7.161682603949308,-4.631995491765439,4.83997042594254
1772556556882923000,7.287923095703125,-7.1554042543321845,-4.6386996655792,4.842834875462949
1772556556892907000,7.297906982421875,-7.146202126222849,-4.6436534885942935,4.851666708955168
1772556556902891000,7.30789111328125,-7.133772852760553,-4.647673245629668,4.866087740756571
1772556556912875000,7.317875,-7.118195344400405,-4.6524172252863645,4.884331837977468
1772556556922859000,7.32785888671875,-7.09783936959207,-4.661148813274503,4.905583008059859
1772556556932843000,7.337843017578125,-7.072654659453034,-4.6763703478038305,4.927423083946109
1772556556942827000,7.347826904296875,-7.048889752984047,-4.695564585356414,4.9431987452268595
1772556556952812000,7.35781201171875,-7.0324793009310955,-4.716326218356192,4.946805245286226
1772556556962796000,7.367796142578125,-7.027780913981795,-4.737373390299082,4.933353643038869
1772556556972780000,7.377780029296875,-7.037509696313738,-4.758659339433908,4.898878249724209
1772556556982764000,7.387763916015625,-7.060809323358535,-4.780756897212565,4.843524319031834
1772556556992748000,7.397748046875,-7.095733921745419,-4.804471534799039,4.76843751386553
1772556557002732000,7.40773193359375,-7.138393498298526,-4.830396249650419,4.677713579106331
1772556557012716000,7.417716064453125,-7.183463058602809,-4.860713646502792,4.576209891657531
1772556557022700000,7.427699951171875,-7.225531099003553,-4.896932376353442,4.470139626945555
1772556557032685000,7.43768505859375,-7.257880293944478,-4.94049416244328,4.36864704541266
1772556557042669000,7.4476689453125,-7.278817868033051,-4.988688576769828,4.278104312439263
1772556557052653000,7.457653076171875,-7.288352589097618,-5.038029823043942,4.203398323284089
1772556557062637000,7.467636962890625,-7.2862716911703345,-5.084876329892873,4.150260607336461
1772556557072621000,7.47762109375,-7.27462450799644,-5.125132352435589,4.121073091296851
1772556557082604800,7.487604736328125,-7.256637015885114,-5.1561231185048815,4.114122833767533
1772556557092588800,7.4975888671875,-7.237091772937775,-5.174616806572676,4.125315258911252
1772556557102572800,7.50757275390625,-7.223368952533602,-5.176895857420563,4.1464530317470425
1772556557112557800,7.517557861328125,-7.221446460038423,-5.1604439043134445,4.170241611352562
1772556557122541800,7.527541748046875,-7.232580432993173,-5.1253901265889406,4.194108809152246
1772556557132525800,7.53752587890625,-7.258916651254892,-5.071252293688058,4.214369506892561
1772556557142509800,7.547509765625,-7.298841834408044,-4.9997605904042715,4.2308027552992105
1772556557152494000,7.557494140625,-7.3503785448998205,-4.9135202307999135,4.24259811477214
1772556557162478000,7.56747802734375,-7.410178641346096,-4.817715047253668,4.248442749147117
1772556557172462000,7.577462158203125,-7.475775441372394,-4.718604976943135,4.244753246979415
1772556557182446000,7.587446044921875,-7.5455270229905835,-4.622632327875495,4.226899610380828
1772556557192430800,7.597430908203125,-7.618196537882089,-4.5351863918736575,4.191127455253899
1772556557202415000,7.6074150390625,-7.692719571685791,-4.459707664780319,4.135632947047054
1772556557212399000,7.617399169921875,-7.767327945685386,-4.398557907290757,4.060995639213919
1772556557222383000,7.627383056640625,-7.841843965226412,-4.352399967227876,3.966419705201685
1772556557232367000,7.6373671875,-7.916940999525785,-4.320648445919156,3.8502500712797043
1772556557242351000,7.64735107421875,-7.991080586969852,-4.302703039383888,3.7148031976968046
1772556557252335000,7.657335205078125,-8.061998289757966,-4.297399380017817,3.564677518159151
1772556557262319000,7.667319091796875,-8.126078255480527,-4.303335199807584,3.4085978986531495
1772556557272304000,7.67730419921875,-8.17944978018403,-4.316528735640645,3.261068080827594
1772556557282288000,7.6872880859375,-8.22070475063622,-4.331456547920405,3.135105074904859
1772556557292271600,7.697271728515625,-8.252143844994903,-4.341866298253834,3.0365608217835423
1772556557302255600,7.707255615234375,-8.277142092651129,-4.343535108248889,2.965299420124292
1772556557312239600,7.717239501953125,-8.297648874107002,-4.335485072784126,2.919412990479171
1772556557322223600,7.7272236328125,-8.315697741016745,-4.318287269745767,2.893432161526382
1772556557332207600,7.73720751953125,-8.332811372902988,-4.294499859184026,2.879567302303016
1772556557342192600,7.747192626953125,-8.349226501131056,-4.269311349652708,2.8694556581333277
1772556557352176600,7.7571767578125,-8.362292903453111,-4.2505701165646315,2.859212204277515
1772556557362160600,7.76716064453125,-8.36817260914147,-4.24547279342562,2.849567008575797
1772556557372144600,7.77714453125,-8.365761456346512,-4.256745298068225,2.839813384063542
1772556557382128600,7.787128662109375,-8.357729541060328,-4.282479751044511,2.8247321347877383
1772556557392112600,7.797112548828125,-8.347330896642804,-4.317964321401715,2.801363826420903
1772556557402096400,7.807096435546875,-8.338765312871336,-4.356915983347594,2.7663442432269454
1772556557412080600,7.81708056640625,-8.336769170618057,-4.393373198129236,2.714209859102964
1772556557422065700,7.827065673828125,-8.343416353547573,-4.424200882591307,2.6427701782673596
1772556557432049400,7.83704931640625,-8.359096737760305,-4.447954975405335,2.551781747353077
1772556557442033400,7.847033447265625,-8.3836887427032,-4.463531022460758,2.441523821692914
1772556557452017700,7.857017578125,-8.41293237284422,-4.473040901345015,2.3205286673106253
1772556557462001700,7.867001708984375,-8.443897419950366,-4.4787271302878855,2.193623558232188
1772556557471985700,7.876985595703125,-8.472135087919234,-4.4850802987068885,2.06817990000844
1772556557481969700,7.8869697265625,-8.496923492217064,-4.492180193839967,1.9475622006364166
1772556557491953700,7.89695361328125,-8.514909815284609,-4.503569310599565,1.839717327467352
1772556557501938700,7.906938720703125,-8.521257138484716,-4.5250849768370385,1.7556098882384596
1772556557511922700,7.916922607421875,-8.519800509935617,-4.552348539076745,1.6910069215551018
1772556557521906700,7.92690673828125,-8.516936937198043,-4.577442356061935,1.6368252495124935
1772556557531890700,7.936890625,-8.525188632714748,-4.58421258084923,1.5737011232100426
1772556557541874700,7.946874755859375,-8.554902802976965,-4.5591903677955266,1.4825009492412209
1772556557551858700,7.956858642578125,-8.608620364639162,-4.498514949819445,1.351075586259365
1772556557561842700,7.9668427734375,-8.677702084171772,-4.413746416333318,1.1775869321171193
1772556557571826700,7.97682666015625,-8.74833103314638,-4.323076257587969,0.973706500712037
1772556557581811700,7.986811767578125,-8.80933816729486,-4.2414065669000145,0.7592166316829622
1772556557591795700,7.996795654296875,-8.854670177927613,-4.177721445713937,0.5584287959983572
1772556557601779700,8.00677978515625,-8.884362136358023,-4.133902177731692,0.38644908511433745
1772556557611763700,8.016763671875,-8.899170413911342,-4.112461330296099,0.25062559677138924
1772556557621747700,8.026747802734375,-8.899877100875973,-4.115720039831102,0.15302573922756127
1772556557631731500,8.0367314453125,-8.889241725093125,-4.140544684486091,0.08748408518829383
1772556557641715500,8.046715576171875,-8.872267793938517,-4.177496404786408,0.042092339158360845
1772556557651699500,8.056699462890625,-8.853310580012202,-4.217726123844087,0.00823077374297427
1772556557661684500,8.0666845703125,-8.837131598627566,-4.251498337325454,-0.015906539385113865
1772556557671668500,8.07666845703125,-8.82776521986723,-4.270823507781326,-0.03172025167091051
1772556557681652500,8.086652587890624,-8.82860342425704,-4.269002429834008,-0.04197839848906733
1772556557691636500,8.096636474609374,-8.840951449176668,-4.243220630584657,-0.05512670694091357
1772556557701620500,8.106620361328124,-8.864456243404746,-4.193526917611062,-0.0783577439952176
1772556557711604500,8.1166044921875,-8.89602510162294,-4.125004877787828,-0.12432980609717778
1772556557721588700,8.126588623046874,-8.931882012423872,-4.04424674898684,-0.18957425815500317
1772556557731572700,8.13657275390625,-8.968655453547834,-3.958098743841052,-0.2589564767378382
1772556557741557500,8.1465576171875,-9.00542246493101,-3.868924961133301,-0.32275223695784805
1772556557751541500,8.15654150390625,-9.041358286187052,-3.7793218470975756,-0.3754391769306734
1772556557761525500,8.166525390625,-9.075332451981305,-3.692894732749462,-0.4138274693727493
1772556557771509800,8.176509765625,-9.105236591857672,-3.615638182328641,-0.43842053376156837
1772556557781493800,8.18649365234375,-9.129858991938828,-3.551473168671131,-0.4506618834363296
1772556557791477800,8.196477783203125,-9.148684688439964,-3.502283898088336,-0.45382926142606883
1772556557801461800,8.206461669921875,-9.161815972691773,-3.4682328676655887,-0.45041682263407856
1772556557811445800,8.21644580078125,-9.169566732949018,-3.448757767345011,-0.44214905276540667
1772556557821430800,8.2264306640625,-9.173083216637373,-3.4402249167993664,-0.4356387210233137
1772556557831414800,8.236414794921876,-9.174140616735816,-3.4368034179180857,-0.4403477389644831
1772556557841398800,8.246398681640626,-9.173504072397947,-3.4358661370679733,-0.4604693204950541
1772556557851382800,8.2563828125,-9.172813167524337,-3.433052540951967,-0.49399866513125595
1772556557861366500,8.266366455078124,-9.173259157726168,-3.4255931648567315,-0.535735245087929
1772556557871350500,8.2763505859375,-9.174984081822632,-3.4136703796118497,-0.5804308575132862
1772556557881334500,8.28633447265625,-9.178164465424418,-3.397643373918533,-0.6226540519431233
1772556557891319600,8.296319580078125,-9.183395351815223,-3.376889924225211,-0.657451809079945
1772556557901303600,8.306303466796875,-9.191417914751172,-3.350332172167301,-0.680806892639026
1772556557911287600,8.31628759765625,-9.202934165021777,-3.316514073717594,-0.6907423765242099
1772556557921271600,8.326271484375,-9.218523363819719,-3.273582986746728,-0.6876503287930041
1772556557931255600,8.336255615234375,-9.23789909541905,-3.221538911254704,-0.6732695559367537
1772556557941239600,8.346239501953125,-9.260379807296395,-3.161052586109936,-0.6507660477057099
1772556557951223600,8.3562236328125,-9.284693579819798,-3.0944919094875454,-0.6236751386191696
1772556557961207600,8.36620751953125,-9.309117826980351,-3.0263445481956004,-0.5932559984253719
1772556557971192600,8.376192626953125,-9.332314578172564,-2.9605136471524833,-0.5600478851001709
1772556557981177600,8.386177490234376,-9.353605203482507,-2.8989921337410807,-0.5256464338045567
1772556557991161600,8.39616162109375,-9.371993677610158,-2.8443229704424735,-0.4959303273135796
1772556558001145600,8.4061455078125,-9.387297629725932,-2.7976328231990335,-0.4714586242821067
1772556558011129600,8.416129638671874,-9.399870111051202,-2.758860317212343,-0.4489030570702627
1772556558021113600,8.426113525390624,-9.410572122329473,-2.7267908159956336,-0.41967933720611034
1772556558031097600,8.43609765625,-9.420478014793991,-2.6989570526525375,-0.37497981579061596
1772556558041082600,8.44608251953125,-9.430751571527123,-2.6709841730996966,-0.3116960054144263
1772556558051066600,8.456066650390625,-9.44222865883112,-2.638530348740518,-0.22990690786419435
1772556558061050600,8.466050537109375,-9.455028519171476,-2.5991253900691866,-0.1318037313075736
1772556558071034600,8.47603466796875,-9.468395950266718,-2.553318747662008,-0.020586372330994345
1772556558081018600,8.4860185546875,-9.480763848930597,-2.5051871694386003,0.09766139673902653
1772556558091002600,8.496002685546875,-9.491197564661503,-2.458351476244628,0.20989543564459306
1772556558100986600,8.505986572265625,-9.498935465437173,-2.4181664731115102,0.3050848253800533
1772556558110970600,8.515970703125,-9.503602288204432,-2.3886976559124884,0.38216223810799416
1772556558120955600,8.52595556640625,-9.506059618228674,-2.369625291173905,0.43599758093096314
1772556558130939600,8.535939697265626,-9.508792842584848,-2.3546591927103697,0.4569737334642559
1772556558140923600,8.545923583984376,-9.513161559188365,-2.3389400839224455,0.4466486657395959
1772556558150907400,8.555907470703126,-9.519671379473804,-2.3193571393132206,0.4084462512584403
1772556558160891600,8.5658916015625,-9.52818494079709,-2.293866578095406,0.3496536513542756
1772556558170875600,8.575875732421874,-9.538550851988791,-2.2598281148932875,0.2821473644448444
1772556558180859600,8.585859619140624,-9.550696632334589,-2.21483863408789,0.22150794936390591
1772556558190843600,8.59584375,-9.564158171454071,-2.1601538348287344,0.17607061519315464
1772556558200828700,8.60582861328125,-9.578101356610656,-2.0998516340792177,0.14484505398729816
1772556558210812700,8.615812744140625,-9.590888941991329,-2.041522486968338,0.1319837366501335
1772556558220796700,8.625796630859375,-9.600734044179319,-1.9944883485928178,0.13531426931233145
1772556558230780700,8.63578076171875,-9.606654666399955,-1.9643831331864,0.1541806905495003
1772556558240764700,8.6457646484375,-9.60802420118749,-1.9547037429541347,0.18810796672841532
1772556558250748700,8.655748779296875,-9.60440717973411,-1.9669646741122007,0.23831534657888112
1772556558260732700,8.665732666015625,-9.595803602039814,-1.9999749633103607,0.30172267373688516
1772556558270717700,8.6757177734375,-9.583326397782564,-2.048158271721005,0.36781229878142474
1772556558280701700,8.68570166015625,-9.57042716872096,-2.0984676323749123,0.4168288066131994
1772556558290688800,8.695688720703124,-9.56100993655622,-2.137970060071349,0.43192072341348975
1772556558300672800,8.7056728515625,-9.55714916947484,-2.158520388408005,0.4148145441813394
1772556558310656500,8.715656494140624,-9.557963408467174,-2.161045815232396,0.38157548772860317
1772556558320640500,8.725640625,-9.561742927005886,-2.1509132744051516,0.34209289724379777
1772556558330624500,8.73562451171875,-9.566391045072674,-2.1364688617281615,0.30007379228500647
1772556558340608500,8.7456083984375,-9.570000467741488,-2.1259804932005704,0.25629377860091623
1772556558350593500,8.755593505859375,-9.571722469228506,-2.1232881853766736,0.21015613240739328
1772556558360577500,8.76557763671875,-9.571108721244334,-2.1303432184547186,0.1609257078303024
1772556558370561500,8.7755615234375,-9.568018354013562,-2.147379547321051,0.11034248040476813
1772556558380545500,8.785545654296875,-9.5628190318048,-2.1723604054510592,0.061046972968522455
1772556558390529500,8.795529541015625,-9.556314472216368,-2.201599651677906,0.013968460020091151
1772556558400513500,8.805513427734375,-9.549497193416952,-2.230812009897828,-0.031145276210992594
1772556558410497800,8.815497802734376,-9.542945872077345,-2.2576791201658546,-0.0738695748636499
1772556558420482600,8.825482666015626,-9.536853400421142,-2.2816157299399373,-0.11417115358114242
1772556558430466600,8.835466552734376,-9.530953236466646,-2.30400028796643,-0.15130317148496397
1772556558440450600,8.845450439453124,-9.524992282235623,-2.3260157204195857,-0.18590313189420848
1772556558450434600,8.8554345703125,-9.518874091616272,-2.3481482033811507,-0.21822293634386733
1772556558460418800,8.865418701171874,-9.512585220605134,-2.3706935049273072,-0.2468197199487127
1772556558470402800,8.87540283203125,-9.50627121515274,-2.3934148936927317,-0.2697320829752832
1772556558480386800,8.88538671875,-9.499931490737199,-2.4164641992382703,-0.28702602159818635
1772556558490370800,8.895370849609375,-9.493354450434445,-2.4407453846663234,-0.29894763779928907
1772556558500355800,8.90535595703125,-9.485803596663475,-2.4690818368345497,-0.3058491973486729
1772556558510339800,8.91533984375,-9.47598479796052,-2.506361181654036,-0.3069972166063264
1772556558520323800,8.92532373046875,-9.463733803674579,-2.5528426545828578,-0.3018546843524091
1772556558530307800,8.935307861328125,-9.449978250044584,-2.603879891119897,-0.2968250561547465
1772556558540291600,8.94529150390625,-9.43398105496764,-2.662060861931741,-0.28950910711819305
1772556558550275600,8.955275634765625,-9.416464687499403,-2.7246964740648862,-0.2767706946414895
1772556558560259600,8.965259521484375,-9.398303007864952,-2.7884067296922206,-0.2589850635115057
1772556558570244600,8.97524462890625,-9.38021263990104,-2.8504858769863843,-0.23816099626738577
1772556558580228600,8.985228515625,-9.36301775947213,-2.90806654381752,-0.21777539350576697
1772556558590212600,8.995212646484376,-9.34707375588715,-2.9601702405422925,-0.19995836259052155
1772556558600196600,9.005196533203126,-9.332472399082778,-3.006667203301191,-0.1878658102693036
1772556558610180600,9.0151806640625,-9.319909270107745,-3.0455688886255023,-0.1848862282029353
1772556558620164600,9.02516455078125,-9.310168797338008,-3.0749215320989487,-0.18972153940489514
1772556558630148600,9.035148681640624,-9.303025355324149,-3.095957890386879,-0.19786405719239264
1772556558640133600,9.045133544921875,-9.296428441277145,-3.115399672959745,-0.2027053049447946
1772556558650117600,9.05511767578125,-9.287052125644683,-3.1436557533681393,-0.1961504216749221
1772556558660101600,9.0651015625,-9.271963277584314,-3.1891911776185036,-0.17360537585709243
1772556558670085600,9.075085693359375,-9.249863089457154,-3.254344325530529,-0.14020043391869402
1772556558680069600,9.085069580078125,-9.22213629361987,-3.3333611636221407,-0.10622712664096616
1772556558690053600,9.0950537109375,-9.191343095949291,-3.4181311584129928,-0.07729443474579602
1772556558700037600,9.10503759765625,-9.160506059136987,-3.500313767059147,-0.05755821753730997
1772556558710021600,9.115021728515625,-9.133489457395672,-3.5702360290691253,-0.05627531072045676
1772556558720006700,9.125006591796875,-9.113958242973684,-3.6193022577941414,-0.08247908910838887
1772556558729990700,9.13499072265625,-9.10434227336645,-3.6417221793949603,-0.13853010781998745
1772556558739974700,9.144974609375,-9.103709820681809,-3.639536944310367,-0.21593818640755488
1772556558749958700,9.154958740234376,-9.107922469940782,-3.6229368149042127,-0.3007677476322278
1772556558759942700,9.164942626953126,-9.111061937010287,-3.607257307474315,-0.38291765958517787
1772556558769926700,9.1749267578125,-9.108053987365961,-3.6063963067308067,-0.45568014998976136
1772556558779910700,9.18491064453125,-9.09665814860463,-3.6269933968186376,-0.5158632909368723
1772556558789895700,9.194895751953124,-9.077409258255361,-3.6670758163601156,-0.5688415420064702
1772556558799879400,9.20487939453125,-9.050526512026787,-3.725390642684698,-0.6162994222193956
1772556558809863700,9.21486376953125,-9.019527562651037,-3.7927456845551726,-0.6584690232984721
1772556558819847700,9.22484765625,-8.987831863182782,-3.8608565132290122,-0.695013916363567
1772556558829831700,9.234831787109375,-8.958197187897563,-3.922869025027752,-0.7295100602053105
1772556558839815700,9.244815673828125,-8.932765224999189,-3.9739822494104504,-0.763910196326673
1772556558849799700,9.254799560546875,-8.91235839678645,-4.0131209583610294,-0.7969363406810909
1772556558859783700,9.26478369140625,-8.897174856179952,-4.040699577899277,-0.8266870435614139
1772556558869768700,9.274768798828125,-8.886346588173508,-4.059300817994773,-0.8516467858381569
1772556558879752700,9.284752685546875,-8.879009669414161,-4.07169940405786,-0.868810394345969
1772556558889736700,9.29473681640625,-8.874287317067385,-4.080535913725197,-0.8755772581323981
1772556558899720700,9.304720703125,-8.871246049675344,-4.0882001647427675,-0.8706322029456496
1772556558909704700,9.31470458984375,-8.868875228890776,-4.096907202811539,-0.8536888861250131
1772556558919688700,9.324688720703126,-8.866434265479445,-4.107937130869924,-0.8255806897547096
1772556558929672700,9.334672607421876,-8.863022995731233,-4.122632011176646,-0.7881080143202096
1772556558939657700,9.34465771484375,-8.857994353914261,-4.141222729878128,-0.7460499107915908
1772556558949641700,9.354641845703124,-8.850596060356498,-4.164413635851442,-0.7035622567392885
1772556558959625700,9.364625732421874,-8.840611841958761,-4.192137216818333,-0.6632897214531898
1772556558969609700,9.374609619140625,-8.82791193486154,-4.224415100088716,-0.6266391029912978
1772556558979593700,9.38459375,-8.812613827964663,-4.260773822931945,-0.5949980563197285
1772556558989577700,9.39457763671875,-8.795525330519675,-4.29949226064384,-0.5687553980929777
1772556558999561500,9.4045615234375,-8.777990842872857,-4.33801312995702,-0.5467241835488006
1772556559009546800,9.414546630859375,-8.76165053344667,-4.373251324337721,-0.5277632432954386
1772556559019530800,9.42453076171875,-8.748188994327187,-4.402162069262564,-0.5104363339846953
1772556559029514500,9.434514404296875,-8.738459042951463,-4.423173293109238,-0.49523781500477343
1772556559039498500,9.44449853515625,-8.732641296583413,-4.43596321657747,-0.4833136780530214
1772556559049482500,9.454482421875,-8.730199164128303,-4.441689485269785,-0.474772644200921
1772556559059466500,9.464466552734375,-8.7300349134773,-4.44257562045455,-0.4694676331279799
1772556559069450500,9.474450439453125,-8.730686070862411,-4.441553876191377,-0.46701476008314635
1772556559079435500,9.484435546875,-8.730606575885414,-4.441751444590092,-0.4666271490050479
1772556559089419500,9.49441943359375,-8.728679991737007,-4.445469296069443,-0.4672585422437638
1772556559099403500,9.504403564453124,-8.723993295225501,-4.454654765304923,-0.4673020160593092
1772556559109387500,9.514387451171874,-8.716113355630636,-4.4701708988666535,-0.46617483866028486
1772556559119371800,9.524371826171874,-8.705003348073364,-4.491994608139992,-0.4639873020207509
1772556559129355800,9.534355712890624,-8.690403744834661,-4.520580066633224,-0.46002522998936474
1772556559139339800,9.54433984375,-8.672152633351088,-4.556114029090106,-0.4538522769754752
1772556559149324500,9.554324462890625,-8.650186885258554,-4.5986245525613425,-0.4441888514973223
1772556559159308500,9.56430859375,-8.625058873742818,-4.646809614537656,-0.4311682245457545
1772556559169292800,9.574292724609375,-8.597692143389581,-4.698504145939648,-0.4172883869489655
1772556559179276800,9.58427685546875,-8.569759011325239,-4.750526594121754,-0.40263347332645205
1772556559189260800,9.5942607421875,-8.542898476928473,-4.799946750850975,-0.38700978773701933
1772556559199244800,9.604244873046875,-8.518957044848799,-4.8434684971913695,-0.37223807933442293
1772556559209228800,9.614228759765625,-8.498320499533415,-4.880670685121417,-0.3577492064611986
1772556559219212800,9.624212890625,-8.48025935766399,-4.913292851784825,-0.33933395392447707
1772556559229197800,9.63419775390625,-8.463661858606338,-4.943561733320355,-0.3130562243843451
1772556559239181800,9.644181884765626,-8.448817340695857,-4.970879948356747,-0.27968371427766975
1772556559249165800,9.654165771484376,-8.438468965160846,-4.990207749161124,-0.245878877168335
1772556559259149600,9.664149658203126,-8.438390639227627,-4.991621123090386,-0.21833087196405976
1772556559269133600,9.674133544921874,-8.4556954097718,-4.963070735910534,-0.1988138321978971
1772556559279117600,9.68411767578125,-8.493298287457227,-4.898976741662621,-0.18519947713688015
1772556559289098200,9.69409814453125,-8.546883747172355,-4.805248072129488,-0.17536564526157453
1772556559299083300,9.704083251953126,-8.607769300767778,-4.695554648484289,-0.16869303562985732
1772556559309067300,9.7140673828125,-8.665745104396343,-4.58780300655663,-0.1652686689380556
1772556559319051300,9.72405126953125,-8.711224414545297,-4.500820011891425,-0.16604752608975396
1772556559329035300,9.73403515625,-8.738458458429575,-4.447446441361308,-0.17305661940053105
1772556559339019300,9.744019287109374,-8.7457398476094,-4.432692816604674,-0.18344863314786924
1772556559349003300,9.754003173828124,-8.735847983670235,-4.451699422630668,-0.19420067584663628
1772556559358987300,9.7639873046875,-8.715440570935607,-4.491129515743255,-0.20305899548698214
1772556559368972300,9.77397216796875,-8.691835238942504,-4.536462695419788,-0.20710140274558214
1772556559378956300,9.783956298828125,-8.670583776599168,-4.577236604356766,-0.2006663464630954
1772556559388940300,9.793940185546875,-8.655015620589255,-4.607445864659548,-0.18036292382590471
1772556559398924300,9.80392431640625,-8.646962662515044,-4.62373210581094,-0.14669029826149343
1772556559408908300,9.813908203125,-8.647554783189296,-4.623837904272973,-0.1014914216222707
1772556559418892000,9.82389208984375,-8.65746944348216,-4.606100003008544,-0.04948170049099717
1772556559428876300,9.833876220703125,-8.676981953203677,-4.569503087495267,0.0031472108429006765
1772556559438861000,9.843861083984375,-8.705199162906407,-4.5152126943811774,0.05242895575691946
1772556559448845000,9.853844970703125,-8.739395447018742,-4.447960820624232,0.09485458655683324
1772556559458829000,9.8638291015625,-8.775525329542159,-4.375415516634285,0.1275995028170757
1772556559468813000,9.87381298828125,-8.809157550030946,-4.306639502049983,0.14826508243069983
1772556559478797300,9.88379736328125,-8.837168423506617,-4.2485874183148145,0.15601075552087276
1772556559488781300,9.89378125,-8.858226409104466,-4.204671119698882,0.15148452853439376
1772556559498765300,9.903765380859374,-8.872359563875198,-4.175247749076783,0.13758478979389183
1772556559508750000,9.91375,-8.88046688248515,-4.158561694952845,0.1185629679324571
1772556559518734300,9.923734375,-8.883923160418867,-4.151738278673589,0.09674864754197188
1772556559528718300,9.93371826171875,-8.884824493172765,-4.15030035482496,0.07269115590115544
1772556559538702300,9.943702392578125,-8.885151825430988,-4.14997389934957,0.04663439846821129
1772556559548686300,9.953686279296875,-8.886805437856912,-4.14664475492686,0.020193436623807064
1772556559558670300,9.96367041015625,-8.890764989137649,-4.138195783272385,-0.00449349775641167
1772556559568654300,9.973654296875,-8.897146214607357,-4.124378562583029,-0.025892682595166843
1772556559578639400,9.983639404296875,-8.905212616685033,-4.106792637009918,-0.04273666037730872
1772556559588623400,9.993623291015625,-8.913715072092414,-4.088167431516945,-0.05436177784986794
1772556559598607400,10.003607421875,-8.921445958605409,-4.07117684148848,-0.06083395583892706
1772556559608591400,10.01359130859375,-8.927524986258149,-4.057817593699694,-0.061581070712069044
1772556559618575400,10.023575439453126,-8.931116873270273,-4.049977693854272,-0.05671078409485053
1772556559628559400,10.033559326171876,-8.93127118704915,-4.049765804669261,-0.046654929799586534
1772556559638543400,10.04354345703125,-8.926417317277192,-4.060599917894602,-0.03136336909121601
1772556559648528400,10.0535283203125,-8.915317831113933,-4.085021534706652,-0.009695660947053692
1772556559658512400,10.063512451171874,-8.897510371744632,-4.12363943465352,0.017296211636735823
1772556559668496100,10.07349609375,-8.873620377591251,-4.174560935856402,0.047826832256326446
1772556559678480100,10.083480224609374,-8.845590214893221,-4.2331560404270885,0.07940660459417849
1772556559688464100,10.093464111328124,-8.815829282879829,-4.294126641957462,0.10962210284150205
1772556559698448100,10.1034482421875,-8.786914738562702,-4.3521977226540445,0.1374455000542104
1772556559708432100,10.11343212890625,-8.761131478008627,-4.403005534349382,0.16279360232772305
1772556559718417200,10.123417236328125,-8.739788245728612,-4.444384715703129,0.1842111054203473
1772556559728401200,10.133401123046875,-8.72336025801897,-4.475914410954713,0.19891436996292322
1772556559738385200,10.14338525390625,-8.71202053335905,-4.4976495651617645,0.2055001598277129
1772556559748369200,10.153369140625,-8.706423151743412,-4.508576032845676,0.20328493146365506
1772556559758353200,10.163353271484375,-8.707646556058526,-4.506704101493955,0.1920877753458917
1772556559768337200,10.173337158203125,-8.71589766705334,-4.491464446786046,0.17396215340550988
1772556559778321200,10.183321044921875,-8.729135334289074,-4.4664583080843085,0.1527667960304301
1772556559788306200,10.19330615234375,-8.742890303397179,-4.440139040957391,0.13199847756153904
1772556559798290200,10.203290283203126,-8.751675667399168,-4.423270031481981,0.11507717164331115
1772556559808274200,10.213274169921876,-8.75062937321663,-4.42564026774466,0.10285484632942825
1772556559818258200,10.223258056640624,-8.739127735993266,-4.448578952522576,0.09039907758585176
1772556559828242200,10.2332421875,-8.721759252563118,-4.482910553452372,0.06938025495461188
1772556559838226400,10.243226318359374,-8.707719036772847,-4.510554639442264,0.03021492742516566
1772556559848210400,10.25321044921875,-8.707814313840865,-4.510361162696778,-0.03153805893784156
1772556559858195200,10.2631953125,-8.730363999301195,-4.465171483144164,-0.11567338397079147
1772556559868179200,10.27317919921875,-8.777121658822894,-4.3686134354040025,-0.2184900628474541
1772556559878163500,10.28316357421875,-8.842357808843255,-4.227560412377119,-0.3329061128340661
1772556559888147500,10.2931474609375,-8.914829170814157,-4.061650888252258,-0.4463154517298564
1772556559898131200,10.303131103515625,-8.981475772154331,-3.8996296037375924,-0.5443913932196796
1772556559908115200,10.313115234375,-9.030871963486074,-3.7732933805882927,-0.6131778561327607
1772556559918099200,10.32309912109375,-9.056012249961494,-3.7068154138132927,-0.6469510925274342
1772556559928084200,10.333084228515625,-9.05533303552568,-3.707622346282005,-0.6518163604762405
1772556559938068200,10.343068115234376,-9.03265358620584,-3.7645582854688167,-0.6400437973570078
1772556559948052200,10.35305224609375,-8.994768384447694,-3.857282454134524,-0.6212077986575663
1772556559958036200,10.3630361328125,-8.949580750721692,-3.9644086576402184,-0.5990424363397061
1772556559968020200,10.373020263671876,-8.904630432882904,-4.067863479156792,-0.5748278864070773
1772556559978004200,10.383004150390626,-8.865928654044867,-4.154718171267211,-0.5513722285503522
1772556559987988200,10.39298828125,-8.83744373331666,-4.217594314157963,-0.5309139258787036
1772556559997973200,10.40297314453125,-8.820997625428438,-4.253874711067974,-0.5147231809910386
1772556560007957200,10.412957275390625,-8.816272350472211,-4.264946140180528,-0.5039432456383481
1772556560017941200,10.422941162109375,-8.822088343274594,-4.25349184923023,-0.49894572961200023
1772556560027925200,10.43292529296875,-8.836856873339414,-4.222757980531454,-0.4986575237877667
1772556560037909200,10.4429091796875,-8.858561924669146,-4.176775104774534,-0.5008113042881712
1772556560047893200,10.452893310546875,-8.88414410969317,-4.122013002495468,-0.5013763177597895
1772556560057877200,10.462877197265625,-8.91112856273055,-4.063442740105092,-0.5006090962469577
1772556560067862300,10.4728623046875,-8.937376518186927,-4.005367860016227,-0.5007161368180066
1772556560077846300,10.48284619140625,-8.961282878953218,-3.951208692066371,-0.503730406605266
1772556560087830300,10.492830322265625,-8.981428425881266,-3.9043817667007445,-0.5100330504134297
1772556560097814300,10.502814208984375,-8.996927608308196,-3.866964766976237,-0.5217878952128813
1772556560107798300,10.51279833984375,-9.008961160451173,-3.835912918369472,-0.5429344358770176
1772556560117782300,10.5227822265625,-9.01808554714918,-3.810612180635333,-0.568989097250998
1772556560127766000,10.53276611328125,-9.025618865263462,-3.7885891493976116,-0.5959715044617653
1772556560137751300,10.542751220703124,-9.032512716430425,-3.7679894289612768,-0.6215776548832654
1772556560147735300,10.5527353515625,-9.03893661199808,-3.7486718572899695,-0.644567996783182
1772556560157719000,10.562718994140624,-9.044296677726507,-3.732279817676544,-0.664203694492951
1772556560167703000,10.572703125,-9.048472502106428,-3.7192180915296076,-0.6804032802741974
1772556560177687300,10.582687255859375,-9.051331398668884,-3.7097029519483447,-0.6941806073445826
1772556560187671300,10.59267138671875,-9.053288377955555,-3.7024312073796986,-0.7073624527398497
1772556560197655300,10.6026552734375,-9.055448186337948,-3.6946000753626227,-0.7205326807625592
1772556560207640000,10.61264013671875,-9.058570702272654,-3.684167820936441,-0.7345696086172014
1772556560217624000,10.6226240234375,-9.0630510625571,-3.669975337193906,-0.7501768545284867
1772556560227608300,10.6326083984375,-9.06849822204709,-3.652841831563413,-0.7677675293419509
1772556560237592300,10.64259228515625,-9.073648444417119,-3.6361198293432593,-0.7860766546230763
1772556560247576300,10.652576416015625,-9.076609632310271,-3.625099838156998,-0.8026162860136479
1772556560257560300,10.662560302734375,-9.075447602793574,-3.625088439980149,-0.8157054846893995
1772556560267544300,10.67254443359375,-9.068767102116345,-3.640233986663818,-0.8225215944450348
1772556560277529300,10.682529296875,-9.056595018285513,-3.6709514887496826,-0.8201116837590933
1772556560287513300,10.692513427734376,-9.040276920691133,-3.713673316884041,-0.8077151435226202
1772556560297501200,10.702501220703125,-9.021809536108375,-3.7624972612857817,-0.7880049923371523
1772556560307485200,10.712485107421875,-9.00320654244721,-3.81125164758265,-0.7661724421702325
1772556560317469000,10.722468994140625,-8.985482669708132,-3.8566462020576,-0.7468382846903056
1772556560327453000,10.732452880859375,-8.968968757280706,-3.8977851449146863,-0.7316087860502303
1772556560337437000,10.74243701171875,-8.953609275585412,-3.9356066337868567,-0.7171274023637175
1772556560347422000,10.752421875,-8.939111963677405,-3.9714524386718866,-0.7001612891893834
1772556560357406000,10.762406005859376,-8.925516569045186,-4.0054204669862985,-0.6798159819055348
1772556560367390000,10.772389892578126,-8.91299552564621,-4.037274571886658,-0.6552173280261456
1772556560377374000,10.7823740234375,-8.902020542645454,-4.066163689501583,-0.6250821558728814
1772556560387358000,10.79235791015625,-8.894263352647423,-4.088395102792978,-0.58948532078024
1772556560397342000,10.802342041015624,-8.891647617191076,-4.0995495340138675,-0.5501667982833459
1772556560407326000,10.812325927734374,-8.896306256651878,-4.09439697355628,-0.5118924145445227
1772556560417311000,10.82231103515625,-8.91073693306446,-4.066869207422435,-0.4792928250391036
1772556560427295000,10.832294921875,-8.935835718485713,-4.014190048897266,-0.4555245941018685
1772556560437279000,10.842279052734375,-8.969567307695746,-3.9396860120549797,-0.4428518307399004
1772556560447263000,10.852262939453125,-9.00881561450064,-3.849221605014801,-0.44172721062414344
1772556560457247000,10.8622470703125,-9.049003247982263,-3.752762925995886,-0.4502229440297931
1772556560467231000,10.87223095703125,-9.08477891024053,-3.6630852854192253,-0.46795554806459694
1772556560477215000,10.882215087890625,-9.11021730287969,-3.5957469024226065,-0.49489802512377495
1772556560487200000,10.892199951171875,-9.121448306468128,-3.5635660497859116,-0.5201576271299273
1772556560497184000,10.90218408203125,-9.120023826622962,-3.5642622153565284,-0.5399891396727413
1772556560507168000,10.91216796875,-9.108190765488148,-3.592969838924706,-0.549377328406088
1772556560517152000,10.922152099609375,-9.090201519811153,-3.638547933273017,-0.5473511198081076
1772556560527136000,10.932135986328126,-9.070546971270442,-3.6889921723529695,-0.5356322231048718
1772556560537120000,10.9421201171875,-9.052911945858597,-3.7348034909352656,-0.5161532868593931
1772556560547104000,10.95210400390625,-9.039711688023806,-3.7701255642071363,-0.49004846620075404
1772556560557089000,10.962089111328124,-9.031744654667376,-3.793096982210874,-0.45868652873151
1772556560567073000,10.972072998046874,-9.029094432419537,-3.803364985986054,-0.42455545534249395
1772556560577056800,10.982056884765624,-9.031995414558052,-3.799946409714222,-0.3922347558436915
1772556560587041000,10.992041015625,-9.040858519971371,-3.7812276807188985,-0.3682111253732815
1772556560597025000,11.00202490234375,-9.056026863008737,-3.7457153455719348,-0.35830589049588885
1772556560607009000,11.012009033203125,-9.076528383767604,-3.6952570779666303,-0.363444897352159
1772556560616993000,11.021992919921875,-9.099687141036986,-3.6362165677160023,-0.3794828628309071
1772556560626978000,11.03197802734375,-9.12237769627273,-3.5765415589541196,-0.4011960974670946
1772556560636962000,11.041962158203125,-9.141967362883687,-3.523419625097513,-0.42465131693240254
1772556560646946000,11.051946044921875,-9.157164347493648,-3.4808842594459652,-0.4474076674133539
1772556560656930000,11.061929931640625,-9.16792130382955,-3.449834164404869,-0.467167466426827
1772556560666914000,11.0719140625,-9.175179312133789,-3.42829161016047,-0.4829930312639102
1772556560676898000,11.08189794921875,-9.180443516272305,-3.412532023231685,-0.49443789679873734
1772556560686882000,11.091882080078125,-9.185168206706642,-3.398848365794122,-0.5009023070398718
1772556560696866000,11.101865966796876,-9.190523011738062,-3.383828199055791,-0.5043574159298092
1772556560706851000,11.11185107421875,-9.19705504385531,-3.365574749484658,-0.5074132233038544
1772556560716835000,11.1218349609375,-9.204653243899346,-3.344121334828436,-0.5114680151199922
1772556560726819000,11.131819091796874,-9.212788035038113,-3.320760040724277,-0.517174592731148
1772556560736803000,11.141802978515624,-9.220587895134091,-3.2980116178214547,-0.523701583347097
1772556560746787000,11.151787109375,-9.22726722676754,-3.27829774030894,-0.5298022383097559
1772556560756771000,11.16177099609375,-9.232356074339151,-3.2632667599156497,-0.5339287436552346
1772556560766755000,11.171755126953125,-9.235701877635718,-3.2537077811926602,-0.5344025717120617
1772556560776740000,11.181739990234375,-9.237496944358945,-3.249159616369009,-0.5310374061278998
1772556560786724000,11.19172412109375,-9.237782775563002,-3.249230343517661,-0.5256019736083224
1772556560796708000,11.2017080078125,-9.23602920989394,-3.255040198840201,-0.5204431660730392
1772556560806691800,11.21169189453125,-9.231751678705216,-3.268146933172643,-0.5141571811387315
1772556560816675800,11.22167578125,-9.224146464398503,-3.291161021274328,-0.5037551026551053
1772556560826659800,11.231659912109375,-9.213072112676501,-3.3244296691477295,-0.48770117242224514
1772556560836643800,11.241643798828125,-9.199289086517691,-3.365472458153963,-0.4658991269914433
1772556560846628900,11.25162890625,-9.184213682460785,-3.410063295030594,-0.43826603731960057
1772556560856612900,11.26161279296875,-9.169249922084807,-3.4540760397583243,-0.4057125154456123
1772556560866596900,11.271596923828126,-9.155509566023945,-3.494381454400718,-0.36923159099482
1772556560876580900,11.281580810546876,-9.143486535274983,-3.5294726415261626,-0.331457046536915
1772556560886564900,11.29156494140625,-9.133304748478531,-3.5587659560278055,-0.29716791477566584
1772556560896548900,11.301548828125,-9.124956022328139,-3.5821515077903863,-0.27156399284387006
1772556560906533000,11.311533203125,-9.118885762503742,-3.5985464700132606,-0.25838612950397655
1772556560916518000,11.321517822265625,-9.116183517807722,-3.605435352744162,-0.25771160950958727
1772556560926502000,11.331501953125,-9.117383541247248,-3.6018528180822726,-0.26524872701615093
1772556560936486000,11.34148583984375,-9.121821815955638,-3.5898689502999184,-0.27494236496947705
1772556560946470100,11.35147021484375,-9.127270144489406,-3.5753719306528566,-0.2829097088531591
1772556560956454100,11.3614541015625,-9.130462218528985,-3.567023496763408,-0.2852837262418121
1772556560966438100,11.371438232421875,-9.128071524000168,-3.573748713365197,-0.27750892752185463
1772556560976422100,11.381422119140625,-9.118390672463178,-3.5997964700743554,-0.25845329472236334
1772556560986407200,11.3914072265625,-9.1025144734174,-3.6413413633838294,-0.23505369616812094
1772556560996391200,11.40139111328125,-9.084216015660763,-3.6878912253737446,-0.2164809880473651
1772556561006375200,11.411375244140626,-9.068366120100022,-3.7271737267091867,-0.20806920659812167
1772556561016359200,11.421359130859376,-9.060003365424274,-3.747133980198204,-0.21378937434321268
1772556561026343200,11.43134326171875,-9.063867055115104,-3.7363591959446665,-0.23729955713246018
1772556561036327000,11.441326904296876,-9.082140378430486,-3.68876654690355,-0.27948324153581633
1772556561046311000,11.451310791015626,-9.112758219534157,-3.6072596455618737,-0.34014870437346395
1772556561056295000,11.461294921875,-9.149499511954188,-3.5050630074128506,-0.41421529964655635
1772556561066280000,11.471280029296874,-9.184448660260438,-3.4025478048339486,-0.4888345968989655
1772556561076264000,11.481263916015624,-9.211047328850626,-3.3203722104504703,-0.5496586660981178
1772556561086248000,11.491248046875,-9.22403949689269,-3.277022313545644,-0.590428337251395
1772556561096232000,11.50123193359375,-9.221547680076956,-3.2811297488644717,-0.6063234236607328
1772556561106216000,11.5112158203125,-9.207605663964152,-3.320434462031722,-0.6042303603716195
1772556561116200000,11.521199951171875,-9.186691470751166,-3.380118530882895,-0.5915116389760747
1772556561126184000,11.531183837890625,-9.16437793213427,-3.4432904418498276,-0.5729820758773013
1772556561136169000,11.5411689453125,-9.145078772902488,-3.4980130889013408,-0.5493807624721899
1772556561146153000,11.551153076171875,-9.13190891020596,-3.536194350996613,-0.5234015044219792
1772556561156137000,11.561136962890625,-9.126320880940556,-3.5540567554235456,-0.49933290229868144
1772556561166121000,11.571120849609375,-9.128004888504742,-3.5524545809239148,-0.47956572369635103
1772556561176105000,11.58110498046875,-9.135486768692731,-3.5352538552761077,-0.46395259603355077
1772556561186089000,11.5910888671875,-9.146579240593313,-3.508305934856832,-0.4497343202626332
1772556561196073000,11.601072998046876,-9.159227125242351,-3.477227198243141,-0.433396166260913
1772556561206057000,11.611056884765626,-9.171959181043505,-3.4459906407192347,-0.41315413668844847
1772556561216042000,11.6210419921875,-9.183509918105601,-3.417919269227981,-0.38905455490499735
1772556561226026000,11.63102587890625,-9.192810245892405,-3.395720881423354,-0.36290512791965157
1772556561236010000,11.641010009765624,-9.199529325014351,-3.380129052276909,-0.3373061013586819
1772556561245994000,11.650993896484374,-9.203454974025487,-3.3715234287559985,-0.3156379845058545
1772556561255978000,11.66097802734375,-9.204752612620592,-3.3694211957797404,-0.2998604417952709
1772556561265962000,11.6709619140625,-9.20356077248752,-3.3735382757097483,-0.28999036956280466
1772556561275946000,11.680946044921875,-9.199829769265651,-3.384053532244265,-0.28582740466445683
1772556561285931000,11.690930908203125,-9.19375015709102,-3.400374260187149,-0.2877495866323821
1772556561295911200,11.7009111328125,-9.185990629005431,-3.4208094377115366,-0.29330250805178654
1772556561305895200,11.710895263671874,-9.177449010631442,-3.4431726606890556,-0.2989542684694752
1772556561315879200,11.720879150390624,-9.168736127343774,-3.4660116844847795,-0.30237196795847265
1772556561325863200,11.73086328125,-9.160345315617322,-3.4881872759357093,-0.3016710166148841
1772556561335847200,11.74084716796875,-9.152664697986841,-3.5087618619307874,-0.2961543172863312
1772556561345831200,11.7508310546875,-9.14610051716566,-3.526716913077235,-0.28547400638321413
1772556561355816200,11.760816162109375,-9.140782537013292,-3.5417025930240746,-0.2698483845650218
1772556561365800200,11.77080029296875,-9.136303930294513,-3.5547117122009393,-0.24971308503635226
1772556561375784200,11.7807841796875,-9.13164938248694,-3.5681706209719177,-0.22699016190096735
1772556561385768200,11.790768310546875,-9.125610686844587,-3.584957212860882,-0.20419578096456825
1772556561395752200,11.800752197265625,-9.117143302750588,-3.607552198767662,-0.18344287926051764
1772556561405736200,11.810736083984375,-9.105837480360268,-3.6368203788280486,-0.1662571867850609
1772556561415720200,11.82072021484375,-9.092241501206159,-3.6712694686576723,-0.15267055998118592
1772556561425704200,11.8307041015625,-9.07715148410201,-3.7088840367808937,-0.14099880862161515
1772556561435689200,11.840689208984376,-9.061649963587522,-3.7469916491180655,-0.130138592840638
1772556561445673200,11.850673095703126,-9.046572221443057,-3.783598501503467,-0.1195552395059727
1772556561455657200,11.8606572265625,-9.032902592530846,-3.816395440211892,-0.11035818029739894
1772556561465641200,11.87064111328125,-9.021250148659943,-3.8440503398567434,-0.10344904936291277
1772556561475625200,11.880625244140624,-9.012134529790282,-3.8654900182485576,-0.09901676600389182
1772556561485609000,11.89060888671875,-9.00566562603712,-3.8805800353527067,-0.09732611863636412
1772556561495593000,11.900593017578124,-9.001829408875107,-3.8894522008553145,-0.09801197287552058
1772556561505578200,11.910578125,-9.000458120521902,-3.8925872840106486,-0.09950442165667191
1772556561515562000,11.92056201171875,-9.000907617855072,-3.891531052955985,-0.10017897818367928
1772556561525546000,11.9305458984375,-9.00223448254466,-3.8885087825253604,-0.09825355394589715
1772556561535530000,11.940530029296875,-9.004156390517949,-3.8841538021862503,-0.09432870865236036
1772556561545514000,11.950513916015625,-9.006400954574346,-3.879079567661881,-0.08867775195227004
1772556561555498200,11.960498291015625,-9.008767683705686,-3.8737130721926687,-0.08265310310157947
1772556561565482200,11.970482177734375,-9.012717882636188,-3.864586639668047,-0.07918440407770685
1772556561575466200,11.98046630859375,-9.020795390629768,-3.8456788178414105,-0.07991889236471615
1772556561585451000,11.990450927734376,-9.034638622543214,-3.812911982010305,-0.08596180752445944
1772556561595434200,12.000434326171876,-9.053916738986969,-3.7666453208759423,-0.09675302232298999
1772556561605418200,12.010418212890626,-9.076203974118828,-3.712252051909268,-0.10997493486716411
1772556561615402200,12.02040234375,-9.09796689311564,-3.658164487890899,-0.12336018474688752
1772556561625386200,12.03038623046875,-9.115946786442398,-3.6126667653024196,-0.13613650894802995
1772556561635370200,12.040370361328126,-9.12774945243895,-3.582298222784698,-0.14737200604849493
1772556561645354200,12.050354248046874,-9.132758220511674,-3.569095626862347,-0.15706678564613685
1772556561655338000,12.060337890625,-9.132190649756788,-3.5701518579170104,-0.16581623808452858
1772556561665323300,12.0703232421875,-9.12787980082035,-3.580817336577177,-0.17305283827455714
1772556561675307300,12.080307373046875,-9.121681530702114,-3.596350713534653,-0.17767019587690008
1772556561685291000,12.090291015625,-9.114398972478508,-3.6147985166341066,-0.17703787105642257
1772556561695275000,12.10027490234375,-9.10628463960588,-3.6356007739052174,-0.16844413890270515
1772556561705259000,12.110259033203125,-9.097504536300898,-3.6583100338414307,-0.15019960329039023
1772556561715243000,12.120242919921875,-9.089077484217286,-3.680199794088304,-0.12320811772402375
1772556561725227000,12.13022705078125,-9.082532008096575,-3.6972967671006916,-0.08937655700454487
1772556561735212000,12.1402119140625,-9.079753775554895,-3.7048257013007997,-0.05213714233664796
1772556561745196000,12.150196044921875,-9.082139793908595,-3.699303138487041,-0.016768566466862103
1772556561755180000,12.160179931640625,-9.090563923382758,-3.678571900625527,0.01185211746173445
1772556561765164000,12.1701640625,-9.10495952848196,-3.642692193470895,0.029788285811198873
1772556561775148000,12.18014794921875,-9.123729695403576,-3.5953760232836007,0.03473716322311666
1772556561785132300,12.19013232421875,-9.144473792746663,-3.542358426584303,0.026099751757876946
1772556561795116300,12.2001162109375,-9.164780083194374,-3.489581068381667,0.003939922133782238
1772556561805100300,12.210100341796876,-9.18254487246573,-3.4424288565844297,-0.03058688884298317
1772556561815085000,12.2200849609375,-9.196433697086572,-3.40447526576519,-0.07439322427841834
1772556561825069300,12.2300693359375,-9.205876648214458,-3.377369232174754,-0.12491473897881805
1772556561835053300,12.24005322265625,-9.210938607779145,-3.3610978963315485,-0.17892408666182308
1772556561845037300,12.250037353515625,-9.212557733413577,-3.3532892684072255,-0.23368956820806486
1772556561855021300,12.260021240234375,-9.21213980026245,-3.3503704583510756,-0.286154280264955
1772556561865005300,12.27000537109375,-9.211274707865714,-3.3483976969733833,-0.3332177725991234
1772556561874989300,12.2799892578125,-9.210932178038359,-3.344985550442338,-0.3744130122207105
1772556561884973000,12.28997314453125,-9.211648217353224,-3.338891909742355,-0.4095381381483748
1772556561894958300,12.299958251953125,-9.213217074105144,-3.330815278531611,-0.4389644679125398
1772556561904942300,12.3099423828125,-9.215379805096983,-3.321573987455666,-0.46293315332531926
1772556561914926000,12.319926025390625,-9.217985603681207,-3.311623963588476,-0.4819470658749342
1772556561924910000,12.32991015625,-9.220689017421007,-3.301959186403453,-0.49633558364622293
1772556561934894000,12.33989404296875,-9.222996709841489,-3.2939655573010445,-0.5064671746253967
1772556561944878000,12.349878173828126,-9.224701175671814,-3.2882278904318807,-0.5126655178088695
1772556561954862000,12.359862060546876,-9.225303817740082,-3.2861788489475843,-0.514960679541342
1772556561964847000,12.36984716796875,-9.224082166990637,-3.289811067970097,-0.5136527387479319
1772556561974831000,12.3798310546875,-9.220417799264192,-3.3009161070913073,-0.5081636763449758
1772556561984815000,12.389815185546874,-9.213890443322063,-3.320522140315175,-0.49873705529738216
1772556561994799000,12.399799072265624,-9.204580178663134,-3.3481121580302715,-0.48603915749415755
1772556562004783000,12.409783203125,-9.192716137868166,-3.3827766441762446,-0.47029447587355966
1772556562014770200,12.419770263671875,-9.178541482043265,-3.423639984962344,-0.45105146727580575
1772556562024754000,12.42975390625,-9.162758221977949,-3.468537988092005,-0.42836434610616414
1772556562034738200,12.43973828125,-9.14641615898609,-3.514433477826416,-0.4027567343799397
1772556562044723200,12.44972314453125,-9.130840404191613,-3.55776934620589,-0.37472580449692905
1772556562054707000,12.45970703125,-9.11717369788885,-3.595425415383279,-0.3470484738245606
1772556562064691000,12.46969091796875,-9.106808955740927,-3.623783494861424,-0.3234249485876411
1772556562074675200,12.47967529296875,-9.10087488951683,-3.640180502910912,-0.30585051252292467
1772556562084659200,12.4896591796875,-9.099929133099318,-3.643436582097411,-0.29502704855576156
1772556562094643200,12.499643310546874,-9.103663058930636,-3.6346070866927502,-0.28868686748249456
1772556562104627200,12.509627197265624,-9.11087196739614,-3.6170553556501863,-0.28161130307307464
1772556562114611200,12.519611083984374,-9.119196728149056,-3.5969165307238695,-0.26985812050774693
1772556562124596200,12.52959619140625,-9.126047909218073,-3.580826104405522,-0.2516375685592182
1772556562134580200,12.539580322265625,-9.130205028897523,-3.571624268557131,-0.23073223450612276
1772556562144564200,12.549564208984375,-9.133076784941554,-3.565298864927888,-0.21432461373107506
1772556562154548200,12.55954833984375,-9.13832403794527,-3.552206159120798,-0.20796214776076374
1772556562164532200,12.5695322265625,-9.151103440019488,-3.51870662510097,-0.21540559563450515
1772556562174516200,12.57951611328125,-9.174632199645043,-3.4555151326507327,-0.23649183921245856
1772556562184500200,12.589500244140625,-9.208685275894403,-3.3611519646063446,-0.27046748457774517
1772556562194485200,12.5994853515625,-9.248685862371325,-3.245431535756588,-0.315234737467207
1772556562204469200,12.60946923828125,-9.287229820299148,-3.128254478357732,-0.3630059944782406
1772556562214453200,12.619453369140626,-9.31661841186881,-3.034541298654675,-0.4031974638847634
1772556562224437200,12.629437255859376,-9.328612801045178,-2.9938445466071366,-0.4292571667600423
1772556562234421200,12.639421142578126,-9.322147404423356,-3.012658260409534,-0.43799821669626976
1772556562244405200,12.6494052734375,-9.299028979164362,-3.083721801409125,-0.4348667137375101
1772556562254389000,12.659388916015626,-9.263943052735923,-3.189287623730302,-0.4221236981509253
1772556562264373000,12.669373046875,-9.223308260008693,-3.3075565680190917,-0.40129455287288873
1772556562274358300,12.679358154296875,-9.18324980586469,-3.4204572632730006,-0.37253479725867505
