time,seconds_elapsed,z,y,x
1772556549684398000,0.089398193359375,0.11827557533979416,0.004543878138065338,0.7146632671356201
1772556549694382000,0.099382080078125,0.06947290152311325,-0.055326156318187714,0.8294973373413086
1772556549704366000,0.109365966796875,-0.00434673298150301,-0.0761997401714325,0.8866815567016602
1772556549714351000,0.11935107421875,-0.09432302415370941,-0.08150545507669449,0.8532296419143677
1772556549724335000,0.129335205078125,-0.20439067482948303,-0.05944276228547096,0.7568855285644531
1772556549734319000,0.139319091796875,-0.32240116596221924,-0.03528726100921631,0.639443576335907
1772556549744303000,0.14930322265625,-0.41287779808044434,0.0051328642293810844,0.5371531248092651
1772556549754287400,0.159287353515625,-0.45384299755096436,0.038047295063734055,0.45208293199539185
1772556549764271400,0.169271240234375,-0.44253626465797424,0.03917434439063072,0.39099082350730896
1772556549774255400,0.17925537109375,-0.4042055606842041,0.029032640159130096,0.34122103452682495
1772556549784239400,0.1892392578125,-0.3481273949146271,0.01804843358695507,0.274644672870636
1772556549794223400,0.199223388671875,-0.2640458345413208,-0.04244270175695419,0.19596610963344574
1772556549804207400,0.209207275390625,-0.17336253821849823,-0.0730980858206749,0.15859396755695343
1772556549814191400,0.21919140625,-0.09669066220521927,-0.04640761390328407,0.14328238368034363
1772556549824175400,0.22917529296875,-0.06268076598644257,-0.03211469575762749,0.1404666304588318
1772556549834159000,0.2391591796875,-0.11248212307691574,-0.059222035109996796,0.1438957154750824
1772556549844143000,0.24914306640625,-0.21946050226688385,-0.0660378634929657,0.10343910753726959
1772556549854127000,0.259127197265625,-0.25033771991729736,-0.002925782697275281,0.046613506972789764
1772556549864111000,0.269111083984375,-0.2316625565290451,0.12160149961709976,-0.007192198187112808
1772556549874095000,0.27909521484375,-0.21349141001701355,0.22223830223083496,-0.06945601105690002
1772556549884079000,0.2890791015625,-0.19024521112442017,0.2815690040588379,-0.15880851447582245
1772556549894063400,0.2990634765625,-0.1624196469783783,0.29641592502593994,-0.2671058177947998
1772556549904047400,0.30904736328125,-0.11857442557811737,0.2827203571796417,-0.3755132257938385
1772556549914031400,0.31903125,-0.07880859076976776,0.21002022922039032,-0.44709309935569763
1772556549924015400,0.329015380859375,-0.01254781149327755,0.10764645785093307,-0.4607018530368805
1772556549933999400,0.338999267578125,0.044476836919784546,-0.025978080928325653,-0.33048874139785767
1772556549943983400,0.3489833984375,0.053507883101701736,-0.23235495388507843,-0.027076657861471176
1772556549953967400,0.35896728515625,0.05019921809434891,-0.3878747820854187,0.2702849507331848
1772556549963951400,0.368951416015625,0.016121676191687584,-0.48111018538475037,0.48140037059783936
1772556549973935400,0.378935302734375,-0.02975299023091793,-0.4921590983867645,0.581473171710968
1772556549983919000,0.388919189453125,-0.0953141525387764,-0.42734840512275696,0.5901697278022766
1772556549993904400,0.398904296875,-0.16749298572540283,-0.30214723944664,0.522240161895752
1772556550003888400,0.408888427734375,-0.2306349277496338,-0.13088972866535187,0.3965389132499695
1772556550013872000,0.4188720703125,-0.2728724479675293,0.04482164606451988,0.2291664332151413
1772556550023856000,0.428856201171875,-0.28558292984962463,0.2210504561662674,0.03441345691680908
1772556550033840000,0.438840087890625,-0.2725932002067566,0.3975217640399933,-0.17737777531147003
1772556550043824000,0.44882421875,-0.23162980377674103,0.5415271520614624,-0.40244337916374207
1772556550053808000,0.45880810546875,-0.16884095966815948,0.6520828008651733,-0.6119394898414612
1772556550063792000,0.468792236328125,-0.08470956236124039,0.7446955442428589,-0.7896442413330078
1772556550073776000,0.478776123046875,0.026051383465528488,0.7764695286750793,-0.931523859500885
1772556550083760400,0.488760498046875,0.13563565909862518,0.7594404816627502,-1.0056968927383423
1772556550093744400,0.498744384765625,0.2560899555683136,0.6900082230567932,-1.0079594850540161
1772556550103728400,0.508728271484375,0.363729327917099,0.595667839050293,-0.9366466999053955
1772556550113712400,0.51871240234375,0.4380388557910919,0.5016829371452332,-0.8226795792579651
1772556550123696400,0.5286962890625,0.4651852548122406,0.3946699798107147,-0.6871678233146667
1772556550133680400,0.538680419921875,0.4578604996204376,0.3039107024669647,-0.5540692806243896
1772556550143664400,0.548664306640625,0.4266141653060913,0.25274738669395447,-0.44612839818000793
1772556550153648000,0.558648193359375,0.35864368081092834,0.23823295533657074,-0.37909144163131714
1772556550163632000,0.568632080078125,0.28847232460975647,0.2505330443382263,-0.3731861412525177
1772556550173616000,0.5786162109375,0.21479465067386627,0.3191516697406769,-0.44423776865005493
1772556550183600000,0.58860009765625,0.1464020013809204,0.4158758223056793,-0.5075373649597168
1772556550193584000,0.598584228515625,0.11981384456157684,0.4993226230144501,-0.5706692934036255
1772556550203568000,0.608568115234375,0.1060040220618248,0.5895132422447205,-0.629142165184021
1772556550213552000,0.61855224609375,0.08635304868221283,0.6612541079521179,-0.6628034114837646
1772556550223536000,0.6285361328125,0.0693727359175682,0.7323397397994995,-0.6712815761566162
1772556550233520400,0.638520263671875,0.051822394132614136,0.8388357162475586,-0.6797596216201782
1772556550243504400,0.64850439453125,0.06468252837657928,0.9417093992233276,-0.699196457862854
1772556550253488400,0.65848828125,0.1016659289598465,0.9731715321540833,-0.6526139378547668
1772556550263473200,0.66847314453125,0.12438429147005081,0.9483951330184937,-0.5589721202850342
1772556550273457400,0.67845751953125,0.13667593896389008,0.8751683235168457,-0.40008848905563354
1772556550283444200,0.6884443359375,0.15051504969596863,0.8105400800704956,-0.1920333206653595
1772556550293428200,0.69842822265625,0.1824839562177658,0.7444575428962708,0.033872269093990326
1772556550303412200,0.708412109375,0.22373978793621063,0.6694338917732239,0.22342568635940552
1772556550313396200,0.718396240234375,0.24687312543392181,0.6146226525306702,0.35584431886672974
1772556550323380200,0.728380126953125,0.25285857915878296,0.5558786392211914,0.4153928756713867
1772556550333364000,0.738364013671875,0.24380044639110565,0.4647996127605438,0.4383714497089386
1772556550343348000,0.748347900390625,0.2384975701570511,0.3523266017436981,0.4281936287879944
1772556550353332000,0.75833203125,0.24818482995033264,0.26395300030708313,0.3700231611728668
1772556550363316000,0.76831591796875,0.2446068674325943,0.17082573473453522,0.30288273096084595
1772556550373300000,0.778300048828125,0.2068951576948166,0.09473953396081924,0.22360028326511383
1772556550383284000,0.788283935546875,0.1600418984889984,0.04800292104482651,0.14097651839256287
1772556550393268200,0.798268310546875,0.16465377807617188,0.0027371791657060385,0.05954211577773094
1772556550403252200,0.808252197265625,0.11828281730413437,0.06544263660907745,0.016953110694885254
1772556550413236200,0.818236328125,0.11350325495004654,0.20468634366989136,0.03629906103014946
1772556550423220200,0.82822021484375,0.1502692550420761,0.2826298773288727,0.044508256018161774
1772556550433204200,0.838204345703125,0.17410264909267426,0.3598230481147766,0.049820855259895325
1772556550443188200,0.848188232421875,0.18053631484508514,0.45580658316612244,-0.02607710473239422
1772556550453172200,0.858172119140625,0.2317075878381729,0.4973776042461395,-0.13811616599559784
1772556550463156200,0.86815625,0.2648540735244751,0.4182683825492859,-0.2739802598953247
1772556550473140200,0.87814013671875,0.28202205896377563,0.1516912877559662,-0.49791139364242554
1772556550483124000,0.8881240234375,0.19648773968219757,-0.15915820002555847,-0.7293075919151306
1772556550493108000,0.89810791015625,0.052873071283102036,-0.44340264797210693,-0.9377586245536804
1772556550503092000,0.908092041015625,-0.04087366163730621,-0.6613160371780396,-1.058182954788208
1772556550513076000,0.918075927734375,-0.1147538349032402,-0.7429482936859131,-0.9806146025657654
1772556550523060000,0.92806005859375,-0.1824125051498413,-0.5851794481277466,-0.7196080684661865
1772556550533045000,0.938044921875,-0.21169190108776093,-0.2698712944984436,-0.34278568625450134
1772556550543029000,0.948029052734375,-0.16525515913963318,0.11545135825872421,0.057688236236572266
1772556550553013000,0.958012939453125,-0.06312430649995804,0.41355466842651367,0.38569504022598267
1772556550562997000,0.9679970703125,0.029051952064037323,0.5895891189575195,0.5996856093406677
1772556550572981000,0.97798095703125,0.08559949696063995,0.6964588761329651,0.7005928158760071
1772556550582965200,0.98796533203125,0.09944500029087067,0.7701227068901062,0.7035848498344421
1772556550592949200,0.99794921875,0.10176671296358109,0.8223767280578613,0.6304895877838135
1772556550602933200,1.007933349609375,0.06944899260997772,0.836161196231842,0.4995715022087097
1772556550612917200,1.017917236328125,0.011177416890859604,0.8287848234176636,0.3458736836910248
1772556550622901200,1.0279013671875,-0.07378461211919785,0.7962990403175354,0.20403507351875305
1772556550632885200,1.03788525390625,-0.18050381541252136,0.71560138463974,0.06789109110832214
1772556550642869200,1.047869140625,-0.2869831323623657,0.57012939453125,-0.03798740357160568
1772556550652853000,1.05785302734375,-0.3834766745567322,0.41525185108184814,-0.13227422535419464
1772556550662837000,1.0678369140625,-0.4547034502029419,0.3149830400943756,-0.23622992634773254
1772556550672821000,1.077821044921875,-0.5258132219314575,0.25624558329582214,-0.3269340395927429
1772556550682805000,1.087804931640625,-0.6122633814811707,0.2186446636915207,-0.41035062074661255
1772556550692789000,1.0977890625,-0.670638382434845,0.22337926924228668,-0.5014748573303223
1772556550702773000,1.10777294921875,-0.6733489036560059,0.32996588945388794,-0.5576374530792236
1772556550712757000,1.117757080078125,-0.6023167967796326,0.44392678141593933,-0.5892311930656433
1772556550722741200,1.1277412109375,-0.4346623122692108,0.5005223751068115,-0.5999062061309814
1772556550732725200,1.137725341796875,-0.23945829272270203,0.5001453161239624,-0.5685060024261475
1772556550742709200,1.147709228515625,-0.022799497470259666,0.43666961789131165,-0.5063339471817017
1772556550752693200,1.157693359375,0.19473998248577118,0.3051607608795166,-0.3962095081806183
1772556550762677200,1.16767724609375,0.3398361802101135,0.1395464837551117,-0.22513654828071594
1772556550772662300,1.177662353515625,0.4184662699699402,-0.018959540873765945,-0.012158503755927086
1772556550782646300,1.187646240234375,0.44398096203804016,-0.15261906385421753,0.18935170769691467
1772556550792630300,1.19763037109375,0.4594923257827759,-0.29114484786987305,0.33452722430229187
1772556550802614300,1.2076142578125,0.48601314425468445,-0.4608422517776489,0.39980024099349976
1772556550812598300,1.217598388671875,0.5428633093833923,-0.6145914196968079,0.37424153089523315
1772556550822582000,1.22758203125,0.5956029891967773,-0.6838610768318176,0.3215903043746948
1772556550832566000,1.23756591796875,0.6295546889305115,-0.7502261400222778,0.2900449335575104
1772556550842550000,1.247550048828125,0.666573703289032,-0.7819071412086487,0.2569034695625305
1772556550852534000,1.257533935546875,0.6982676982879639,-0.7669699788093567,0.2423037588596344
1772556550862518000,1.26751806640625,0.6911496520042419,-0.7419598698616028,0.26525652408599854
1772556550872502000,1.277501953125,0.6190559267997742,-0.6949393153190613,0.30019229650497437
1772556550882486000,1.287486083984375,0.4360429644584656,-0.5778030753135681,0.37220311164855957
1772556550892470000,1.297469970703125,0.2051241546869278,-0.35195210576057434,0.4166068434715271
1772556550902454000,1.3074541015625,0.03175317496061325,-0.2163737714290619,0.4339762330055237
1772556550912438300,1.317438232421875,-0.07443410903215408,-0.26829779148101807,0.4670798182487488
1772556550922422300,1.32742236328125,-0.12215635925531387,-0.39606961607933044,0.5102297067642212
1772556550932406300,1.33740625,-0.17325113713741302,-0.5050027966499329,0.5442607998847961
1772556550942390300,1.347390380859375,-0.23577070236206055,-0.5240252017974854,0.5355495810508728
1772556550952374300,1.357374267578125,-0.3135847747325897,-0.45998847484588623,0.4644080698490143
1772556550962358300,1.367358154296875,-0.3815736770629883,-0.34786859154701233,0.347491592168808
1772556550972342000,1.377342041015625,-0.44663205742836,-0.23166395723819733,0.21080359816551208
1772556550982326000,1.387325927734375,-0.46277695894241333,-0.11562389880418777,0.10775284469127655
1772556550992310000,1.39731005859375,-0.44162517786026,-0.03934925049543381,0.04085007309913635
1772556551002295000,1.407294921875,-0.38313737511634827,0.0182258952409029,0.002130106557160616
1772556551012279000,1.417279052734375,-0.2937982678413391,0.08236517757177353,0.007663274649530649
1772556551022263000,1.427262939453125,-0.18410612642765045,0.10608648508787155,0.060338739305734634
1772556551032247000,1.4372470703125,-0.12393973767757416,0.056250523775815964,0.13017654418945312
1772556551042231000,1.44723095703125,-0.09445135295391083,-0.05376679077744484,0.21359047293663025
1772556551052215000,1.457215087890625,-0.0381176695227623,-0.19247324764728546,0.2872578501701355
1772556551062199000,1.467198974609375,0.039053015410900116,-0.31190457940101624,0.3211556375026703
1772556551072183000,1.47718310546875,0.05743587762117386,-0.4042235016822815,0.28428685665130615
1772556551082167000,1.4871669921875,0.004198754206299782,-0.46129661798477173,0.19057156145572662
1772556551092151000,1.497151123046875,-0.06629081070423126,-0.4885022044181824,0.052984993904829025
1772556551102135300,1.50713525390625,-0.07891125977039337,-0.5299867987632751,-0.08081115037202835
1772556551112119300,1.517119384765625,-0.017438428476452827,-0.5932749509811401,-0.15400409698486328
1772556551122103300,1.527103271484375,0.06076769530773163,-0.6598824858665466,-0.13573187589645386
1772556551132087300,1.53708740234375,0.09567268937826157,-0.6690562963485718,-0.00011158781126141548
1772556551142071000,1.547071044921875,0.0940428376197815,-0.6092214584350586,0.17993701994419098
1772556551152055000,1.557054931640625,0.11503435671329498,-0.5706843733787537,0.36300528049468994
1772556551162039000,1.5670390625,0.1346738487482071,-0.5520569086074829,0.5102349519729614
1772556551172023000,1.57702294921875,0.1379789263010025,-0.5071413516998291,0.6113174557685852
1772556551182007000,1.587007080078125,0.11987421661615372,-0.3968457281589508,0.6683623790740967
1772556551191991000,1.596990966796875,0.07137654721736908,-0.24951718747615814,0.6545447707176208
1772556551201976000,1.60697607421875,-0.004487859085202217,-0.095908984541893,0.5845251679420471
1772556551211960000,1.6169599609375,-0.044675543904304504,0.017106421291828156,0.4864580035209656
1772556551221944000,1.626944091796875,-0.08237019181251526,0.18332308530807495,0.2837908864021301
1772556551231928000,1.636927978515625,-0.13136476278305054,0.33221784234046936,0.014246029779314995
1772556551241912000,1.646912109375,-0.13250192999839783,0.4533991515636444,-0.23273925483226776
1772556551251896000,1.65689599609375,-0.12077611684799194,0.5030763149261475,-0.47779250144958496
1772556551261880000,1.666880126953125,-0.08820006251335144,0.5189335346221924,-0.6819447875022888
1772556551271864000,1.676864013671875,-0.045645732432603836,0.4572550654411316,-0.8303534388542175
1772556551281845000,1.686844970703125,-0.011425445787608624,0.4104856848716736,-0.9064844250679016
1772556551291829000,1.6968291015625,0.008513854816555977,0.3005518913269043,-0.9194098711013794
1772556551301813200,1.706813232421875,0.06349427998065948,0.17449727654457092,-0.8380218148231506
1772556551311797200,1.71679736328125,0.16011878848075867,0.020871900022029877,-0.7007444500923157
1772556551321781200,1.72678125,0.2715286612510681,-0.12838789820671082,-0.5171993970870972
1772556551331765200,1.73676513671875,0.402718722820282,-0.24470561742782593,-0.30322641134262085
1772556551341749200,1.746749267578125,0.4771655201911926,-0.28726106882095337,-0.158901184797287
1772556551351733200,1.756733154296875,0.5220902562141418,-0.30018749833106995,-0.08939740806818008
1772556551361717200,1.76671728515625,0.5276528000831604,-0.30335959792137146,-0.07742996513843536
1772556551371701200,1.776701171875,0.5010004639625549,-0.2705722749233246,-0.13374923169612885
1772556551381685000,1.78668505859375,0.4522619843482971,-0.22428201138973236,-0.23378609120845795
1772556551391670300,1.796670166015625,0.4052560329437256,-0.14276880025863647,-0.3552020490169525
1772556551401654300,1.806654296875,0.3697725832462311,-0.05230628326535225,-0.46690434217453003
1772556551411638000,1.816637939453125,0.3399706780910492,0.012239434756338596,-0.5470231175422668
1772556551421622000,1.8266220703125,0.3294426500797272,0.038074493408203125,-0.5818746089935303
1772556551431606000,1.83660595703125,0.3646436333656311,0.03613331541419029,-0.37751081585884094
1772556551441590000,1.846590087890625,0.3131157457828522,-0.029686443507671356,-0.24335964024066925
1772556551451574000,1.856573974609375,0.2614971101284027,0.07214804738759995,-0.19950933754444122
1772556551461558000,1.86655810546875,0.21942101418972015,0.08068560808897018,-0.19965527951717377
1772556551471542000,1.8765419921875,0.20819956064224243,0.01794247515499592,-0.08876350522041321
1772556551481526000,1.886526123046875,0.18222469091415405,-0.022568732500076294,0.06287156790494919
1772556551491510300,1.89651025390625,0.1729968935251236,0.01418538112193346,0.15845456719398499
1772556551501494300,1.906494384765625,0.17799217998981476,0.05459911748766899,0.20872865617275238
1772556551511478300,1.916478271484375,0.16667874157428741,0.06588096916675568,0.253165602684021
1772556551521462300,1.926462158203125,0.15679895877838135,0.060340262949466705,0.27920785546302795
1772556551531446300,1.9364462890625,0.15169449150562286,0.03608980402350426,0.28840190172195435
1772556551541430300,1.94643017578125,0.1416919231414795,-0.007077640388160944,0.28099194169044495
1772556551551414000,1.9564140625,0.11038603633642197,-0.06548941880464554,0.22924233973026276
1772556551561398000,1.96639794921875,0.05960141867399216,-0.13097842037677765,0.14277829229831696
1772556551571383300,1.97638330078125,0.012685136869549751,-0.1979510337114334,0.03641250357031822
1772556551581367000,1.986366943359375,-0.044285472482442856,-0.2732338011264801,-0.04087642580270767
1772556551591351000,1.99635107421875,-0.09147562831640244,-0.33813831210136414,-0.07385851442813873
1772556551601335000,2.0063349609375,-0.11468667536973953,-0.3654540777206421,-0.023965787142515182
1772556551611319000,2.016319091796875,-0.09660162031650543,-0.35615307092666626,0.1044887825846672
1772556551621303000,2.026302978515625,-0.023730341345071793,-0.28594017028808594,0.3130156397819519
1772556551631287000,2.036287109375,0.07157616317272186,-0.19456060230731964,0.5533974170684814
1772556551641271000,2.04627099609375,0.13255108892917633,-0.1641148179769516,0.6991932392120361
1772556551651255000,2.056255126953125,0.18701104819774628,-0.21654289960861206,0.7115132212638855
1772556551661239000,2.066239013671875,0.23007969558238983,-0.32382676005363464,0.6003779172897339
1772556551671223000,2.07622314453125,0.23402343690395355,-0.47460561990737915,0.38938671350479126
1772556551681207300,2.086207275390625,0.20442399382591248,-0.6214462518692017,0.1586829274892807
1772556551691191300,2.09619140625,0.14948134124279022,-0.7477268576622009,-0.02776767686009407
1772556551701175300,2.10617529296875,0.06701523810625076,-0.8614981770515442,-0.1448543518781662
1772556551711159300,2.1161591796875,-0.01938181184232235,-0.9242323040962219,-0.18369579315185547
1772556551721143000,2.12614306640625,-0.08676058053970337,-0.9250922203063965,-0.1606581211090088
1772556551731128300,2.13612841796875,-0.12231376022100449,-0.8233696222305298,-0.07380963861942291
1772556551741112300,2.1461123046875,-0.14347150921821594,-0.6045216917991638,0.08084093034267426
1772556551751096000,2.156095947265625,-0.14696624875068665,-0.3053751289844513,0.27319738268852234
1772556551761080000,2.166080078125,-0.11313504725694656,-0.006238745059818029,0.46685847640037537
1772556551771064000,2.17606396484375,-0.06902424246072769,0.20605279505252838,0.6064645051956177
1772556551781048000,2.186048095703125,-0.029008114710450172,0.3160296380519867,0.6666117310523987
1772556551791032000,2.196031982421875,-0.00872645154595375,0.3745381832122803,0.6685312390327454
1772556551801016000,2.20601611328125,-0.009679863229393959,0.3689873516559601,0.6020906567573547
1772556551811000000,2.216,-0.02014007978141308,0.30366042256355286,0.48100772500038147
1772556551820984000,2.225984130859375,-0.044859807938337326,0.1965334117412567,0.3206886351108551
1772556551830968000,2.235968017578125,-0.08139271289110184,0.07642729580402374,0.14429032802581787
1772556551840952000,2.2459521484375,-0.12114918231964111,-0.036614835262298584,-0.03812608867883682
1772556551850936000,2.25593603515625,-0.15128959715366364,-0.11804099380970001,-0.20897775888442993
1772556551860920000,2.265920166015625,-0.16705603897571564,-0.16182203590869904,-0.34649914503097534
1772556551870904300,2.275904296875,-0.17240561544895172,-0.1782655268907547,-0.4526156187057495
1772556551880888300,2.285888427734375,-0.16395807266235352,-0.1824490875005722,-0.507706344127655
1772556551890873000,2.295873046875,-0.13936202228069305,-0.1742456704378128,-0.5199894309043884
1772556551900857000,2.305857177734375,-0.10604453086853027,-0.168572336435318,-0.48801228404045105
1772556551910841300,2.31584130859375,-0.0462905652821064,-0.16560454666614532,-0.4193933606147766
1772556551920825300,2.325825439453125,0.012187925167381763,-0.16939929127693176,-0.3218364417552948
1772556551930809000,2.33580908203125,0.06903034448623657,-0.18749436736106873,-0.23480531573295593
1772556551940793000,2.34579296875,0.11259513348340988,-0.20725688338279724,-0.16640602052211761
1772556551950777000,2.355777099609375,0.13872477412223816,-0.22080042958259583,-0.1230926513671875
1772556551960761000,2.365760986328125,0.1470697820186615,-0.23843109607696533,-0.10634030401706696
1772556551970745000,2.3757451171875,0.14175817370414734,-0.2513023316860199,-0.11043459177017212
1772556551980729000,2.38572900390625,0.12757231295108795,-0.2755264341831207,-0.132541224360466
1772556551990713000,2.395713134765625,0.10181550681591034,-0.2928485870361328,-0.16257119178771973
1772556552000697000,2.405697021484375,0.06585270911455154,-0.3089998662471771,-0.21112141013145447
1772556552010681000,2.41568115234375,0.03156570345163345,-0.3192315697669983,-0.2587164342403412
1772556552020665000,2.4256650390625,-0.0021861346904188395,-0.3252638876438141,-0.3263300955295563
1772556552030649000,2.435649169921875,-0.024863244965672493,-0.3317323625087738,-0.3848123252391815
1772556552040633000,2.445633056640625,-0.02808993123471737,-0.3304117023944855,-0.4234582781791687
1772556552050618000,2.4556181640625,-0.013330405578017235,-0.30889371037483215,-0.42509740591049194
1772556552060602000,2.46560205078125,0.020528491586446762,-0.2843814492225647,-0.373688280582428
1772556552070586000,2.475586181640625,0.0626198947429657,-0.25657954812049866,-0.27893027663230896
1772556552080570000,2.485570068359375,0.09531579166650772,-0.21845506131649017,-0.1420355588197708
1772556552090554000,2.49555419921875,0.102330282330513,-0.17798589169979095,0.008322389796376228
1772556552100538000,2.5055380859375,0.07794051617383957,-0.1422545164823532,0.15950152277946472
1772556552110522000,2.515522216796875,0.03456246852874756,-0.12156112492084503,0.28309911489486694
1772556552120506000,2.525506103515625,-0.033439751714468,-0.09843903034925461,0.36638015508651733
1772556552130490000,2.535489990234375,-0.12000105530023575,-0.08883103728294373,0.4088052213191986
1772556552140474000,2.54547412109375,-0.21584077179431915,-0.059202298521995544,0.4020423889160156
1772556552150458000,2.5554580078125,-0.3064610958099365,-0.01943500153720379,0.3574378490447998
1772556552160442000,2.565442138671875,-0.37910279631614685,0.016046293079853058,0.2860773801803589
1772556552170426000,2.575426025390625,-0.4221303164958954,0.04849093034863472,0.22359688580036163
1772556552180410000,2.58541015625,-0.44279003143310547,0.08068056404590607,0.18042758107185364
1772556552190395100,2.59539501953125,-0.4408895671367645,0.10637488216161728,0.16405647993087769
1772556552200379100,2.605379150390625,-0.4102751910686493,0.12167500704526901,0.1776987910270691
1772556552210363100,2.615363037109375,-0.34698399901390076,0.13340167701244354,0.21390198171138763
1772556552220347100,2.62534716796875,-0.27423524856567383,0.12349072843790054,0.2739381492137909
1772556552230331100,2.6353310546875,-0.2697737514972687,0.06319259107112885,0.3081074655056
1772556552240315100,2.645315185546875,-0.34209829568862915,-0.012043571099638939,0.2844780385494232
1772556552250299100,2.655299072265625,-0.39175480604171753,-0.051901478320360184,0.230971559882164
1772556552260283100,2.665283203125,-0.391717791557312,-0.08774522691965103,0.1420627385377884
1772556552270267100,2.67526708984375,-0.4014230966567993,-0.15149080753326416,0.01905575767159462
1772556552280251100,2.685251220703125,-0.4350913166999817,-0.2498282939195633,-0.1323462873697281
1772556552290234600,2.695234619140625,-0.4664289653301239,-0.3559214472770691,-0.2903781235218048
1772556552300218600,2.705218505859375,-0.4563174843788147,-0.43024253845214844,-0.41350725293159485
1772556552310202600,2.71520263671875,-0.3697393238544464,-0.5032711029052734,-0.4541453421115875
1772556552320186600,2.7251865234375,-0.20032261312007904,-0.6157100200653076,-0.3994402587413788
1772556552330171600,2.735171630859375,-0.046917304396629333,-0.7228423953056335,-0.23905296623706818
1772556552340155600,2.74515576171875,0.02881394326686859,-0.6974592804908752,0.04394198954105377
1772556552350139600,2.7551396484375,0.03095383569598198,-0.5738741159439087,0.37271684408187866
1772556552360123600,2.76512353515625,-0.02884984388947487,-0.4283251464366913,0.6598622798919678
1772556552370107600,2.775107666015625,-0.11714719980955124,-0.29548242688179016,0.8558298349380493
1772556552380091600,2.785091552734375,-0.21625594794750214,-0.17564739286899567,0.9390746355056763
1772556552390075600,2.79507568359375,-0.31219202280044556,-0.02998962253332138,0.9250960350036621
1772556552400059600,2.8050595703125,-0.39316704869270325,0.1413525640964508,0.8443812131881714
1772556552410043600,2.815043701171875,-0.4494147002696991,0.28806906938552856,0.708554744720459
1772556552420027600,2.825027587890625,-0.4813547730445862,0.4161527454853058,0.5368631482124329
1772556552430011400,2.835011474609375,-0.4875059127807617,0.5400499701499939,0.3442562520503998
1772556552439995600,2.84499560546875,-0.45731550455093384,0.6574540734291077,0.14535434544086456
1772556552449979600,2.854979736328125,-0.38499975204467773,0.7682908177375793,-0.049108441919088364
1772556552459964400,2.86496435546875,-0.2718034088611603,0.8283078074455261,-0.2457519769668579
1772556552469948400,2.874948486328125,-0.13572245836257935,0.78753262758255,-0.43909040093421936
1772556552479932700,2.8849326171875,-0.0048645734786987305,0.6843668222427368,-0.5841871500015259
1772556552489916700,2.894916748046875,0.10947834700345993,0.5422406196594238,-0.6523314118385315
1772556552499900700,2.904900634765625,0.21017353236675262,0.3680834174156189,-0.6489606499671936
1772556552509884700,2.914884765625,0.2947429418563843,0.1785200983285904,-0.5807691812515259
1772556552519868700,2.92486865234375,0.36887043714523315,0.00787433236837387,-0.4887181222438812
1772556552529852700,2.934852783203125,0.4324805438518524,-0.1403406262397766,-0.3833480477333069
1772556552539836700,2.944836669921875,0.46652424335479736,-0.2379516065120697,-0.25972864031791687
1772556552549820700,2.954820556640625,0.4709913432598114,-0.2829081118106842,-0.13343454897403717
1772556552559804700,2.9648046875,0.4464074373245239,-0.2897503077983856,-0.02713366225361824
1772556552569788700,2.97478857421875,0.40417447686195374,-0.29315274953842163,0.042246099561452866
1772556552579772700,2.984772705078125,0.36821702122688293,-0.2978462874889374,0.04685709625482559
1772556552589756700,2.994756591796875,0.3162541091442108,-0.2741324007511139,0.007640792056918144
1772556552599741700,3.00474169921875,0.2560352683067322,-0.21645580232143402,-0.071162149310112
1772556552609725700,3.0147255859375,0.20775650441646576,-0.13850541412830353,-0.1669682264328003
1772556552619709700,3.024709716796875,0.16245721280574799,-0.06220584362745285,-0.2538274824619293
1772556552629693400,3.034693359375,0.1272805631160736,0.003379627363756299,-0.30477452278137207
1772556552639677400,3.044677490234375,0.10524849593639374,0.05552911385893822,-0.2965349853038788
1772556552649661400,3.054661376953125,0.09801410883665085,0.0913907065987587,-0.2489212602376938
1772556552659645400,3.0646455078125,0.10192576050758362,0.1366836130619049,-0.14646945893764496
1772556552669629700,3.074629638671875,0.10948382318019867,0.20036187767982483,-0.006984399165958166
1772556552679613700,3.08461376953125,0.11966162919998169,0.26127156615257263,0.1496366262435913
1772556552689597700,3.09459765625,0.1254749596118927,0.32037800550460815,0.30692392587661743
1772556552699581700,3.104581787109375,0.13759233057498932,0.383073627948761,0.4293574392795563
1772556552709565700,3.114565673828125,0.14576980471611023,0.44136902689933777,0.525551974773407
1772556552719550700,3.12455078125,0.15804564952850342,0.47260046005249023,0.58375483751297
1772556552729534700,3.13453466796875,0.1876787692308426,0.4694758653640747,0.6213589906692505
1772556552739518700,3.144518798828125,0.21460174024105072,0.4417931139469147,0.6159743070602417
1772556552749502700,3.154502685546875,0.22399893403053284,0.3630874752998352,0.5879879593849182
1772556552759486700,3.16448681640625,0.20564575493335724,0.2562297284603119,0.5115973353385925
1772556552769470700,3.174470703125,0.14883342385292053,0.12189275026321411,0.3813337981700897
1772556552779454700,3.184454833984375,0.06231583282351494,-0.013087701052427292,0.2150166928768158
1772556552789438700,3.194438720703125,-0.03247138112783432,-0.11364391446113586,0.05962378904223442
1772556552799422700,3.204422607421875,-0.10493918508291245,-0.1890590339899063,-0.029100220650434494
1772556552809406500,3.214406494140625,-0.1483156681060791,-0.21668274700641632,-0.008241855539381504
1772556552819390500,3.224390380859375,-0.13479134440422058,-0.19193638861179352,0.14797943830490112
1772556552829374500,3.23437451171875,-0.061267413198947906,-0.10507550835609436,0.4234585464000702
1772556552839359500,3.244359375,0.03130513057112694,0.02350563555955887,0.7265830039978027
1772556552849343500,3.254343505859375,0.10338059067726135,0.12382417917251587,0.9336098432540894
1772556552859327500,3.264327392578125,0.14413760602474213,0.18129387497901917,0.9860581159591675
1772556552869311500,3.2743115234375,0.16368351876735687,0.16655434668064117,0.8723199367523193
1772556552879295500,3.28429541015625,0.15339572727680206,0.09359732270240784,0.6192511916160583
1772556552889279500,3.294279541015625,0.14562761783599854,0.005120210815221071,0.28076690435409546
1772556552899263700,3.304263671875,0.137932687997818,-0.13462063670158386,-0.04498749598860741
1772556552909247700,3.314247802734375,0.10923777520656586,-0.303790807723999,-0.28631192445755005
1772556552919231700,3.324231689453125,0.06522904336452484,-0.47994425892829895,-0.42922061681747437
1772556552929215700,3.3342158203125,0.015362218022346497,-0.6070065498352051,-0.4665805995464325
1772556552939199700,3.34419970703125,-0.022965462878346443,-0.6076576709747314,-0.37944090366363525
1772556552949183700,3.354183837890625,-0.04036891460418701,-0.46619391441345215,-0.16945183277130127
1772556552959168800,3.364168701171875,-0.03054131381213665,-0.2255815714597702,0.1355602741241455
1772556552969152800,3.37415283203125,-0.003463919973000884,0.006342816166579723,0.4519861340522766
1772556552979136800,3.38413671875,0.025301415473222733,0.16418598592281342,0.7100842595100403
1772556552989120800,3.394120849609375,0.04157858341932297,0.25653767585754395,0.8766027092933655
1772556552999104800,3.404104736328125,0.04130694270133972,0.29526564478874207,0.9238943457603455
1772556553009088500,3.414088623046875,0.027799732983112335,0.29737889766693115,0.860265851020813
1772556553019072500,3.424072509765625,-0.0014894453343003988,0.2562098801136017,0.6935322880744934
1772556553029056500,3.434056396484375,-0.03456737473607063,0.18695320188999176,0.4490116834640503
1772556553039040500,3.44404052734375,-0.07469162344932556,0.12269563972949982,0.1396687626838684
1772556553049024500,3.4540244140625,-0.13030503690242767,0.07652562111616135,-0.17850051820278168
1772556553059008500,3.464008544921875,-0.1898602396249771,0.04705401882529259,-0.4770592451095581
1772556553068993500,3.47399365234375,-0.2282307893037796,0.008366500027477741,-0.7326474785804749
1772556553078977500,3.4839775390625,-0.24276232719421387,-0.04083966091275215,-0.9187877774238586
1772556553088961500,3.49396142578125,-0.23422616720199585,-0.08925305306911469,-1.023762583732605
1772556553098945500,3.503945556640625,-0.21079088747501373,-0.12730614840984344,-1.044301152229309
1772556553108929500,3.513929443359375,-0.17841416597366333,-0.1375354826450348,-0.99161297082901
1772556553118913500,3.52391357421875,-0.13515591621398926,-0.1376451998949051,-0.8866013288497925
1772556553128897800,3.533897705078125,-0.09192700684070587,-0.1909381002187729,-0.7564384937286377
1772556553138881800,3.5438818359375,-0.0482194758951664,-0.2988336980342865,-0.6268118023872375
1772556553148865800,3.55386572265625,-0.0007933734450489283,-0.40997910499572754,-0.5066665410995483
1772556553158849800,3.563849853515625,0.03960598260164261,-0.5025452375411987,-0.3925974667072296
1772556553168833800,3.573833740234375,0.06025485694408417,-0.527592658996582,-0.2855181396007538
1772556553178817500,3.583817626953125,0.07624606788158417,-0.48348838090896606,-0.18852075934410095
1772556553188802800,3.593802734375,0.08197937160730362,-0.39652326703071594,-0.11359938979148865
1772556553198786800,3.603786865234375,0.07230144739151001,-0.32023701071739197,-0.08056367933750153
1772556553208770600,3.6137705078125,0.04372028633952141,-0.26247453689575195,-0.09976523369550705
1772556553218754600,3.623754638671875,-0.012066281400620937,-0.2162574976682663,-0.14655403792858124
1772556553228738600,3.633738525390625,-0.08280069380998611,-0.180365651845932,-0.21025875210762024
1772556553238722600,3.64372265625,-0.15986086428165436,-0.13307270407676697,-0.2834978401660919
1772556553248706600,3.65370654296875,-0.24134133756160736,-0.07771811634302139,-0.32381242513656616
1772556553258690600,3.663690673828125,-0.3141430914402008,-0.011646423488855362,-0.3069588840007782
1772556553268674600,3.673674560546875,-0.375080943107605,0.027983302250504494,-0.2573753297328949
1772556553278658600,3.683658447265625,-0.41834747791290283,0.04439503327012062,-0.18248486518859863
1772556553288642800,3.693642822265625,-0.45569664239883423,0.03340457007288933,-0.07738277316093445
1772556553298627800,3.7036279296875,-0.4923020601272583,0.014125415123999119,0.048231340944767
1772556553308611800,3.71361181640625,-0.5194661021232605,-0.01851140893995762,0.18658903241157532
1772556553318595800,3.723595947265625,-0.5437663793563843,-0.08149037510156631,0.2925247848033905
1772556553328579800,3.733579833984375,-0.5695428848266602,-0.14759354293346405,0.36483821272850037
1772556553338563800,3.743563720703125,-0.6035605072975159,-0.19117936491966248,0.3922194838523865
1772556553348547800,3.7535478515625,-0.6383804678916931,-0.20211657881736755,0.3783937394618988
1772556553358531800,3.76353173828125,-0.6550840735435486,-0.18605320155620575,0.33118680119514465
1772556553368516000,3.77351611328125,-0.6523826718330383,-0.1595599502325058,0.27297332882881165
1772556553378500000,3.7835,-0.6237912774085999,-0.13602931797504425,0.20054201781749725
1772556553388483800,3.79348388671875,-0.5793060660362244,-0.12697000801563263,0.13713519275188446
1772556553398467800,3.8034677734375,-0.5331356525421143,-0.13839922845363617,0.08923184871673584
1772556553408452900,3.813452880859375,-0.4602590501308441,-0.16785165667533875,0.07653549313545227
1772556553418436900,3.823436767578125,-0.375641405582428,-0.20009581744670868,0.10935182869434357
1772556553428420900,3.8334208984375,-0.31388425827026367,-0.2100987285375595,0.16920746862888336
1772556553438404900,3.84340478515625,-0.3039030134677887,-0.20462486147880554,0.2005414217710495
1772556553448388900,3.853388916015625,-0.3108517527580261,-0.17203164100646973,0.16043350100517273
1772556553458372900,3.863372802734375,-0.2885400652885437,-0.12610942125320435,0.05413450300693512
1772556553468356900,3.87335693359375,-0.2544177174568176,-0.06799783557653427,-0.12420376390218735
1772556553478340900,3.8833408203125,-0.24352006614208221,-0.01126131508499384,-0.33763694763183594
1772556553488324900,3.893324951171875,-0.2382730096578598,0.0087666604667902,-0.5470322370529175
1772556553498308900,3.903308837890625,-0.20229370892047882,-0.0008939565159380436,-0.6790739297866821
1772556553508294000,3.9132939453125,-0.13308392465114594,-0.029982013627886772,-0.6827288866043091
1772556553518278000,3.92327783203125,-0.034592241048812866,-0.08819445967674255,-0.5245158076286316
1772556553528262000,3.933261962890625,0.07113812118768692,-0.1576731950044632,-0.2342127412557602
1772556553538246000,3.943245849609375,0.14777590334415436,-0.22392544150352478,0.11773517727851868
1772556553548230000,3.95322998046875,0.17967481911182404,-0.2883037030696869,0.4552844762802124
1772556553558214000,3.9632138671875,0.16147717833518982,-0.34256455302238464,0.7042058706283569
1772556553568198000,3.973197998046875,0.10609342902898788,-0.3690679967403412,0.8361914753913879
1772556553578182000,3.983181884765625,0.033772893249988556,-0.3550083637237549,0.8564006090164185
1772556553588164900,3.993164794921875,-0.05473383143544197,-0.29683977365493774,0.7772663831710815
1772556553598148900,4.00314892578125,-0.14050278067588806,-0.19433718919754028,0.6441770792007446
1772556553608132900,4.0131328125,-0.21216177940368652,-0.06705673038959503,0.47055572271347046
1772556553618118000,4.023117919921875,-0.2486983835697174,0.06848456710577011,0.2817523777484894
1772556553628102000,4.033101806640625,-0.24220721423625946,0.2063489705324173,0.0892772227525711
1772556553638086000,4.0430859375,-0.2047664374113083,0.33252179622650146,-0.08326656371355057
1772556553648070000,4.05306982421875,-0.1481897085905075,0.42033153772354126,-0.22104546427726746
1772556553658054000,4.063053955078125,-0.07197504490613937,0.47514641284942627,-0.3471720218658447
1772556553668038000,4.073037841796875,0.005951974540948868,0.49423354864120483,-0.4554806649684906
1772556553678022000,4.08302197265625,0.06915250420570374,0.46193429827690125,-0.5384684205055237
1772556553688006000,4.093005859375,0.10618908703327179,0.37395569682121277,-0.581634521484375
1772556553697990000,4.102989990234375,0.13105390965938568,0.2426864355802536,-0.5588035583496094
1772556553707974000,4.112973876953125,0.16227096319198608,0.08877330273389816,-0.46239790320396423
1772556553717958000,4.1229580078125,0.18691854178905487,-0.08159665763378143,-0.3124864101409912
1772556553727943000,4.13294287109375,0.2052791714668274,-0.2465411275625229,-0.16707462072372437
1772556553737927000,4.142927001953125,0.20658566057682037,-0.3808300495147705,-0.059723980724811554
1772556553747911000,4.152910888671875,0.19256146252155304,-0.45080435276031494,-0.016534429043531418
1772556553757895000,4.16289501953125,0.17590586841106415,-0.4470873475074768,-0.03848253935575485
1772556553767878700,4.172878662109375,0.1629738211631775,-0.39327526092529297,-0.11648812144994736
1772556553777863000,4.18286279296875,0.15440888702869415,-0.2985132336616516,-0.2134351283311844
1772556553787847000,4.192846923828125,0.1552688330411911,-0.18639123439788818,-0.29725706577301025
1772556553797831000,4.202830810546875,0.15698063373565674,-0.10881606489419937,-0.3455462157726288
1772556553807815000,4.21281494140625,0.1757226288318634,-0.04481152072548866,-0.3514941334724426
1772556553817799000,4.222798828125,0.20434162020683289,0.00474100187420845,-0.3251799941062927
1772556553827784000,4.232783935546875,0.2279856950044632,0.05653628706932068,-0.27005016803741455
1772556553837768000,4.242767822265625,0.2561797797679901,0.09825099259614944,-0.1986338496208191
1772556553847752000,4.252751953125,0.26981356739997864,0.12511137127876282,-0.12174706906080246
1772556553857736000,4.26273583984375,0.27134114503860474,0.1501903533935547,-0.0469297356903553
1772556553867720000,4.272719970703125,0.27081063389778137,0.15320265293121338,0.03306816145777702
1772556553877704000,4.282703857421875,0.2663327753543854,0.15383578836917877,0.11590808629989624
1772556553887688000,4.29268798828125,0.2518273591995239,0.1692805141210556,0.1828674077987671
1772556553897672000,4.302671875,0.22983945906162262,0.18694855272769928,0.23570822179317474
1772556553907656000,4.312656005859375,0.20975762605667114,0.20344363152980804,0.264058381319046
1772556553917640000,4.322639892578125,0.19699335098266602,0.23487186431884766,0.2733860909938812
1772556553927625000,4.332625,0.2026938498020172,0.28152963519096375,0.27568119764328003
1772556553937609000,4.34260888671875,0.22691595554351807,0.3068005442619324,0.26454803347587585
1772556553947593000,4.352593017578125,0.25312039256095886,0.2857767343521118,0.24264857172966003
1772556553957577000,4.362576904296875,0.26253175735473633,0.2447885125875473,0.20377226173877716
1772556553967560700,4.372560791015625,0.23118716478347778,0.19183449447155,0.1305592954158783
1772556553977544700,4.382544677734375,0.17387212812900543,0.10921012610197067,0.02749823033809662
1772556553987528700,4.39252880859375,0.1196587011218071,0.006909852381795645,-0.10034868121147156
1772556553997512700,4.4025126953125,0.07071981579065323,-0.06947676837444305,-0.21457375586032867
1772556554007497000,4.4124970703125,0.039288923144340515,-0.09978886693716049,-0.2442789077758789
1772556554017481000,4.42248095703125,0.03756985068321228,-0.0862402692437172,-0.15781570971012115
1772556554027465700,4.4324658203125,0.08983784914016724,-0.03904106840491295,0.037268828600645065
1772556554037449700,4.44244970703125,0.1877419352531433,0.028995303437113762,0.3015334904193878
1772556554047433700,4.452433837890625,0.27179715037345886,0.08413871377706528,0.525864839553833
1772556554057418000,4.46241796875,0.3425688147544861,0.08410582691431046,0.6375735998153687
1772556554067402000,4.472402099609375,0.41820845007896423,0.05754026770591736,0.5863087773323059
1772556554077386000,4.482385986328125,0.4717226028442383,0.025324735790491104,0.3726099133491516
1772556554087370000,4.492369873046875,0.47928598523139954,0.004294019192457199,0.02574596181511879
1772556554097354000,4.50235400390625,0.42790770530700684,-0.029415950179100037,-0.38134828209877014
1772556554107338000,4.512337890625,0.3462972640991211,-0.12502741813659668,-0.749764621257782
1772556554117322000,4.522322021484375,0.2519519329071045,-0.251666784286499,-0.9983850121498108
1772556554127307000,4.53230712890625,0.17446164786815643,-0.3298196494579315,-1.0486890077590942
1772556554137291000,4.542291015625,0.14356888830661774,-0.2993320822715759,-0.8920004963874817
1772556554147275000,4.55227490234375,0.16469840705394745,-0.1723962277173996,-0.5502745509147644
1772556554157259000,4.562259033203125,0.22687263786792755,0.0034116427414119244,-0.11900703608989716
1772556554167242800,4.57224267578125,0.2985723912715912,0.13363462686538696,0.297366201877594
1772556554177226800,4.582226806640625,0.35813450813293457,0.21545332670211792,0.5913834571838379
1772556554187210800,4.592210693359375,0.37481632828712463,0.2716963589191437,0.7369197010993958
1772556554197194800,4.60219482421875,0.3550356924533844,0.314900279045105,0.7269376516342163
1772556554207178800,4.6121787109375,0.29674166440963745,0.36199524998664856,0.5732558369636536
1772556554217162800,4.622162841796875,0.2117769718170166,0.3824123740196228,0.307282418012619
1772556554227147800,4.632147705078125,0.11751193553209305,0.3599581718444824,-0.00919126532971859
1772556554237131800,4.6421318359375,0.024763889610767365,0.31901711225509644,-0.3288464844226837
1772556554247115800,4.65211572265625,-0.060831889510154724,0.27552399039268494,-0.5773254632949829
1772556554257099800,4.662099853515625,-0.11245087534189224,0.22178885340690613,-0.7146287560462952
1772556554267083800,4.672083740234375,-0.13158655166625977,0.1584194004535675,-0.7491373419761658
1772556554277067800,4.68206787109375,-0.12518352270126343,0.10449118167161942,-0.7012417316436768
1772556554287051500,4.692051513671875,-0.08544710278511047,0.03426734358072281,-0.5900661945343018
1772556554297035500,4.702035400390625,-0.037868667393922806,-0.0317300483584404,-0.4445894658565521
1772556554307019500,4.71201953125,0.019451716914772987,-0.07522749155759811,-0.2941422164440155
1772556554317003500,4.72200341796875,0.06467032432556152,-0.08606469631195068,-0.15749622881412506
1772556554326988500,4.731988525390625,0.09077131748199463,-0.08149942755699158,-0.0581074096262455
1772556554336972500,4.74197265625,0.10713963955640793,-0.07717738300561905,0.008025002665817738
1772556554346956500,4.75195654296875,0.10816729068756104,-0.0753561407327652,0.041692104190588
1772556554356940500,4.7619404296875,0.08924766629934311,-0.07579689472913742,0.06535641849040985
1772556554366924500,4.771924560546875,0.05279532074928284,-0.0778992623090744,0.07822684943675995
1772556554376908500,4.781908447265625,0.010779693722724915,-0.07714691758155823,0.07930755615234375
1772556554386892500,4.791892578125,-0.03536776825785637,-0.07755164802074432,0.0774809867143631
1772556554396876500,4.80187646484375,-0.0868312269449234,-0.06346911936998367,0.08296683430671692
1772556554406860500,4.811860595703125,-0.1402861624956131,-0.059775713831186295,0.08522963523864746
1772556554416844500,4.821844482421875,-0.19438214600086212,-0.056279249489307404,0.07876081764698029
1772556554426829600,4.83182958984375,-0.2564848065376282,-0.05622376501560211,0.060836974531412125
1772556554436813600,4.8418134765625,-0.3218978941440582,-0.05909278616309166,0.037613146007061005
1772556554446797600,4.851797607421875,-0.38149121403694153,-0.08508774638175964,0.026207171380519867
1772556554456781300,4.86178125,-0.4395869970321655,-0.13362464308738708,0.01906377263367176
1772556554466765300,4.871765380859375,-0.5025399327278137,-0.19916214048862457,0.018746089190244675
1772556554476749300,4.881749267578125,-0.5732929110527039,-0.254768431186676,0.01632128283381462
1772556554486733300,4.8917333984375,-0.6315668225288391,-0.2907496988773346,0.01172587089240551
1772556554496717600,4.901717529296875,-0.6698641180992126,-0.3211613893508911,0.013638819567859173
1772556554506701600,4.91170166015625,-0.6812553405761719,-0.3148362934589386,0.028567295521497726
1772556554516686300,4.921686279296875,-0.6562802195549011,-0.2701614797115326,0.05729774385690689
1772556554526670300,4.93167041015625,-0.6070917248725891,-0.1719292849302292,0.08420494198799133
1772556554536654600,4.941654541015625,-0.5390652418136597,-0.04971682280302048,0.08590749651193619
1772556554546638600,4.951638671875,-0.45211324095726013,0.0700543001294136,0.04872828722000122
1772556554556622600,4.96162255859375,-0.3634963035583496,0.19087234139442444,-0.039049502462148666
1772556554566606600,4.971606689453125,-0.2823156416416168,0.296939492225647,-0.14118385314941406
1772556554576590600,4.981590576171875,-0.1978239119052887,0.339155375957489,-0.2148900330066681
1772556554586574600,4.99157470703125,-0.10855088382959366,0.330659955739975,-0.2262175977230072
1772556554596558600,5.00155859375,-0.00003638444468379021,0.2736363410949707,-0.17141053080558777
1772556554606542600,5.01154248046875,0.05847105011343956,0.20822009444236755,-0.11102878302335739
1772556554616527600,5.021527587890625,0.04394989833235741,0.143855482339859,-0.07916565984487534
1772556554626511600,5.03151171875,-0.01834971085190773,0.0786040797829628,-0.07845394313335419
1772556554636495600,5.04149560546875,-0.10572563111782074,-0.0066618165001273155,-0.12465499341487885
1772556554646479600,5.051479736328125,-0.19775144755840302,-0.1032029315829277,-0.22721777856349945
1772556554656463400,5.06146337890625,-0.2808428704738617,-0.1747460812330246,-0.3679935336112976
1772556554666447400,5.071447265625,-0.35544511675834656,-0.22869884967803955,-0.4822789430618286
1772556554676431400,5.081431396484375,-0.4016791880130768,-0.25153785943984985,-0.5283380746841431
1772556554686415400,5.091415283203125,-0.3848160207271576,-0.25886237621307373,-0.4713214933872223
1772556554696399400,5.1013994140625,-0.30756011605262756,-0.2517717182636261,-0.29924267530441284
1772556554706384400,5.11138427734375,-0.20383921265602112,-0.22579635679721832,-0.024388935416936874
1772556554716368400,5.121368408203125,-0.1268187314271927,-0.18635360896587372,0.297216534614563
1772556554726352400,5.131352294921875,-0.10573947429656982,-0.1419442743062973,0.5721776485443115
1772556554736336400,5.14133642578125,-0.12984588742256165,-0.08627142757177353,0.7452895045280457
1772556554746320400,5.1513203125,-0.18678389489650726,-0.022111644968390465,0.7978325486183167
1772556554756304400,5.161304443359375,-0.2667069733142853,0.06566161662340164,0.7401394248008728
1772556554766288600,5.17128857421875,-0.3681867718696594,0.1656768023967743,0.6031503677368164
1772556554776272600,5.181272705078125,-0.4606189727783203,0.27737748622894287,0.42199254035949707
1772556554786256600,5.191256591796875,-0.5246931314468384,0.3775525987148285,0.23117601871490479
1772556554796240600,5.20124072265625,-0.5515311360359192,0.46334153413772583,0.05859120562672615
1772556554806225700,5.2112255859375,-0.5318756103515625,0.5235591530799866,-0.09140186756849289
1772556554816209700,5.221209716796875,-0.46944257616996765,0.540626049041748,-0.22084321081638336
1772556554826193700,5.231193603515625,-0.3767319917678833,0.5110726356506348,-0.3296377658843994
1772556554836177700,5.241177734375,-0.2579595446586609,0.44147172570228577,-0.4051913619041443
1772556554846161700,5.25116162109375,-0.14154961705207825,0.3339137136936188,-0.4518495798110962
1772556554856145400,5.2611455078125,-0.029950644820928574,0.18772640824317932,-0.4646990895271301
1772556554866129400,5.27112939453125,0.05458398535847664,0.037448588758707047,-0.4308072030544281
1772556554876113400,5.281113525390625,0.11898054927587509,-0.08376838266849518,-0.3672676384449005
1772556554886097400,5.291097412109375,0.158983513712883,-0.18370556831359863,-0.29622647166252136
1772556554896082400,5.30108251953125,0.17797958850860596,-0.25799283385276794,-0.22439996898174286
1772556554906066400,5.31106640625,0.17553921043872833,-0.30779388546943665,-0.1631534993648529
1772556554916050400,5.321050537109375,0.15347172319889069,-0.3278546631336212,-0.11557265371084213
1772556554926034400,5.331034423828125,0.13097938895225525,-0.32494497299194336,-0.09499914199113846
1772556554936018400,5.341018310546875,0.10959181189537048,-0.3052748739719391,-0.1015838012099266
1772556554946002400,5.35100244140625,0.10275555402040482,-0.2667175531387329,-0.1256178319454193
1772556554955986400,5.360986328125,0.09932487457990646,-0.21801578998565674,-0.1579241156578064
1772556554965970400,5.370970458984375,0.11153946071863174,-0.16173067688941956,-0.19805927574634552
1772556554975954400,5.380954345703125,0.13222075998783112,-0.0972353145480156,-0.2264786660671234
1772556554985939500,5.390939453125,0.15718510746955872,-0.01904422603547573,-0.23318292200565338
1772556554995923500,5.40092333984375,0.17734043300151825,0.060769110918045044,-0.20764240622520447
1772556555005907500,5.410907470703125,0.2022215723991394,0.13541345298290253,-0.15680010616779327
1772556555015891500,5.420891357421875,0.22101442515850067,0.1995098888874054,-0.07506369054317474
1772556555025875500,5.43087548828125,0.22931212186813354,0.2649245858192444,0.033038895577192307
1772556555035859700,5.440859619140625,0.24307481944561005,0.3299824297428131,0.15479089319705963
1772556555045843700,5.45084375,0.25674694776535034,0.3990776240825653,0.28274232149124146
1772556555055827700,5.46082763671875,0.2720526456832886,0.45973750948905945,0.4076051712036133
1772556555065811500,5.4708115234375,0.29103630781173706,0.4976164400577545,0.5168975591659546
1772556555075795500,5.48079541015625,0.31609266996383667,0.5139615535736084,0.6055184602737427
1772556555085780500,5.490780517578125,0.3386971950531006,0.5083457827568054,0.6650766730308533
1772556555095764500,5.500764404296875,0.34443363547325134,0.48294004797935486,0.6831321120262146
1772556555105748500,5.51074853515625,0.3334362804889679,0.4251069128513336,0.6543197631835938
1772556555115732500,5.520732421875,0.27161869406700134,0.3628206253051758,0.589587926864624
1772556555125716500,5.530716552734375,0.17845681309700012,0.2813558876514435,0.500311017036438
1772556555135700500,5.540700439453125,0.07489366829395294,0.1953594982624054,0.40915393829345703
1772556555145684500,5.5506845703125,-0.019166572019457817,0.10657539963722229,0.32490628957748413
1772556555155668500,5.56066845703125,-0.0977010577917099,0.0352570116519928,0.27413204312324524
1772556555165652500,5.570652587890625,-0.15478567779064178,0.004199610091745853,0.2751528024673462
1772556555175637500,5.580637451171875,-0.15600593388080597,0.048155613243579865,0.34789571166038513
1772556555185621500,5.59062158203125,-0.0957484170794487,0.15659202635288239,0.48522689938545227
1772556555195605500,5.60060546875,-0.016850676387548447,0.2916145622730255,0.6230624914169312
1772556555205589500,5.610589599609375,0.06061140447854996,0.38595661520957947,0.6870654225349426
1772556555215573500,5.620573486328125,0.14866136014461517,0.4045902192592621,0.6350725293159485
1772556555225557500,5.6305576171875,0.2526206374168396,0.3189220428466797,0.45418304204940796
1772556555235541500,5.64054150390625,0.35559120774269104,0.14302319288253784,0.1698663830757141
1772556555245525500,5.650525390625,0.4118623435497284,-0.04646050184965134,-0.1536167860031128
1772556555255509500,5.660509521484375,0.41757720708847046,-0.20126205682754517,-0.41687557101249695
1772556555265494500,5.67049462890625,0.38545238971710205,-0.29078924655914307,-0.5470943450927734
1772556555275478500,5.680478515625,0.3439398407936096,-0.2913578450679779,-0.4790172874927521
1772556555285462500,5.690462646484375,0.3123992681503296,-0.19362136721611023,-0.23110182583332062
1772556555295448000,5.700447998046875,0.29920971393585205,-0.05484965071082115,0.14159557223320007
1772556555305432000,5.71043212890625,0.3113185167312622,0.08862251043319702,0.5445287227630615
1772556555315416000,5.720416015625,0.3371517062187195,0.16791974008083344,0.8836689591407776
1772556555325400000,5.730400146484375,0.34183332324028015,0.21497304737567902,1.0849131345748901
1772556555335383800,5.7403837890625,0.3300224840641022,0.25978177785873413,1.1285908222198486
1772556555345367800,5.750367919921875,0.29248133301734924,0.28249087929725647,1.0290361642837524
1772556555355353000,5.76035302734375,0.24603044986724854,0.28444936871528625,0.8349383473396301
1772556555365336800,5.7703369140625,0.18843799829483032,0.2708302438259125,0.6057469248771667
1772556555375320800,5.78032080078125,0.12571603059768677,0.24091042578220367,0.36915358901023865
1772556555385304800,5.790304931640625,0.057568397372961044,0.20455002784729004,0.1571529060602188
1772556555395288800,5.800288818359375,-0.016793450340628624,0.1673957258462906,-0.019715607166290283
1772556555405273000,5.810273193359375,-0.07571980357170105,0.14687100052833557,-0.1396065056324005
1772556555415257000,5.820257080078125,-0.1074521616101265,0.15954124927520752,-0.20371730625629425
1772556555425241000,5.830240966796875,-0.10659122467041016,0.2128744125366211,-0.21945877373218536
1772556555435225000,5.84022509765625,-0.0728609561920166,0.31087714433670044,-0.19264660775661469
1772556555445209900,5.8502099609375,-0.007411804050207138,0.4136085510253906,-0.1502014398574829
1772556555455194000,5.860194091796875,0.06970508396625519,0.5062777400016785,-0.08222078531980515
1772556555465178000,5.87017822265625,0.14660078287124634,0.5580503344535828,-0.01901426911354065
1772556555475162000,5.880162109375,0.2135518491268158,0.5703685283660889,0.021736890077590942
1772556555485146000,5.89014599609375,0.2707464396953583,0.5510230660438538,0.04761029779911041
1772556555495130000,5.900130126953125,0.31111940741539,0.5181044936180115,0.06641567498445511
1772556555505114000,5.910114013671875,0.3485184907913208,0.512783944606781,0.12561431527137756
1772556555515098000,5.92009814453125,0.4006091058254242,0.5213268399238586,0.21957756578922272
1772556555525082000,5.93008203125,0.4608215093612671,0.5474944114685059,0.3430659770965576
1772556555535067100,5.940067138671875,0.5212419629096985,0.5547512769699097,0.43388962745666504
1772556555545051100,5.950051025390625,0.5422210693359375,0.5871191620826721,0.4887026846408844
1772556555555035100,5.96003515625,0.4976807236671448,0.6211146712303162,0.4895721971988678
1772556555565019000,5.970018798828125,0.40904563665390015,0.6336869597434998,0.4309849143028259
1772556555575003000,5.9800029296875,0.29716143012046814,0.6315263509750366,0.33707812428474426
1772556555584987000,5.98998681640625,0.1884811967611313,0.6214938163757324,0.24206624925136566
1772556555594971000,5.999970947265625,0.09517202526330948,0.6219678521156311,0.17686088383197784
1772556555604955000,6.009954833984375,0.021992530673742294,0.6329286098480225,0.1589885950088501
1772556555614940000,6.01993994140625,-0.033176716417074203,0.6303136348724365,0.1894892454147339
1772556555624924000,6.029923828125,-0.07514889538288116,0.5959073305130005,0.25002068281173706
1772556555634908000,6.039907958984375,-0.10484261065721512,0.5594981908798218,0.33971676230430603
1772556555644892000,6.049891845703125,-0.13561062514781952,0.5376226902008057,0.4235593378543854
1772556555654876000,6.0598759765625,-0.1833922564983368,0.49188077449798584,0.5182168483734131
1772556555664860000,6.06985986328125,-0.24279536306858063,0.49515601992607117,0.5940966606140137
1772556555674844000,6.079843994140625,-0.2960175573825836,0.5517362356185913,0.6292887330055237
1772556555684828200,6.089828125,-0.33097952604293823,0.6489434242248535,0.6443886160850525
1772556555694812200,6.099812255859375,-0.3438415229320526,0.7761988043785095,0.6327109336853027
1772556555704797000,6.109796875,-0.33277958631515503,0.8896870613098145,0.5927068591117859
1772556555714781000,6.119781005859375,-0.29918938875198364,1.0037180185317993,0.523801326751709
1772556555724765200,6.12976513671875,-0.25448495149612427,1.1470601558685303,0.4542621970176697
1772556555734749200,6.139749267578125,-0.2047315239906311,1.366819143295288,0.40754368901252747
1772556555744733200,6.149733154296875,-0.12278390675783157,1.5720887184143066,0.386827290058136
1772556555754717200,6.15971728515625,-0.006879137828946114,1.6625839471817017,0.4131454527378082
1772556555764701000,6.169700927734375,0.09105180948972702,1.664000153541565,0.4985382556915283
1772556555774685000,6.179684814453125,0.09112212061882019,1.4837545156478882,0.552068829536438
1772556555784669000,6.1896689453125,-0.014041912741959095,1.285170316696167,0.5794375538825989
1772556555794654000,6.199654052734375,-0.15377317368984222,0.9636942744255066,0.5455485582351685
1772556555804638000,6.209637939453125,-0.24400539696216583,0.5442737340927124,0.46665289998054504
1772556555814622000,6.2196220703125,-0.3112427294254303,0.22856852412223816,0.37018948793411255
1772556555824606000,6.22960595703125,-0.3537270128726959,0.06965133547782898,0.23635411262512207
1772556555834590000,6.23958984375,-0.3421153724193573,0.04348178207874298,0.09092022478580475
1772556555844574000,6.249573974609375,-0.24455367028713226,0.10534808039665222,-0.04019465297460556
1772556555854558000,6.259557861328125,-0.0944395363330841,0.20935064554214478,-0.147428959608078
1772556555864542000,6.2695419921875,0.0501234270632267,0.34195923805236816,-0.2046639621257782
1772556555874527000,6.27952685546875,0.15051233768463135,0.462897926568985,-0.19442570209503174
1772556555884511000,6.289510986328125,0.2005632519721985,0.5806334614753723,-0.12233423441648483
1772556555894495000,6.299494873046875,0.1958893984556198,0.7483164668083191,-0.05287953093647957
1772556555904479000,6.30947900390625,0.1479438841342926,0.9499488472938538,-0.02849278599023819
1772556555914463000,6.319462890625,0.10217426717281342,1.123492956161499,0.012761710211634636
1772556555924447000,6.329447021484375,0.050017088651657104,1.3209962844848633,0.04241564869880676
1772556555934431000,6.339430908203125,-0.03233823552727699,1.5779953002929688,0.03922358155250549
1772556555944415000,6.3494150390625,-0.0826919749379158,1.8257039785385132,-0.03501804172992706
1772556555954399200,6.359399169921875,-0.10609903186559677,2.0902154445648193,-0.1743578165769577
1772556555964384000,6.369384033203125,-0.18084916472434998,2.263317346572876,-0.3350268602371216
1772556555974368000,6.379367919921875,-0.2744187116622925,2.3040432929992676,-0.4926568865776062
1772556555984352000,6.38935205078125,-0.33958160877227783,2.1439321041107178,-0.6355590224266052
1772556555994336000,6.3993359375,-0.4148731827735901,1.9307503700256348,-0.6792740225791931
1772556556004320000,6.409320068359375,-0.4752137064933777,1.6295197010040283,-0.6326387524604797
1772556556014304000,6.419303955078125,-0.5005270838737488,1.3997653722763062,-0.5675708055496216
1772556556024288000,6.4292880859375,-0.5125023126602173,1.2428374290466309,-0.49150240421295166
1772556556034272000,6.43927197265625,-0.48751407861709595,1.2005757093429565,-0.44280490279197693
1772556556044257000,6.449257080078125,-0.434237539768219,1.2338411808013916,-0.419414222240448
1772556556054241000,6.459240966796875,-0.38140150904655457,1.2629505395889282,-0.4009140431880951
1772556556064225000,6.46922509765625,-0.3588854968547821,1.315009355545044,-0.38222557306289673
1772556556074209000,6.479208984375,-0.3337516486644745,1.3922127485275269,-0.37797755002975464
1772556556084193000,6.489193115234375,-0.28204718232154846,1.427282691001892,-0.3815339207649231
1772556556094177000,6.499177001953125,-0.21581168472766876,1.3952432870864868,-0.38406577706336975
1772556556104161000,6.5091611328125,-0.15292984247207642,1.335023283958435,-0.3577731251716614
1772556556114145000,6.51914501953125,-0.10794904828071594,1.247374415397644,-0.30143073201179504
1772556556124129000,6.52912890625,-0.08136992156505585,1.175396203994751,-0.21891899406909943
1772556556134114000,6.539114013671875,-0.07565318048000336,1.129895806312561,-0.11745121330022812
1772556556144098000,6.54909814453125,-0.07889361679553986,1.1048123836517334,-0.000039797741919755936
1772556556154082000,6.55908203125,-0.08421780914068222,1.0972874164581299,0.09543692320585251
1772556556164066000,6.569066162109375,-0.09671095013618469,1.1047639846801758,0.16135737299919128
1772556556174050000,6.579050048828125,-0.10865788906812668,1.1111640930175781,0.20880530774593353
1772556556184034000,6.589033935546875,-0.1069648340344429,1.1265255212783813,0.24647752940654755
1772556556194017800,6.599017822265625,-0.08781324326992035,1.1310824155807495,0.2690587639808655
1772556556204001800,6.609001708984375,-0.04734315723180771,1.0981096029281616,0.2897440493106842
1772556556213987000,6.618987060546875,0.001367919729091227,1.0345873832702637,0.29849812388420105
1772556556223970800,6.628970703125,0.06440597027540207,0.9854878783226013,0.2953037917613983
1772556556233954800,6.638954833984375,0.11623135209083557,0.8525586128234863,0.2980726659297943
1772556556243938800,6.648938720703125,0.15455392003059387,0.6891606450080872,0.32111936807632446
1772556556253922800,6.6589228515625,0.18671132624149323,0.5162831544876099,0.3731226325035095
1772556556263907000,6.668906982421875,0.19286440312862396,0.3040929138660431,0.4202417731285095
1772556556273891000,6.67889111328125,0.18147964775562286,0.028584899380803108,0.44028258323669434
1772556556283875000,6.688875,0.14718857407569885,-0.2659105062484741,0.39919793605804443
1772556556293859800,6.69885986328125,0.12563027441501617,-0.6110218167304993,0.302698016166687
1772556556303844000,6.708843994140625,0.10353878885507584,-0.9098430275917053,0.1891840398311615
1772556556313828000,6.718828125,0.08095678687095642,-1.0960814952850342,0.08343552052974701
1772556556323812000,6.72881201171875,0.10238029807806015,-1.0963481664657593,0.015443691052496433
1772556556333796000,6.738796142578125,0.20209145545959473,-1.0064646005630493,0.045621566474437714
1772556556343780000,6.748780029296875,0.383739709854126,-0.6976540088653564,0.08982766419649124
1772556556353764000,6.75876416015625,0.6244894862174988,-0.4359917938709259,0.13661621510982513
1772556556363748000,6.768748046875,0.8378208875656128,-0.027575060725212097,0.22516238689422607
1772556556373732000,6.778732177734375,0.9735784530639648,0.2744905352592468,0.2603166401386261
1772556556383717000,6.788717041015625,1.0084747076034546,0.42182499170303345,0.22082547843456268
1772556556393701000,6.798701171875,0.8846789598464966,0.4794089198112488,0.1795310378074646
1772556556403685000,6.80868505859375,0.6098775267601013,0.3555050492286682,0.08041742444038391
1772556556413669000,6.818669189453125,0.31204530596733093,0.05747177451848984,-0.048256661742925644
1772556556423652900,6.82865283203125,0.05054566264152527,-0.39129695296287537,-0.20271281898021698
1772556556433636900,6.838636962890625,-0.14343446493148804,-0.8284314274787903,-0.3098171651363373
1772556556443620900,6.848620849609375,-0.30774351954460144,-1.1344743967056274,-0.33274751901626587
1772556556453604900,6.85860498046875,-0.38347795605659485,-1.2438504695892334,-0.24512021243572235
1772556556463590000,6.86858984375,-0.36284303665161133,-1.1563851833343506,-0.10609084367752075
1772556556473574000,6.878573974609375,-0.26660650968551636,-0.9394933581352234,0.03452672064304352
1772556556483558000,6.888557861328125,-0.114259734749794,-0.6699943542480469,0.13189013302326202
1772556556493542000,6.8985419921875,0.06028783693909645,-0.3848707377910614,0.18632009625434875
1772556556503526000,6.90852587890625,0.2011273056268692,-0.11377529799938202,0.20389501750469208
1772556556513510000,6.918510009765625,0.27193915843963623,0.1580607295036316,0.19985046982765198
1772556556523494000,6.928493896484375,0.2477927803993225,0.38528454303741455,0.16660672426223755
1772556556533478100,6.93847802734375,0.12748262286186218,0.5587375164031982,0.09536610543727875
1772556556543463000,6.948462890625,-0.0683947503566742,0.635867714881897,-0.025424499064683914
1772556556553447000,6.958447021484375,-0.31953269243240356,0.5902890563011169,-0.1798364520072937
1772556556563431000,6.968430908203125,-0.5916820168495178,0.4351571500301361,-0.34753453731536865
1772556556573415200,6.978415283203125,-0.8122580647468567,0.20676153898239136,-0.5070642828941345
1772556556583399200,6.988399169921875,-0.951862633228302,-0.007479669526219368,-0.6223408579826355
1772556556593383200,6.998383056640625,-1.0027732849121094,-0.16792899370193481,-0.6799437403678894
1772556556603367200,7.0083671875,-0.9653660655021667,-0.25031155347824097,-0.6855100989341736
1772556556613351200,7.01835107421875,-0.8363093137741089,-0.26767510175704956,-0.6702072620391846
1772556556623335000,7.0283349609375,-0.6377598643302917,-0.21993552148342133,-0.6595339775085449
1772556556633320200,7.0383203125,-0.38617295026779175,-0.11629914492368698,-0.6539216637611389
1772556556643304200,7.04830419921875,-0.13439472019672394,0.009384660050272942,-0.6761864423751831
1772556556653288000,7.058287841796875,0.08469874411821365,0.07901380211114883,-0.7148675322532654
1772556556663272000,7.06827197265625,0.21200847625732422,0.05422145873308182,-0.7434797286987305
1772556556673256000,7.078255859375,0.26127853989601135,-0.026665933430194855,-0.7351584434509277
1772556556683240000,7.088239990234375,0.2531924843788147,-0.13127857446670532,-0.6848601698875427
1772556556693224000,7.098223876953125,0.20143845677375793,-0.22066543996334076,-0.5975276827812195
1772556556703209000,7.108208984375,0.13482820987701416,-0.23769959807395935,-0.48159971833229065
1772556556713193000,7.11819287109375,0.0464988648891449,-0.17795611917972565,-0.3653532564640045
1772556556723177000,7.128177001953125,-0.03309609368443489,-0.047971487045288086,-0.2683830261230469
1772556556733161000,7.138160888671875,-0.07611706107854843,0.14371539652347565,-0.20661073923110962
1772556556743145000,7.14814501953125,-0.09285245090723038,0.3253122866153717,-0.20184016227722168
1772556556753129000,7.15812890625,-0.0752689316868782,0.49602437019348145,-0.2388485223054886
1772556556763113000,7.168113037109375,-0.042247701436281204,0.6022100448608398,-0.30328595638275146
1772556556773097000,7.178096923828125,-0.016040068119764328,0.6165346503257751,-0.34974613785743713
1772556556783081000,7.1880810546875,-0.00029191956855356693,0.5534164309501648,-0.33518746495246887
1772556556793066000,7.19806591796875,-0.006885373964905739,0.4470844268798828,-0.2534649074077606
1772556556803050000,7.208050048828125,-0.03691162168979645,0.30337485671043396,-0.12225871533155441
1772556556813034000,7.218033935546875,-0.08179733902215958,0.1554946005344391,0.03252792730927467
1772556556823018000,7.22801806640625,-0.15035830438137054,0.0067610847763717175,0.17578692734241486
1772556556833002000,7.238001953125,-0.23206382989883423,-0.13159331679344177,0.28961601853370667
1772556556842986000,7.247986083984375,-0.29890450835227966,-0.23894551396369934,0.3558509945869446
1772556556852970000,7.257969970703125,-0.3209317922592163,-0.2867138385772705,0.37173938751220703
1772556556862954000,7.2679541015625,-0.29627862572669983,-0.24694746732711792,0.3385540246963501
1772556556872939000,7.27793896484375,-0.22652190923690796,-0.14642751216888428,0.2626912295818329
1772556556882923000,7.287923095703125,-0.12885193526744843,-0.0016849070088937879,0.16554482281208038
1772556556892907000,7.297906982421875,-0.029084056615829468,0.14494715631008148,0.08177164196968079
1772556556902891000,7.30789111328125,0.03991559520363808,0.2623920738697052,0.02791660651564598
1772556556912875000,7.317875,0.09644438326358795,0.33971190452575684,0.018363047391176224
1772556556922859000,7.32785888671875,0.1774209439754486,0.4366985261440277,0.04703564569354057
1772556556932843000,7.337843017578125,0.21445590257644653,0.4268062114715576,0.10548990219831467
1772556556942827000,7.347826904296875,0.14150331914424896,0.24407710134983063,0.1871994584798813
1772556556952812000,7.35781201171875,0.01919233240187168,-0.041606586426496506,0.28605520725250244
1772556556962796000,7.367796142578125,-0.09391265362501144,-0.39990347623825073,0.3647867739200592
1772556556972780000,7.377780029296875,-0.1565813571214676,-0.7460747361183167,0.41711094975471497
1772556556982764000,7.387763916015625,-0.20064975321292877,-1.0661699771881104,0.4616240859031677
1772556556992748000,7.397748046875,-0.24536502361297607,-1.3500466346740723,0.5113852620124817
1772556557002732000,7.40773193359375,-0.25482264161109924,-1.534978985786438,0.5537055134773254
1772556557012716000,7.417716064453125,-0.19066283106803894,-1.5963778495788574,0.5795472264289856
1772556557022700000,7.427699951171875,-0.04667358100414276,-1.494524359703064,0.5832359194755554
1772556557032685000,7.43768505859375,0.12776213884353638,-1.247351050376892,0.5669768452644348
1772556557042669000,7.4476689453125,0.26669174432754517,-0.9700698256492615,0.5236489772796631
1772556557052653000,7.457653076171875,0.34065279364585876,-0.6523736119270325,0.47475892305374146
1772556557062637000,7.467636962890625,0.3522394895553589,-0.32213687896728516,0.4058445692062378
1772556557072621000,7.47762109375,0.30817216634750366,-0.023705990985035896,0.32361841201782227
1772556557082604800,7.487604736328125,0.2351912558078766,0.20826610922813416,0.2171066850423813
1772556557092588800,7.4975888671875,0.14751148223876953,0.3605611324310303,0.06880109757184982
1772556557102572800,7.50757275390625,0.05799219012260437,0.3580513298511505,-0.130666121840477
1772556557112557800,7.517557861328125,-0.028309673070907593,0.3234635293483734,-0.33759161829948425
1772556557122541800,7.527541748046875,-0.10383256524801254,0.23679523169994354,-0.5603886246681213
1772556557132525800,7.53752587890625,-0.1751410961151123,0.12938781082630157,-0.7718377709388733
1772556557142509800,7.547509765625,-0.24310991168022156,0.033213719725608826,-0.9495270848274231
1772556557152494000,7.557494140625,-0.30550137162208557,-0.07993627339601517,-1.0795215368270874
1772556557162478000,7.56747802734375,-0.3622753918170929,-0.20865654945373535,-1.1273187398910522
1772556557172462000,7.577462158203125,-0.3997740149497986,-0.38750940561294556,-1.094835877418518
1772556557182446000,7.587446044921875,-0.4072319269180298,-0.5964863896369934,-1.000860333442688
1772556557192430800,7.597430908203125,-0.39124229550361633,-0.8321130275726318,-0.8620195984840393
1772556557202415000,7.6074150390625,-0.3446122109889984,-1.0493037700653076,-0.7093678116798401
1772556557212399000,7.617399169921875,-0.24912723898887634,-1.2278149127960205,-0.5612092018127441
1772556557222383000,7.627383056640625,-0.10918133705854416,-1.405722975730896,-0.4388115406036377
1772556557232367000,7.6373671875,0.054998282343149185,-1.570842981338501,-0.34404268860816956
1772556557242351000,7.64735107421875,0.21068084239959717,-1.6907674074172974,-0.2396751195192337
1772556557252335000,7.657335205078125,0.3289097547531128,-1.7541884183883667,-0.1379474252462387
1772556557262319000,7.667319091796875,0.38870498538017273,-1.7007032632827759,-0.033503495156764984
1772556557272304000,7.67730419921875,0.383939266204834,-1.4945753812789917,0.03312933072447777
1772556557282288000,7.6872880859375,0.339449405670166,-1.1913256645202637,0.03920160233974457
1772556557292271600,7.697271728515625,0.28009021282196045,-0.8824114799499512,-0.022840196266770363
1772556557302255600,7.707255615234375,0.22671012580394745,-0.5833942294120789,-0.11896243691444397
1772556557312239600,7.717239501953125,0.19094254076480865,-0.3167433440685272,-0.22237378358840942
1772556557322223600,7.7272236328125,0.16833190619945526,-0.1329479217529297,-0.3130953013896942
1772556557332207600,7.73720751953125,0.1643608659505844,-0.04216368496417999,-0.3662693202495575
1772556557342192600,7.747192626953125,0.18500344455242157,-0.02534998022019863,-0.34611886739730835
1772556557352176600,7.7571767578125,0.24527743458747864,-0.0015666199615225196,-0.23780837655067444
1772556557362160600,7.76716064453125,0.3348240256309509,0.06184155121445656,-0.07794100046157837
1772556557372144600,7.77714453125,0.44915834069252014,0.09361812472343445,0.07926619052886963
1772556557382128600,7.787128662109375,0.5780450105667114,0.06725440919399261,0.1816144734621048
1772556557392112600,7.797112548828125,0.6980782151222229,0.026740802451968193,0.2317253053188324
1772556557402096400,7.807096435546875,0.7941052913665771,-0.1002100333571434,0.20049907267093658
1772556557412080600,7.81708056640625,0.8546618223190308,-0.28764623403549194,0.13222627341747284
1772556557422065700,7.827065673828125,0.8643550872802734,-0.5205838680267334,0.05572322756052017
1772556557432049400,7.83704931640625,0.8267831802368164,-0.7679710388183594,-0.013837472535669804
1772556557442033400,7.847033447265625,0.7795672416687012,-0.9825637340545654,-0.08517313003540039
1772556557452017700,7.857017578125,0.6752538681030273,-1.1242235898971558,-0.10461846739053726
1772556557462001700,7.867001708984375,0.4397023916244507,-1.293932557106018,-0.04633540287613869
1772556557471985700,7.876985595703125,0.27908235788345337,-1.298190712928772,0.01797753944993019
1772556557481969700,7.8869697265625,0.17197221517562866,-1.3012775182724,0.046478886157274246
1772556557491953700,7.89695361328125,0.14234188199043274,-1.050761103630066,0.16788174211978912
1772556557501938700,7.906938720703125,0.2784399390220642,-0.7146943807601929,0.2392815202474594
1772556557511922700,7.916922607421875,0.45150333642959595,-0.42208194732666016,0.2449343502521515
1772556557521906700,7.92690673828125,0.5897412300109863,-0.3258902430534363,0.11040350049734116
1772556557531890700,7.936890625,0.6350860595703125,-0.5287240743637085,-0.1994486302137375
1772556557541874700,7.946874755859375,0.6069425344467163,-0.9645528197288513,-0.6139799356460571
1772556557551858700,7.956858642578125,0.4881577789783478,-1.5270287990570068,-0.9627009034156799
1772556557561842700,7.9668427734375,0.3196178078651428,-2.0543088912963867,-1.0956265926361084
1772556557571826700,7.97682666015625,0.14982236921787262,-2.3625380992889404,-1.0290331840515137
1772556557581811700,7.986811767578125,0.0021697315387427807,-2.4149208068847656,-0.8421145081520081
1772556557591795700,7.996795654296875,-0.09147470444440842,-2.167604684829712,-0.6018527150154114
1772556557601779700,8.00677978515625,-0.08788768947124481,-1.7915468215942383,-0.3724682629108429
1772556557611763700,8.016763671875,-0.049818795174360275,-1.3318018913269043,-0.10084163397550583
1772556557621747700,8.026747802734375,-0.0319303423166275,-0.9098411202430725,0.17411775887012482
1772556557631731500,8.0367314453125,-0.05117775872349739,-0.622703492641449,0.370351105928421
1772556557641715500,8.046715576171875,-0.03425177186727524,-0.45635098218917847,0.4561126232147217
1772556557651699500,8.056699462890625,0.0023733184207230806,-0.3251686692237854,0.43951737880706787
1772556557661684500,8.0666845703125,0.04347255080938339,-0.20176708698272705,0.3169586956501007
1772556557671668500,8.07666845703125,0.0321391299366951,-0.11366251111030579,0.10742830485105515
1772556557681652500,8.086652587890624,-0.03272482007741928,-0.1474875956773758,-0.1506650298833847
1772556557691636500,8.096636474609374,-0.1159190982580185,-0.22106382250785828,-0.4400797188282013
1772556557701620500,8.106620361328124,-0.1861298829317093,-0.4667918086051941,-0.6807413101196289
1772556557711604500,8.1166044921875,-0.24262261390686035,-0.7660847902297974,-0.8622280359268188
1772556557721588700,8.126588623046874,-0.3051384389400482,-0.9249151945114136,-0.9509424567222595
1772556557731572700,8.13657275390625,-0.3182905912399292,-0.8937236666679382,-0.991359531879425
1772556557741557500,8.1465576171875,-0.3075188994407654,-0.7941004037857056,-1.0136735439300537
1772556557751541500,8.15654150390625,-0.28077808022499084,-0.616335391998291,-0.9943572878837585
1772556557761525500,8.166525390625,-0.25041723251342773,-0.45233550667762756,-0.9251483678817749
1772556557771509800,8.176509765625,-0.19641238451004028,-0.2709420621395111,-0.7930108904838562
1772556557781493800,8.18649365234375,-0.1383805125951767,-0.13194744288921356,-0.6317266225814819
1772556557791477800,8.196477783203125,-0.07161569595336914,-0.020022474229335785,-0.456653892993927
1772556557801461800,8.206461669921875,0.018423382192850113,0.07538554072380066,-0.28969740867614746
1772556557811445800,8.21644580078125,0.11195309460163116,0.14354214072227478,-0.13690704107284546
1772556557821430800,8.2264306640625,0.19090330600738525,0.09858664125204086,-0.04828182980418205
1772556557831414800,8.236414794921876,0.26938608288764954,-0.033390745520591736,-0.005551975220441818
1772556557841398800,8.246398681640626,0.3713119328022003,-0.1659005880355835,0.007573148235678673
1772556557851382800,8.2563828125,0.4745500683784485,-0.2425631582736969,-0.02836444601416588
1772556557861366500,8.266366455078124,0.5725439786911011,-0.26754599809646606,-0.07358571887016296
1772556557871350500,8.2763505859375,0.6551700234413147,-0.2425333857536316,-0.11108076572418213
1772556557881334500,8.28633447265625,0.675163209438324,-0.18089479207992554,-0.15240663290023804
1772556557891319600,8.296319580078125,0.6179661154747009,-0.09610002487897873,-0.21083702147006989
1772556557901303600,8.306303466796875,0.5060185790061951,0.004162661265581846,-0.2888016104698181
1772556557911287600,8.31628759765625,0.3763106167316437,0.09884469211101532,-0.3833819031715393
1772556557921271600,8.326271484375,0.25342145562171936,0.1907101571559906,-0.49799609184265137
1772556557931255600,8.336255615234375,0.15351250767707825,0.26131996512413025,-0.6020203232765198
1772556557941239600,8.346239501953125,0.07612504810094833,0.2980979382991791,-0.6897461414337158
1772556557951223600,8.3562236328125,0.014696492813527584,0.3164657950401306,-0.7342135310173035
1772556557961207600,8.36620751953125,-0.0357469767332077,0.33012059330940247,-0.7281330227851868
1772556557971192600,8.376192626953125,-0.06733249127864838,0.3550289571285248,-0.6954699158668518
1772556557981177600,8.386177490234376,-0.0960293859243393,0.316641628742218,-0.6303481459617615
1772556557991161600,8.39616162109375,-0.11972539126873016,0.2517065703868866,-0.5496975183486938
1772556558001145600,8.4061455078125,-0.134473979473114,0.20099420845508575,-0.46001702547073364
1772556558011129600,8.416129638671874,-0.13015645742416382,0.21621523797512054,-0.3795086145401001
1772556558021113600,8.426113525390624,-0.11443843692541122,0.3467251658439636,-0.3152490258216858
1772556558031097600,8.43609765625,-0.10013459622859955,0.544391393661499,-0.2904832065105438
1772556558041082600,8.44608251953125,-0.09135321527719498,0.7474034428596497,-0.318331241607666
1772556558051066600,8.456066650390625,-0.08124838769435883,0.9375997185707092,-0.37864571809768677
1772556558061050600,8.466050537109375,-0.02732674963772297,1.1070127487182617,-0.457565575838089
1772556558071034600,8.47603466796875,0.09932919591665268,1.259191870689392,-0.5046756267547607
1772556558081018600,8.4860185546875,0.21669913828372955,1.3054959774017334,-0.5117319822311401
1772556558091002600,8.496002685546875,0.22865886986255646,1.161853313446045,-0.47405892610549927
1772556558100986600,8.505986572265625,0.15078705549240112,0.9482313394546509,-0.3773564100265503
1772556558110970600,8.515970703125,0.047066252678632736,0.7240714430809021,-0.2492343783378601
1772556558120955600,8.52595556640625,-0.0718463659286499,0.3849221169948578,-0.16243445873260498
1772556558130939600,8.535939697265626,-0.2390606552362442,-0.017940402030944824,-0.1464885175228119
1772556558140923600,8.545923583984376,-0.42485204339027405,-0.359450101852417,-0.1616080105304718
1772556558150907400,8.555907470703126,-0.578812837600708,-0.6769322156906128,-0.2113199084997177
1772556558160891600,8.5658916015625,-0.6098353266716003,-0.8301070332527161,-0.28156861662864685
1772556558170875600,8.575875732421874,-0.551652729511261,-0.8486186861991882,-0.39721372723579407
1772556558180859600,8.585859619140624,-0.3942156136035919,-0.6328980326652527,-0.5187473893165588
1772556558190843600,8.59584375,-0.24330146610736847,-0.4645463228225708,-0.6075374484062195
1772556558200828700,8.60582861328125,-0.09162203967571259,-0.25416693091392517,-0.6375241279602051
1772556558210812700,8.615812744140625,0.03989524021744728,-0.03378397226333618,-0.5692971348762512
1772556558220796700,8.625796630859375,0.09292426705360413,0.13472391664981842,-0.41062048077583313
1772556558230780700,8.63578076171875,0.07791522145271301,0.28899553418159485,-0.21541611850261688
1772556558240764700,8.6457646484375,-0.03827788680791855,0.4314166307449341,0.012840178795158863
1772556558250748700,8.655748779296875,-0.17691539227962494,0.5662569999694824,0.2455248236656189
1772556558260732700,8.665732666015625,-0.22534041106700897,0.6622344851493835,0.44977545738220215
1772556558270717700,8.6757177734375,-0.22085139155387878,0.5919065475463867,0.55042964220047
1772556558280701700,8.68570166015625,-0.19363965094089508,0.31380584836006165,0.5016969442367554
1772556558290688800,8.695688720703124,-0.19136211276054382,-0.07784873992204666,0.32897040247917175
1772556558300672800,8.7056728515625,-0.20038394629955292,-0.34056413173675537,0.11929593235254288
1772556558310656500,8.715656494140624,-0.15237247943878174,-0.4236012399196625,-0.04737960174679756
1772556558320640500,8.725640625,-0.09636881202459335,-0.4537811279296875,-0.1445682793855667
1772556558330624500,8.73562451171875,-0.05741288885474205,-0.4612893760204315,-0.14028406143188477
1772556558340608500,8.7456083984375,-0.02259172685444355,-0.47234219312667847,-0.07217178493738174
1772556558350593500,8.755593505859375,0.012623252347111702,-0.4981844425201416,0.019289158284664154
1772556558360577500,8.76557763671875,0.020726976916193962,-0.5221289992332458,0.12955611944198608
1772556558370561500,8.7755615234375,0.0017146699829027057,-0.526373028755188,0.22534362971782684
1772556558380545500,8.785545654296875,-0.03919624164700508,-0.5127562284469604,0.29358068108558655
1772556558390529500,8.795529541015625,-0.09739509224891663,-0.5048679709434509,0.3141525387763977
1772556558400513500,8.805513427734375,-0.1554093211889267,-0.4963625967502594,0.2929888665676117
1772556558410497800,8.815497802734376,-0.20034563541412354,-0.48398369550704956,0.2650941014289856
1772556558420482600,8.825482666015626,-0.22666329145431519,-0.4617782533168793,0.2355906218290329
1772556558430466600,8.835466552734376,-0.24416452646255493,-0.4328922629356384,0.22579525411128998
1772556558440450600,8.845450439453124,-0.2479889690876007,-0.41250237822532654,0.2268204540014267
1772556558450434600,8.8554345703125,-0.23416610062122345,-0.3815247714519501,0.2297070473432541
1772556558460418800,8.865418701171874,-0.22196373343467712,-0.3279575705528259,0.23371629416942596
1772556558470402800,8.87540283203125,-0.21462805569171906,-0.26400279998779297,0.23314984142780304
1772556558480386800,8.88538671875,-0.19947127997875214,-0.20662453770637512,0.24260598421096802
1772556558490370800,8.895370849609375,-0.16935865581035614,-0.14087322354316711,0.2615588903427124
1772556558500355800,8.90535595703125,-0.09874215722084045,-0.07277541607618332,0.3340788781642914
1772556558510339800,8.91533984375,-0.01484379917383194,0.02378680370748043,0.45031946897506714
1772556558520323800,8.92532373046875,0.038498781621456146,0.07265634089708328,0.5224951505661011
1772556558530307800,8.935307861328125,0.11832191795110703,0.08181572705507278,0.5773824453353882
1772556558540291600,8.94529150390625,0.15963052213191986,0.157531276345253,0.658338189125061
1772556558550275600,8.955275634765625,0.17810221016407013,0.2128179669380188,0.6817026138305664
1772556558560259600,8.965259521484375,0.18836605548858643,0.2698826491832733,0.6826722025871277
1772556558570244600,8.97524462890625,0.17362412810325623,0.2762784957885742,0.6488737463951111
1772556558580228600,8.985228515625,0.14056022465229034,0.2516922652721405,0.585891604423523
1772556558590212600,8.995212646484376,0.08491932600736618,0.19732463359832764,0.532914400100708
1772556558600196600,9.005196533203126,-0.014219570904970169,0.07922320812940598,0.46490278840065
1772556558610180600,9.0151806640625,-0.13935592770576477,-0.06228572502732277,0.36380627751350403
1772556558620164600,9.02516455078125,-0.28159865736961365,-0.17412826418876648,0.25762996077537537
1772556558630148600,9.035148681640624,-0.41796955466270447,-0.2242327183485031,0.18834009766578674
1772556558640133600,9.045133544921875,-0.5200017094612122,-0.1815192699432373,0.2228802740573883
1772556558650117600,9.05511767578125,-0.5596631169319153,-0.03200754150748253,0.37449032068252563
1772556558660101600,9.0651015625,-0.5124421715736389,0.1459427773952484,0.5931107401847839
1772556558670085600,9.075085693359375,-0.4131195545196533,0.23840346932411194,0.7910576462745667
1772556558680069600,9.085069580078125,-0.317522794008255,0.23357528448104858,0.901267945766449
1772556558690053600,9.0950537109375,-0.18875019252300262,0.20712050795555115,0.9242009520530701
1772556558700037600,9.10503759765625,-0.08018333464860916,0.10832560062408447,0.8512669801712036
1772556558710021600,9.115021728515625,-0.06026901304721832,-0.14516925811767578,0.6657900214195251
1772556558720006700,9.125006591796875,-0.10984381288290024,-0.500021755695343,0.39551496505737305
1772556558729990700,9.13499072265625,-0.18496544659137726,-0.8372339010238647,0.09517672657966614
1772556558739974700,9.144974609375,-0.2609046995639801,-1.023850679397583,-0.136103093624115
1772556558749958700,9.154958740234376,-0.31334447860717773,-1.0590873956680298,-0.22028906643390656
1772556558759942700,9.164942626953126,-0.3265135884284973,-0.9930936098098755,-0.12900730967521667
1772556558769926700,9.1749267578125,-0.2779950797557831,-0.8392041325569153,0.0975661650300026
1772556558779910700,9.18491064453125,-0.23872824013233185,-0.7103253602981567,0.31681957840919495
1772556558789895700,9.194895751953124,-0.13158181309700012,-0.6046718955039978,0.5460977554321289
1772556558799879400,9.20487939453125,-0.07107537984848022,-0.5290959477424622,0.7111766338348389
1772556558809863700,9.21486376953125,-0.029746582731604576,-0.4451368451118469,0.7645769715309143
1772556558819847700,9.22484765625,0.0174751915037632,-0.37999802827835083,0.7405205965042114
1772556558829831700,9.234831787109375,0.04280531778931618,-0.3655431866645813,0.6428401470184326
1772556558839815700,9.244815673828125,0.03223559260368347,-0.3702450096607208,0.5088784098625183
1772556558849799700,9.254799560546875,-0.004374615848064423,-0.3577422499656677,0.37115493416786194
1772556558859783700,9.26478369140625,-0.057972267270088196,-0.3387056291103363,0.2473646104335785
1772556558869768700,9.274768798828125,-0.11004212498664856,-0.2942984700202942,0.15953674912452698
1772556558879752700,9.284752685546875,-0.14649274945259094,-0.20397861301898956,0.0988234132528305
1772556558889736700,9.29473681640625,-0.15469235181808472,-0.08476060628890991,0.07300593703985214
1772556558899720700,9.304720703125,-0.14698989689350128,0.05774489790201187,0.07457443326711655
1772556558909704700,9.31470458984375,-0.1278095543384552,0.1964452564716339,0.0958738625049591
1772556558919688700,9.324688720703126,-0.09903506934642792,0.33242183923721313,0.13615721464157104
1772556558929672700,9.334672607421876,-0.066957026720047,0.43024134635925293,0.17975209653377533
1772556558939657700,9.34465771484375,-0.026125961914658546,0.4700039327144623,0.23111078143119812
1772556558949641700,9.354641845703124,0.01040808204561472,0.47814252972602844,0.2872923016548157
1772556558959625700,9.364625732421874,0.038061805069446564,0.45599374175071716,0.3438246548175812
1772556558969609700,9.374609619140625,0.0568259060382843,0.4172588586807251,0.39413177967071533
1772556558979593700,9.38459375,0.06930167973041534,0.36228978633880615,0.43638354539871216
1772556558989577700,9.39457763671875,0.06579430401325226,0.30524593591690063,0.4493046700954437
1772556558999561500,9.4045615234375,0.03442196175456047,0.24748751521110535,0.43007075786590576
1772556559009546800,9.414546630859375,-0.030860640108585358,0.18826919794082642,0.3698665499687195
1772556559019530800,9.42453076171875,-0.11611784994602203,0.12933975458145142,0.2809278666973114
1772556559029514500,9.434514404296875,-0.19246989488601685,0.058508723974227905,0.18166574835777283
1772556559039498500,9.44449853515625,-0.2590366005897522,-0.016094353049993515,0.08986866474151611
1772556559049482500,9.454482421875,-0.3211604058742523,-0.08156363666057587,0.01663306914269924
1772556559059466500,9.464466552734375,-0.38382425904273987,-0.15316681563854218,-0.032235898077487946
1772556559069450500,9.474450439453125,-0.43747177720069885,-0.20897255837917328,-0.035241011530160904
1772556559079435500,9.484435546875,-0.47092142701148987,-0.24303403496742249,-0.005943080876022577
1772556559089419500,9.49441943359375,-0.49910908937454224,-0.2597959637641907,0.04429052770137787
1772556559099403500,9.504403564453124,-0.5202074646949768,-0.2571539878845215,0.11416123807430267
1772556559109387500,9.514387451171874,-0.5344012975692749,-0.25311344861984253,0.18620134890079498
1772556559119371800,9.524371826171874,-0.5336690545082092,-0.24062025547027588,0.2616891860961914
1772556559129355800,9.534355712890624,-0.5179928541183472,-0.2139660120010376,0.34086790680885315
1772556559139339800,9.54433984375,-0.4909079074859619,-0.1698647439479828,0.42725762724876404
1772556559149324500,9.554324462890625,-0.455972284078598,-0.10677977651357651,0.504923403263092
1772556559159308500,9.56430859375,-0.3996985852718353,-0.05623551085591316,0.5669882893562317
1772556559169292800,9.574292724609375,-0.33745303750038147,-0.0205994825810194,0.5941354632377625
1772556559179276800,9.58427685546875,-0.2925730049610138,0.020103417336940765,0.585098385810852
1772556559189260800,9.5942607421875,-0.24357029795646667,0.04311978816986084,0.5391426086425781
1772556559199244800,9.604244873046875,-0.1914285272359848,0.057421036064624786,0.46343547105789185
1772556559209228800,9.614228759765625,-0.1387978047132492,0.10214509814977646,0.398196280002594
1772556559219212800,9.624212890625,-0.12178146839141846,0.18928903341293335,0.36302024126052856
1772556559229197800,9.63419775390625,-0.15767502784729004,0.27059829235076904,0.3402235805988312
1772556559239181800,9.644181884765626,-0.23749588429927826,0.2781664729118347,0.2861799895763397
1772556559249165800,9.654165771484376,-0.3607022166252136,0.15999187529087067,0.13937322795391083
1772556559259149600,9.664149658203126,-0.4982009828090668,-0.018437018617987633,-0.15011700987815857
1772556559269133600,9.674133544921874,-0.6014090776443481,-0.16187754273414612,-0.5631956458091736
1772556559279117600,9.68411767578125,-0.6337799429893494,-0.2318616509437561,-0.9700065851211548
1772556559289098200,9.69409814453125,-0.5773086547851562,-0.22623786330223083,-1.2378841638565063
1772556559299083300,9.704083251953126,-0.44419699907302856,-0.18624542653560638,-1.317564845085144
1772556559309067300,9.7140673828125,-0.26263627409935,-0.11641813814640045,-1.1683881282806396
1772556559319051300,9.72405126953125,-0.05403309687972069,-0.07426204532384872,-0.8287394642829895
1772556559329035300,9.73403515625,0.1281239241361618,-0.042512111365795135,-0.38866567611694336
1772556559339019300,9.744019287109374,0.22248080372810364,-0.016563909128308296,0.05233236402273178
1772556559349003300,9.754003173828124,0.24892732501029968,0.013609438203275204,0.3734360933303833
1772556559358987300,9.7639873046875,0.23062144219875336,0.033390216529369354,0.5220791697502136
1772556559368972300,9.77397216796875,0.17458559572696686,0.0933624729514122,0.5156119465827942
1772556559378956300,9.783956298828125,0.09177730232477188,0.20120058953762054,0.42076343297958374
1772556559388940300,9.793940185546875,0.020319364964962006,0.32519015669822693,0.2746155261993408
1772556559398924300,9.80392431640625,-0.025584394112229347,0.4514658749103546,0.09968682378530502
1772556559408908300,9.813908203125,-0.03763120248913765,0.5579236149787903,-0.09986143559217453
1772556559418892000,9.82389208984375,-0.014555410481989384,0.6082246899604797,-0.31504538655281067
1772556559428876300,9.833876220703125,0.023840714246034622,0.6076294779777527,-0.529502272605896
1772556559438861000,9.843861083984375,0.07203461229801178,0.5732666850090027,-0.7138023376464844
1772556559448845000,9.853844970703125,0.1104070320725441,0.49282190203666687,-0.8203271627426147
1772556559458829000,9.8638291015625,0.11361357569694519,0.36418911814689636,-0.8255985379219055
1772556559468813000,9.87381298828125,0.0854802057147026,0.20616458356380463,-0.7330478429794312
1772556559478797300,9.88379736328125,0.03340998291969299,0.03188342973589897,-0.5834949016571045
1772556559488781300,9.89378125,-0.03936302289366722,-0.13155503571033478,-0.41145259141921997
1772556559498765300,9.903765380859374,-0.13424484431743622,-0.2594203054904938,-0.2542746365070343
1772556559508750000,9.91375,-0.2265036702156067,-0.33684825897216797,-0.12090646475553513
1772556559518734300,9.923734375,-0.28994983434677124,-0.3954174816608429,-0.03190912678837776
1772556559528718300,9.93371826171875,-0.30619192123413086,-0.4253964126110077,-0.00014880206435918808
1772556559538702300,9.943702392578125,-0.28634315729141235,-0.4370267391204834,-0.011492164805531502
1772556559548686300,9.953686279296875,-0.22383078932762146,-0.39509740471839905,-0.06248823553323746
1772556559558670300,9.96367041015625,-0.1280619204044342,-0.3239205479621887,-0.127994567155838
1772556559568654300,9.973654296875,-0.025447655469179153,-0.22962653636932373,-0.1822386384010315
1772556559578639400,9.983639404296875,0.07040350884199142,-0.1263827085494995,-0.20810112357139587
1772556559588623400,9.993623291015625,0.15454980731010437,-0.030891865491867065,-0.20436550676822662
1772556559598607400,10.003607421875,0.22587810456752777,0.06265001744031906,-0.1726468950510025
1772556559608591400,10.01359130859375,0.2785053551197052,0.15400974452495575,-0.1217043474316597
1772556559618575400,10.023575439453126,0.3133191168308258,0.22607968747615814,-0.049837153404951096
1772556559628559400,10.033559326171876,0.33425769209861755,0.29102861881256104,0.05401041731238365
1772556559638543400,10.04354345703125,0.3486480414867401,0.36586669087409973,0.1947367787361145
1772556559648528400,10.0535283203125,0.36066314578056335,0.4435465931892395,0.35627347230911255
1772556559658512400,10.063512451171874,0.3718098998069763,0.5013464093208313,0.5098382234573364
1772556559668496100,10.07349609375,0.3937397003173828,0.5414230227470398,0.6296223998069763
1772556559678480100,10.083480224609374,0.41748836636543274,0.5522698760032654,0.6855809092521667
1772556559688464100,10.093464111328124,0.43037140369415283,0.5385236740112305,0.6825398802757263
1772556559698448100,10.1034482421875,0.42680850625038147,0.5151989459991455,0.6222256422042847
1772556559708432100,10.11343212890625,0.4007398784160614,0.4722610116004944,0.5212609171867371
1772556559718417200,10.123417236328125,0.346822589635849,0.39097440242767334,0.41032880544662476
1772556559728401200,10.133401123046875,0.2617985010147095,0.2564520239830017,0.30195891857147217
1772556559738385200,10.14338525390625,0.142239049077034,0.10009712725877762,0.1877521574497223
1772556559748369200,10.153369140625,0.001218009740114212,-0.07652611285448074,0.056912392377853394
1772556559758353200,10.163353271484375,-0.13335171341896057,-0.2467249631881714,-0.09858643263578415
1772556559768337200,10.173337158203125,-0.23728743195533752,-0.3548594117164612,-0.2393462061882019
1772556559778321200,10.183321044921875,-0.2935412526130676,-0.3977174460887909,-0.31151893734931946
1772556559788306200,10.19330615234375,-0.29148370027542114,-0.36863917112350464,-0.26649659872055054
1772556559798290200,10.203290283203126,-0.2297924906015396,-0.28159263730049133,-0.09439434856176376
1772556559808274200,10.213274169921876,-0.09738703817129135,-0.1740102767944336,0.15377525985240936
1772556559818258200,10.223258056640624,0.05935731157660484,-0.14312110841274261,0.3571399748325348
1772556559828242200,10.2332421875,0.20675848424434662,-0.22079193592071533,0.4003998339176178
1772556559838226400,10.243226318359374,0.2776610553264618,-0.43576180934906006,0.20121565461158752
1772556559848210400,10.25321044921875,0.21436092257499695,-0.7308621406555176,-0.23272326588630676
1772556559858195200,10.2631953125,0.09628473222255707,-1.033481478691101,-0.8134899735450745
1772556559868179200,10.27317919921875,0.01832309179008007,-1.2490768432617188,-1.3855029344558716
1772556559878163500,10.28316357421875,-0.001645206706598401,-1.3230535984039307,-1.7938365936279297
1772556559888147500,10.2931474609375,0.0553581602871418,-1.1949023008346558,-1.905640959739685
1772556559898131200,10.303131103515625,0.18860919773578644,-0.8719843626022339,-1.6617473363876343
1772556559908115200,10.313115234375,0.33122971653938293,-0.4278571903705597,-1.0803723335266113
1772556559918099200,10.32309912109375,0.44569340348243713,-0.009079564362764359,-0.3263015151023865
1772556559928084200,10.333084228515625,0.5444415807723999,0.2879020571708679,0.3958015739917755
1772556559938068200,10.343068115234376,0.6060891151428223,0.43513673543930054,0.9178495407104492
1772556559948052200,10.35305224609375,0.613509476184845,0.4948298931121826,1.1988035440444946
1772556559958036200,10.3630361328125,0.5690796971321106,0.5154820084571838,1.2487353086471558
1772556559968020200,10.373020263671876,0.48331180214881897,0.49478715658187866,1.1241865158081055
1772556559978004200,10.383004150390626,0.3639584481716156,0.4216385781764984,0.8801407814025879
1772556559987988200,10.39298828125,0.2209182232618332,0.31524956226348877,0.5729467272758484
1772556559997973200,10.40297314453125,0.04735134541988373,0.17796184122562408,0.26698487997055054
1772556560007957200,10.412957275390625,-0.1376640498638153,0.022046290338039398,-0.01680394634604454
1772556560017941200,10.422941162109375,-0.30626797676086426,-0.11993218958377838,-0.26536163687705994
1772556560027925200,10.43292529296875,-0.42743730545043945,-0.2259901762008667,-0.47018083930015564
1772556560037909200,10.4429091796875,-0.5095911622047424,-0.26579874753952026,-0.6133869886398315
1772556560047893200,10.452893310546875,-0.5814222097396851,-0.2634330689907074,-0.679936945438385
1772556560057877200,10.462877197265625,-0.5958646535873413,-0.26734575629234314,-0.6968168616294861
1772556560067862300,10.4728623046875,-0.5463693141937256,-0.2562864422798157,-0.6639196276664734
1772556560077846300,10.48284619140625,-0.44603511691093445,-0.257199227809906,-0.6022545695304871
1772556560087830300,10.492830322265625,-0.3074846863746643,-0.21688935160636902,-0.48138490319252014
1772556560097814300,10.502814208984375,-0.20807822048664093,-0.2760099172592163,-0.388376921415329
1772556560107798300,10.51279833984375,-0.13722774386405945,-0.33358827233314514,-0.3182801306247711
1772556560117782300,10.5227822265625,-0.07942264527082443,-0.3345707952976227,-0.26277652382850647
1772556560127766000,10.53276611328125,-0.04122491925954819,-0.3125919699668884,-0.23869487643241882
1772556560137751300,10.542751220703124,-0.033252015709877014,-0.28412288427352905,-0.22578155994415283
1772556560147735300,10.5527353515625,-0.03965558856725693,-0.25567153096199036,-0.2020527869462967
1772556560157719000,10.562718994140624,-0.05641862004995346,-0.2188018560409546,-0.16643409430980682
1772556560167703000,10.572703125,-0.055858027189970016,-0.1845802366733551,-0.12755781412124634
1772556560177687300,10.582687255859375,-0.0512763112783432,-0.16697826981544495,-0.09150561690330505
1772556560187671300,10.59267138671875,-0.03482090309262276,-0.15733441710472107,-0.08171690255403519
1772556560197655300,10.6026552734375,-0.013466659933328629,-0.15497484803199768,-0.0983365848660469
1772556560207640000,10.61264013671875,0.004811679013073444,-0.1596985012292862,-0.1356258988380432
1772556560217624000,10.6226240234375,-0.0036766333505511284,-0.18453791737556458,-0.1789551079273224
1772556560227608300,10.6326083984375,-0.05301275849342346,-0.22394123673439026,-0.20169878005981445
1772556560237592300,10.64259228515625,-0.11848171055316925,-0.24501991271972656,-0.17383061349391937
1772556560247576300,10.652576416015625,-0.14524221420288086,-0.22438867390155792,-0.0863279327750206
1772556560257560300,10.662560302734375,-0.1749817281961441,-0.18895679712295532,0.06196816265583038
1772556560267544300,10.67254443359375,-0.2338429093360901,-0.12169361114501953,0.23640653491020203
1772556560277529300,10.682529296875,-0.30986055731773376,-0.04109962657094002,0.3888187110424042
1772556560287513300,10.692513427734376,-0.3864932954311371,0.027278101071715355,0.4851335287094116
1772556560297501200,10.702501220703125,-0.45030444860458374,0.05329147353768349,0.5133424997329712
1772556560307485200,10.712485107421875,-0.4838576316833496,0.03255556896328926,0.48738333582878113
1772556560317469000,10.722468994140625,-0.4801289737224579,-0.015341677702963352,0.4430277943611145
1772556560327453000,10.732452880859375,-0.44116878509521484,-0.03490765392780304,0.4008025527000427
1772556560337437000,10.74243701171875,-0.38222000002861023,0.004656956065446138,0.3786875903606415
1772556560347422000,10.752421875,-0.31314027309417725,0.06753072887659073,0.3668740689754486
1772556560357406000,10.762406005859376,-0.21243984997272491,0.15452629327774048,0.35476869344711304
1772556560367390000,10.772389892578126,-0.09678062796592712,0.2629624903202057,0.33947470784187317
1772556560377374000,10.7823740234375,-0.027475420385599136,0.3586746156215668,0.2978475093841553
1772556560387358000,10.79235791015625,-0.04368235170841217,0.4097180962562561,0.19513924419879913
1772556560397342000,10.802342041015624,-0.11378926783800125,0.3964122533798218,0.03760397061705589
1772556560407326000,10.812325927734374,-0.21853752434253693,0.3081231415271759,-0.18354065716266632
1772556560417311000,10.82231103515625,-0.351531058549881,0.16215412318706512,-0.4711344242095947
1772556560427295000,10.832294921875,-0.4555128216743469,0.005171169526875019,-0.7472056746482849
1772556560437279000,10.842279052734375,-0.5057398080825806,-0.14895160496234894,-0.9612371325492859
1772556560447263000,10.852262939453125,-0.499514102935791,-0.2621612250804901,-1.0889389514923096
1772556560457247000,10.8622470703125,-0.4160650074481964,-0.3158589005470276,-1.0775336027145386
1772556560467231000,10.87223095703125,-0.2732844054698944,-0.35382360219955444,-0.9220303297042847
1772556560477215000,10.882215087890625,-0.08594991266727448,-0.36565858125686646,-0.544042706489563
1772556560487200000,10.892199951171875,0.02654307335615158,-0.23978906869888306,-0.16795480251312256
1772556560497184000,10.90218408203125,0.08059074729681015,-0.13807865977287292,0.181497722864151
1772556560507168000,10.91216796875,0.06714151799678802,-0.011601407080888748,0.4396640360355377
1772556560517152000,10.922152099609375,0.01562354527413845,0.08525766432285309,0.5516443252563477
1772556560527136000,10.932135986328126,-0.053245801478624344,0.153670534491539,0.546146810054779
1772556560537120000,10.9421201171875,-0.1197727769613266,0.2048599272966385,0.4508165419101715
1772556560547104000,10.95210400390625,-0.15812070667743683,0.254751056432724,0.31490209698677063
1772556560557089000,10.962089111328124,-0.17563527822494507,0.2987384796142578,0.17563949525356293
1772556560567073000,10.972072998046874,-0.16164222359657288,0.31214001774787903,0.03225304186344147
1772556560577056800,10.982056884765624,-0.10993653535842896,0.27996179461479187,-0.12300132215023041
1772556560587041000,10.992041015625,-0.03139378875494003,0.18539880216121674,-0.2996634542942047
1772556560597025000,11.00202490234375,0.07506971061229706,0.05164141207933426,-0.4816781282424927
1772556560607009000,11.012009033203125,0.16852617263793945,-0.05870986357331276,-0.6119703054428101
1772556560616993000,11.021992919921875,0.21646544337272644,-0.1317213773727417,-0.6610203981399536
1772556560626978000,11.03197802734375,0.23414644598960876,-0.16370460391044617,-0.6192732453346252
1772556560636962000,11.041962158203125,0.23062898218631744,-0.16931913793087006,-0.5180731415748596
1772556560646946000,11.051946044921875,0.20329588651657104,-0.15857674181461334,-0.3892970383167267
1772556560656930000,11.061929931640625,0.15750738978385925,-0.13348239660263062,-0.2726377844810486
1772556560666914000,11.0719140625,0.10047952830791473,-0.11217337846755981,-0.18865765631198883
1772556560676898000,11.08189794921875,0.04749124497175217,-0.07925151288509369,-0.15063636004924774
1772556560686882000,11.091882080078125,0.0013884651707485318,-0.04813887178897858,-0.15015965700149536
1772556560696866000,11.101865966796876,-0.025580117478966713,-0.04129859432578087,-0.1825851947069168
1772556560706851000,11.11185107421875,-0.02803608402609825,-0.04616498947143555,-0.21810802817344666
1772556560716835000,11.1218349609375,-0.018917474895715714,-0.0593378022313118,-0.24980835616588593
1772556560726819000,11.131819091796874,-0.0031816561240702868,-0.07160086184740067,-0.2567698359489441
1772556560736803000,11.141802978515624,0.02345818281173706,-0.06460209935903549,-0.23346512019634247
1772556560746787000,11.151787109375,0.06077013537287712,-0.03561412915587425,-0.1863418072462082
1772556560756771000,11.16177099609375,0.10009364038705826,0.007019978482276201,-0.1261281818151474
1772556560766755000,11.171755126953125,0.1331344097852707,0.06449446082115173,-0.06825291365385056
1772556560776740000,11.181739990234375,0.1581718772649765,0.10951525717973709,-0.014241339638829231
1772556560786724000,11.19172412109375,0.18570443987846375,0.12684445083141327,0.03962988033890724
1772556560796708000,11.2017080078125,0.21591633558273315,0.13129737973213196,0.11101669818162918
1772556560806691800,11.21169189453125,0.23481732606887817,0.16892971098423004,0.20455916225910187
1772556560816675800,11.22167578125,0.24908104538917542,0.23459437489509583,0.3238893747329712
1772556560826659800,11.231659912109375,0.2600844204425812,0.29872941970825195,0.4257901608943939
1772556560836643800,11.241643798828125,0.2609705924987793,0.36542707681655884,0.4868268668651581
1772556560846628900,11.25162890625,0.2582640051841736,0.42734795808792114,0.5054607391357422
1772556560856612900,11.26161279296875,0.25555410981178284,0.4763072729110718,0.4749532639980316
1772556560866596900,11.271596923828126,0.25582706928253174,0.5126529932022095,0.42676177620887756
1772556560876580900,11.281580810546876,0.23695488274097443,0.49872589111328125,0.3592817187309265
1772556560886564900,11.29156494140625,0.19818058609962463,0.4161636531352997,0.2947924733161926
1772556560896548900,11.301548828125,0.1383851319551468,0.27251455187797546,0.22686879336833954
1772556560906533000,11.311533203125,0.05601035803556442,0.09450085461139679,0.1356848180294037
1772556560916518000,11.321517822265625,-0.0363394170999527,-0.06567417085170746,0.01598980277776718
1772556560926502000,11.331501953125,-0.11197399348020554,-0.14915628731250763,-0.09388529509305954
1772556560936486000,11.34148583984375,-0.15112265944480896,-0.16100405156612396,-0.16535700857639313
1772556560946470100,11.35147021484375,-0.13613012433052063,-0.12214692682027817,-0.14925101399421692
1772556560956454100,11.3614541015625,-0.07246731221675873,-0.006423668935894966,-0.026563096791505814
1772556560966438100,11.371438232421875,0.04357220605015755,0.16846105456352234,0.1793099045753479
1772556560976422100,11.381422119140625,0.18218360841274261,0.3269910514354706,0.394751638174057
1772556560986407200,11.3914072265625,0.29043179750442505,0.3603317141532898,0.5154852271080017
1772556560996391200,11.40139111328125,0.3758617043495178,0.3101130425930023,0.5087190270423889
1772556561006375200,11.411375244140626,0.4419110417366028,0.20427262783050537,0.36167290806770325
1772556561016359200,11.421359130859376,0.4563508927822113,0.03581527993083,0.08314479142427444
1772556561026343200,11.43134326171875,0.4248470067977905,-0.19228686392307281,-0.3099447190761566
1772556561036327000,11.441326904296876,0.3448342978954315,-0.42376574873924255,-0.7174663543701172
1772556561046311000,11.451310791015626,0.2598932981491089,-0.6577976942062378,-1.0378552675247192
1772556561056295000,11.461294921875,0.22201497852802277,-0.7605662941932678,-1.1542326211929321
1772556561066280000,11.471280029296874,0.25335609912872314,-0.6697935461997986,-1.033947467803955
1772556561076264000,11.481263916015624,0.32088908553123474,-0.43465983867645264,-0.7025865912437439
1772556561086248000,11.491248046875,0.4027766287326813,-0.1904294341802597,-0.16676633059978485
1772556561096232000,11.50123193359375,0.44917815923690796,0.11216802895069122,0.2911984622478485
1772556561106216000,11.5112158203125,0.4649994671344757,0.26084062457084656,0.6026333570480347
1772556561116200000,11.521199951171875,0.43130701780319214,0.33365398645401,0.7278939485549927
1772556561126184000,11.531183837890625,0.3523640036582947,0.362648069858551,0.6865736246109009
1772556561136169000,11.5411689453125,0.24794089794158936,0.37748587131500244,0.5352413654327393
1772556561146153000,11.551153076171875,0.11651816964149475,0.32653722167015076,0.3171367347240448
1772556561156137000,11.561136962890625,-0.030970942229032516,0.23209244012832642,0.08296030014753342
1772556561166121000,11.571120849609375,-0.17310652136802673,0.12424294650554657,-0.12174145132303238
1772556561176105000,11.58110498046875,-0.26514092087745667,0.054756756871938705,-0.2691228687763214
1772556561186089000,11.5910888671875,-0.31627413630485535,0.04090273007750511,-0.34380269050598145
1772556561196073000,11.601072998046876,-0.3330710530281067,0.07174661010503769,-0.36209937930107117
1772556561206057000,11.611056884765626,-0.3156939148902893,0.12557920813560486,-0.34566235542297363
1772556561216042000,11.6210419921875,-0.2660795748233795,0.17813077569007874,-0.28954121470451355
1772556561226026000,11.63102587890625,-0.19691701233386993,0.21563127636909485,-0.2150382548570633
1772556561236010000,11.641010009765624,-0.09702551364898682,0.22713901102542877,-0.1348373293876648
1772556561245994000,11.650993896484374,0.00931424181908369,0.2082284390926361,-0.0558202750980854
1772556561255978000,11.66097802734375,0.11847662925720215,0.1840725541114807,0.014197340235114098
1772556561265962000,11.6709619140625,0.19197428226470947,0.14586152136325836,0.08433062583208084
1772556561275946000,11.680946044921875,0.22812221944332123,0.09461665898561478,0.1578400731086731
1772556561285931000,11.690930908203125,0.23964279890060425,0.040937189012765884,0.21033364534378052
1772556561295911200,11.7009111328125,0.2121221274137497,0.011491893790662289,0.24484506249427795
1772556561305895200,11.710895263671874,0.14273932576179504,-0.0004915319150313735,0.25293707847595215
1772556561315879200,11.720879150390624,0.0484042726457119,0.0003051050007343292,0.25147897005081177
1772556561325863200,11.73086328125,-0.06018718332052231,0.011187314055860043,0.23069539666175842
1772556561335847200,11.74084716796875,-0.18511450290679932,0.017156342044472694,0.20682384073734283
1772556561345831200,11.7508310546875,-0.31003859639167786,0.02591441385447979,0.17283684015274048
1772556561355816200,11.760816162109375,-0.41677889227867126,0.035910822451114655,0.13468247652053833
1772556561365800200,11.77080029296875,-0.5097424387931824,0.044412966817617416,0.1247563436627388
1772556561375784200,11.7807841796875,-0.5764080882072449,0.02991694211959839,0.14719146490097046
1772556561385768200,11.790768310546875,-0.6222445368766785,-0.0027336799539625645,0.19806690514087677
1772556561395752200,11.800752197265625,-0.653380811214447,-0.04672188684344292,0.2717953622341156
1772556561405736200,11.810736083984375,-0.666313648223877,-0.10018191486597061,0.3433891236782074
1772556561415720200,11.82072021484375,-0.6726474761962891,-0.13660860061645508,0.3909032344818115
1772556561425704200,11.8307041015625,-0.6856684684753418,-0.15734423696994781,0.4142463505268097
1772556561435689200,11.840689208984376,-0.7008222341537476,-0.17018398642539978,0.40532293915748596
1772556561445673200,11.850673095703126,-0.721409797668457,-0.1881486028432846,0.37640446424484253
1772556561455657200,11.8606572265625,-0.7378689050674438,-0.2228570282459259,0.3282102048397064
1772556561465641200,11.87064111328125,-0.7413091659545898,-0.2522854804992676,0.26487091183662415
1772556561475625200,11.880625244140624,-0.7264201641082764,-0.2771323323249817,0.194917693734169
1772556561485609000,11.89060888671875,-0.6843941807746887,-0.2915743887424469,0.12492582947015762
1772556561495593000,11.900593017578124,-0.6187941431999207,-0.28349366784095764,0.061265021562576294
1772556561505578200,11.910578125,-0.5362212657928467,-0.24704217910766602,0.0006711827591061592
1772556561515562000,11.92056201171875,-0.42074692249298096,-0.1787969470024109,-0.03302651643753052
1772556561525546000,11.9305458984375,-0.33130332827568054,-0.10364066809415817,-0.04417770355939865
1772556561535530000,11.940530029296875,-0.2868116796016693,-0.07292208820581436,-0.05865756794810295
1772556561545514000,11.950513916015625,-0.2907089293003082,-0.05357768386602402,-0.0588274784386158
1772556561555498200,11.960498291015625,-0.3120303452014923,-0.07669249922037125,-0.0713750496506691
1772556561565482200,11.970482177734375,-0.35667717456817627,-0.13365140557289124,-0.1469092071056366
1772556561575466200,11.98046630859375,-0.4209587275981903,-0.217416450381279,-0.28603047132492065
1772556561585451000,11.990450927734376,-0.496482253074646,-0.30572739243507385,-0.44966867566108704
1772556561595434200,12.000434326171876,-0.5346622467041016,-0.3593386709690094,-0.5785124897956848
1772556561605418200,12.010418212890626,-0.5103349089622498,-0.3589135706424713,-0.6262103319168091
1772556561615402200,12.02040234375,-0.42608311772346497,-0.31455010175704956,-0.567855954170227
1772556561625386200,12.03038623046875,-0.29935339093208313,-0.2538588047027588,-0.43375498056411743
1772556561635370200,12.040370361328126,-0.17673321068286896,-0.18011216819286346,-0.23672530055046082
1772556561645354200,12.050354248046874,-0.09536758065223694,-0.13907860219478607,-0.06321123242378235
1772556561655338000,12.060337890625,-0.06031239032745361,-0.11132341623306274,0.07672243565320969
1772556561665323300,12.0703232421875,-0.06472603976726532,-0.09512218832969666,0.1491444706916809
1772556561675307300,12.080307373046875,-0.09945765137672424,-0.0678602084517479,0.18484146893024445
1772556561685291000,12.090291015625,-0.1403818577528,-0.011090646497905254,0.21395239233970642
1772556561695275000,12.10027490234375,-0.1841522455215454,0.06987743824720383,0.2385336309671402
1772556561705259000,12.110259033203125,-0.2212715595960617,0.16501891613006592,0.24951912462711334
1772556561715243000,12.120242919921875,-0.23028981685638428,0.2469441443681717,0.22118869423866272
1772556561725227000,12.13022705078125,-0.21454285085201263,0.31504860520362854,0.1429220736026764
1772556561735212000,12.1402119140625,-0.1756891906261444,0.3401116132736206,0.015217368490993977
1772556561745196000,12.150196044921875,-0.11886612325906754,0.3130652606487274,-0.14164504408836365
1772556561755180000,12.160179931640625,-0.04409601539373398,0.24540260434150696,-0.315858393907547
1772556561765164000,12.1701640625,0.01248390693217516,0.13477809727191925,-0.46867191791534424
1772556561775148000,12.18014794921875,0.052991919219493866,-0.0004636240191757679,-0.5626013278961182
1772556561785132300,12.19013232421875,0.07072380930185318,-0.14200787246227264,-0.592624843120575
1772556561795116300,12.2001162109375,0.08379033952951431,-0.28522762656211853,-0.5533390045166016
1772556561805100300,12.210100341796876,0.07818488776683807,-0.4022851884365082,-0.46840575337409973
1772556561815085000,12.2200849609375,0.06467759609222412,-0.4937647581100464,-0.3562605679035187
1772556561825069300,12.2300693359375,0.044460419565439224,-0.5576446652412415,-0.23453058302402496
1772556561835053300,12.24005322265625,0.03659770265221596,-0.5855208039283752,-0.12139338254928589
1772556561845037300,12.250037353515625,0.041016869246959686,-0.5722240209579468,-0.05063115805387497
1772556561855021300,12.260021240234375,0.06549663841724396,-0.5208207964897156,-0.01886204443871975
1772556561865005300,12.27000537109375,0.0965922400355339,-0.4440033435821533,-0.02101360633969307
1772556561874989300,12.2799892578125,0.13618625700473785,-0.36568695306777954,-0.04376419261097908
1772556561884973000,12.28997314453125,0.1657484620809555,-0.288116991519928,-0.072493776679039
1772556561894958300,12.299958251953125,0.18798398971557617,-0.22168123722076416,-0.08679814636707306
1772556561904942300,12.3099423828125,0.19888877868652344,-0.16068030893802643,-0.09468516707420349
1772556561914926000,12.319926025390625,0.19121940433979034,-0.11180490255355835,-0.1009550467133522
1772556561924910000,12.32991015625,0.17217150330543518,-0.06922794133424759,-0.08890855312347412
1772556561934894000,12.33989404296875,0.15115703642368317,-0.035798344761133194,-0.0704595074057579
1772556561944878000,12.349878173828126,0.1342640072107315,0.0034014969132840633,-0.03725166618824005
1772556561954862000,12.359862060546876,0.1345505714416504,0.04124954342842102,0.010149671696126461
1772556561964847000,12.36984716796875,0.1604118049144745,0.09427811950445175,0.08458536118268967
