time,seconds_elapsed,z,y,x
1772556549666928400,0.071928466796875,0.13667263090610504,0.2067963182926178,0.4125305712223053
1772556549676912400,0.081912353515625,0.12760776281356812,0.07131759077310562,0.5900561213493347
1772556549686896400,0.091896484375,0.10643323510885239,-0.013978400267660618,0.7463098764419556
1772556549696880400,0.10188037109375,0.04970923438668251,-0.062136873602867126,0.8486490249633789
1772556549706865400,0.111865478515625,-0.02756238542497158,-0.08081389218568802,0.8820980787277222
1772556549716849400,0.121849365234375,-0.12048567086458206,-0.07971373945474625,0.8269818425178528
1772556549726833400,0.13183349609375,-0.23634248971939087,-0.0561857745051384,0.7224791049957275
1772556549736817400,0.1418173828125,-0.352628618478775,-0.02497059665620327,0.6060736775398254
1772556549746801200,0.15180126953125,-0.43157511949539185,0.013874536380171776,0.5073614716529846
1772556549756785200,0.16178515625,-0.4565747380256653,0.04078338295221329,0.43191438913345337
1772556549766769200,0.17176904296875,-0.4383014440536499,0.038841672241687775,0.3726026117801666
1772556549776753200,0.181753173828125,-0.394544392824173,0.02696583792567253,0.3230568766593933
1772556549786737200,0.191737060546875,-0.33514124155044556,0.006385195069015026,0.250642329454422
1772556549796721200,0.20172119140625,-0.2445109486579895,-0.05563929304480553,0.17855297029018402
1772556549806705200,0.211705078125,-0.15559811890125275,-0.07469980418682098,0.14692020416259766
1772556549816689200,0.221689208984375,-0.08365388214588165,-0.040826525539159775,0.1387685388326645
1772556549826673200,0.231673095703125,-0.0695849359035492,-0.027461452409625053,0.14138109982013702
1772556549836657400,0.241657470703125,-0.14314889907836914,-0.07666654884815216,0.1310427039861679
1772556549846641400,0.251641357421875,-0.23802348971366882,-0.06033844128251076,0.08744063228368759
1772556549856625400,0.26162548828125,-0.24791206419467926,0.02629418857395649,0.02684439718723297
1772556549866609400,0.271609375,-0.2318745106458664,0.14801716804504395,-0.0240803025662899
1772556549876593400,0.281593505859375,-0.2079888880252838,0.24230025708675385,-0.09331370145082474
1772556549886577400,0.291577392578125,-0.19120697677135468,0.2898336946964264,-0.18544602394104004
1772556549896561200,0.30156103515625,-0.1529887467622757,0.29198896884918213,-0.29731449484825134
1772556549906545200,0.311545166015625,-0.11180642247200012,0.265323281288147,-0.40255942940711975
1772556549916529200,0.321529052734375,-0.06637529283761978,0.18275250494480133,-0.46216151118278503
1772556549926513200,0.33151318359375,0.002686596941202879,0.0814242884516716,-0.45113521814346313
1772556549936497200,0.3414970703125,0.04617681726813316,-0.079134501516819,-0.26684901118278503
1772556549946481200,0.351481201171875,0.054607849568128586,-0.2739521861076355,0.0470426082611084
1772556549956465200,0.361465087890625,0.0421258807182312,-0.4191589057445526,0.3278750777244568
1772556549966449200,0.37144921875,0.005082909017801285,-0.4891108274459839,0.5101186633110046
1772556549976433200,0.38143310546875,-0.04868284985423088,-0.4800739288330078,0.5867018699645996
1772556549986417400,0.39141748046875,-0.11587467044591904,-0.40369901061058044,0.5743575692176819
1772556549996402200,0.401402099609375,-0.1870601624250412,-0.2609434425830841,0.4878482222557068
1772556550006386200,0.41138623046875,-0.2457602322101593,-0.08513113856315613,0.35440656542778015
1772556550016370200,0.4213701171875,-0.2792007327079773,0.08680147677659988,0.1770826280117035
1772556550026354400,0.4313544921875,-0.28730902075767517,0.2687765955924988,-0.021228322759270668
1772556550036338400,0.44133837890625,-0.26519492268562317,0.43395277857780457,-0.23644661903381348
1772556550046322400,0.451322509765625,-0.2210780531167984,0.5699015259742737,-0.46161022782325745
1772556550056306400,0.461306396484375,-0.15441620349884033,0.6803995966911316,-0.6646221876144409
1772556550066290200,0.471290283203125,-0.06222129613161087,0.7542567253112793,-0.8364469408988953
1772556550076274200,0.481274169921875,0.05259769782423973,0.7781440019607544,-0.9612631797790527
1772556550086258200,0.491258056640625,0.1607944816350937,0.746360719203949,-1.0176454782485962
1772556550096242200,0.5012421875,0.28048253059387207,0.6648454070091248,-0.99888676404953
1772556550106226200,0.51122607421875,0.3826152980327606,0.5707500576972961,-0.9183852076530457
1772556550116210200,0.521210205078125,0.4480739235877991,0.4772259593009949,-0.7952278852462769
1772556550126194200,0.531194091796875,0.4626272916793823,0.3687133193016052,-0.656768798828125
1772556550136178200,0.54117822265625,0.45166653394699097,0.2871319055557251,-0.5272939205169678
1772556550146162200,0.551162109375,0.4067531228065491,0.243783101439476,-0.42793217301368713
1772556550156146200,0.561146240234375,0.3363330066204071,0.23710016906261444,-0.3725338876247406
1772556550166130400,0.57113037109375,0.2698003351688385,0.26144546270370483,-0.391970157623291
1772556550176114400,0.581114501953125,0.1950800120830536,0.34528788924217224,-0.4668310880661011
1772556550186098400,0.591098388671875,0.13168293237686157,0.43253809213638306,-0.5267894864082336
1772556550196082400,0.60108251953125,0.11312628537416458,0.5231481790542603,-0.5943989157676697
1772556550206066200,0.611066162109375,0.09887571632862091,0.6061375737190247,-0.6452101469039917
1772556550216050200,0.62105029296875,0.0786689817905426,0.6760982871055603,-0.6702001690864563
1772556550226034200,0.6310341796875,0.06192754954099655,0.7571223378181458,-0.6796637177467346
1772556550236018200,0.64101806640625,0.04459330067038536,0.8737652897834778,-0.690610945224762
1772556550246002200,0.651002197265625,0.07425691932439804,0.9524587988853455,-0.6956509351730347
1772556550255986200,0.660986083984375,0.10712352395057678,0.9711486101150513,-0.6408593654632568
1772556550265971200,0.67097119140625,0.12563861906528473,0.9304088950157166,-0.5317389965057373
1772556550275955200,0.680955078125,0.13625504076480865,0.8584406971931458,-0.358870267868042
1772556550285942000,0.69094189453125,0.15767191350460052,0.7906190156936646,-0.1392601579427719
1772556550295926000,0.700926025390625,0.19088339805603027,0.7244160175323486,0.07984209805727005
1772556550305910000,0.710909912109375,0.22724007070064545,0.647275447845459,0.26054397225379944
1772556550315894000,0.72089404296875,0.24576902389526367,0.6107525825500488,0.36458754539489746
1772556550325878000,0.7308779296875,0.2496657520532608,0.5317317843437195,0.4192260205745697
1772556550335862300,0.7408623046875,0.23505565524101257,0.4329918920993805,0.43594855070114136
1772556550345846300,0.75084619140625,0.23859792947769165,0.3247109651565552,0.41278383135795593
1772556550355830300,0.760830322265625,0.24347656965255737,0.24073857069015503,0.3490796983242035
1772556550365814300,0.770814208984375,0.2354162484407425,0.1466648131608963,0.27691441774368286
1772556550375798300,0.78079833984375,0.19215638935565948,0.08438332378864288,0.1949215531349182
1772556550385782300,0.7907822265625,0.15799708664417267,0.02642681449651718,0.122255340218544
1772556550395766000,0.80076611328125,0.15469583868980408,0.006168147549033165,0.03578835725784302
1772556550405750000,0.81075,0.10514985769987106,0.09862803667783737,0.017404822632670403
1772556550415734000,0.820734130859375,0.11696470528841019,0.2284558117389679,0.03519953414797783
1772556550425718000,0.830718017578125,0.15724660456180573,0.29550862312316895,0.04255891218781471
1772556550435702000,0.840701904296875,0.16757355630397797,0.387971431016922,0.03274250030517578
1772556550445686000,0.85068603515625,0.18869321048259735,0.47504428029060364,-0.06276964396238327
1772556550455670000,0.860669921875,0.24104563891887665,0.492465615272522,-0.17296218872070312
1772556550465654000,0.870654052734375,0.2718653380870819,0.3617510199546814,-0.3220078647136688
1772556550475638300,0.88063818359375,0.2717769145965576,0.06933726370334625,-0.5621150135993958
1772556550485622300,0.890622314453125,0.15853211283683777,-0.23684662580490112,-0.7882741093635559
1772556550495606300,0.900606201171875,0.022053636610507965,-0.5020700693130493,-0.984924852848053
1772556550505590300,0.91059033203125,-0.06488365679979324,-0.7049592137336731,-1.0649977922439575
1772556550515574300,0.92057421875,-0.13585902750492096,-0.7258738279342651,-0.9308879971504211
1772556550525558300,0.930558349609375,-0.19832800328731537,-0.5155424475669861,-0.6427640318870544
1772556550535543300,0.940543212890625,-0.2138044238090515,-0.17155736684799194,-0.245594322681427
1772556550545527300,0.95052734375,-0.14564694464206696,0.20325805246829987,0.14504002034664154
1772556550555511300,0.96051123046875,-0.042282477021217346,0.46567848324775696,0.4468768239021301
1772556550565495000,0.9704951171875,0.04529903829097748,0.6156597137451172,0.6272929310798645
1772556550575479000,0.98047900390625,0.08891868591308594,0.7155543565750122,0.7027221918106079
1772556550585463000,0.990463134765625,0.10096496343612671,0.7878900766372681,0.690466582775116
1772556550595447000,1.000447021484375,0.09380345791578293,0.8295259475708008,0.5988349318504333
1772556550605431000,1.01043115234375,0.0550701767206192,0.8344975113868713,0.45778408646583557
1772556550615415000,1.0204150390625,-0.008903746493160725,0.8279935717582703,0.3057090640068054
1772556550625399000,1.03039892578125,-0.09902218729257584,0.774441659450531,0.16727314889431
1772556550635383000,1.040383056640625,-0.20873430371284485,0.6872375011444092,0.032049279659986496
1772556550645367000,1.050366943359375,-0.3142167925834656,0.527952253818512,-0.06840328872203827
1772556550655351000,1.06035107421875,-0.4056644141674042,0.3841679096221924,-0.16228798031806946
1772556550665335300,1.070335205078125,-0.46928706765174866,0.3005712926387787,-0.2687712609767914
1772556550675319300,1.0803193359375,-0.548866331577301,0.2458726167678833,-0.3499247133731842
1772556550685303300,1.09030322265625,-0.6351239681243896,0.21119186282157898,-0.4389302134513855
1772556550695287300,1.100287353515625,-0.6778551936149597,0.23959554731845856,-0.5250070691108704
1772556550705271000,1.11027099609375,-0.6681026816368103,0.36254358291625977,-0.5710597634315491
1772556550715255000,1.120255126953125,-0.5687295198440552,0.4644792675971985,-0.5998514890670776
1772556550725239000,1.130239013671875,-0.3866923153400421,0.5035856366157532,-0.6024179458618164
1772556550735223000,1.14022314453125,-0.19484831392765045,0.4906695783138275,-0.560749888420105
1772556550745207000,1.15020703125,0.03317340090870857,0.4066532552242279,-0.4865446090698242
1772556550755191000,1.16019091796875,0.23627617955207825,0.26650145649909973,-0.3640538454055786
1772556550765176000,1.170176025390625,0.3640570342540741,0.0941304937005043,-0.18021264672279358
1772556550775160000,1.18016015625,0.4243563413619995,-0.053589459508657455,0.036070387810468674
1772556550785144000,1.19014404296875,0.4445641338825226,-0.18213757872581482,0.22274945676326752
1772556550795128000,1.200128173828125,0.46155086159706116,-0.3332812786102295,0.3538379669189453
1772556550805112000,1.210112060546875,0.4963032305240631,-0.5018532872200012,0.39477235078811646
1772556550815096000,1.220095947265625,0.5536807775497437,-0.6448525190353394,0.35801807045936584
1772556550825080000,1.230080078125,0.603117823600769,-0.7023956775665283,0.30609333515167236
1772556550835064000,1.24006396484375,0.6342706680297852,-0.7612177133560181,0.2769205570220947
1772556550845048000,1.250048095703125,0.6755542159080505,-0.7809874415397644,0.24237722158432007
1772556550855032300,1.2600322265625,0.6984246373176575,-0.7637320160865784,0.24271570146083832
1772556550865016300,1.270016357421875,0.6783960461616516,-0.7363643050193787,0.2679459750652313
1772556550875000300,1.280000244140625,0.5800953507423401,-0.6787098050117493,0.3123003840446472
1772556550884984000,1.289984130859375,0.37187129259109497,-0.5275461077690125,0.3845692574977875
1772556550894968000,1.299968017578125,0.15187954902648926,-0.3030775785446167,0.41664010286331177
1772556550904952000,1.3099521484375,-0.004515123087912798,-0.21568621695041656,0.4353349506855011
1772556550914936000,1.31993603515625,-0.09466499090194702,-0.2981853485107422,0.472027450799942
1772556550924920000,1.329920166015625,-0.13747823238372803,-0.4318384826183319,0.5161256790161133
1772556550934904000,1.339904052734375,-0.19140377640724182,-0.5215153694152832,0.5425589084625244
1772556550944888000,1.34988818359375,-0.25790050625801086,-0.5167933106422424,0.5187938809394836
1772556550954872000,1.3598720703125,-0.3329726457595825,-0.4346412122249603,0.43257832527160645
1772556550964856000,1.36985595703125,-0.40217965841293335,-0.31749460101127625,0.30742520093917847
1772556550974840000,1.379840087890625,-0.45870447158813477,-0.20128144323825836,0.17849677801132202
1772556550984824000,1.389823974609375,-0.4631436765193939,-0.09570734947919846,0.07842743396759033
1772556550994809000,1.39980908203125,-0.4319407641887665,-0.025353826582431793,0.021448301151394844
1772556551004793000,1.40979296875,-0.36570608615875244,0.032348085194826126,-0.0070555126294493675
1772556551014777000,1.419777099609375,-0.2683345079421997,0.09201168268918991,0.013463078066706657
1772556551024761000,1.429760986328125,-0.16581346094608307,0.10070876777172089,0.07053568214178085
1772556551034745300,1.439745361328125,-0.1186819076538086,0.03211825340986252,0.14561711251735687
1772556551044729300,1.449729248046875,-0.08585605025291443,-0.09355764836072922,0.22875754535198212
1772556551054713000,1.459713134765625,-0.023431822657585144,-0.22509197890758514,0.29252612590789795
1772556551064697000,1.469697021484375,0.04910442978143692,-0.3419267237186432,0.31910502910614014
1772556551074681000,1.47968115234375,0.0464138388633728,-0.42281755805015564,0.2578935921192169
1772556551084665000,1.4896650390625,-0.01846502721309662,-0.46898266673088074,0.1568458080291748
1772556551094649000,1.499649169921875,-0.07719891518354416,-0.49694105982780457,0.012388226576149464
1772556551104633000,1.509633056640625,-0.07440099865198135,-0.5493044257164001,-0.11089295893907547
1772556551114617000,1.5196171875,0.003507116809487343,-0.6109528541564941,-0.16289544105529785
1772556551124601000,1.52960107421875,0.0691889226436615,-0.6727008819580078,-0.11494070291519165
1772556551134585000,1.539585205078125,0.09758035093545914,-0.663119912147522,0.03208602964878082
1772556551144569000,1.549569091796875,0.09149955958127975,-0.5961693525314331,0.22160935401916504
1772556551154553000,1.559552978515625,0.11857032030820847,-0.5694541335105896,0.39928188920021057
1772556551164537000,1.569537109375,0.1363099068403244,-0.5481190085411072,0.5361659526824951
1772556551174521000,1.57952099609375,0.13389015197753906,-0.4842529594898224,0.6255107522010803
1772556551184505300,1.58950537109375,0.1079898476600647,-0.36334943771362305,0.6698193550109863
1772556551194490000,1.599489990234375,0.051486361771821976,-0.20898064970970154,0.6354691386222839
1772556551204474000,1.60947412109375,-0.02370399795472622,-0.06030302122235298,0.5589032173156738
1772556551214458000,1.6194580078125,-0.050767041742801666,0.05794931948184967,0.44421207904815674
1772556551224442400,1.6294423828125,-0.10402147471904755,0.2184377908706665,0.20822857320308685
1772556551234426000,1.639426025390625,-0.13681483268737793,0.36836525797843933,-0.055140215903520584
1772556551244410000,1.64941015625,-0.13754189014434814,0.4682992994785309,-0.30416974425315857
1772556551254394000,1.65939404296875,-0.11553458869457245,0.5101956129074097,-0.5367036461830139
1772556551264378000,1.669378173828125,-0.08100084215402603,0.5141964554786682,-0.7327929735183716
1772556551274362000,1.679362060546875,-0.034820299595594406,0.4391975998878479,-0.8537425994873047
1772556551284343300,1.68934326171875,-0.01245267502963543,0.38529202342033386,-0.9253019690513611
1772556551294327000,1.6993271484375,0.016802681609988213,0.2694639563560486,-0.9112722277641296
1772556551304311000,1.70931103515625,0.08192016929388046,0.1392897218465805,-0.8146122097969055
1772556551314295000,1.719294921875,0.18382416665554047,-0.02214098908007145,-0.6650586724281311
1772556551324279000,1.729279052734375,0.3010658323764801,-0.16468162834644318,-0.46409258246421814
1772556551334263000,1.739262939453125,0.4276576042175293,-0.2563694715499878,-0.2654825448989868
1772556551344247000,1.7492470703125,0.4911431074142456,-0.29492032527923584,-0.1415472775697708
1772556551354231000,1.75923095703125,0.521669328212738,-0.3057524561882019,-0.08846115320920944
1772556551364215000,1.769215087890625,0.5221063494682312,-0.29827749729156494,-0.0915384367108345
1772556551374199000,1.779198974609375,0.4855014681816101,-0.2626419961452484,-0.1607806235551834
1772556551384184000,1.78918408203125,0.4373299181461334,-0.20781098306179047,-0.2679249346256256
1772556551394168000,1.79916796875,0.39472654461860657,-0.12275707721710205,-0.3905869126319885
1772556551404152000,1.809152099609375,0.360993355512619,-0.03368020057678223,-0.4941974878311157
1772556551414136000,1.819135986328125,0.3339417576789856,0.023187877610325813,-0.5648127794265747
1772556551424120000,1.8291201171875,0.33457425236701965,0.03369910642504692,-0.5773866176605225
1772556551434104300,1.839104248046875,0.3522067666053772,0.023735955357551575,-0.3298862874507904
1772556551444088300,1.84908837890625,0.3024458885192871,-0.019289009273052216,-0.22410926222801208
1772556551454072300,1.859072265625,0.23641200363636017,0.08515270799398422,-0.21603375673294067
1772556551464056000,1.86905615234375,0.21706387400627136,0.07109761238098145,-0.18813608586788177
1772556551474040000,1.8790400390625,0.19945211708545685,-0.0018168084789067507,-0.049309760332107544
1772556551484024000,1.889024169921875,0.17278748750686646,-0.017737451940774918,0.09194084256887436
1772556551494008000,1.899008056640625,0.17150011658668518,0.026627084240317345,0.16615062952041626
1772556551503992000,1.908991943359375,0.1767854243516922,0.061160825192928314,0.21876244246959686
1772556551513976000,1.91897607421875,0.16099661588668823,0.06496275216341019,0.25629302859306335
1772556551523960000,1.9289599609375,0.15400448441505432,0.052856821566820145,0.28291797637939453
1772556551533944000,1.938944091796875,0.14863847196102142,0.024702949449419975,0.28466421365737915
1772556551543928000,1.948927978515625,0.1322597712278366,-0.022183865308761597,0.2690218687057495
1772556551553912000,1.958912109375,0.09269504994153976,-0.08513673394918442,0.20737342536449432
1772556551563897000,1.96889697265625,0.0481259822845459,-0.15057432651519775,0.11321550607681274
1772556551573881000,1.978881103515625,-0.0033726270776242018,-0.22073210775852203,0.009894176386296749
1772556551583865000,1.988864990234375,-0.06048624590039253,-0.2930334806442261,-0.06022951751947403
1772556551593849000,1.99884912109375,-0.10127175599336624,-0.350493848323822,-0.07176979631185532
1772556551603833000,2.0088330078125,-0.11952586472034454,-0.3694411516189575,-0.0010434264549985528
1772556551613817000,2.018817138671875,-0.08828938007354736,-0.34390756487846375,0.14629383385181427
1772556551623801300,2.02880126953125,-0.0030453247018158436,-0.26552435755729675,0.37103161215782166
1772556551633785000,2.03878515625,0.08659614622592926,-0.18056125938892365,0.597520649433136
1772556551643769000,2.04876904296875,0.1437651515007019,-0.17332278192043304,0.7093020677566528
1772556551653753000,2.058753173828125,0.1955615133047104,-0.23631294071674347,0.6892575025558472
1772556551663737000,2.068737060546875,0.23171259462833405,-0.36238858103752136,0.551487147808075
1772556551673721000,2.07872119140625,0.22635456919670105,-0.5122907161712646,0.3252313435077667
1772556551683705000,2.088705078125,0.19379423558712006,-0.6525508761405945,0.10239215195178986
1772556551693689000,2.098689208984375,0.1264125257730484,-0.7821983695030212,-0.06905843317508698
1772556551703673000,2.108673095703125,0.04139804095029831,-0.8814706206321716,-0.1646675169467926
1772556551713657000,2.118656982421875,-0.04573952406644821,-0.935383141040802,-0.18756777048110962
1772556551723641000,2.12864111328125,-0.10139825940132141,-0.913567066192627,-0.15022651851177216
1772556551733626000,2.138626220703125,-0.12934386730194092,-0.7828662991523743,-0.04580530524253845
1772556551743610000,2.148610107421875,-0.14758066833019257,-0.5356823205947876,0.12293471395969391
1772556551753594000,2.158593994140625,-0.14232279360294342,-0.2270219624042511,0.3212187588214874
1772556551763578000,2.168578125,-0.10487768054008484,0.05630375072360039,0.5054687857627869
1772556551773562000,2.17856201171875,-0.060378123074769974,0.23911137878894806,0.619996964931488
1772556551783546000,2.188546142578125,-0.020681044086813927,0.3355202078819275,0.6696246862411499
1772556551793530000,2.198530029296875,-0.006896788254380226,0.3809167146682739,0.6525695323944092
1772556551803514400,2.208514404296875,-0.012657738290727139,0.36285489797592163,0.5713170170783997
1772556551813498000,2.218498046875,-0.02996775321662426,0.28137627243995667,0.44173985719680786
1772556551823482000,2.228482177734375,-0.05500119924545288,0.16681908071041107,0.2733362019062042
1772556551833466000,2.238466064453125,-0.09393768012523651,0.04626389965415001,0.08994879573583603
1772556551843450000,2.2484501953125,-0.13423530757427216,-0.061407167464494705,-0.08726300299167633
1772556551853434000,2.25843408203125,-0.15922534465789795,-0.13136760890483856,-0.2508002519607544
1772556551863418000,2.268418212890625,-0.1725190430879593,-0.16719645261764526,-0.379073828458786
1772556551873402000,2.278402099609375,-0.1768658459186554,-0.18249763548374176,-0.4748362898826599
1772556551883386000,2.28838623046875,-0.16189968585968018,-0.18042516708374023,-0.5195398330688477
1772556551893371100,2.29837109375,-0.1354270726442337,-0.17258881032466888,-0.517792284488678
1772556551903355100,2.308355224609375,-0.0913940966129303,-0.1671823263168335,-0.4770991802215576
1772556551913339100,2.318339111328125,-0.033727072179317474,-0.164023295044899,-0.404440701007843
1772556551923323100,2.3283232421875,0.025237446650862694,-0.17409563064575195,-0.30524885654449463
1772556551933307100,2.33830712890625,0.07915180921554565,-0.19155985116958618,-0.22040507197380066
1772556551943291100,2.348291015625,0.11926461011171341,-0.21437861025333405,-0.1602807492017746
1772556551953275100,2.358275146484375,0.1409888118505478,-0.22566695511341095,-0.11943371593952179
1772556551963259100,2.368259033203125,0.14473694562911987,-0.24172554910182953,-0.11137606203556061
1772556551973243100,2.3782431640625,0.14049479365348816,-0.2593833804130554,-0.12000896036624908
1772556551983227100,2.38822705078125,0.11921080946922302,-0.27966493368148804,-0.1418045312166214
1772556551993211100,2.398211181640625,0.08920950442552567,-0.3006056249141693,-0.17895136773586273
1772556552003195100,2.408195068359375,0.054309576749801636,-0.3128577768802643,-0.22471460700035095
1772556552013179100,2.41817919921875,0.01822667382657528,-0.32272106409072876,-0.28189507126808167
1772556552023163100,2.4281630859375,-0.009860619902610779,-0.3271480202674866,-0.34730443358421326
1772556552033147100,2.438147216796875,-0.027997013181447983,-0.3341215252876282,-0.4013274610042572
1772556552043132200,2.448132080078125,-0.02678154595196247,-0.32879838347435,-0.4348127245903015
1772556552053116200,2.4581162109375,-0.007335943635553122,-0.30376946926116943,-0.42379894852638245
1772556552063100200,2.46810009765625,0.03296354413032532,-0.27811896800994873,-0.3570238947868347
1772556552073084200,2.478084228515625,0.07027415931224823,-0.24780075252056122,-0.24964764714241028
1772556552083068200,2.488068115234375,0.09341730177402496,-0.20488549768924713,-0.10948894172906876
1772556552093052200,2.49805224609375,0.09641361981630325,-0.17025162279605865,0.04081081226468086
1772556552103036200,2.5080361328125,0.06657290458679199,-0.14005324244499207,0.19000563025474548
1772556552113020200,2.518020263671875,0.013917147181928158,-0.11818788945674896,0.3025768995285034
1772556552123004200,2.528004150390625,-0.054543670266866684,-0.0965997725725174,0.3794003129005432
1772556552132988200,2.53798828125,-0.14782167971134186,-0.08362539112567902,0.4064710736274719
1772556552142972200,2.54797216796875,-0.24016040563583374,-0.051300473511219025,0.3894824981689453
1772556552152956000,2.557955810546875,-0.33063197135925293,-0.006730074528604746,0.3369777500629425
1772556552162940000,2.56793994140625,-0.39429962635040283,0.02395300380885601,0.2639022171497345
1772556552172924200,2.577924072265625,-0.4325633943080902,0.055624645203351974,0.20284685492515564
1772556552182909000,2.587908935546875,-0.44711652398109436,0.08644567430019379,0.17155630886554718
1772556552192893000,2.597892822265625,-0.4372955858707428,0.11188871413469315,0.16107916831970215
1772556552202877000,2.607876953125,-0.40097352862358093,0.12326201051473618,0.18079774081707
1772556552212861200,2.617861083984375,-0.3297307789325714,0.13188719749450684,0.22434522211551666
1772556552222845200,2.62784521484375,-0.26473045349121094,0.10987190902233124,0.2813320755958557
1772556552232829200,2.6378291015625,-0.28516942262649536,0.044328849762678146,0.3011380136013031
1772556552242813200,2.647813232421875,-0.3619108200073242,-0.0258070956915617,0.2690748870372772
1772556552252797200,2.657797119140625,-0.39727091789245605,-0.061288658529520035,0.20721177756786346
1772556552262781200,2.66778125,-0.3898734748363495,-0.10061422735452652,0.10788518935441971
1772556552272765200,2.67776513671875,-0.40996941924095154,-0.1764828860759735,-0.022289859130978584
1772556552282748700,2.687748779296875,-0.4476640522480011,-0.2794566750526428,-0.1802762895822525
1772556552292732700,2.697732666015625,-0.4705033302307129,-0.3783387839794159,-0.3350251317024231
1772556552302716700,2.707716552734375,-0.4479160010814667,-0.4498952627182007,-0.44016033411026
1772556552312700400,2.717700439453125,-0.33078670501708984,-0.5291363000869751,-0.45885172486305237
1772556552322684400,2.727684326171875,-0.1593334674835205,-0.6476930379867554,-0.37367212772369385
1772556552332669700,2.737669677734375,-0.022105835378170013,-0.7322057485580444,-0.1845615953207016
1772556552342653400,2.7476533203125,0.0334801971912384,-0.6747179627418518,0.12291793525218964
1772556552352637400,2.757637451171875,0.01762267015874386,-0.5355837941169739,0.44749680161476135
1772556552362621400,2.767621337890625,-0.05061816796660423,-0.3945731520652771,0.7156555652618408
1772556552372605400,2.77760546875,-0.14690715074539185,-0.2673424780368805,0.8806261420249939
1772556552382589700,2.787589599609375,-0.2439357042312622,-0.14155313372612,0.9377847909927368
1772556552392573700,2.79757373046875,-0.3378869593143463,0.012854546308517456,0.904149055480957
1772556552402557700,2.8075576171875,-0.4115143120288849,0.17973513901233673,0.8086579442024231
1772556552412541700,2.817541748046875,-0.4641258716583252,0.3211548626422882,0.6624701023101807
1772556552422525700,2.827525634765625,-0.4888937771320343,0.44702863693237305,0.48629269003868103
1772556552432509700,2.837509765625,-0.4865017235279083,0.5676178932189941,0.28850290179252625
1772556552442493700,2.84749365234375,-0.4456067681312561,0.6874029040336609,0.0905647873878479
1772556552452477700,2.857477783203125,-0.3660445511341095,0.7932225465774536,-0.1029956266283989
1772556552462462700,2.867462646484375,-0.24106881022453308,0.8261788487434387,-0.2998389005661011
1772556552472446700,2.87744677734375,-0.10412240773439407,0.7663280367851257,-0.4874413013458252
1772556552482430700,2.8874306640625,0.023808926343917847,0.6527146697044373,-0.6141539812088013
1772556552492414700,2.897414794921875,0.1337846964597702,0.5009328722953796,-0.6650472283363342
1772556552502398700,2.907398681640625,0.22842518985271454,0.31674784421920776,-0.6431467533111572
1772556552512382500,2.917382568359375,0.3100545406341553,0.13279026746749878,-0.562628448009491
1772556552522366500,2.927366455078125,0.38268959522247314,-0.036743100732564926,-0.46715468168258667
1772556552532350500,2.9373505859375,0.43799784779548645,-0.1743510365486145,-0.3620503544807434
1772556552542334500,2.94733447265625,0.4670470654964447,-0.25697481632232666,-0.23227131366729736
1772556552552318500,2.957318359375,0.4653237462043762,-0.2898517847061157,-0.10835443437099457
1772556552562302500,2.967302490234375,0.43425852060317993,-0.288822203874588,-0.011606588959693909
1772556552572286700,2.97728662109375,0.3922570049762726,-0.29586920142173767,0.04480555281043053
1772556552582270700,2.987270751953125,0.35212793946266174,-0.29833102226257324,0.03484959155321121
1772556552592255500,2.99725537109375,0.295919269323349,-0.2624737024307251,-0.015115302987396717
1772556552602239500,3.007239501953125,0.2410499006509781,-0.1985413283109665,-0.09840806573629379
1772556552612223700,3.0172236328125,0.19223175942897797,-0.12094426155090332,-0.1943843960762024
1772556552622207700,3.027207763671875,0.14930880069732666,-0.046171754598617554,-0.27803534269332886
1772556552632191700,3.037191650390625,0.11933491379022598,0.01830417290329933,-0.31400933861732483
1772556552642175700,3.04717578125,0.10114845633506775,0.06391506642103195,-0.294161856174469
1772556552652159700,3.05715966796875,0.09695770591497421,0.09925148636102676,-0.2339906543493271
1772556552662143700,3.067143798828125,0.09924962371587753,0.15251897275447845,-0.11900628358125687
1772556552672127700,3.077127685546875,0.10898134112358093,0.21572910249233246,0.025645708665251732
1772556552682111700,3.08711181640625,0.1183261126279831,0.27256014943122864,0.1861690729856491
1772556552692095500,3.097095458984375,0.12673424184322357,0.3334384262561798,0.3330056667327881
1772556552702079500,3.10707958984375,0.136844664812088,0.39508873224258423,0.4498233497142792
1772556552712063500,3.1170634765625,0.1463146060705185,0.4514678418636322,0.535941481590271
1772556552722048500,3.127048583984375,0.16278359293937683,0.4723750054836273,0.589302659034729
1772556552732032500,3.137032470703125,0.19292205572128296,0.46420973539352417,0.6206339597702026
1772556552742016500,3.1470166015625,0.2155543863773346,0.42672309279441833,0.6110473871231079
1772556552752000500,3.15700048828125,0.21954940259456635,0.3402057886123657,0.5706815719604492
1772556552761984500,3.166984619140625,0.19342991709709167,0.2219931185245514,0.47643205523490906
1772556552771968500,3.176968505859375,0.12849539518356323,0.08435509353876114,0.3371141254901886
1772556552781952500,3.186952392578125,0.036989975720644,-0.041556231677532196,0.16974429786205292
1772556552791936500,3.1969365234375,-0.05627818778157234,-0.13714773952960968,0.021338844671845436
1772556552801920800,3.206920654296875,-0.12353552132844925,-0.20060446858406067,-0.038273885846138
1772556552811904800,3.21690478515625,-0.15168380737304688,-0.21678423881530762,0.012465458363294601
1772556552821888800,3.226888671875,-0.12315495312213898,-0.1806350201368332,0.20086173713207245
1772556552831873500,3.23687353515625,-0.03832688182592392,-0.07531525939702988,0.49559029936790466
1772556552841857800,3.24685791015625,0.05047063156962395,0.05347920209169388,0.7838335633277893
1772556552851841800,3.256841796875,0.1146879643201828,0.14210760593414307,0.9595811367034912
1772556552861825800,3.26682568359375,0.1483718901872635,0.18303559720516205,0.9696300625801086
1772556552871809800,3.276809814453125,0.15896648168563843,0.15643541514873505,0.8132444620132446
1772556552881793800,3.286793701171875,0.14807122945785522,0.07474853843450546,0.5311597585678101
1772556552891777500,3.296777587890625,0.1433158814907074,-0.028604215011000633,0.19036754965782166
1772556552901761500,3.306761474609375,0.1310775876045227,-0.17812712490558624,-0.1207389310002327
1772556552911745500,3.31674560546875,0.09743520617485046,-0.35145044326782227,-0.3393775224685669
1772556552921729500,3.3267294921875,0.04851960018277168,-0.5226733088493347,-0.4550338387489319
1772556552931713500,3.336713623046875,0.002668221015483141,-0.6205482482910156,-0.46279266476631165
1772556552941697500,3.346697509765625,-0.033063411712646484,-0.5862083435058594,-0.3401610255241394
1772556552951682600,3.3566826171875,-0.04188406839966774,-0.41325175762176514,-0.10293517261743546
1772556552961666600,3.36666650390625,-0.028295554220676422,-0.1673106998205185,0.210611030459404
1772556552971650600,3.376650634765625,-0.0011438276851549745,0.053039249032735825,0.5171371698379517
1772556552981634600,3.386634521484375,0.029444973915815353,0.18903836607933044,0.7549371719360352
1772556552991618600,3.39661865234375,0.040276847779750824,0.26887646317481995,0.8918433785438538
1772556553001602600,3.4066025390625,0.036130838096141815,0.29804155230522156,0.9150152802467346
1772556553011586600,3.416586669921875,0.021824872121214867,0.28960171341896057,0.8202261924743652
1772556553021570600,3.426570556640625,-0.010085390880703926,0.24225790798664093,0.6332001090049744
1772556553031554800,3.436554931640625,-0.04472699016332626,0.1677304059267044,0.36902570724487305
1772556553041538800,3.446538818359375,-0.09062390774488449,0.10813126713037491,0.054479751735925674
1772556553051522800,3.456522705078125,-0.14759984612464905,0.06807998567819595,-0.2573516368865967
1772556553061506600,3.466506591796875,-0.20162047445774078,0.03779798001050949,-0.5508695244789124
1772556553071491800,3.476491943359375,-0.23726502060890198,-0.0021576930303126574,-0.7929428815841675
1772556553081475800,3.486475830078125,-0.24175722897052765,-0.054717838764190674,-0.9550897479057312
1772556553091459600,3.49645947265625,-0.2321229875087738,-0.10066749155521393,-1.0433317422866821
1772556553101443600,3.506443603515625,-0.2048463523387909,-0.1327417939901352,-1.0442906618118286
1772556553111427600,3.516427490234375,-0.16870300471782684,-0.13650432229042053,-0.975142240524292
1772556553121411600,3.52641162109375,-0.12587963044643402,-0.14046336710453033,-0.8595882058143616
1772556553131395600,3.5363955078125,-0.08339555561542511,-0.21984101831912994,-0.728563666343689
1772556553141379600,3.546379638671875,-0.035771578550338745,-0.3309422433376312,-0.6012187600135803
1772556553151363600,3.556363525390625,0.007765777874737978,-0.4363671839237213,-0.4820856750011444
1772556553161347600,3.56634765625,0.041673943400382996,-0.5134239196777344,-0.36825552582740784
1772556553171331600,3.57633154296875,0.06284207850694656,-0.5242413878440857,-0.2653496563434601
1772556553181316600,3.586316650390625,0.07480446249246597,-0.4640185236930847,-0.17177575826644897
1772556553191300600,3.596300537109375,0.07908070087432861,-0.3764798939228058,-0.10339456796646118
1772556553201284600,3.60628466796875,0.06654680520296097,-0.3032160699367523,-0.08330634236335754
1772556553211268600,3.6162685546875,0.029163477942347527,-0.25081226229667664,-0.11377397179603577
1772556553221252600,3.626252685546875,-0.029984263703227043,-0.20823149383068085,-0.16722148656845093
1772556553231236600,3.636236572265625,-0.10524918884038925,-0.17379096150398254,-0.23140819370746613
1772556553241220600,3.646220703125,-0.18466278910636902,-0.12121351063251495,-0.3032514750957489
1772556553251204600,3.65620458984375,-0.2613043189048767,-0.05958157032728195,-0.3251573145389557
1772556553261188600,3.666188720703125,-0.33394521474838257,-0.001418932224623859,-0.3059689700603485
1772556553271172600,3.676172607421875,-0.3893517553806305,0.03286207467317581,-0.2470497339963913
1772556553281156900,3.686156982421875,-0.4332102835178375,0.04068031907081604,-0.16128742694854736
1772556553291142000,3.696141845703125,-0.46938958764076233,0.028271052986383438,-0.05446617305278778
1772556553301126000,3.7061259765625,-0.5028460621833801,0.007004379760473967,0.07560741156339645
1772556553311110000,3.71610986328125,-0.5278358459472656,-0.03280029073357582,0.2104126214981079
1772556553321094000,3.726093994140625,-0.5525188446044922,-0.09884002804756165,0.30778685212135315
1772556553331078000,3.736077880859375,-0.5810913443565369,-0.1639133095741272,0.36920681595802307
1772556553341062000,3.746061767578125,-0.6139294505119324,-0.19524087011814117,0.3872278928756714
1772556553351046000,3.7560458984375,-0.645706832408905,-0.20428656041622162,0.36776575446128845
1772556553361030000,3.76602978515625,-0.6573064923286438,-0.17936469614505768,0.31564822793006897
1772556553371014000,3.776013916015625,-0.6488323211669922,-0.15180736780166626,0.2515014708042145
1772556553380998000,3.785997802734375,-0.6147012710571289,-0.13425900042057037,0.1791580319404602
1772556553390982000,3.79598193359375,-0.5716861486434937,-0.12943148612976074,0.1161966472864151
1772556553400967000,3.805966796875,-0.5212104320526123,-0.14404478669166565,0.07724738121032715
1772556553410951000,3.815950927734375,-0.4411952495574951,-0.17704375088214874,0.07637413591146469
1772556553420935000,3.825934814453125,-0.35863885283470154,-0.20500454306602478,0.11943691223859787
1772556553430919000,3.8359189453125,-0.30704596638679504,-0.2116059958934784,0.17437419295310974
1772556553440903000,3.84590283203125,-0.30930379033088684,-0.20062391459941864,0.1907302737236023
1772556553450887000,3.855886962890625,-0.3118758797645569,-0.1625761240720749,0.13717782497406006
1772556553460871000,3.865870849609375,-0.2856767475605011,-0.11676017194986343,0.007462976034730673
1772556553470854700,3.875854736328125,-0.2532961666584015,-0.055395349860191345,-0.18176260590553284
1772556553480838700,3.885838623046875,-0.24604226648807526,-0.004175037611275911,-0.3958005905151367
1772556553490823000,3.895822998046875,-0.2348407357931137,0.004588892683386803,-0.5936686992645264
1772556553500807000,3.905806884765625,-0.19227249920368195,-0.0070733558386564255,-0.7008665204048157
1772556553510791700,3.915791748046875,-0.10964340716600418,-0.0439235158264637,-0.6622205376625061
1772556553520775700,3.925775634765625,-0.010122941806912422,-0.1039263978600502,-0.469221293926239
1772556553530760000,3.935760009765625,0.08740600943565369,-0.17493905127048492,-0.152252659201622
1772556553540744000,3.945743896484375,0.1604328155517578,-0.24331651628017426,0.2017541527748108
1772556553550728000,3.95572802734375,0.17814390361309052,-0.30281367897987366,0.523926317691803
1772556553560712000,3.9657119140625,0.14673112332820892,-0.35296231508255005,0.7440632581710815
1772556553570696000,3.975696044921875,0.08691678941249847,-0.37229686975479126,0.84639573097229
1772556553580676900,3.9856767578125,0.01173575222492218,-0.3467070758342743,0.8396667242050171
1772556553590660900,3.995660888671875,-0.0794902965426445,-0.2728525698184967,0.747182309627533
1772556553600644900,4.005644775390625,-0.16401369869709015,-0.16496019065380096,0.5989318490028381
1772556553610628900,4.01562890625,-0.22561688721179962,-0.036790505051612854,0.4191005825996399
1772556553620614000,4.02561376953125,-0.2535039186477661,0.10258975625038147,0.22838284075260162
1772556553630598000,4.035597900390625,-0.23846876621246338,0.23827941715717316,0.03831836208701134
1772556553640582000,4.045581787109375,-0.19346879422664642,0.3531047999858856,-0.1253288984298706
1772556553650566000,4.05556591796875,-0.13264566659927368,0.4392157196998596,-0.25716760754585266
1772556553660550000,4.0655498046875,-0.053763628005981445,0.48236745595932007,-0.3763273060321808
1772556553670534000,4.075533935546875,0.020832311362028122,0.4882940351963043,-0.48422232270240784
1772556553680518000,4.085517822265625,0.07740957289934158,0.44374653697013855,-0.5594161748886108
1772556553690502000,4.095501953125,0.11208472400903702,0.3446338176727295,-0.5838668942451477
1772556553700486000,4.10548583984375,0.14126205444335938,0.20537392795085907,-0.545811653137207
1772556553710470000,4.115469970703125,0.16681136190891266,0.04831346869468689,-0.4324108064174652
1772556553720455000,4.125454833984375,0.19070470333099365,-0.12324576824903488,-0.28267350792884827
1772556553730439000,4.13543896484375,0.20088542997837067,-0.2866716980934143,-0.14129027724266052
1772556553740423000,4.1454228515625,0.2026580423116684,-0.40617868304252625,-0.04914943501353264
1772556553750407000,4.155406982421875,0.1848052740097046,-0.45437681674957275,-0.02034441940486431
1772556553760390700,4.165390625,0.16871178150177002,-0.44107699394226074,-0.060385312885046005
1772556553770374700,4.175374755859375,0.15781812369823456,-0.3750263452529907,-0.14288684725761414
1772556553780359000,4.18535888671875,0.15148167312145233,-0.26850655674934387,-0.2404368370771408
1772556553790343000,4.195343017578125,0.15041746199131012,-0.1664494276046753,-0.3198656141757965
1772556553800327000,4.205326904296875,0.1562492549419403,-0.09287028759717941,-0.35331517457962036
1772556553810311000,4.215310791015625,0.17976683378219604,-0.03593536466360092,-0.35248348116874695
1772556553820295000,4.225294921875,0.2070799469947815,0.016895892098546028,-0.3190605342388153
1772556553830280000,4.235280029296875,0.23474645614624023,0.06657157093286514,-0.260982871055603
1772556553840264000,4.245263916015625,0.2586190402507782,0.10881596058607101,-0.18434613943099976
1772556553850248000,4.255248046875,0.26931270956993103,0.13321690261363983,-0.11068576574325562
1772556553860232000,4.26523193359375,0.26897794008255005,0.15145424008369446,-0.032655149698257446
1772556553870216000,4.2752158203125,0.26840242743492126,0.15124811232089996,0.04652808606624603
1772556553880200000,4.285199951171875,0.26197782158851624,0.15639039874076843,0.12598375976085663
1772556553890184000,4.295183837890625,0.24520017206668854,0.1704351156949997,0.1929747760295868
1772556553900168000,4.30516796875,0.22294600307941437,0.18939122557640076,0.23956678807735443
1772556553910152000,4.31515185546875,0.2009192556142807,0.205284982919693,0.26435282826423645
1772556553920136000,4.325135986328125,0.19317051768302917,0.2466297596693039,0.2718624174594879
1772556553930121000,4.335120849609375,0.2044127881526947,0.2905980050563812,0.26886314153671265
1772556553940105000,4.34510498046875,0.23005184531211853,0.3033774495124817,0.2533683478832245
1772556553950089000,4.3550888671875,0.2557375133037567,0.2737375497817993,0.2289290577173233
1772556553960072700,4.36507275390625,0.2545124590396881,0.23033227026462555,0.1842377483844757
1772556553970056700,4.375056640625,0.21586304903030396,0.17533613741397858,0.1024150550365448
1772556553980040700,4.385040771484375,0.15757738053798676,0.08009989559650421,-0.007150587625801563
1772556553990024700,4.395024658203125,0.10336367040872574,-0.01672118902206421,-0.13915948569774628
1772556554000008700,4.4050087890625,0.05793547257781029,-0.0822802260518074,-0.23871910572052002
1772556554009993000,4.414992919921875,0.0318245068192482,-0.1014893427491188,-0.23647458851337433
1772556554019977000,4.42497705078125,0.03972530737519264,-0.07700104266405106,-0.1241198182106018
1772556554029961700,4.434961669921875,0.11093796789646149,-0.026647323742508888,0.09899475425481796
1772556554039945700,4.44494580078125,0.20891806483268738,0.04406279698014259,0.3626370429992676
1772556554049930000,4.454929931640625,0.28574973344802856,0.087662473320961,0.5613043308258057
1772556554059914000,4.4649140625,0.3570859432220459,0.07719199359416962,0.6357088088989258
1772556554069898000,4.47489794921875,0.43197086453437805,0.046475622802972794,0.5414765477180481
1772556554079882000,4.484882080078125,0.47665655612945557,0.02105361968278885,0.2923828661441803
1772556554089866000,4.494865966796875,0.469483345746994,-0.0015425028977915645,-0.08010096102952957
1772556554099850000,4.50485009765625,0.40756165981292725,-0.052371859550476074,-0.4862271547317505
1772556554109834000,4.514833984375,0.3185894191265106,-0.15395574271678925,-0.832800030708313
1772556554119818000,4.52481787109375,0.22717243432998657,-0.2791522741317749,-1.0346074104309082
1772556554129803000,4.534802978515625,0.15760427713394165,-0.33429276943206787,-1.032515525817871
1772556554139787000,4.544787109375,0.13918718695640564,-0.2782803475856781,-0.8242781758308411
1772556554149771000,4.55477099609375,0.17667996883392334,-0.13085894286632538,-0.4532276690006256
1772556554159755000,4.564755126953125,0.2407068908214569,0.042819634079933167,-0.012986372224986553
1772556554169738800,4.57473876953125,0.31124603748321533,0.1587025672197342,0.3794975280761719
1772556554179725000,4.58472509765625,0.36112943291664124,0.23034559190273285,0.6363279819488525
1772556554189709000,4.594708984375,0.3711239993572235,0.2814929187297821,0.7438374161720276
1772556554199693000,4.604693115234375,0.339182049036026,0.32541483640670776,0.69479900598526
1772556554209677000,4.614677001953125,0.2744896113872528,0.3708891272544861,0.5088738799095154
1772556554219661800,4.624661865234375,0.18707987666130066,0.3810062110424042,0.22647841274738312
1772556554229646000,4.63464599609375,0.0933736264705658,0.3489758372306824,-0.09779366850852966
1772556554239630000,4.644630126953125,0.0009153284481726587,0.3095479905605316,-0.40463748574256897
1772556554249613800,4.65461376953125,-0.07924608886241913,0.2614949941635132,-0.6258881092071533
1772556554259597800,4.664597900390625,-0.12223376333713531,0.20495820045471191,-0.7366625666618347
1772556554269581800,4.674581787109375,-0.1345950961112976,0.14449407160282135,-0.7517917156219482
1772556554279565800,4.68456591796875,-0.12037009000778198,0.08552449196577072,-0.6848992705345154
1772556554289549600,4.694549560546875,-0.07576905936002731,0.015742743387818336,-0.5604209899902344
1772556554299533600,4.704533447265625,-0.02678261138498783,-0.04691664129495621,-0.41014596819877625
1772556554309517300,4.714517333984375,0.028925657272338867,-0.07924262434244156,-0.2629687786102295
1772556554319502600,4.724502685546875,0.06883072853088379,-0.08677218109369278,-0.13512186706066132
1772556554329486600,4.734486572265625,0.09338933229446411,-0.08189167082309723,-0.043894488364458084
1772556554339470300,4.74447021484375,0.10403718799352646,-0.07635416090488434,0.01164813432842493
1772556554349454300,4.754454345703125,0.1028483510017395,-0.07584309577941895,0.04337996616959572
1772556554359438300,4.764438232421875,0.07909002155065536,-0.07546626031398773,0.06424450129270554
1772556554369422300,4.77442236328125,0.041606832295656204,-0.08067087829113007,0.07115833461284637
1772556554379406300,4.78440625,-0.003549727378413081,-0.07698692381381989,0.07702154666185379
1772556554389390600,4.794390625,-0.051355332136154175,-0.07270323485136032,0.07370271533727646
1772556554399374600,4.80437451171875,-0.10272344946861267,-0.06196616590023041,0.08292391151189804
1772556554409358600,4.814358642578125,-0.15692730247974396,-0.06015574932098389,0.07801330834627151
1772556554419343400,4.82434326171875,-0.2105412632226944,-0.05982258543372154,0.06873165816068649
1772556554429327400,4.834327392578125,-0.27398866415023804,-0.05478282272815704,0.04922427237033844
1772556554439311600,4.8443115234375,-0.33912214636802673,-0.061711832880973816,0.031083351001143456
1772556554449295600,4.854295654296875,-0.3981076776981354,-0.09800831973552704,0.020959077402949333
1772556554459279600,4.864279541015625,-0.45663198828697205,-0.15247316658496857,0.015497999265789986
1772556554469263600,4.874263671875,-0.5232951641082764,-0.2145083099603653,0.013574398122727871
1772556554479247600,4.88424755859375,-0.5896286368370056,-0.2638859748840332,0.011700864881277084
1772556554489231600,4.894231689453125,-0.64728182554245,-0.3013688921928406,0.003623496973887086
1772556554499215600,4.904215576171875,-0.6781550645828247,-0.32544440031051636,0.008299475535750389
1772556554509199400,4.914199462890625,-0.679482102394104,-0.30532288551330566,0.03003060258924961
1772556554519184600,4.9241845703125,-0.6511753797531128,-0.2489728033542633,0.059660665690898895
1772556554529168600,4.934168701171875,-0.5941208600997925,-0.14322108030319214,0.08283309638500214
1772556554539152400,4.94415234375,-0.5207944512367249,-0.02099636197090149,0.07742608338594437
1772556554549136400,4.954136474609375,-0.4331892430782318,0.10216045379638672,0.024885907769203186
1772556554559120400,4.964120361328125,-0.3459579348564148,0.2194359451532364,-0.06539951264858246
1772556554569104400,4.9741044921875,-0.26248249411582947,0.309181809425354,-0.16618923842906952
1772556554579088400,4.98408837890625,-0.17994099855422974,0.34075093269348145,-0.2280408889055252
1772556554589072400,4.994072265625,-0.08591437339782715,0.31668660044670105,-0.22168578207492828
1772556554599056400,5.004056396484375,0.019641345366835594,0.2560754418373108,-0.1604035198688507
1772556554609040400,5.014040283203125,0.05512184277176857,0.18763887882232666,-0.10336047410964966
1772556554619025400,5.024025390625,0.029934994876384735,0.1291412115097046,-0.076285719871521
1772556554629009400,5.034009521484375,-0.042695533484220505,0.059306997805833817,-0.08823025971651077
1772556554638993400,5.043993408203125,-0.12859392166137695,-0.03309670090675354,-0.15185664594173431
1772556554648977400,5.053977294921875,-0.22204291820526123,-0.1242910623550415,-0.26531103253364563
1772556554658961400,5.06396142578125,-0.3055250346660614,-0.19102801382541656,-0.40378209948539734
1772556554668945700,5.073945556640625,-0.3735046088695526,-0.24115030467510223,-0.507339358329773
1772556554678929700,5.0839296875,-0.40833449363708496,-0.25620514154434204,-0.5324090123176575
1772556554688913700,5.09391357421875,-0.37403565645217896,-0.25705575942993164,-0.44517746567726135
1772556554698897700,5.103897705078125,-0.28236111998558044,-0.24941062927246094,-0.2419402003288269
1772556554708882700,5.113882568359375,-0.18194210529327393,-0.21805909276008606,0.052325788885354996
1772556554718866700,5.12386669921875,-0.11884968727827072,-0.1779598742723465,0.36824727058410645
1772556554728850700,5.1338505859375,-0.11007057875394821,-0.13091221451759338,0.6171942353248596
1772556554738834400,5.14383447265625,-0.14435051381587982,-0.07389446347951889,0.7652937173843384
1772556554748818400,5.153818359375,-0.20306655764579773,-0.0023102923296391964,0.7916448712348938
1772556554758802400,5.163802490234375,-0.293712854385376,0.08809524029493332,0.707943856716156
1772556554768786400,5.173786376953125,-0.3942280113697052,0.1925678551197052,0.5546685457229614
1772556554778770400,5.1837705078125,-0.4805530309677124,0.3043596148490906,0.36780276894569397
1772556554788754400,5.19375439453125,-0.5354676842689514,0.40080735087394714,0.18131732940673828
1772556554798739500,5.203739501953125,-0.5554696321487427,0.4793170690536499,0.013733388856053352
1772556554808723500,5.213723388671875,-0.5236517786979675,0.5309892892837524,-0.13247069716453552
1772556554818707500,5.22370751953125,-0.4520931541919708,0.5387524366378784,-0.25644588470458984
1772556554828691500,5.23369140625,-0.35152846574783325,0.4972052574157715,-0.3535713851451874
1772556554838675500,5.243675537109375,-0.23038020730018616,0.41873282194137573,-0.42505913972854614
1772556554848659500,5.253659423828125,-0.11417584121227264,0.29922398924827576,-0.4660918116569519
1772556554858643500,5.2636435546875,-0.010461429134011269,0.14678305387496948,-0.4619676172733307
1772556554868627500,5.27362744140625,0.07310590147972107,0.0028700886759907007,-0.42180848121643066
1772556554878611500,5.283611572265625,0.12937237322330475,-0.1103651225566864,-0.35574638843536377
1772556554888595500,5.293595458984375,0.1632847934961319,-0.20108197629451752,-0.2837885618209839
1772556554898580500,5.30358056640625,0.17690207064151764,-0.2713779807090759,-0.21355462074279785
1772556554908564500,5.313564453125,0.16676688194274902,-0.31919610500335693,-0.1544170081615448
1772556554918548500,5.323548583984375,0.1447979360818863,-0.33277609944343567,-0.11190363019704819
1772556554928532500,5.333532470703125,0.12444765120744705,-0.32316526770591736,-0.10131943225860596
1772556554938516700,5.343516845703125,0.10300388187170029,-0.29433149099349976,-0.10914965718984604
1772556554948500500,5.35350048828125,0.09696675837039948,-0.2572704255580902,-0.1403355449438095
1772556554958484500,5.363484375,0.09974097460508347,-0.20508736371994019,-0.17667970061302185
1772556554968468500,5.373468505859375,0.11409221589565277,-0.1479758769273758,-0.2111431360244751
1772556554978452500,5.383452392578125,0.1370185762643814,-0.08077260851860046,-0.2354346215724945
1772556554988437500,5.3934375,0.15953107178211212,0.001204547705128789,-0.23324017226696014
1772556554998421500,5.40342138671875,0.18266594409942627,0.07825139909982681,-0.20301249623298645
1772556555008405500,5.413405517578125,0.20435553789138794,0.15182974934577942,-0.14276833832263947
1772556555018389500,5.423389404296875,0.21888121962547302,0.2162284404039383,-0.0577746145427227
1772556555028373500,5.43337353515625,0.22950056195259094,0.27803269028663635,0.056586045771837234
1772556555038357500,5.443357421875,0.24225232005119324,0.3471582233905792,0.18412482738494873
1772556555048341500,5.453341552734375,0.2555982172489166,0.4161599278450012,0.31173205375671387
1772556555058325500,5.463325439453125,0.27184855937957764,0.46967190504074097,0.4317982792854309
1772556555068309500,5.4733095703125,0.2954481542110443,0.498368501663208,0.5341459512710571
1772556555078294500,5.48329443359375,0.320461630821228,0.5089551210403442,0.6193415522575378
1772556555088278500,5.493278564453125,0.33971816301345825,0.505161702632904,0.6656554937362671
1772556555098262500,5.503262451171875,0.3424191176891327,0.46910223364830017,0.6802980899810791
1772556555108246500,5.51324658203125,0.32194316387176514,0.4111907482147217,0.6332027912139893
1772556555118230500,5.52323046875,0.24676238000392914,0.34395310282707214,0.5631464719772339
1772556555128214500,5.533214599609375,0.14717639982700348,0.26045873761177063,0.4740389287471771
1772556555138198500,5.543198486328125,0.04890256002545357,0.17004522681236267,0.3798280358314514
1772556555148182300,5.553182373046875,-0.04393230378627777,0.08398544788360596,0.3044946491718292
1772556555158166500,5.56316650390625,-0.11765233427286148,0.02371038869023323,0.26376399397850037
1772556555168151600,5.573151611328125,-0.16441184282302856,0.005790777504444122,0.28095683455467224
1772556555178135300,5.58313525390625,-0.14729145169258118,0.07108216732740402,0.36943769454956055
1772556555188119300,5.593119384765625,-0.07995209097862244,0.19166317582130432,0.5189555287361145
1772556555198103600,5.603103515625,-0.0020096213556826115,0.32238948345184326,0.6426903009414673
1772556555208087600,5.613087646484375,0.07931426167488098,0.4003854990005493,0.6789113879203796
1772556555218071600,5.623071533203125,0.17306578159332275,0.3927217125892639,0.5957611203193665
1772556555228055600,5.6330556640625,0.27841272950172424,0.2787538766860962,0.38602733612060547
1772556555238039600,5.64303955078125,0.36922144889831543,0.09361197799444199,0.08349542319774628
1772556555248023600,5.6530234375,0.41559135913848877,-0.09143085032701492,-0.2327275276184082
1772556555258007600,5.663007568359375,0.40881094336509705,-0.23034799098968506,-0.47157391905784607
1772556555267992600,5.67299267578125,0.3718782067298889,-0.2996319830417633,-0.55448317527771
1772556555277976600,5.6829765625,0.332232803106308,-0.2753961682319641,-0.4376004934310913
1772556555287961900,5.6929619140625,0.3041098117828369,-0.16448694467544556,-0.1522854119539261
1772556555297945900,5.70294580078125,0.2974820137023926,-0.017104152590036392,0.23877130448818207
1772556555307930000,5.71293017578125,0.31666475534439087,0.1121654212474823,0.6357226371765137
1772556555317914000,5.7229140625,0.33553725481033325,0.18050692975521088,0.9409693479537964
1772556555327898000,5.732898193359375,0.33937007188796997,0.22633273899555206,1.1077804565429688
1772556555337882000,5.742882080078125,0.31879448890686035,0.26600319147109985,1.1086795330047607
1772556555347867100,5.7528671875,0.2810974419116974,0.284258097410202,0.9804398417472839
1772556555357851100,5.76285107421875,0.22904916107654572,0.2826114594936371,0.7750320434570312
1772556555367835100,5.772835205078125,0.1694774478673935,0.26307183504104614,0.5418936014175415
1772556555377819100,5.782819091796875,0.10624707490205765,0.23212005198001862,0.3087945878505707
1772556555387803100,5.79280322265625,0.03775057569146156,0.1955585777759552,0.10259295254945755
1772556555397787100,5.802787109375,-0.03633510321378708,0.1574420928955078,-0.06088092550635338
1772556555407771100,5.812771240234375,-0.08742625266313553,0.14446796476840973,-0.16658125817775726
1772556555417755000,5.8227548828125,-0.1083349958062172,0.1667008399963379,-0.21990706026554108
1772556555427739000,5.83273876953125,-0.1049056425690651,0.23412275314331055,-0.22163918614387512
1772556555437724200,5.84272412109375,-0.06082979589700699,0.33623021841049194,-0.1884615272283554
1772556555447708000,5.8527080078125,0.008077100850641727,0.43712326884269714,-0.13966868817806244
1772556555457692000,5.86269189453125,0.08664914220571518,0.5214679837226868,-0.07348513603210449
1772556555467676000,5.872676025390625,0.16185708343982697,0.5621304512023926,-0.012084892019629478
1772556555477660000,5.882659912109375,0.22655218839645386,0.564704418182373,0.02316337637603283
1772556555487644000,5.892643798828125,0.28007960319519043,0.5425293445587158,0.0473502054810524
1772556555497628000,5.9026279296875,0.3168181777000427,0.5146486759185791,0.07384253293275833
1772556555507612000,5.91261181640625,0.3600423336029053,0.5111231803894043,0.14176619052886963
1772556555517596000,5.922595947265625,0.4113619923591614,0.5257945656776428,0.24497726559638977
1772556555527581000,5.932580810546875,0.4745079278945923,0.5522136092185974,0.3647686541080475
1772556555537565000,5.94256494140625,0.5321131348609924,0.5571226477622986,0.44800254702568054
1772556555547549000,5.952548828125,0.53319251537323,0.5975707173347473,0.49299371242523193
1772556555557533000,5.962532958984375,0.47845926880836487,0.6269919872283936,0.4753265678882599
1772556555567517000,5.972516845703125,0.3795928657054901,0.6359125375747681,0.40223053097724915
1772556555577501200,5.982501220703125,0.2684261202812195,0.6257794499397278,0.3086470663547516
1772556555587485200,5.992485107421875,0.16042615473270416,0.6202259659767151,0.21836882829666138
1772556555597469200,6.00246923828125,0.07262945920228958,0.626883327960968,0.16087596118450165
1772556555607453200,6.012453125,0.002174204681068659,0.6336075663566589,0.15550197660923004
1772556555617438000,6.02243798828125,-0.046850331127643585,0.6222249269485474,0.1980411857366562
1772556555627422200,6.032422119140625,-0.0858861431479454,0.5842725038528442,0.2672026753425598
1772556555637406200,6.04240625,-0.11532925814390182,0.5595439672470093,0.3574715852737427
1772556555647390000,6.052389892578125,-0.1490669846534729,0.5189257264137268,0.44556868076324463
1772556555657374000,6.0623740234375,-0.20009900629520416,0.4850441813468933,0.5362098813056946
1772556555667358000,6.07235791015625,-0.259640097618103,0.5025169253349304,0.6003731489181519
1772556555677342000,6.082342041015625,-0.3102436065673828,0.5698147416114807,0.6302765011787415
1772556555687326000,6.092325927734375,-0.3391152024269104,0.6785385608673096,0.6392441391944885
1772556555697310000,6.10231005859375,-0.3469049632549286,0.805381715297699,0.6194547414779663
1772556555707295000,6.112294921875,-0.32699036598205566,0.9133601188659668,0.5735064148902893
1772556555717279000,6.122279052734375,-0.2913021445274353,1.035080909729004,0.5041057467460632
1772556555727263000,6.132262939453125,-0.24728275835514069,1.1934607028961182,0.43656426668167114
1772556555737247000,6.1422470703125,-0.1903853863477707,1.424121618270874,0.3948216140270233
1772556555747231000,6.15223095703125,-0.09978092461824417,1.6034501791000366,0.3838571310043335
1772556555757215000,6.162215087890625,0.020863736048340797,1.6699625253677368,0.42509615421295166
1772556555767199000,6.172198974609375,0.10072901099920273,1.6241340637207031,0.5149275064468384
1772556555777183000,6.182182861328125,0.07018707692623138,1.425093412399292,0.556942343711853
1772556555787168000,6.19216796875,-0.057561032474040985,1.2280733585357666,0.570702075958252
1772556555797152000,6.202152099609375,-0.18107710778713226,0.8583844900131226,0.5252139568328857
1772556555807136000,6.212135986328125,-0.26334667205810547,0.45157837867736816,0.43664443492889404
1772556555817120000,6.2221201171875,-0.3266896903514862,0.17535504698753357,0.3355753421783447
1772556555827104000,6.23210400390625,-0.3601430058479309,0.049251168966293335,0.194170281291008
1772556555837088000,6.242087890625,-0.3264753222465515,0.05102723091840744,0.053771354258060455
1772556555847072000,6.252072021484375,-0.21357539296150208,0.12793612480163574,-0.07483962178230286
1772556555857056000,6.262055908203125,-0.059117913246154785,0.24391838908195496,-0.172746479511261
1772556555867040000,6.2720400390625,0.0783829540014267,0.37708550691604614,-0.21120011806488037
1772556555877024800,6.282024658203125,0.16435298323631287,0.48477280139923096,-0.18752436339855194
1772556555887009000,6.292009033203125,0.20348787307739258,0.6153596043586731,-0.1045176237821579
1772556555896993000,6.301992919921875,0.18476079404354095,0.8055428266525269,-0.05199103057384491
1772556555906977000,6.31197705078125,0.1330115795135498,0.9932696223258972,-0.021510884165763855
1772556555916961000,6.3219609375,0.0861913412809372,1.1667660474777222,0.014917963184416294
1772556555926945000,6.331945068359375,0.02598712593317032,1.3795750141143799,0.04288701340556145
1772556555936929000,6.341928955078125,-0.0510685108602047,1.6388555765151978,0.025316009297966957
1772556555946913000,6.3519130859375,-0.08645898848772049,1.890504002571106,-0.07113196700811386
1772556555956898000,6.36189794921875,-0.12199621647596359,2.1455600261688232,-0.21627265214920044
1772556555966882000,6.371882080078125,-0.20547592639923096,2.2874553203582764,-0.3780980408191681
1772556555976866000,6.381865966796875,-0.29592087864875793,2.275092601776123,-0.5335049033164978
1772556555986850000,6.39185009765625,-0.3564513325691223,2.1014740467071533,-0.6635119318962097
1772556555996834000,6.401833984375,-0.4406181275844574,1.855746865272522,-0.6744346022605896
1772556556006818000,6.411818115234375,-0.48406654596328735,1.5604389905929565,-0.6224534511566162
1772556556016802000,6.421802001953125,-0.5134620070457458,1.3523372411727905,-0.5512381196022034
1772556556026786000,6.4317861328125,-0.5157291293144226,1.2200689315795898,-0.48232269287109375
1772556556036770000,6.44177001953125,-0.4746546745300293,1.2074607610702515,-0.44091588258743286
1772556556046755000,6.451755126953125,-0.42247429490089417,1.2432554960250854,-0.41912642121315
1772556556056739000,6.461739013671875,-0.3763725757598877,1.2700196504592896,-0.4002496600151062
1772556556066723000,6.47172314453125,-0.3565352261066437,1.3344730138778687,-0.3845551311969757
1772556556076706800,6.481706787109375,-0.32486462593078613,1.4081379175186157,-0.3837237060070038
1772556556086690800,6.49169091796875,-0.2688083052635193,1.4227615594863892,-0.387224406003952
1772556556096674800,6.5016748046875,-0.2004729062318802,1.3843958377838135,-0.3832746744155884
1772556556106658800,6.511658935546875,-0.14281333982944489,1.313090443611145,-0.3508469760417938
1772556556116643000,6.52164306640625,-0.10364170372486115,1.2270115613937378,-0.2901308834552765
1772556556126627800,6.5316279296875,-0.08295080810785294,1.1576707363128662,-0.19870111346244812
1772556556136611800,6.54161181640625,-0.07993397861719131,1.120302677154541,-0.09263166785240173
1772556556146595800,6.551595947265625,-0.08098859339952469,1.0993698835372925,0.021385982632637024
1772556556156580000,6.561580078125,-0.08922068774700165,1.0926952362060547,0.11178432404994965
1772556556166564000,6.571564208984375,-0.10216684639453888,1.104163408279419,0.16863003373146057
1772556556176548000,6.581548095703125,-0.11092571914196014,1.118516206741333,0.2140371948480606
1772556556186532000,6.591531982421875,-0.10650673508644104,1.127253532409668,0.2509041130542755
1772556556196516000,6.60151611328125,-0.0794261172413826,1.1254547834396362,0.27344992756843567
1772556556206500000,6.6115,-0.037933800369501114,1.081385612487793,0.28878065943717957
1772556556216485000,6.621485107421875,0.013110209256410599,1.022884488105774,0.2944295108318329
1772556556226469000,6.63146923828125,0.07769479602575302,0.9548788070678711,0.2917005717754364
1772556556236453000,6.641453125,0.12310115993022919,0.8108143210411072,0.29770705103874207
1772556556246437000,6.65143701171875,0.16089966893196106,0.6511282324790955,0.3273022174835205
1772556556256421000,6.661421142578125,0.18641914427280426,0.4626035988330841,0.3821071684360504
1772556556266405000,6.671405029296875,0.190848246216774,0.2425423413515091,0.4246823191642761
1772556556276388900,6.681388916015625,0.16978663206100464,-0.04914277791976929,0.4313333034515381
1772556556286372900,6.691372802734375,0.13920822739601135,-0.34700295329093933,0.3740667998790741
1772556556296358100,6.701358154296875,0.11805420368909836,-0.6959697604179382,0.27015265822410583
1772556556306342000,6.711341796875,0.09335444867610931,-0.9650861620903015,0.15587082505226135
1772556556316326000,6.721325927734375,0.07339112460613251,-1.1129158735275269,0.05820738151669502
1772556556326310000,6.731309814453125,0.11764274537563324,-1.0828434228897095,0.0020152139477431774
1772556556336294000,6.7412939453125,0.23649641871452332,-0.9477865099906921,0.059419650584459305
1772556556346278000,6.75127783203125,0.4368564188480377,-0.6348153352737427,0.09221860766410828
1772556556356262000,6.761261962890625,0.6792464256286621,-0.3395911157131195,0.15104463696479797
1772556556366246000,6.771245849609375,0.8767309784889221,0.06673162430524826,0.23951591551303864
1772556556376231000,6.78123095703125,0.9925976991653442,0.3196195363998413,0.245897114276886
1772556556386215000,6.79121484375,0.9932078123092651,0.4491652846336365,0.2066597044467926
1772556556396199000,6.801198974609375,0.8240536451339722,0.4682689309120178,0.15543194115161896
1772556556406183000,6.811182861328125,0.5302824974060059,0.29122304916381836,0.045709699392318726
1772556556416167000,6.8211669921875,0.24017398059368134,-0.04550836235284805,-0.09111472964286804
1772556556426151000,6.83115087890625,-0.005885319784283638,-0.505536675453186,-0.24270851910114288
1772556556436135200,6.84113525390625,-0.18889082968235016,-0.9172677993774414,-0.334698885679245
1772556556446119200,6.851119140625,-0.3437075614929199,-1.1827479600906372,-0.32226431369781494
1772556556456104000,6.86110400390625,-0.3887309730052948,-1.2419617176055908,-0.22063331305980682
1772556556466088000,6.871087890625,-0.3495374917984009,-1.1127177476882935,-0.07294424623250961
1772556556476072200,6.881072265625,-0.23522822558879852,-0.8775051832199097,0.0592779703438282
1772556556486056200,6.89105615234375,-0.07469341158866882,-0.5987550616264343,0.1470770686864853
1772556556496040200,6.901040283203125,0.09896572679281235,-0.31840088963508606,0.18635869026184082
1772556556506024000,6.91102392578125,0.22435693442821503,-0.04686417803168297,0.20115680992603302
1772556556516008000,6.921008056640625,0.27190154790878296,0.21744763851165771,0.19012732803821564
1772556556525992000,6.930991943359375,0.22144636511802673,0.43494588136672974,0.1454480141401291
1772556556535976000,6.940975830078125,0.0832434892654419,0.5882765650749207,0.06312597543001175
1772556556545961000,6.9509609375,-0.13241663575172424,0.6369005441665649,-0.0682661384344101
1772556556555945000,6.960945068359375,-0.39067506790161133,0.5578294396400452,-0.22644884884357452
1772556556565929000,6.970928955078125,-0.656389594078064,0.3804325461387634,-0.39274993538856506
1772556556575913000,6.980912841796875,-0.8563240170478821,0.15024888515472412,-0.546924352645874
1772556556585897000,6.99089697265625,-0.9766448140144348,-0.05748593062162399,-0.6440508961677551
1772556556595881000,7.000880859375,-1.0026905536651611,-0.19836822152137756,-0.6865717172622681
1772556556605865000,7.010864990234375,-0.9435800909996033,-0.26329874992370605,-0.6906577944755554
1772556556615849000,7.020848876953125,-0.7962766289710999,-0.26459863781929016,-0.6741856336593628
1772556556625834000,7.030833984375,-0.581081748008728,-0.1943737417459488,-0.6612223982810974
1772556556635818000,7.04081787109375,-0.3281552493572235,-0.09036877751350403,-0.6635055541992188
1772556556645802000,7.050802001953125,-0.0744907483458519,0.02996349148452282,-0.6879456639289856
1772556556655786000,7.060785888671875,0.12111151218414307,0.07783860713243484,-0.7304946780204773
1772556556665770000,7.07077001953125,0.2293895184993744,0.03562537208199501,-0.7521770596504211
1772556556675754000,7.08075390625,0.26361966133117676,-0.053030725568532944,-0.7334790229797363
1772556556685738000,7.090738037109375,0.24095669388771057,-0.15835581719875336,-0.6744607090950012
1772556556695722000,7.100721923828125,0.1829003095626831,-0.23334164917469025,-0.5763202905654907
1772556556705707000,7.11070703125,0.11071000248193741,-0.22552500665187836,-0.45547589659690857
1772556556715691000,7.12069091796875,0.021745508536696434,-0.15568174421787262,-0.3428172767162323
1772556556725675000,7.130675048828125,-0.04550410062074661,-0.0027153589762747288,-0.25427010655403137
1772556556735659000,7.140658935546875,-0.08706513047218323,0.18930627405643463,-0.20647621154785156
1772556556745643000,7.15064306640625,-0.09646821767091751,0.36593297123908997,-0.20854522287845612
1772556556755627000,7.160626953125,-0.06832925975322723,0.5304111242294312,-0.25835511088371277
1772556556765611000,7.170611083984375,-0.03893701359629631,0.6180067658424377,-0.32309576869010925
1772556556775595000,7.180594970703125,-0.013806093484163284,0.6059120297431946,-0.3558233380317688
1772556556785580000,7.190580078125,-0.004861334338784218,0.5309872031211853,-0.32564282417297363
1772556556795564000,7.20056396484375,-0.016166718676686287,0.41054996848106384,-0.22732263803482056
1772556556805548000,7.210548095703125,-0.0491102896630764,0.26413312554359436,-0.08835995942354202
1772556556815532000,7.220531982421875,-0.09926053881645203,0.1179087907075882,0.06471987068653107
1772556556825516000,7.23051611328125,-0.17355261743068695,-0.03062155842781067,0.2027195543050766
1772556556835500000,7.2405,-0.25653591752052307,-0.16368639469146729,0.30444297194480896
1772556556845484000,7.250484130859375,-0.31320425868034363,-0.25920039415359497,0.35949400067329407
1772556556855468000,7.260468017578125,-0.32077908515930176,-0.2853880822658539,0.3648029863834381
1772556556865453000,7.270453125,-0.28452548384666443,-0.22751544415950775,0.3183121979236603
1772556556875437000,7.28043701171875,-0.2070610374212265,-0.11135581880807877,0.23381036520004272
1772556556885421000,7.290421142578125,-0.10603135824203491,0.035597141832113266,0.13602174818515778
1772556556895405000,7.300405029296875,-0.011227088049054146,0.17597076296806335,0.058945607393980026
1772556556905389000,7.31038916015625,0.051844023168087006,0.2814074456691742,0.01782240718603134
1772556556915373000,7.320373046875,0.11290284991264343,0.3632671535015106,0.014658038504421711
1772556556925357000,7.330357177734375,0.19467148184776306,0.4480571448802948,0.0536632277071476
1772556556935340800,7.3403408203125,0.20277628302574158,0.3941286504268646,0.12108727544546127
1772556556945326000,7.350326171875,0.11387623101472855,0.1791497766971588,0.2083478718996048
1772556556955310000,7.36031005859375,-0.01380822341889143,-0.12795689702033997,0.3054613769054413
1772556556965293800,7.3702939453125,-0.11352789402008057,-0.4962070882320404,0.3766721785068512
1772556556975277800,7.38027783203125,-0.170617014169693,-0.83040851354599,0.4204430878162384
1772556556985261800,7.39026171875,-0.21522095799446106,-1.1437866687774658,0.46995818614959717
1772556556995245800,7.400245849609375,-0.2581298053264618,-1.4072763919830322,0.5163832306861877
1772556557005229800,7.410229736328125,-0.24606755375862122,-1.5634084939956665,0.5597136616706848
1772556557015214000,7.420214111328125,-0.16579721868038177,-1.5898778438568115,0.5766116380691528
1772556557025198800,7.43019873046875,-0.007437942549586296,-1.4398516416549683,0.5762734413146973
1772556557035182800,7.440182861328125,0.16719591617584229,-1.1833194494247437,0.5525297522544861
1772556557045166800,7.450166748046875,0.28800809383392334,-0.8948884606361389,0.506434440612793
1772556557055151000,7.460151123046875,0.3486964702606201,-0.5703181028366089,0.45422449707984924
1772556557065135000,7.470135009765625,0.3409613072872162,-0.24527233839035034,0.38054415583610535
1772556557075119000,7.480119140625,0.28981369733810425,0.03960999473929405,0.2944287061691284
1772556557085103000,7.49010302734375,0.21024058759212494,0.2558578848838806,0.17820648849010468
1772556557095087000,7.500087158203125,0.11939829587936401,0.37206438183784485,0.01895558089017868
1772556557105071000,7.510071044921875,0.03423413634300232,0.3492535948753357,-0.190638929605484
1772556557115056000,7.52005615234375,-0.049248773604631424,0.3067426383495331,-0.3987279534339905
1772556557125040000,7.5300400390625,-0.12633050978183746,0.2056543529033661,-0.6199442148208618
1772556557135024000,7.540024169921875,-0.19572396576404572,0.10631498694419861,-0.8231474161148071
1772556557145008000,7.550008056640625,-0.26013705134391785,0.0054520233534276485,-0.992541491985321
1772556557154992000,7.5599921875,-0.32364463806152344,-0.11010972410440445,-1.1055394411087036
1772556557164975900,7.569975830078125,-0.380237877368927,-0.2488769292831421,-1.1302144527435303
1772556557174959900,7.5799599609375,-0.408033549785614,-0.43749985098838806,-1.0795788764953613
1772556557184945200,7.589945068359375,-0.40832969546318054,-0.6525354385375977,-0.9736011028289795
1772556557194929000,7.599928955078125,-0.38468295335769653,-0.895709753036499,-0.8263852596282959
1772556557204913000,7.609912841796875,-0.3285413980484009,-1.0979523658752441,-0.673138439655304
1772556557214897000,7.61989697265625,-0.22250044345855713,-1.2746261358261108,-0.5301027297973633
1772556557224881000,7.629880859375,-0.0711977481842041,-1.4509562253952026,-0.42096054553985596
1772556557234865000,7.639864990234375,0.09385325759649277,-1.6064726114273071,-0.3202989101409912
1772556557244849000,7.649848876953125,0.24118918180465698,-1.7161612510681152,-0.2202138602733612
1772556557254833000,7.6598330078125,0.34514567255973816,-1.7573195695877075,-0.11634258925914764
1772556557264818000,7.66981787109375,0.38920262455940247,-1.6619541645050049,-0.017600299790501595
1772556557274802000,7.679802001953125,0.37181535363197327,-1.42554771900177,0.03789172321557999
1772556557284786000,7.689785888671875,0.3200578987598419,-1.1134929656982422,0.021154288202524185
1772556557294769400,7.699769287109375,0.2618907392024994,-0.806429386138916,-0.05194096267223358
1772556557304753700,7.709753662109375,0.21338976919651031,-0.513451337814331,-0.14667706191539764
1772556557314737700,7.719737548828125,0.17897774279117584,-0.2629392147064209,-0.25213637948036194
1772556557324721700,7.7297216796875,0.1619068831205368,-0.09896386414766312,-0.33642834424972534
1772556557334705700,7.73970556640625,0.16516578197479248,-0.037509024143218994,-0.37593874335289
1772556557344690700,7.749690673828125,0.19307012856006622,-0.022302642464637756,-0.33324986696243286
1772556557354674700,7.7596748046875,0.26302629709243774,0.011447331868112087,-0.20521067082881927
1772556557364658700,7.76965869140625,0.35959333181381226,0.07318286597728729,-0.04356824979186058
1772556557374642700,7.779642578125,0.47717082500457764,0.09008967876434326,0.1049242839217186
1772556557384626700,7.789626708984375,0.6087690591812134,0.059432968497276306,0.19599507749080658
1772556557394610700,7.799610595703125,0.7219251990318298,0.004369981121271849,0.22432444989681244
1772556557404594700,7.8095947265625,0.8092994689941406,-0.147547647356987,0.1821034848690033
1772556557414578700,7.81957861328125,0.8595765233039856,-0.3461233079433441,0.10794723778963089
1772556557424563700,7.829563720703125,0.8562155961990356,-0.5834019184112549,0.0315222404897213
1772556557434547700,7.839547607421875,0.8109676837921143,-0.841611385345459,-0.03676414117217064
1772556557444531700,7.84953173828125,0.760481595993042,-1.013392686843872,-0.09865600615739822
1772556557454515700,7.859515625,0.6306959390640259,-1.1623632907867432,-0.10611125826835632
1772556557464499700,7.869499755859375,0.373694509267807,-1.3127692937850952,-0.02911527454853058
1772556557474483700,7.879483642578125,0.25723472237586975,-1.2993959188461304,0.01552596315741539
1772556557484467500,7.889467529296875,0.13627448678016663,-1.2713813781738281,0.06502800434827805
1772556557494451500,7.899451416015625,0.16681800782680511,-0.9641939997673035,0.18856005370616913
1772556557504436700,7.909436767578125,0.31520935893058777,-0.6405118107795715,0.24254846572875977
1772556557514420500,7.91942041015625,0.4937588572502136,-0.37120896577835083,0.22476093471050262
1772556557524404500,7.929404541015625,0.6057546138763428,-0.3524395525455475,0.04043317586183548
1772556557534388500,7.939388427734375,0.6332919597625732,-0.6230758428573608,-0.3034810423851013
1772556557544372500,7.94937255859375,0.5790987610816956,-1.0982756614685059,-0.7192316651344299
1772556557554356500,7.9593564453125,0.44941428303718567,-1.6710914373397827,-1.0202463865280151
1772556557564340500,7.969340576171875,0.2753612697124481,-2.1575400829315186,-1.1019569635391235
1772556557574324500,7.979324462890625,0.10696560144424438,-2.4083473682403564,-0.9915382862091064
1772556557584309500,7.9893095703125,-0.02418203465640545,-2.3698182106018066,-0.7887697219848633
1772556557594291700,7.999291748046875,-0.10415010154247284,-2.089089870452881,-0.5536019206047058
1772556557604275700,8.009275634765626,-0.07978324592113495,-1.6805659532546997,-0.30977702140808105
1772556557614259700,8.019259765625,-0.04297463223338127,-1.2211482524871826,-0.03722566366195679
1772556557624243700,8.02924365234375,-0.03760969266295433,-0.8236949443817139,0.22997461259365082
1772556557634227500,8.0392275390625,-0.05186958983540535,-0.5787336826324463,0.39507168531417847
1772556557644211500,8.04921142578125,-0.02502625808119774,-0.4256112277507782,0.4558649957180023
1772556557654195500,8.059195556640624,0.012195679359138012,-0.29595255851745605,0.40985357761383057
1772556557664180500,8.069180419921874,0.045095574110746384,-0.1779140681028366,0.2712562680244446
1772556557674164500,8.07916455078125,0.00914502888917923,-0.10182543098926544,0.03844805806875229
1772556557684148500,8.0891484375,-0.04927833378314972,-0.1673961877822876,-0.21777893602848053
1772556557694132500,8.099132568359375,-0.14797161519527435,-0.27130767703056335,-0.5104590058326721
1772556557704116500,8.109116455078125,-0.19493860006332397,-0.539300262928009,-0.7362260818481445
1772556557714100500,8.1191005859375,-0.26785409450531006,-0.8294955492019653,-0.8981478810310364
1772556557724084700,8.129084716796875,-0.3126811981201172,-0.9313191175460815,-0.9677253365516663
1772556557734069500,8.139069580078125,-0.31929436326026917,-0.8773198127746582,-1.0032963752746582
1772556557744053500,8.149053466796875,-0.3014189600944519,-0.7583849430084229,-1.0159118175506592
1772556557754037500,8.15903759765625,-0.2767445147037506,-0.5766057968139648,-0.9924871325492859
1772556557764021800,8.169021728515625,-0.24254952371120453,-0.40672221779823303,-0.9001681208610535
1772556557774005800,8.179005859375,-0.18252266943454742,-0.2349611073732376,-0.7572693228721619
1772556557783989800,8.18898974609375,-0.12793080508708954,-0.1013396680355072,-0.5935272574424744
1772556557793973800,8.198973876953126,-0.054479487240314484,0.001241033081896603,-0.4219139516353607
1772556557803957800,8.208957763671876,0.0382230207324028,0.09659045189619064,-0.2508271634578705
1772556557813942800,8.21894287109375,0.13142406940460205,0.1451643854379654,-0.11068150401115417
1772556557823926800,8.2289267578125,0.20736463367938995,0.06986589729785919,-0.03923076018691063
1772556557833910800,8.238910888671874,0.2904430031776428,-0.06862300634384155,0.0015361113473773003
1772556557843894800,8.248894775390625,0.3944447934627533,-0.19046582281589508,-0.003698331769555807
1772556557853878800,8.258878662109375,0.5001706480979919,-0.2543068528175354,-0.0454910509288311
1772556557863862500,8.268862548828125,0.5961605906486511,-0.2680213153362274,-0.08656951040029526
1772556557873846500,8.278846435546875,0.6607028245925903,-0.22706271708011627,-0.12713398039340973
1772556557883830500,8.28883056640625,0.6635199189186096,-0.16290369629859924,-0.17269428074359894
1772556557893815600,8.298815673828125,0.5887253284454346,-0.07750890403985977,-0.2325831800699234
1772556557903799600,8.308799560546875,0.47003114223480225,0.02436179853975773,-0.31550469994544983
1772556557913783600,8.318783447265625,0.3424593508243561,0.12381834536790848,-0.4219736158847809
1772556557923767600,8.328767578125,0.22015580534934998,0.2103380560874939,-0.5316675901412964
1772556557933751600,8.33875146484375,0.12785649299621582,0.27457135915756226,-0.6294628977775574
1772556557943735600,8.348735595703126,0.05613118037581444,0.30066555738449097,-0.7117577791213989
1772556557953719600,8.358719482421876,-0.002667954657226801,0.31737715005874634,-0.7435010671615601
1772556557963703600,8.36870361328125,-0.04778509959578514,0.33159390091896057,-0.7238277196884155
1772556557973691600,8.378691650390625,-0.07645083218812943,0.35246777534484863,-0.6889289021492004
1772556557983675600,8.388675537109375,-0.10645134001970291,0.2994897663593292,-0.616944432258606
1772556557993659600,8.39865966796875,-0.12503354251384735,0.23119433224201202,-0.5335384607315063
1772556558003643400,8.408643310546875,-0.13907399773597717,0.19603954255580902,-0.44435054063796997
1772556558013627600,8.418627685546875,-0.13043230772018433,0.23769964277744293,-0.3655763864517212
1772556558023611600,8.428611572265625,-0.11404507607221603,0.3909320831298828,-0.3130439221858978
1772556558033595600,8.438595703125,-0.10115937143564224,0.5919978022575378,-0.2988530099391937
1772556558043580400,8.448580322265625,-0.09088969230651855,0.7960246801376343,-0.334471732378006
1772556558053564700,8.458564697265626,-0.07763060927391052,0.9808529019355774,-0.40419408679008484
1772556558063548700,8.468548583984376,-0.0028847360517829657,1.1462668180465698,-0.48042386770248413
1772556558073532700,8.47853271484375,0.131799578666687,1.2846615314483643,-0.5115697979927063
1772556558083516700,8.4885166015625,0.22975888848304749,1.2851943969726562,-0.5155426859855652
1772556558093500700,8.498500732421874,0.21132050454616547,1.105364203453064,-0.4609561562538147
1772556558103484700,8.508484619140624,0.12356960773468018,0.8917807936668396,-0.34949594736099243
1772556558113468700,8.51846875,0.013586382381618023,0.6535410284996033,-0.22576069831848145
1772556558123453700,8.52845361328125,-0.10954780131578445,0.28604772686958313,-0.1578247845172882
1772556558133437700,8.538437744140625,-0.2878917157649994,-0.11218752712011337,-0.15137194097042084
1772556558143421700,8.548421630859375,-0.47068843245506287,-0.4489293396472931,-0.17431800067424774
1772556558153405700,8.55840576171875,-0.6030102372169495,-0.7348843812942505,-0.23091097176074982
1772556558163389700,8.5683896484375,-0.5997372269630432,-0.8500556945800781,-0.3117925226688385
1772556558173373700,8.578373779296875,-0.5270742177963257,-0.8185787200927734,-0.43056178092956543
1772556558183357700,8.588357666015625,-0.3516746759414673,-0.5855969190597534,-0.549403727054596
1772556558193342700,8.5983427734375,-0.21450456976890564,-0.4221571087837219,-0.6277533769607544
1772556558203326700,8.60832666015625,-0.050816576927900314,-0.19613967835903168,-0.6328213810920715
1772556558213310700,8.618310791015626,0.05710403248667717,0.00833942275494337,-0.5361292362213135
1772556558223294700,8.628294677734376,0.09306149929761887,0.17910876870155334,-0.371049165725708
1772556558233278500,8.638278564453126,0.05458308383822441,0.3196222186088562,-0.16534049808979034
1772556558243262500,8.648262451171876,-0.07977179437875748,0.46725159883499146,0.06746825575828552
1772556558253246500,8.65824658203125,-0.1992417275905609,0.5926966071128845,0.29673847556114197
1772556558263230500,8.66823046875,-0.23306840658187866,0.6716905236244202,0.4840013086795807
1772556558273215500,8.678215576171874,-0.2150193601846695,0.5434228181838989,0.5454862117767334
1772556558283199500,8.688199462890625,-0.19220805168151855,0.21212904155254364,0.4642172157764435
1772556558293186600,8.6981865234375,-0.19845983386039734,-0.1658390313386917,0.27081018686294556
1772556558303170600,8.708170654296875,-0.19735541939735413,-0.37452512979507446,0.06838864833116531
1772556558313154800,8.71815478515625,-0.13730965554714203,-0.43736109137535095,-0.08564326167106628
1772556558323138800,8.728138916015626,-0.08852241188287735,-0.4546402096748352,-0.15763622522354126
1772556558333122800,8.738122802734376,-0.050043459981679916,-0.4673842489719391,-0.13421852886676788
1772556558343107600,8.748107666015626,-0.015172561630606651,-0.4766842722892761,-0.05570746958255768
1772556558353091800,8.758091796875,0.010408432222902775,-0.5051952600479126,0.04338768869638443
1772556558363075800,8.768075927734374,0.017315074801445007,-0.5267311930656433,0.15062706172466278
1772556558373059800,8.778059814453124,-0.004995557479560375,-0.52586829662323,0.23871536552906036
1772556558383043800,8.7880439453125,-0.05444273725152016,-0.5111753940582275,0.29608359932899475
1772556558393027800,8.79802783203125,-0.11604085564613342,-0.5043624639511108,0.3070821762084961
1772556558403011600,8.808011474609375,-0.17092807590961456,-0.4945426285266876,0.28337791562080383
1772556558412995600,8.81799560546875,-0.21033646166324615,-0.47805657982826233,0.2528413236141205
1772556558422980900,8.82798095703125,-0.23362873494625092,-0.45395392179489136,0.23103322088718414
1772556558432964600,8.837964599609375,-0.24821646511554718,-0.4270980656147003,0.22144237160682678
1772556558442948600,8.847948486328125,-0.2477320432662964,-0.4099734127521515,0.22303548455238342
1772556558452932600,8.8579326171875,-0.23285508155822754,-0.37119564414024353,0.22442804276943207
1772556558462916600,8.86791650390625,-0.22151188552379608,-0.310787171125412,0.22748535871505737
1772556558472900600,8.877900634765625,-0.21204620599746704,-0.25202956795692444,0.22939804196357727
1772556558482884600,8.887884521484375,-0.19729815423488617,-0.1887398213148117,0.23830658197402954
1772556558492869600,8.89786962890625,-0.15628467500209808,-0.12551185488700867,0.2692809998989105
1772556558502853600,8.907853515625,-0.07996540516614914,-0.04932041093707085,0.3572457432746887
1772556558512837600,8.917837646484376,-0.004516188520938158,0.04881680756807327,0.4715707302093506
1772556558522821600,8.927821533203126,0.05091404542326927,0.06932474672794342,0.5243958830833435
1772556558532805600,8.9378056640625,0.13471759855747223,0.09625808894634247,0.598035454750061
1772556558542789600,8.94778955078125,0.1596945822238922,0.16812056303024292,0.659450888633728
1772556558552773600,8.957773681640624,0.17990532517433167,0.2290337234735489,0.677753746509552
1772556558562757600,8.967757568359374,0.1824430376291275,0.2747034728527069,0.6744378209114075
1772556558572742700,8.97774267578125,0.16081976890563965,0.27303794026374817,0.6283276081085205
1772556558582726700,8.9877265625,0.12569613754749298,0.2399396300315857,0.5667728781700134
1772556558592710700,8.997710693359375,0.06041540578007698,0.17402265965938568,0.5137336254119873
1772556558602694700,9.007694580078125,-0.04378476366400719,0.04060548171401024,0.4372963607311249
1772556558612678700,9.0176787109375,-0.17777958512306213,-0.09420079737901688,0.33393535017967224
1772556558622662700,9.02766259765625,-0.3217143714427948,-0.19517189264297485,0.23153123259544373
1772556558632646700,9.037646728515625,-0.4515562653541565,-0.2207086682319641,0.18190428614616394
1772556558642631700,9.047631591796875,-0.5387702584266663,-0.15569612383842468,0.24769209325313568
1772556558652615400,9.057615478515626,-0.5598409175872803,0.012769591063261032,0.4196063280105591
1772556558662599700,9.067599609375,-0.49217215180397034,0.17801447212696075,0.6434468626976013
1772556558672583700,9.077583740234376,-0.39170679450035095,0.24114656448364258,0.8233410120010376
1772556558682567700,9.087567626953126,-0.2933671772480011,0.22746777534484863,0.9097248911857605
1772556558692551700,9.0975517578125,-0.15711238980293274,0.19567282497882843,0.9121869802474976
1772556558702535700,9.10753564453125,-0.07171493023633957,0.05554741621017456,0.8091671466827393
1772556558712520700,9.117520751953125,-0.07070932537317276,-0.22798070311546326,0.600439727306366
1772556558722504700,9.127504638671875,-0.13221849501132965,-0.5942233800888062,0.3146093487739563
1772556558732488700,9.13748876953125,-0.20921367406845093,-0.8983137607574463,0.023033414036035538
1772556558742472700,9.14747265625,-0.27922338247299194,-1.047702431678772,-0.17625093460083008
1772556558752456700,9.157456787109375,-0.32385796308517456,-1.0495997667312622,-0.21804870665073395
1772556558762440700,9.167440673828125,-0.3246600925922394,-0.9638142585754395,-0.08909125626087189
1772556558772424700,9.1774248046875,-0.27240410447120667,-0.7948009967803955,0.158081516623497
1772556558782408700,9.18740869140625,-0.21646173298358917,-0.6902838945388794,0.367010235786438
1772556558792393700,9.197393798828125,-0.11147406697273254,-0.5851635932922363,0.5926276445388794
1772556558802377700,9.207377685546875,-0.06112407520413399,-0.5109564661979675,0.7297700643539429
1772556558812361700,9.21736181640625,-0.02076147124171257,-0.42570123076438904,0.7583401799201965
1772556558822345700,9.227345703125,0.02279825694859028,-0.3732076585292816,0.715860903263092
1772556558832329700,9.237329833984376,0.04063398018479347,-0.36808881163597107,0.6082121729850769
1772556558842313700,9.247313720703126,0.023019565269351006,-0.36653485894203186,0.4677826464176178
1772556558852297700,9.257297607421876,-0.01930791698396206,-0.35506463050842285,0.32965993881225586
1772556558862282800,9.26728271484375,-0.07446011900901794,-0.3330293595790863,0.22247302532196045
1772556558872266800,9.277266845703124,-0.12269502878189087,-0.2749181091785431,0.13536980748176575
1772556558882250500,9.28725048828125,-0.1524028480052948,-0.17547142505645752,0.08662304282188416
1772556558892234500,9.297234375,-0.15726205706596375,-0.051360923796892166,0.06576357036828995
1772556558902218500,9.307218505859375,-0.14498594403266907,0.09044814109802246,0.07584895938634872
1772556558912202500,9.317202392578125,-0.1261318325996399,0.23064705729484558,0.099542036652565
1772556558922186500,9.3271865234375,-0.09529775381088257,0.36247432231903076,0.13914883136749268
1772556558932171500,9.337171630859375,-0.0635044053196907,0.44080641865730286,0.18725670874118805
1772556558942155500,9.347155517578125,-0.02016519010066986,0.47484907507896423,0.2422749549150467
1772556558952139500,9.357139404296875,0.014430604875087738,0.47415584325790405,0.2966114282608032
1772556558962123500,9.36712353515625,0.04201216623187065,0.4488702118396759,0.3535234332084656
1772556558972107800,9.377107666015625,0.056597497314214706,0.401753306388855,0.4036390781402588
1772556558982091800,9.387091796875,0.06428205221891403,0.3421488106250763,0.4359980821609497
1772556558992075800,9.39707568359375,0.05734771117568016,0.2889532446861267,0.443036288022995
1772556559002060500,9.407060546875,0.020600883290171623,0.23282977938652039,0.4152936041355133
1772556559012044500,9.41704443359375,-0.05335989594459534,0.17354649305343628,0.34115201234817505
1772556559022028800,9.42702880859375,-0.13902153074741364,0.11064475774765015,0.25016164779663086
1772556559032012800,9.4370126953125,-0.21315568685531616,0.039688024669885635,0.15181909501552582
1772556559041996800,9.446996826171874,-0.2779916822910309,-0.03248204290866852,0.06358030438423157
1772556559051980800,9.456980712890624,-0.33873412013053894,-0.10285075008869171,-0.0013294500531628728
1772556559061964800,9.46696484375,-0.40268275141716003,-0.1696060746908188,-0.035588089376688004
1772556559071948800,9.47694873046875,-0.45010989904403687,-0.21755069494247437,-0.032822128385305405
1772556559081933800,9.486933837890625,-0.4816390573978424,-0.2524506151676178,-0.0020594224333763123
1772556559091917800,9.496917724609375,-0.5076118111610413,-0.2608760595321655,0.05871258303523064
1772556559101901800,9.50690185546875,-0.5284020304679871,-0.2577471137046814,0.124946728348732
1772556559111885600,9.516885498046875,-0.5348189473152161,-0.25507277250289917,0.19566777348518372
1772556559121869600,9.52686962890625,-0.5353848338127136,-0.23433926701545715,0.27365392446517944
1772556559131853600,9.536853515625,-0.515256404876709,-0.20799393951892853,0.35715892910957336
1772556559141837600,9.546837646484375,-0.48601409792900085,-0.15571662783622742,0.44290897250175476
1772556559151822600,9.556822509765626,-0.4488377273082733,-0.09468603134155273,0.5160337686538696
1772556559161806600,9.566806640625,-0.3853468894958496,-0.049498312175273895,0.5736579298973083
1772556559171790600,9.57679052734375,-0.32958003878593445,-0.012990366667509079,0.5921538472175598
1772556559181774600,9.586774658203124,-0.28101861476898193,0.027605794370174408,0.5725809335708618
1772556559191758600,9.596758544921874,-0.2346375435590744,0.04676670581102371,0.5186066627502441
1772556559201742600,9.60674267578125,-0.1781894415616989,0.06162421405315399,0.4453202188014984
1772556559211726600,9.6167265625,-0.1332310289144516,0.1202920526266098,0.3811012804508209
1772556559221711600,9.626711669921875,-0.13017743825912476,0.21076390147209167,0.3513021171092987
1772556559231695600,9.636695556640625,-0.17456167936325073,0.2817627191543579,0.32633817195892334
1772556559241679600,9.6466796875,-0.2715311050415039,0.25702834129333496,0.2545265555381775
1772556559251663600,9.65666357421875,-0.3972693383693695,0.11590156704187393,0.07762235403060913
1772556559261647600,9.666647705078125,-0.5318508148193359,-0.0635685920715332,-0.2501818835735321
1772556559271631600,9.676631591796875,-0.6195982694625854,-0.18787962198257446,-0.6798666715621948
1772556559281615600,9.68661572265625,-0.6308684945106506,-0.23663517832756042,-1.0572611093521118
1772556559291597300,9.696597412109375,-0.5541841387748718,-0.21970652043819427,-1.2813626527786255
1772556559301581000,9.7065810546875,-0.40369901061058044,-0.17231051623821259,-1.3090592622756958
1772556559311565000,9.71656494140625,-0.21266299486160278,-0.1036510244011879,-1.101478099822998
1772556559321549000,9.726549072265625,-0.006040315609425306,-0.06767331808805466,-0.7288795113563538
1772556559331533300,9.736533203125,0.15679414570331573,-0.03622644767165184,-0.27954936027526855
1772556559341517300,9.746517333984375,0.2279474139213562,-0.010320547968149185,0.14207644760608673
1772556559351501300,9.756501220703125,0.24596929550170898,0.01655048131942749,0.4210399091243744
1772556559361485300,9.7664853515625,0.21818506717681885,0.039675239473581314,0.5265048146247864
1772556559371470300,9.77647021484375,0.15269207954406738,0.11383069306612015,0.49559882283210754
1772556559381454300,9.786454345703126,0.06780434399843216,0.2291884422302246,0.3820136785507202
1772556559391438300,9.796438232421876,0.0017638115677982569,0.35546010732650757,0.22893837094306946
1772556559401422300,9.80642236328125,-0.03457874804735184,0.4779420793056488,0.04671690613031387
1772556559411406300,9.81640625,-0.036187831312417984,0.5739546418190002,-0.15523885190486908
1772556559421390300,9.826390380859374,-0.008494684472680092,0.6119840145111084,-0.3727237582206726
1772556559431374300,9.836374267578124,0.03634043037891388,0.6012725234031677,-0.5871409773826599
1772556559441359400,9.846359375,0.08139792084693909,0.5530714392662048,-0.7529605627059937
1772556559451343400,9.85634326171875,0.11352922767400742,0.46360069513320923,-0.8386054635047913
1772556559461327400,9.866327392578125,0.10716906189918518,0.32700660824775696,-0.8162341117858887
1772556559471311400,9.876311279296875,0.07188057899475098,0.16048315167427063,-0.7004576921463013
1772556559481295400,9.88629541015625,0.01534380204975605,-0.013522999361157417,-0.5426235795021057
1772556559491279400,9.896279296875,-0.06453078985214233,-0.16932325065135956,-0.3742111623287201
1772556559501263000,9.90626318359375,-0.16070792078971863,-0.2833334505558014,-0.2215299904346466
1772556559511248400,9.916248291015625,-0.24977654218673706,-0.3536882996559143,-0.10015083849430084
1772556559521232400,9.926232421875,-0.2987672686576843,-0.40627747774124146,-0.02539350651204586
1772556559531216100,9.936216064453125,-0.3082744777202606,-0.4310382008552551,0.0005480785621330142
1772556559541200100,9.9462001953125,-0.2771056294441223,-0.4323064088821411,-0.0297834612429142
1772556559551184100,9.95618408203125,-0.20677821338176727,-0.3789454400539398,-0.08549279719591141
1772556559561168100,9.966168212890626,-0.10455836355686188,-0.30073267221450806,-0.1466197967529297
1772556559571152100,9.976152099609376,-0.0023395870812237263,-0.20769301056861877,-0.1978776603937149
1772556559581137200,9.98613720703125,0.0900164395570755,-0.10372373461723328,-0.2169477641582489
1772556559591121200,9.99612109375,0.17156429588794708,-0.010353039018809795,-0.20480826497077942
1772556559601105200,10.006105224609374,0.23832282423973083,0.08414896577596664,-0.1689583957195282
1772556559611089200,10.016089111328125,0.28668102622032166,0.17276164889335632,-0.1100601926445961
1772556559621073200,10.0260732421875,0.31738701462745667,0.23996466398239136,-0.033004287630319595
1772556559631057200,10.03605712890625,0.3337382972240448,0.30535033345222473,0.08456388860940933
1772556559641041200,10.046041259765625,0.3466689884662628,0.38546034693717957,0.2291668802499771
1772556559651026200,10.056026123046875,0.359279602766037,0.4573233425617218,0.3887735903263092
1772556559661010200,10.06601025390625,0.37612834572792053,0.5109096169471741,0.5410041213035583
1772556559670994200,10.075994140625,0.39802512526512146,0.5482625961303711,0.6415373682975769
1772556559680978200,10.085978271484375,0.4181613028049469,0.5520644783973694,0.685079038143158
1772556559690962400,10.09596240234375,0.4286198019981384,0.5332100987434387,0.6672028303146362
1772556559700946400,10.105946533203126,0.4190840721130371,0.5096805691719055,0.5949826836585999
1772556559710930400,10.115930419921876,0.3884585201740265,0.45765891671180725,0.48594141006469727
1772556559720915200,10.125915283203126,0.3279014527797699,0.360177606344223,0.37699761986732483
1772556559730899500,10.1358994140625,0.23339331150054932,0.21995100378990173,0.2675555348396301
1772556559740883500,10.145883544921874,0.10506436973810196,0.0542597770690918,0.15339568257331848
1772556559750867500,10.155867431640624,-0.03614282235503197,-0.12390010803937912,0.012623916380107403
1772556559760851200,10.165851318359374,-0.1652906835079193,-0.28094619512557983,-0.1414617896080017
1772556559770835200,10.175835205078124,-0.2597857713699341,-0.3739381730556488,-0.269727885723114
1772556559780819200,10.185819091796875,-0.29967325925827026,-0.39905789494514465,-0.31676942110061646
1772556559790804200,10.19580419921875,-0.28357312083244324,-0.35107892751693726,-0.23921312391757965
1772556559800788200,10.205788330078125,-0.20656302571296692,-0.25221067667007446,-0.043118443340063095
1772556559810772200,10.215772216796875,-0.06313768774271011,-0.157504141330719,0.21119506657123566
1772556559820756200,10.225756103515625,0.09200529009103775,-0.14946912229061127,0.38307201862335205
1772556559830740200,10.235740234375,0.2317804992198944,-0.26372939348220825,0.36647120118141174
1772556559840724200,10.24572412109375,0.26821067929267883,-0.5046964287757874,0.10673124343156815
1772556559850708200,10.255708251953125,0.18447263538837433,-0.8129879832267761,-0.37444764375686646
1772556559860693200,10.265693359375,0.07013381272554398,-1.0998687744140625,-0.9686183333396912
1772556559870677200,10.27567724609375,0.008957808837294579,-1.2840068340301514,-1.5128768682479858
1772556559880661200,10.2856611328125,0.0014261227333918214,-1.3107892274856567,-1.8584667444229126
1772556559890645200,10.295645263671876,0.08038591593503952,-1.1316365003585815,-1.883119821548462
1772556559900629200,10.305629150390626,0.22333136200904846,-0.7684457898139954,-1.5466680526733398
1772556559910613200,10.31561328125,0.36072462797164917,-0.31407430768013,-0.9071682691574097
1772556559920597200,10.32559716796875,0.47158777713775635,0.08054730296134949,-0.13663001358509064
1772556559930582300,10.335582275390625,0.561585545539856,0.33426427841186523,0.5431756973266602
1772556559940566300,10.345566162109375,0.6098465919494629,0.45240581035614014,1.0062615871429443
1772556559950550300,10.35555029296875,0.6054510474205017,0.5007949471473694,1.2249984741210938
1772556559960534300,10.3655341796875,0.5487488508224487,0.5144702792167664,1.2275140285491943
1772556559970518300,10.375518310546875,0.4531315267086029,0.4798068106174469,1.065686583518982
1772556559980502300,10.385502197265625,0.3286588490009308,0.39868053793907166,0.8013467788696289
1772556559990486300,10.395486328125,0.1773257851600647,0.2813829481601715,0.492948979139328
1772556560000471300,10.40547119140625,-0.00030306773260235786,0.13841938972473145,0.18740610778331757
1772556560010455000,10.415455078125,-0.1843205690383911,-0.018998991698026657,-0.08643875271081924
1772556560020439000,10.42543896484375,-0.3456870913505554,-0.1487191766500473,-0.324980229139328
1772556560030423000,10.435423095703126,-0.4548383355140686,-0.23982484638690948,-0.5176761746406555
1772556560040407300,10.4454072265625,-0.5331251621246338,-0.2645842432975769,-0.6381370425224304
1772556560050391300,10.455391357421876,-0.5968338251113892,-0.2661754786968231,-0.6969492435455322
1772556560060375300,10.465375244140626,-0.591088593006134,-0.2654985189437866,-0.700630247592926
1772556560070360000,10.475360107421874,-0.5261886715888977,-0.2593652606010437,-0.656462550163269
1772556560080344300,10.48534423828125,-0.41672611236572266,-0.2505853474140167,-0.5805560350418091
1772556560090328300,10.495328369140625,-0.281726211309433,-0.22408875823020935,-0.4576490521430969
1772556560100312300,10.505312255859375,-0.1924397498369217,-0.29947778582572937,-0.37674301862716675
1772556560110296300,10.51529638671875,-0.12491876631975174,-0.33710986375808716,-0.30489039421081543
1772556560120280300,10.5252802734375,-0.070775106549263,-0.332863986492157,-0.2607450485229492
1772556560130264300,10.535264404296875,-0.03827601671218872,-0.30677592754364014,-0.24109970033168793
1772556560140249300,10.545249267578125,-0.03623097389936447,-0.27799832820892334,-0.2232716977596283
1772556560150233300,10.5552333984375,-0.04761066287755966,-0.24633920192718506,-0.19883932173252106
1772556560160217300,10.56521728515625,-0.05726808309555054,-0.20976334810256958,-0.1639026552438736
1772556560170201300,10.575201416015625,-0.05602225661277771,-0.1792144924402237,-0.12371714413166046
1772556560180185300,10.585185302734375,-0.04789428785443306,-0.16541612148284912,-0.09355578571557999
1772556560190169300,10.59516943359375,-0.03333398699760437,-0.1549171507358551,-0.08819590508937836
1772556560200153300,10.6051533203125,-0.009845440275967121,-0.1565653681755066,-0.10848546773195267
1772556560210138400,10.615138427734376,0.004096474498510361,-0.16644464433193207,-0.15365667641162872
1772556560220122400,10.625122314453124,-0.01618749275803566,-0.19452127814292908,-0.19327890872955322
1772556560230106400,10.6351064453125,-0.07515999674797058,-0.23469692468643188,-0.2034178376197815
1772556560240090000,10.645090087890624,-0.1306152641773224,-0.24402225017547607,-0.16236494481563568
1772556560250074000,10.65507421875,-0.15293201804161072,-0.2184084951877594,-0.05908782035112381
1772556560260058000,10.66505810546875,-0.190267413854599,-0.17310521006584167,0.10023685544729233
1772556560270042000,10.6750419921875,-0.2549113929271698,-0.10266832262277603,0.2723388373851776
1772556560280027100,10.685027099609375,-0.32933980226516724,-0.022399848327040672,0.4116184413433075
1772556560290015000,10.695014892578126,-0.40836966037750244,0.042383141815662384,0.4950539469718933
1772556560299999000,10.7049990234375,-0.467204213142395,0.04892439767718315,0.5046018958091736
1772556560309983000,10.71498291015625,-0.48913827538490295,0.020249610766768456,0.47278299927711487
1772556560319967000,10.724967041015624,-0.4749726355075836,-0.02798609435558319,0.4283319115638733
1772556560329951000,10.734950927734374,-0.4328339695930481,-0.0335390530526638,0.39110782742500305
1772556560339935000,10.74493505859375,-0.3687972128391266,0.01690947450697422,0.37244147062301636
1772556560349920000,10.754919921875,-0.29193785786628723,0.08494977653026581,0.35861167311668396
1772556560359904000,10.764904052734375,-0.18825353682041168,0.17523600161075592,0.34521570801734924
1772556560369888000,10.774887939453125,-0.07575548440217972,0.2894025146961212,0.328421026468277
1772556560379872000,10.7848720703125,-0.02534077689051628,0.3761424720287323,0.2717774510383606
1772556560389856000,10.79485595703125,-0.05991180241107941,0.41229888796806335,0.15658588707447052
1772556560399840000,10.804840087890625,-0.13778449594974518,0.3778892457485199,-0.01306200586259365
1772556560409824000,10.814823974609375,-0.2525355815887451,0.274323970079422,-0.2557835578918457
1772556560419809000,10.82480908203125,-0.38286614418029785,0.12431422621011734,-0.5526530742645264
1772556560429792800,10.834792724609375,-0.4738219082355499,-0.037144437432289124,-0.8105807304382324
1772556560439777000,10.844777099609376,-0.5146670341491699,-0.18396104872226715,-1.008679747581482
1772556560449761000,10.854760986328126,-0.48936888575553894,-0.2769700884819031,-1.1081562042236328
1772556560459745000,10.8647451171875,-0.387146919965744,-0.33065861463546753,-1.056427240371704
1772556560469729000,10.87472900390625,-0.23758219182491302,-0.36249589920043945,-0.864636242389679
1772556560479713000,10.884713134765626,-0.047082822769880295,-0.31388843059539795,-0.44676685333251953
1772556560489698000,10.894697998046874,0.04168513044714928,-0.23060205578804016,-0.07878109812736511
1772556560499682000,10.90468212890625,0.07790225744247437,-0.10600419342517853,0.2535313367843628
1772556560509666000,10.914666015625,0.05281447991728783,0.01375416200608015,0.4746996760368347
1772556560519650000,10.924650146484375,-0.006155097857117653,0.10284169018268585,0.554634690284729
1772556560529634000,10.934634033203125,-0.07631155103445053,0.16341103613376617,0.5231282114982605
1772556560539618000,10.9446181640625,-0.13743188977241516,0.21720847487449646,0.4132557511329651
1772556560549602000,10.95460205078125,-0.1673530489206314,0.2672804296016693,0.2762928307056427
1772556560559587000,10.964587158203125,-0.17624028027057648,0.30368876457214355,0.1349373161792755
1772556560569571000,10.974571044921875,-0.15507107973098755,0.30781376361846924,-0.009689112193882465
1772556560579555000,10.98455517578125,-0.09606767445802689,0.2605106830596924,-0.17008677124977112
1772556560589539000,10.9945390625,-0.008423578925430775,0.1476009041070938,-0.3540360927581787
1772556560599523000,11.004523193359375,0.10025709867477417,0.019107913598418236,-0.5256179571151733
1772556560609507000,11.014507080078126,0.18190135061740875,-0.08564726263284683,-0.6379743218421936
1772556560619491000,11.024490966796876,0.22158858180046082,-0.14343225955963135,-0.6631641387939453
1772556560629476000,11.03447607421875,0.2326739877462387,-0.16593198478221893,-0.6047452688217163
1772556560639460000,11.044460205078124,0.22227275371551514,-0.17070916295051575,-0.4941481947898865
1772556560649444000,11.054444091796874,0.19094306230545044,-0.15415547788143158,-0.36335957050323486
1772556560659427800,11.064427734375,0.1403597742319107,-0.1294005960226059,-0.2530975043773651
1772556560669411800,11.074411865234374,0.08642437309026718,-0.10951930284500122,-0.18271814286708832
1772556560679395800,11.084395751953124,0.031146733090281487,-0.06713562458753586,-0.1511586308479309
1772556560689379800,11.0943798828125,-0.007798534352332354,-0.046432480216026306,-0.15953212976455688
1772556560699364900,11.10436474609375,-0.030237797647714615,-0.04166062921285629,-0.19531942903995514
1772556560709348900,11.114348876953125,-0.029888389632105827,-0.052085038274526596,-0.23141485452651978
1772556560719332900,11.124332763671875,-0.01824345253407955,-0.06456886976957321,-0.2582901418209076
1772556560729316900,11.13431689453125,0.003876763628795743,-0.07217193394899368,-0.2595013380050659
1772556560739300900,11.14430078125,0.030282272025942802,-0.05832961946725845,-0.229755699634552
1772556560749284900,11.154284912109375,0.0686725378036499,-0.027422036975622177,-0.17976497113704681
1772556560759269000,11.16426904296875,0.10584680736064911,0.02057505026459694,-0.11600223928689957
1772556560769254000,11.17425390625,0.13669845461845398,0.07695470005273819,-0.05913762375712395
1772556560779238000,11.18423779296875,0.1636962592601776,0.1171460673213005,-0.012496616691350937
1772556560789222000,11.194221923828126,0.19190765917301178,0.12533554434776306,0.04969725012779236
1772556560799206100,11.2042060546875,0.21662364900112152,0.1367216259241104,0.12674063444137573
1772556560809190100,11.214190185546874,0.2359134554862976,0.18384893238544464,0.22491274774074554
1772556560819174100,11.224174072265624,0.24917148053646088,0.24868251383304596,0.34580880403518677
1772556560829158100,11.234158203125,0.2584661841392517,0.3140231668949127,0.44060587882995605
1772556560839142100,11.24414208984375,0.25708267092704773,0.38245442509651184,0.4914184510707855
1772556560849127200,11.254127197265625,0.2555350959300995,0.4384836256504059,0.4933825433254242
1772556560859111200,11.264111083984375,0.2539835274219513,0.4847264587879181,0.4582602381706238
1772556560869095200,11.27409521484375,0.2499547153711319,0.5106685757637024,0.40620848536491394
1772556560879079200,11.2840791015625,0.2277117222547531,0.48166435956954956,0.34083375334739685
1772556560889063000,11.29406298828125,0.18017855286598206,0.3834339380264282,0.2736259400844574
1772556560899047000,11.304046875,0.1168280839920044,0.22559185326099396,0.20339785516262054
1772556560909032200,11.3140322265625,0.029147231951355934,0.04969192296266556,0.10524812340736389
1772556560919016000,11.324015869140625,-0.05983137711882591,-0.09733640402555466,-0.018488196656107903
1772556560929000000,11.334,-0.12799924612045288,-0.1607353538274765,-0.12217171490192413
1772556560938984000,11.34398388671875,-0.15309341251850128,-0.15651556849479675,-0.1760738343000412
1772556560948968000,11.353968017578126,-0.12865304946899414,-0.09868422895669937,-0.13324300944805145
1772556560958952000,11.363951904296876,-0.04896514490246773,0.031749941408634186,0.017193101346492767
1772556560968936000,11.37393603515625,0.07290083914995193,0.21411281824111938,0.2321123331785202
1772556560978920000,11.383919921875,0.20749007165431976,0.34696701169013977,0.43012315034866333
1772556560988905000,11.393905029296874,0.3079618215560913,0.3525383472442627,0.5230368375778198
1772556560998889000,11.403888916015624,0.39094460010528564,0.2885252833366394,0.48110058903694153
1772556561008873000,11.413873046875,0.4494803249835968,0.1649269014596939,0.2982998788356781
1772556561018857000,11.42385693359375,0.45032137632369995,-0.01769617199897766,-0.009838782250881195
1772556561028841000,11.433841064453125,0.40537917613983154,-0.24687716364860535,-0.4180459678173065
1772556561038825000,11.443824951171875,0.3184533417224884,-0.49230608344078064,-0.8169390559196472
1772556561048809000,11.45380908203125,0.24275219440460205,-0.6996534466743469,-1.0948103666305542
1772556561058794000,11.4637939453125,0.2228969931602478,-0.7573233842849731,-1.1521133184432983
1772556561068778000,11.473778076171875,0.26620131731033325,-0.6219895482063293,-0.9682430624961853
1772556561078762000,11.483761962890625,0.341271311044693,-0.3678206205368042,-0.5961307883262634
1772556561088746000,11.49374609375,0.41416069865226746,-0.09588631242513657,-0.03761954605579376
1772556561098730000,11.50372998046875,0.45653772354125977,0.14797134697437286,0.37776806950569153
1772556561108714000,11.5137138671875,0.457681804895401,0.2832591235637665,0.6488866806030273
1772556561118698000,11.523697998046876,0.4102306663990021,0.3408382833003998,0.7245110869407654
1772556561128683000,11.53368310546875,0.3267107307910919,0.3729562759399414,0.65273517370224
1772556561138667000,11.5436669921875,0.2155168354511261,0.3705386519432068,0.48097994923591614
1772556561148651000,11.553651123046874,0.07624790072441101,0.3027665317058563,0.2517717778682709
1772556561158635000,11.563635009765624,-0.07299751043319702,0.20233206450939178,0.02106054313480854
1772556561168619000,11.573618896484374,-0.20362769067287445,0.09953618049621582,-0.1692207157611847
1772556561178603000,11.58360302734375,-0.28361546993255615,0.04375866428017616,-0.2977462112903595
1772556561188587000,11.5935869140625,-0.32724684476852417,0.045525141060352325,-0.35739755630493164
1772556561198571000,11.603571044921875,-0.33582648634910583,0.0850355327129364,-0.3697594106197357
1772556561208556000,11.61355615234375,-0.30495643615722656,0.14063221216201782,-0.3419938087463379
1772556561218540000,11.6235400390625,-0.2561987638473511,0.1891062706708908,-0.2776705026626587
1772556561228524000,11.63352392578125,-0.17822885513305664,0.221819207072258,-0.200002059340477
1772556561238508000,11.643508056640625,-0.07547850906848907,0.22536201775074005,-0.11882305890321732
1772556561248492000,11.653491943359375,0.035832565277814865,0.20426419377326965,-0.04180044308304787
1772556561258476000,11.66347607421875,0.13670724630355835,0.17503465712070465,0.025969548150897026
1772556561268460000,11.6734599609375,0.19860497117042542,0.13476474583148956,0.09859342128038406
1772556561278445000,11.683445068359376,0.2321176528930664,0.07863835245370865,0.16633518040180206
1772556561288425200,11.69342529296875,0.23627671599388123,0.02888358011841774,0.21729716658592224
1772556561298409200,11.7034091796875,0.1932903677225113,0.005619269795715809,0.24327896535396576
1772556561308393200,11.713393310546875,0.1181894913315773,-0.0012250541476532817,0.2514370381832123
1772556561318377200,11.723377197265625,0.023154055699706078,0.0028485171496868134,0.24147173762321472
1772556561328361200,11.733361328125,-0.09470946341753006,0.012172509916126728,0.22381338477134705
1772556561338345000,11.743344970703125,-0.2202913612127304,0.01949087716639042,0.19217929244041443
1772556561348329000,11.753328857421875,-0.34044280648231506,0.028597023338079453,0.15633420646190643
1772556561358314200,11.763314208984376,-0.4463769495487213,0.03699956461787224,0.12431689351797104
1772556561368298000,11.773298095703124,-0.5291658639907837,0.039924513548612595,0.12144307792186737
1772556561378282000,11.783281982421874,-0.5929621458053589,0.02316364273428917,0.15279167890548706
1772556561388266000,11.793265869140624,-0.6345775127410889,-0.013252688571810722,0.2091316431760788
1772556561398250000,11.80325,-0.6612713932991028,-0.061713699251413345,0.28710076212882996
1772556561408234200,11.813234130859374,-0.6715672016143799,-0.11276569962501526,0.3538360893726349
1772556561418218200,11.82321826171875,-0.676566481590271,-0.1427678018808365,0.39296966791152954
1772556561428203000,11.833203125,-0.6924370527267456,-0.1635977178812027,0.40501752495765686
1772556561438187000,11.84318701171875,-0.7090368270874023,-0.1733986884355545,0.397983580827713
1772556561448171300,11.853171142578125,-0.7304004430770874,-0.19811254739761353,0.3644288182258606
1772556561458155300,11.8631552734375,-0.7441481947898865,-0.23161618411540985,0.3103112578392029
1772556561468139300,11.87313916015625,-0.7410043478012085,-0.2631070017814636,0.24288322031497955
1772556561478123300,11.883123291015625,-0.7228381037712097,-0.2818143665790558,0.17362664639949799
1772556561488107300,11.893107177734375,-0.6713791489601135,-0.294167697429657,0.1004650890827179
1772556561498091300,11.90309130859375,-0.6014429926872253,-0.2758243978023529,0.04008163884282112
1772556561508076300,11.913076171875,-0.5092912316322327,-0.23167796432971954,-0.016441823914647102
1772556561518060300,11.923060302734376,-0.39693349599838257,-0.16323871910572052,-0.03929707035422325
1772556561528044300,11.933044189453126,-0.3169212341308594,-0.09563517570495605,-0.05212019383907318
1772556561538028300,11.9430283203125,-0.2890685498714447,-0.06605544686317444,-0.06670445948839188
1772556561548012300,11.95301220703125,-0.2989693880081177,-0.05632771924138069,-0.06408870220184326
1772556561557996300,11.962996337890624,-0.32165446877479553,-0.08829550445079803,-0.08803638070821762
1772556561567980000,11.97297998046875,-0.3750327229499817,-0.15266729891300201,-0.1798536479473114
1772556561577965300,11.98296533203125,-0.44587627053260803,-0.24179132282733917,-0.3317403793334961
1772556561587946200,11.9929462890625,-0.515407145023346,-0.32699277997016907,-0.4949037432670593
1772556561597930200,12.00293017578125,-0.539389967918396,-0.36403948068618774,-0.608651340007782
1772556561607914200,12.012914306640624,-0.4959399700164795,-0.3533109128475189,-0.6231330633163452
1772556561617898200,12.022898193359374,-0.40095674991607666,-0.30202537775039673,-0.5452806353569031
1772556561627882200,12.03288232421875,-0.27028343081474304,-0.23549480736255646,-0.39147135615348816
1772556561637866200,12.0428662109375,-0.15488891303539276,-0.17240798473358154,-0.1928301751613617
1772556561647850200,12.052850341796875,-0.08419930189847946,-0.13400280475616455,-0.02941807545721531
1772556561657835300,12.062835205078125,-0.06131768599152565,-0.11014008522033691,0.09261035919189453
1772556561667819300,12.0728193359375,-0.07568836957216263,-0.09050379693508148,0.1564790904521942
1772556561677803300,12.08280322265625,-0.11041572690010071,-0.05790937319397926,0.18627773225307465
1772556561687787000,12.092787109375,-0.15440981090068817,0.00748960766941309,0.21533708274364471
1772556561697771000,12.10277099609375,-0.1982627511024475,0.09531266987323761,0.23653876781463623
1772556561707755000,12.112755126953125,-0.22738255560398102,0.18616853654384613,0.2403271198272705
1772556561717739000,12.122739013671875,-0.2307211011648178,0.2659541964530945,0.20307189226150513
1772556561727723000,12.132722900390625,-0.21181771159172058,0.32374823093414307,0.11006765067577362
1772556561737708000,12.1427080078125,-0.1675112396478653,0.3358328640460968,-0.026497919112443924
1772556561747692000,12.152692138671876,-0.10194820165634155,0.3018309473991394,-0.18935954570770264
1772556561757676000,12.162676025390626,-0.030581610277295113,0.21923674643039703,-0.3646698296070099
1772556561767660000,12.172659912109374,0.02364594116806984,0.10223662108182907,-0.5058309435844421
1772556561777644000,12.18264404296875,0.05684836953878403,-0.034391794353723526,-0.579808235168457
1772556561787628300,12.192628173828124,0.07198204845190048,-0.17717690765857697,-0.5941629409790039
1772556561797612300,12.2026123046875,0.07988258451223373,-0.316090852022171,-0.5444965958595276
1772556561807596300,12.21259619140625,0.07244144380092621,-0.42814069986343384,-0.4457239508628845
1772556561817581000,12.2225810546875,0.05639003962278366,-0.5133863687515259,-0.3299728333950043
1772556561827565300,12.2325654296875,0.038535140454769135,-0.5688077807426453,-0.2074437290430069
1772556561837549300,12.24254931640625,0.03177444264292717,-0.5854336619377136,-0.10641618818044662
1772556561847533300,12.252533203125,0.043163448572158813,-0.5685878396034241,-0.04314347729086876
1772556561857517300,12.262517333984375,0.06882566958665848,-0.5034277439117432,-0.021620074287056923
1772556561867501300,12.272501220703125,0.10663483291864395,-0.4266628921031952,-0.03069506213068962
1772556561877485300,12.2824853515625,0.1434415876865387,-0.34862881898880005,-0.059295281767845154
1772556561887470300,12.29247021484375,0.17050303518772125,-0.2716562747955322,-0.0837460309267044
1772556561897454300,12.302454345703126,0.18962319195270538,-0.20727914571762085,-0.09502584487199783
1772556561907438300,12.312438232421876,0.19624647498130798,-0.1476275473833084,-0.1032203957438469
1772556561917422000,12.322422119140626,0.1835397332906723,-0.10378338396549225,-0.10390349477529526
1772556561927406000,12.332406005859376,0.16335323452949524,-0.0634002760052681,-0.08685127645730972
1772556561937390000,12.34239013671875,0.1415826976299286,-0.025834793224930763,-0.06459790468215942
