time,seconds_elapsed,z,y,x
1772656284477260300,0.00026025390625,0,0.0006108472589403391,0.001374406274408102
1772656284487139000,0.01013916015625,-0.00015271181473508477,0.0012216945178806782,-0.0004581354442052543
1772656284497017600,0.020017578125,0,0,0.00015271181473508477
1772656284506896100,0.029896240234375,-0.00015271181473508477,0.0006108472589403391,-0.0004581354442052543
1772656284516774700,0.039774658203125,0.0004581354442052543,0.0006108472589403391,-0.0004581354442052543
1772656284526653400,0.0496533203125,-0.0006108472589403391,0.0006108472589403391,0.00015271181473508477
1772656284536532000,0.059531982421875,-0.001374406274408102,0.0006108472589403391,-0.0010689827613532543
1772656284546410500,0.069410400390625,-0.00015271181473508477,0.0006108472589403391,-0.0004581354442052543
1772656284556289000,0.0792890625,0,0,-0.0004581354442052543
1772656284566167800,0.089167724609375,0,0.0006108472589403391,0.00015271181473508477
1772656284576046300,0.09904638671875,-0.0006108472589403391,0,0.00015271181473508477
1772656284585924900,0.1089248046875,0,0.0012216945178806782,0.0007635590736754239
1772656284634317800,0.15731787109375,0,-0.0006108472589403391,0.00015271181473508477
1772656284663953700,0.18695361328125,-0.00015271181473508477,0.0012216945178806782,0.00015271181473508477
1772656284683710700,0.206710693359375,0,0,0.001374406274408102
1772656284693589200,0.21658935546875,-0.00015271181473508477,0,-0.0016798300202935934
1772656284703468000,0.226468017578125,0,0.0006108472589403391,0.00015271181473508477
1772656284713346600,0.2363466796875,0.0004581354442052543,0.0006108472589403391,-0.0010689827613532543
1772656284723225000,0.24622509765625,0,-0.0006108472589403391,-0.0004581354442052543
1772656284733103600,0.256103515625,-0.0006108472589403391,0,0.00015271181473508477
1772656284742982400,0.265982421875,-0.0012216945178806782,0,-0.0010689827613532543
1772656284752861000,0.27586083984375,0.0012216945178806782,0,-0.0004581354442052543
1772656284762739500,0.285739501953125,0.0004581354442052543,0.0012216945178806782,0.00015271181473508477
1772656284772618000,0.295617919921875,0,0,-0.0004581354442052543
1772656284782496800,0.305496826171875,-0.0006108472589403391,0,0.00015271181473508477
1772656284792375300,0.315375244140625,-0.0007635590736754239,0.0012216945178806782,-0.0010689827613532543
1772656284802253800,0.32525390625,-0.0006108472589403391,0.0006108472589403391,0.0007635590736754239
1772656284812132400,0.33513232421875,0.0004581354442052543,0.0006108472589403391,-0.0004581354442052543
1772656284822011100,0.34501123046875,0.0006108472589403391,0.0006108472589403391,0.00015271181473508477
1772656284831889700,0.3548896484375,0.0012216945178806782,0.0006108472589403391,0.0007635590736754239
1772656284841768200,0.364768310546875,-0.00015271181473508477,-0.00030542362947016954,0
1772656284851646700,0.374646728515625,-0.00015271181473508477,0.00030542362947016954,0
1772656284861525200,0.384525146484375,-0.0007635590736754239,-0.00030542362947016954,0.0006108472589403391
1772656284871404000,0.394404052734375,-0.0007635590736754239,0.00030542362947016954,0
1772656284881282600,0.404282470703125,-0.00015271181473508477,0.0009162708884105086,0
1772656284891161000,0.4141611328125,-0.00030542362947016954,0.0009162708884105086,0
1772656284901039600,0.42403955078125,-0.00015271181473508477,0.00030542362947016954,0
1772656284910918400,0.43391845703125,-0.0015271181473508477,0.0009162708884105086,-0.0006108472589403391
1772656284920797000,0.443796875,-0.00030542362947016954,0.00030542362947016954,-0.0006108472589403391
1772656284930675500,0.453675537109375,0.0004581354442052543,-0.00030542362947016954,0
1772656284940554000,0.463553955078125,-0.00030542362947016954,-0.00030542362947016954,-0.0006108472589403391
1772656284950432500,0.4734326171875,-0.00015271181473508477,0.00030542362947016954,0
1772656284960311300,0.483311279296875,0.00030542362947016954,-0.00030542362947016954,-0.0006108472589403391
1772656284970189800,0.49318994140625,-0.00015271181473508477,-0.00030542362947016954,0.0006108472589403391
1772656284980068400,0.503068359375,-0.00030542362947016954,0.00030542362947016954,-0.0006108472589403391
1772656284989947000,0.51294677734375,-0.00030542362947016954,0.0009162708884105086,0.0006108472589403391
1772656284999825700,0.52282568359375,-0.00030542362947016954,0.00030542362947016954,-0.0006108472589403391
1772656285009704200,0.5327041015625,-0.0007635590736754239,0.00030542362947016954,-0.0006108472589403391
1772656285019582700,0.542582763671875,-0.00015271181473508477,0.00030542362947016954,-0.0006108472589403391
1772656285029461200,0.552461181640625,0.0009162708884105086,0.00030542362947016954,-0.0012216945178806782
1772656285039340000,0.562340087890625,-0.00030542362947016954,0.00030542362947016954,-0.0006108472589403391
1772656285049218600,0.572218505859375,-0.00015271181473508477,-0.00030542362947016954,0
1772656285059097000,0.58209716796875,-0.00030542362947016954,-0.00030542362947016954,-0.0012216945178806782
1772656285068975600,0.5919755859375,-0.00015271181473508477,-0.00030542362947016954,-0.0006108472589403391
1772656285078854100,0.601854248046875,0.00030542362947016954,0.00030542362947016954,-0.0006108472589403391
1772656285088733000,0.61173291015625,0.0004581354442052543,0.00030542362947016954,0.0006108472589403391
1772656285098611500,0.621611572265625,0.0010689827613532543,-0.00030542362947016954,0.0006108472589403391
1772656285108490000,0.631489990234375,-0.00015271181473508477,0.00030542362947016954,0.0006108472589403391
1772656285118368500,0.641368408203125,-0.0007635590736754239,-0.00030542362947016954,-0.0006108472589403391
1772656285128247300,0.651247314453125,-0.00015271181473508477,-0.00030542362947016954,-0.0012216945178806782
1772656285138125800,0.661125732421875,-0.00015271181473508477,-0.00030542362947016954,-0.0006108472589403391
1772656285148004400,0.67100439453125,0.0004581354442052543,-0.0009162708884105086,0.0006108472589403391
1772656285157883000,0.6808828125,-0.00015271181473508477,0.00030542362947016954,0.0012216945178806782
1772656285167761400,0.690761474609375,-0.00015271181473508477,0.00030542362947016954,0
1772656285177640200,0.70064013671875,-0.0007635590736754239,0.00030542362947016954,0.0006108472589403391
1772656285187518700,0.710518798828125,-0.00015271181473508477,0.00030542362947016954,0
1772656285197397200,0.720397216796875,-0.00015271181473508477,-0.0009162708884105086,0
1772656285207275800,0.73027587890625,-0.0007635590736754239,-0.00030542362947016954,0
1772656285217154300,0.740154296875,-0.00015271181473508477,0.00030542362947016954,0.0012216945178806782
1772656285227033000,0.750033203125,0.0004581354442052543,-0.00030542362947016954,0
1772656285236911600,0.75991162109375,0.0009162708884105086,0.0009162708884105086,-0.0006108472589403391
1772656285246790100,0.7697900390625,0.0010689827613532543,0.00030542362947016954,-0.0012216945178806782
1772656285256668700,0.779668701171875,-0.00015271181473508477,-0.00030542362947016954,-0.0012216945178806782
1772656285266547200,0.789547119140625,0.0004581354442052543,-0.00030542362947016954,0
1772656285276426000,0.799426025390625,0.0010689827613532543,-0.00030542362947016954,-0.0012216945178806782
1772656285286304500,0.809304443359375,-0.00015271181473508477,0.00030542362947016954,0
1772656285296183000,0.81918310546875,-0.0007635590736754239,0.00030542362947016954,0
1772656285306061800,0.829061767578125,-0.00015271181473508477,0.00030542362947016954,0.0006108472589403391
1772656285315940400,0.8389404296875,-0.00015271181473508477,0.0009162708884105086,0.0012216945178806782
1772656285325819000,0.84881884765625,-0.00015271181473508477,-0.00030542362947016954,0.0006108472589403391
1772656285335697400,0.858697509765625,-0.00015271181473508477,-0.00030542362947016954,0
1772656285345576000,0.868575927734375,-0.00015271181473508477,-0.0009162708884105086,0.0006108472589403391
1772656285355454500,0.878454345703125,0.0004581354442052543,0.0015271181473508477,0.0006108472589403391
1772656285365333200,0.888333251953125,-0.0007635590736754239,0.0009162708884105086,-0.0012216945178806782
1772656285375211800,0.898211669921875,-0.0007635590736754239,0.00030542362947016954,0.0006108472589403391
1772656285385090300,0.90809033203125,-0.00015271181473508477,0.00030542362947016954,0
1772656285394968800,0.91796875,0.0004581354442052543,-0.00030542362947016954,-0.0006108472589403391
1772656285404847400,0.927847412109375,-0.0007635590736754239,0.0009162708884105086,0
1772656285414726100,0.93772607421875,-0.00015271181473508477,-0.00030542362947016954,0
1772656285424604700,0.947604736328125,-0.00015271181473508477,0.00030542362947016954,0.0006108472589403391
1772656285434483200,0.957483154296875,-0.00015271181473508477,0.0009162708884105086,-0.0006108472589403391
1772656285444361700,0.96736181640625,-0.00015271181473508477,0.00030542362947016954,-0.0006108472589403391
1772656285454240500,0.977240478515625,-0.00015271181473508477,0.00030542362947016954,0
1772656285464119000,0.987119140625,-0.00015271181473508477,0.00030542362947016954,0.0006108472589403391
1772656285473997600,0.99699755859375,-0.00015271181473508477,0.00030542362947016954,0
1772656285483876000,1.0068759765625,0.0004581354442052543,-0.0009162708884105086,-0.0006108472589403391
1772656285493754600,1.016754638671875,-0.00015271181473508477,0.00030542362947016954,0.0006108472589403391
1772656285503633400,1.02663330078125,0.0004581354442052543,0.00030542362947016954,0
1772656285513512000,1.036511962890625,0.0004581354442052543,-0.00030542362947016954,-0.0012216945178806782
1772656285523390500,1.046390380859375,-0.00015271181473508477,0.00030542362947016954,0.0006108472589403391
1772656285533269000,1.05626904296875,0.0004581354442052543,0.00030542362947016954,0.0012216945178806782
1772656285543147500,1.0661474609375,0.0004581354442052543,0.0009162708884105086,0
1772656285553026300,1.0760263671875,-0.00015271181473508477,0.00030542362947016954,0
1772656285562904800,1.08590478515625,-0.00015271181473508477,-0.0009162708884105086,0.0006108472589403391
1772656285572783400,1.095783447265625,-0.001374406274408102,-0.00030542362947016954,0.0006108472589403391
1772656285582662000,1.105661865234375,0.0004581354442052543,0.0009162708884105086,0
1772656285592540400,1.11554052734375,0.0010689827613532543,0.00030542362947016954,0.0006108472589403391
1772656285602419200,1.125419189453125,0.0004581354442052543,0.00030542362947016954,0.0006108472589403391
1772656285612297700,1.135297607421875,-0.00015271181473508477,-0.00030542362947016954,0
1772656285622176300,1.14517626953125,-0.00015271181473508477,0.0009162708884105086,0.0006108472589403391
1772656285632054800,1.1550546875,-0.00015271181473508477,0.00030542362947016954,-0.0006108472589403391
1772656285641933300,1.164933349609375,-0.00015271181473508477,0.00030542362947016954,-0.0012216945178806782
1772656285651812000,1.17481201171875,0.0004581354442052543,0.00030542362947016954,-0.0006108472589403391
1772656285661690600,1.184690673828125,-0.00015271181473508477,-0.00030542362947016954,0
1772656285671569200,1.194569091796875,-0.0007635590736754239,-0.00030542362947016954,-0.0006108472589403391
1772656285681447700,1.20444775390625,0.0004581354442052543,0.00030542362947016954,0.0006108472589403391
1772656285691326500,1.214326416015625,-0.00015271181473508477,-0.00030542362947016954,0
1772656285701205000,1.224205078125,0.0004581354442052543,0.00030542362947016954,0.0006108472589403391
1772656285711083500,1.23408349609375,-0.0007635590736754239,0.00030542362947016954,0
1772656285720962000,1.243962158203125,-0.0007635590736754239,-0.00030542362947016954,0
1772656285730840600,1.253840576171875,-0.0007635590736754239,-0.00030542362947016954,0
1772656285740719000,1.263718994140625,0.0004581354442052543,-0.0009162708884105086,0.0006108472589403391
1772656285750598000,1.273597900390625,-0.001374406274408102,-0.0009162708884105086,0.0012216945178806782
1772656285760476400,1.283476318359375,0.0004581354442052543,0.00030542362947016954,0.0012216945178806782
1772656285770355000,1.29335498046875,-0.00015271181473508477,-0.00030542362947016954,0
1772656285780233500,1.3032333984375,-0.0007635590736754239,-0.00030542362947016954,0
1772656285790112000,1.313112060546875,-0.0007635590736754239,-0.00030542362947016954,0.0006108472589403391
1772656285799990800,1.32299072265625,-0.0007635590736754239,-0.00030542362947016954,0.0006108472589403391
1772656285809869300,1.332869384765625,-0.00015271181473508477,0.00030542362947016954,0.0018325417768210173
1772656285819747800,1.342747802734375,-0.00015271181473508477,0.0015271181473508477,0.0006108472589403391
1772656285829626400,1.35262646484375,-0.00015271181473508477,0.00030542362947016954,-0.0006108472589403391
1772656285839505000,1.3625048828125,0.0004581354442052543,-0.00030542362947016954,-0.0006108472589403391
1772656285849383700,1.3723837890625,-0.0007635590736754239,0.00030542362947016954,-0.0006108472589403391
1772656285859262200,1.38226220703125,-0.00015271181473508477,0.00030542362947016954,-0.0006108472589403391
1772656285869140700,1.392140625,-0.00030542362947016954,0.0009162708884105086,-0.0006108472589403391
1772656285879019300,1.402019287109375,-0.00015271181473508477,0.00030542362947016954,-0.0006108472589403391
1772656285888897800,1.411897705078125,0.0004581354442052543,-0.0009162708884105086,0
1772656285898776300,1.4217763671875,-0.00015271181473508477,0.00030542362947016954,0
1772656285908655000,1.431655029296875,-0.00015271181473508477,0.00030542362947016954,0.0006108472589403391
1772656285918533600,1.44153369140625,0.0004581354442052543,-0.0009162708884105086,0.0012216945178806782
1772656285928412200,1.451412109375,-0.001374406274408102,-0.00030542362947016954,0
1772656285938290700,1.461290771484375,-0.00015271181473508477,-0.00030542362947016954,-0.0006108472589403391
1772656285948169500,1.47116943359375,-0.00015271181473508477,0.00030542362947016954,0.0006108472589403391
1772656285958048000,1.481048095703125,-0.00015271181473508477,-0.00030542362947016954,-0.0006108472589403391
1772656285967926500,1.490926513671875,-0.00015271181473508477,-0.00030542362947016954,0.0012216945178806782
1772656285977805000,1.50080517578125,-0.00015271181473508477,-0.00030542362947016954,0
1772656285987683600,1.51068359375,-0.00015271181473508477,0.00030542362947016954,-0.0006108472589403391
1772656285997562000,1.52056201171875,0.0004581354442052543,-0.00030542362947016954,0
1772656286007441000,1.53044091796875,-0.00015271181473508477,0.00030542362947016954,0.0006108472589403391
1772656286017319400,1.5403193359375,-0.0007635590736754239,0.00030542362947016954,-0.0012216945178806782
1772656286027198000,1.550197998046875,-0.00015271181473508477,-0.00030542362947016954,-0.0006108472589403391
1772656286037076500,1.560076416015625,0.0004581354442052543,0.00030542362947016954,0
1772656286046955300,1.569955322265625,0.0004581354442052543,-0.00030542362947016954,-0.0006108472589403391
1772656286056833800,1.579833740234375,-0.00015271181473508477,0.0009162708884105086,0
1772656286066712300,1.58971240234375,-0.001374406274408102,0.00030542362947016954,-0.0006108472589403391
1772656286076590800,1.5995908203125,-0.00015271181473508477,-0.00030542362947016954,-0.0006108472589403391
1772656286086469400,1.609469482421875,0.0004581354442052543,-0.0009162708884105086,-0.0006108472589403391
1772656286096348000,1.619347900390625,0.0004581354442052543,0.0009162708884105086,-0.0006108472589403391
1772656286106226400,1.629226318359375,-0.00015271181473508477,0.00030542362947016954,0.0006108472589403391
1772656286116105200,1.639105224609375,-0.001985253533348441,0.00030542362947016954,0
1772656286125983700,1.648983642578125,-0.001374406274408102,-0.0009162708884105086,0.0006108472589403391
1772656286135862300,1.6588623046875,-0.0007635590736754239,-0.00030542362947016954,0.0006108472589403391
1772656286145740800,1.66874072265625,-0.00015271181473508477,-0.00030542362947016954,0.0006108472589403391
1772656286155619600,1.67861962890625,-0.00015271181473508477,-0.00030542362947016954,0.0006108472589403391
1772656286165498000,1.688498046875,-0.00015271181473508477,0.00030542362947016954,-0.0012216945178806782
1772656286175376600,1.698376708984375,-0.00015271181473508477,-0.00030542362947016954,0
1772656286185255200,1.708255126953125,-0.0007635590736754239,0.00030542362947016954,0.0006108472589403391
1772656286195133700,1.7181337890625,-0.0007635590736754239,-0.0009162708884105086,-0.0006108472589403391
1772656286205012200,1.72801220703125,0.0010689827613532543,-0.0009162708884105086,0
1772656286214891000,1.73789111328125,-0.0007635590736754239,0.00030542362947016954,-0.0006108472589403391
1772656286224769500,1.74776953125,0.0004581354442052543,-0.00030542362947016954,-0.0006108472589403391
1772656286234648000,1.75764794921875,-0.00015271181473508477,0.00030542362947016954,-0.0006108472589403391
1772656286244526600,1.767526611328125,0.0004581354442052543,0.00030542362947016954,-0.0006108472589403391
1772656286254405000,1.777405029296875,0.0004581354442052543,-0.00030542362947016954,0.0012216945178806782
1772656286264284000,1.787283935546875,0.0004581354442052543,-0.00030542362947016954,0
1772656286274162400,1.797162353515625,-0.00015271181473508477,-0.00030542362947016954,-0.0012216945178806782
1772656286284041000,1.807041015625,0.0004581354442052543,0.00030542362947016954,0.0006108472589403391
1772656286293919500,1.81691943359375,0.0004581354442052543,-0.00030542362947016954,0
1772656286303798000,1.826798095703125,0.0004581354442052543,0.00030542362947016954,-0.0006108472589403391
1772656286313676500,1.836676513671875,-0.00015271181473508477,-0.00030542362947016954,0
1772656286323555300,1.846555419921875,0.0004581354442052543,-0.00030542362947016954,-0.0006108472589403391
1772656286333433900,1.856433837890625,-0.00015271181473508477,0.00030542362947016954,0
1772656286343312400,1.8663125,-0.001374406274408102,0.0009162708884105086,-0.0006108472589403391
1772656286353191000,1.87619091796875,-0.0007635590736754239,-0.00030542362947016954,0
1772656286363069400,1.8860693359375,0,-0.00030542362947016954,-0.0006108472589403391
1772656286372948200,1.8959482421875,0,0.00030542362947016954,0.0006108472589403391
1772656286382826800,1.90582666015625,0,-0.00030542362947016954,0
1772656286392705300,1.915705322265625,-0.0006108472589403391,0.0009162708884105086,-0.0006108472589403391
1772656286402583800,1.925583740234375,0.0012216945178806782,-0.00030542362947016954,0.0006108472589403391
1772656286412462300,1.93546240234375,0.0006108472589403391,0.00030542362947016954,-0.0006108472589403391
1772656286422340900,1.9453408203125,0.0006108472589403391,-0.00030542362947016954,0
1772656286432219600,1.9552197265625,0,-0.00030542362947016954,0
1772656286442098200,1.96509814453125,0,0.00030542362947016954,0.0012216945178806782
1772656286451976700,1.974976806640625,0,0.00030542362947016954,0.0006108472589403391
1772656286461855200,1.984855224609375,-0.0006108472589403391,-0.00030542362947016954,0.0006108472589403391
1772656286471733800,1.994733642578125,0,0.00030542362947016954,-0.0006108472589403391
1772656286481612500,2.004612548828125,0.0006108472589403391,0.00030542362947016954,0.0006108472589403391
1772656286491491000,2.014490966796875,0,0.00030542362947016954,0.0012216945178806782
1772656286501369600,2.02436962890625,-0.0006108472589403391,0.00030542362947016954,-0.0006108472589403391
1772656286511248100,2.034248046875,-0.0007635590736754239,0.00030542362947016954,-0.0012216945178806782
1772656286521126700,2.044126708984375,0,-0.00030542362947016954,0
1772656286531005200,2.054005126953125,-0.001374406274408102,0.00030542362947016954,0
1772656286540884000,2.063884033203125,0.0006108472589403391,0.00030542362947016954,0.0006108472589403391
1772656286550762500,2.073762451171875,0.0006108472589403391,-0.00030542362947016954,0
1772656286560641000,2.08364111328125,0,-0.0009162708884105086,0.0012216945178806782
1772656286570519600,2.09351953125,0,-0.0009162708884105086,0.0012216945178806782
1772656286580398000,2.103398193359375,-0.0012216945178806782,0.00030542362947016954,0.0006108472589403391
1772656286590276900,2.11327685546875,0,0.0009162708884105086,-0.0006108472589403391
1772656286600155400,2.1231552734375,0,-0.0009162708884105086,0.0012216945178806782
1772656286610034000,2.133033935546875,0,-0.00030542362947016954,0
1772656286619912400,2.142912353515625,0,-0.00030542362947016954,-0.0006108472589403391
1772656286629791000,2.152791015625,-0.0006108472589403391,0.00030542362947016954,-0.0006108472589403391
1772656286639669500,2.16266943359375,0,-0.00030542362947016954,-0.0006108472589403391
1772656286649548300,2.17254833984375,0,0.00030542362947016954,-0.0012216945178806782
1772656286659426800,2.1824267578125,-0.00015271181473508477,0.0009162708884105086,0
1772656286669305300,2.192305419921875,-0.0006108472589403391,-0.00030542362947016954,0
1772656286679184000,2.202183837890625,0.0006108472589403391,-0.0009162708884105086,-0.0006108472589403391
1772656286689062400,2.2120625,0,0.00030542362947016954,0
1772656286698941200,2.221941162109375,0.0006108472589403391,-0.0009162708884105086,0
1772656286708819700,2.23181982421875,-0.0006108472589403391,-0.0009162708884105086,-0.0006108472589403391
1772656286718698200,2.2416982421875,0,-0.00030542362947016954,0
1772656286728576800,2.25157666015625,0,0.00030542362947016954,-0.0006108472589403391
1772656286738455300,2.261455322265625,-0.00015271181473508477,0.0015271181473508477,-0.0006108472589403391
1772656286748333800,2.271333740234375,0.0012216945178806782,0.0009162708884105086,0.0006108472589403391
1772656286758212600,2.281212646484375,-0.0007635590736754239,0.0009162708884105086,-0.0006108472589403391
1772656286768091100,2.291091064453125,0,0.00030542362947016954,0.0012216945178806782
1772656286777969700,2.3009697265625,-0.0006108472589403391,-0.00030542362947016954,0
1772656286787848200,2.31084814453125,-0.00015271181473508477,0.0009162708884105086,-0.0006108472589403391
1772656286797726700,2.320726806640625,-0.0006108472589403391,-0.00030542362947016954,0
1772656286807605200,2.330605224609375,-0.0006108472589403391,0.00030542362947016954,0.0006108472589403391
1772656286817484000,2.340484130859375,-0.0006108472589403391,-0.00030542362947016954,-0.0012216945178806782
1772656286827362600,2.350362548828125,-0.0006108472589403391,-0.00030542362947016954,0.0006108472589403391
1772656286837241000,2.360240966796875,0,-0.00030542362947016954,0.0006108472589403391
1772656286847119600,2.37011962890625,-0.0006108472589403391,-0.00030542362947016954,-0.0006108472589403391
1772656286856998100,2.379998046875,0,0.00030542362947016954,0
1772656286866877000,2.389876953125,0,0.00030542362947016954,-0.0006108472589403391
1772656286876755500,2.39975537109375,0,-0.00030542362947016954,-0.0012216945178806782
1772656286886634000,2.409634033203125,0,0.00030542362947016954,0
1772656286896512500,2.419512451171875,-0.0007635590736754239,0.00030542362947016954,-0.0012216945178806782
1772656286906391000,2.42939111328125,0,-0.00030542362947016954,0
1772656286916269600,2.43926953125,-0.0006108472589403391,0.00030542362947016954,0
1772656286926148400,2.4491484375,0,0.00030542362947016954,-0.0006108472589403391
1772656286936027000,2.45902685546875,0,0.00030542362947016954,-0.0006108472589403391
1772656286945905400,2.468905517578125,0,0.00030542362947016954,-0.0006108472589403391
1772656286955784000,2.478783935546875,0,0.00030542362947016954,0
1772656286965662500,2.488662353515625,0.0006108472589403391,0.00030542362947016954,0
1772656286975541200,2.498541259765625,0,-0.00030542362947016954,0
1772656286985419800,2.508419677734375,0,-0.00030542362947016954,-0.0012216945178806782
1772656286995298300,2.51829833984375,-0.00015271181473508477,0.00030542362947016954,0
1772656287005176800,2.5281767578125,0.0006108472589403391,0.00030542362947016954,0.0006108472589403391
1772656287015055400,2.538055419921875,0.0006108472589403391,0.00030542362947016954,-0.0006108472589403391
1772656287024934000,2.547933837890625,-0.0006108472589403391,-0.00030542362947016954,0
1772656287034812400,2.5578125,0,-0.00030542362947016954,-0.0006108472589403391
1772656287044691200,2.567691162109375,0,0.0009162708884105086,0.0006108472589403391
1772656287054569700,2.57756982421875,0.0006108472589403391,0.0009162708884105086,0
1772656287064448300,2.5874482421875,0,-0.00030542362947016954,0
1772656287074326800,2.597326904296875,-0.0012216945178806782,0.00030542362947016954,-0.0006108472589403391
1772656287084205300,2.607205322265625,0,-0.00030542362947016954,0
1772656287094084000,2.617083984375,-0.0006108472589403391,-0.00030542362947016954,0.0006108472589403391
1772656287103962600,2.626962646484375,-0.0006108472589403391,0.00030542362947016954,0
1772656287113841200,2.636841064453125,0.0006108472589403391,-0.00030542362947016954,-0.0006108472589403391
1772656287123719700,2.6467197265625,-0.0007635590736754239,0.00030542362947016954,-0.0012216945178806782
1772656287133598200,2.65659814453125,0,0.00030542362947016954,-0.0006108472589403391
1772656287143476700,2.666476806640625,0,-0.0009162708884105086,-0.0006108472589403391
1772656287153355500,2.67635546875,0.0006108472589403391,0.00030542362947016954,-0.0006108472589403391
1772656287163234000,2.686234130859375,0,-0.00030542362947016954,-0.0006108472589403391
1772656287173112600,2.696112548828125,0.0006108472589403391,-0.00030542362947016954,0.0006108472589403391
1772656287182991000,2.7059912109375,0.0006108472589403391,-0.00030542362947016954,0
1772656287192869600,2.71586962890625,0.0006108472589403391,0.00030542362947016954,0
1772656287202748200,2.725748046875,0.0006108472589403391,0.0009162708884105086,0.0012216945178806782
1772656287212627000,2.735626953125,-0.0006108472589403391,0.00030542362947016954,0.0012216945178806782
1772656287222505500,2.74550537109375,-0.0006108472589403391,-0.00030542362947016954,0
1772656287232384000,2.755384033203125,-0.0006108472589403391,0.00030542362947016954,0.0006108472589403391
1772656287242262500,2.765262451171875,-0.0012216945178806782,-0.00030542362947016954,-0.0006108472589403391
1772656287252141000,2.77514111328125,-0.0006108472589403391,-0.0009162708884105086,-0.0006108472589403391
1772656287262019800,2.785019775390625,0,0.00030542362947016954,0
1772656287271898400,2.7948984375,0,0.00030542362947016954,-0.0006108472589403391
1772656287281777000,2.80477685546875,0.0006108472589403391,0.0009162708884105086,-0.0006108472589403391
1772656287291655400,2.814655517578125,0,0.00030542362947016954,-0.0006108472589403391
1772656287301534000,2.824533935546875,0.0006108472589403391,-0.00030542362947016954,0.0006108472589403391
1772656287311412500,2.83441259765625,0,0.00030542362947016954,0
1772656287321291000,2.844291015625,0,-0.00030542362947016954,0.0006108472589403391
1772656287331169800,2.854169677734375,0.0006108472589403391,-0.00030542362947016954,-0.0006108472589403391
1772656287341048300,2.86404833984375,0,0.00030542362947016954,-0.0006108472589403391
1772656287350926800,2.8739267578125,0,-0.00030542362947016954,0.0006108472589403391
1772656287360805400,2.883805419921875,0,-0.00030542362947016954,0
1772656287370684000,2.893683837890625,0,0.00030542362947016954,0.0006108472589403391
1772656287380562700,2.903562744140625,0.0006108472589403391,0.00030542362947016954,-0.0006108472589403391
1772656287390441200,2.913441162109375,0,-0.0009162708884105086,0
1772656287400319700,2.92331982421875,0.0006108472589403391,0.0009162708884105086,0
1772656287410198300,2.9331982421875,0.0006108472589403391,0.00030542362947016954,0.0006108472589403391
1772656287420076800,2.943076904296875,0,0.00030542362947016954,0
1772656287429955300,2.952955322265625,0.0006108472589403391,-0.0009162708884105086,0.0006108472589403391
1772656287439834000,2.962834228515625,0.0006108472589403391,-0.00030542362947016954,-0.0006108472589403391
1772656287449712600,2.972712646484375,0,-0.00030542362947016954,0
1772656287459591200,2.982591064453125,-0.0006108472589403391,-0.00030542362947016954,0
1772656287469469700,2.9924697265625,0,0.00030542362947016954,0
1772656287479348200,3.00234814453125,0,0.0009162708884105086,0
1772656287489226800,3.012226806640625,0,0.00030542362947016954,0.0006108472589403391
1772656287499105500,3.02210546875,0,0.00030542362947016954,0.0006108472589403391
1772656287508984000,3.031984130859375,0,0.00030542362947016954,0.0006108472589403391
1772656287518862600,3.041862548828125,0,-0.0009162708884105086,0
1772656287528741000,3.0517412109375,0,-0.0009162708884105086,0
1772656287538619600,3.06161962890625,0,-0.0009162708884105086,-0.0006108472589403391
1772656287548498400,3.07149853515625,0,-0.0009162708884105086,0
1772656287558377000,3.081376953125,0.0012216945178806782,0.00030542362947016954,0
1772656287568255500,3.09125537109375,0,-0.00030542362947016954,0
1772656287578134000,3.101134033203125,0,0.0009162708884105086,0
1772656287588012500,3.111012451171875,0,0.0009162708884105086,-0.0006108472589403391
1772656287597891000,3.12089111328125,0,-0.00030542362947016954,-0.0006108472589403391
1772656287607769600,3.13076953125,-0.0006108472589403391,-0.00030542362947016954,-0.0006108472589403391
1772656287617648400,3.1406484375,0,-0.00030542362947016954,-0.0006108472589403391
1772656287627527000,3.15052685546875,-0.0006108472589403391,-0.00030542362947016954,-0.0006108472589403391
1772656287637405400,3.160405517578125,0,0.0009162708884105086,0.0006108472589403391
1772656287647284000,3.170283935546875,0.0006108472589403391,0.00030542362947016954,0
1772656287657162500,3.18016259765625,0,0.0009162708884105086,0.0012216945178806782
1772656287667041300,3.190041259765625,0.0006108472589403391,0.0009162708884105086,0.0006108472589403391
1772656287676919800,3.199919921875,0.0006108472589403391,0.0009162708884105086,0
1772656287686798300,3.20979833984375,0,0.00030542362947016954,-0.0006108472589403391
1772656287696676900,3.2196767578125,0,-0.00030542362947016954,-0.0012216945178806782
1772656287706555400,3.229555419921875,0,-0.00030542362947016954,-0.0012216945178806782
1772656287716434000,3.239433837890625,0.0006108472589403391,-0.00030542362947016954,0.0006108472589403391
1772656287726312700,3.249312744140625,0,-0.00030542362947016954,0.0006108472589403391
1772656287736191200,3.259191162109375,0.0006108472589403391,-0.0015271181473508477,0
1772656287746069800,3.26906982421875,-0.0012216945178806782,-0.00030542362947016954,0
1772656287755948300,3.2789482421875,-0.0018325417768210173,-0.00030542362947016954,0.0012216945178806782
1772656287765826800,3.288826904296875,-0.0006108472589403391,-0.00030542362947016954,0.0012216945178806782
1772656287775705300,3.298705322265625,-0.0012216945178806782,0.0009162708884105086,0
1772656287785583900,3.308583984375,0,0.0009162708884105086,0
1772656287795462700,3.318462646484375,0,-0.0015271181473508477,-0.0006108472589403391
1772656287805341200,3.328341064453125,-0.0006108472589403391,0.00030542362947016954,0.0012216945178806782
1772656287815219700,3.3382197265625,-0.0006108472589403391,0.0009162708884105086,0
1772656287825098200,3.34809814453125,-0.0012216945178806782,-0.00030542362947016954,-0.0006108472589403391
1772656287834976800,3.357976806640625,0.0006108472589403391,-0.00030542362947016954,0.0012216945178806782
1772656287844855600,3.36785546875,0.0006108472589403391,-0.00030542362947016954,0.0006108472589403391
1772656287854734000,3.377734130859375,0,0.00030542362947016954,0
1772656287864612600,3.387612548828125,0,-0.00030542362947016954,-0.0006108472589403391
1772656287874491100,3.3974912109375,0.0012216945178806782,-0.00030542362947016954,0.0012216945178806782
1772656287884369700,3.40736962890625,-0.00015271181473508477,0.0009162708884105086,-0.0012216945178806782
1772656287894248200,3.417248291015625,-0.0006108472589403391,-0.00030542362947016954,-0.0012216945178806782
1772656287904127000,3.427126953125,-0.00015271181473508477,-0.0004581354442052543,-0.0018325417768210173
1772656287914005500,3.437005615234375,0.0006108472589403391,0.0009162708884105086,0
1772656287923884000,3.446884033203125,0.0012216945178806782,-0.00030542362947016954,-0.0012216945178806782
1772656287933762600,3.456762451171875,0.0006108472589403391,0.00030542362947016954,0
1772656287943641000,3.46664111328125,0.0006108472589403391,-0.00030542362947016954,0
1772656287953519600,3.47651953125,0,0.00030542362947016954,0.0018325417768210173
1772656287963398400,3.4863984375,-0.0006108472589403391,-0.00030542362947016954,0.0012216945178806782
1772656287973277000,3.49627685546875,-0.0006108472589403391,-0.00030542362947016954,-0.0006108472589403391
1772656287983155500,3.506155517578125,0,0.0009162708884105086,0.0006108472589403391
1772656287993034000,3.516033935546875,0,0.00030542362947016954,0.0006108472589403391
1772656288002912500,3.52591259765625,0,0.00030542362947016954,0
1772656288012791000,3.535791015625,0,-0.00030542362947016954,0
1772656288022669800,3.545669921875,0.0006108472589403391,-0.00030542362947016954,0
1772656288032548400,3.55554833984375,0,0.00030542362947016954,0.0012216945178806782
1772656288042427000,3.565427001953125,-0.0006108472589403391,0.0009162708884105086,0.0006108472589403391
1772656288052305400,3.575305419921875,0,0.00030542362947016954,0
1772656288062184000,3.585183837890625,0,0.00030542362947016954,0
1772656288072062500,3.5950625,0,0.00030542362947016954,-0.0006108472589403391
1772656288081941200,3.604941162109375,-0.0006108472589403391,0.00030542362947016954,0
1772656288091819800,3.61481982421875,0,-0.00030542362947016954,-0.0006108472589403391
1772656288101698300,3.6246982421875,0.0012216945178806782,-0.00030542362947016954,-0.0012216945178806782
1772656288111576800,3.634576904296875,0,0.00030542362947016954,0
1772656288121455400,3.644455322265625,0.0006108472589403391,0.00030542362947016954,-0.0006108472589403391
1772656288131334000,3.654333984375,0,0.0009162708884105086,-0.0006108472589403391
1772656288141212700,3.664212646484375,0,0.0009162708884105086,-0.0006108472589403391
1772656288151091200,3.67409130859375,0.0006108472589403391,0.00030542362947016954,-0.0006108472589403391
1772656288160969700,3.6839697265625,0.0006108472589403391,0.00030542362947016954,-0.0006108472589403391
1772656288170848300,3.69384814453125,-0.0006108472589403391,-0.00030542362947016954,0
1772656288180726800,3.703726806640625,-0.0012216945178806782,0.0009162708884105086,0.0006108472589403391
1772656288190605300,3.713605224609375,0,0.0009162708884105086,0
1772656288200484000,3.723484130859375,0,0.00030542362947016954,0
1772656288210362600,3.733362548828125,0,0.00030542362947016954,0
1772656288220241200,3.7432412109375,0.0006108472589403391,-0.00030542362947016954,-0.0012216945178806782
1772656288230119700,3.75311962890625,0.0006108472589403391,-0.00030542362947016954,0.0006108472589403391
1772656288239998200,3.762998291015625,0.0006108472589403391,-0.00030542362947016954,0
1772656288249876700,3.772876708984375,0,0.00030542362947016954,-0.0006108472589403391
1772656288259755500,3.782755615234375,-0.0006108472589403391,-0.00030542362947016954,0
1772656288269634000,3.792634033203125,0,-0.00030542362947016954,0
1772656288279512600,3.8025126953125,0.0006108472589403391,0.00030542362947016954,-0.0012216945178806782
1772656288289391000,3.81239111328125,0,0.00030542362947016954,0.0006108472589403391
1772656288299269600,3.82226953125,-0.0006108472589403391,0.00030542362947016954,-0.0006108472589403391
1772656288309148200,3.832148193359375,0.0012216945178806782,0.00030542362947016954,-0.0006108472589403391
1772656288319026700,3.842026611328125,-0.0006108472589403391,0.00030542362947016954,0
1772656288328905500,3.851905517578125,0,0.00030542362947016954,-0.0006108472589403391
1772656288338784000,3.861783935546875,-0.0006108472589403391,-0.00030542362947016954,0.0006108472589403391
1772656288348662500,3.87166259765625,0.0012216945178806782,-0.00030542362947016954,0
1772656288358541000,3.881541015625,0,0.00030542362947016954,0.0006108472589403391
1772656288368419600,3.891419677734375,-0.0012216945178806782,-0.00030542362947016954,0
1772656288378298400,3.90129833984375,0,-0.00030542362947016954,0.0006108472589403391
1772656288388177000,3.911177001953125,0,0.00030542362947016954,0.0006108472589403391
1772656288398055400,3.921055419921875,0.0006108472589403391,0.00030542362947016954,0
1772656288407934000,3.930933837890625,0.0012216945178806782,0.00030542362947016954,-0.0006108472589403391
1772656288417812500,3.9408125,0.0006108472589403391,0.00030542362947016954,0.0012216945178806782
1772656288427691000,3.95069091796875,0.0012216945178806782,-0.00030542362947016954,-0.0006108472589403391
1772656288437569800,3.96056982421875,0,-0.0009162708884105086,0.0006108472589403391
1772656288447448300,3.9704482421875,0,0.0009162708884105086,0.0006108472589403391
1772656288457326800,3.980326904296875,0.0006108472589403391,0.0009162708884105086,0.0006108472589403391
1772656288467205400,3.990205322265625,0.0006108472589403391,0.0009162708884105086,0
1772656288477084000,4.000083984375,0.0006108472589403391,0.00030542362947016954,0
1772656288486962400,4.00996240234375,0.0006108472589403391,0.0009162708884105086,0
1772656288496841000,4.019841064453125,0,0.00030542362947016954,-0.0006108472589403391
1772656288506719700,4.0297197265625,0,-0.00030542362947016954,0.0006108472589403391
1772656288516598300,4.039598388671875,0,-0.00030542362947016954,-0.0018325417768210173
1772656288526476800,4.049476806640625,0,0.00030542362947016954,0.0006108472589403391
1772656288536355300,4.059355224609375,0,-0.00030542362947016954,-0.0006108472589403391
1772656288546233900,4.06923388671875,0,0.00030542362947016954,-0.0006108472589403391
1772656288556112400,4.0791123046875,-0.0006108472589403391,0.00030542362947016954,0
1772656288565991200,4.0889912109375,0.0006108472589403391,-0.00030542362947016954,-0.0006108472589403391
1772656288575869700,4.09886962890625,0,-0.00030542362947016954,-0.0006108472589403391
1772656288585748200,4.108748291015625,0,0.0009162708884105086,0.0006108472589403391
1772656288595626800,4.118626708984375,0.0006108472589403391,-0.00030542362947016954,-0.0006108472589403391
1772656288605505300,4.12850537109375,-0.0006108472589403391,-0.0009162708884105086,-0.0012216945178806782
1772656288615383800,4.1383837890625,0.0006108472589403391,-0.00030542362947016954,0
1772656288625262600,4.1482626953125,-0.0012216945178806782,-0.00030542362947016954,0
1772656288635141000,4.15814111328125,-0.0006108472589403391,0.00030542362947016954,0
1772656288645019600,4.16801953125,-0.0006108472589403391,0.00030542362947016954,0.0006108472589403391
1772656288654898200,4.177898193359375,-0.0006108472589403391,-0.00030542362947016954,0
1772656288664776700,4.187776611328125,0,-0.00030542362947016954,-0.0012216945178806782
1772656288674655200,4.1976552734375,0,-0.00030542362947016954,-0.0006108472589403391
1772656288684534000,4.207533935546875,0,0.00030542362947016954,0.0006108472589403391
1772656288694412500,4.21741259765625,0.0006108472589403391,-0.00030542362947016954,0
1772656288704291000,4.227291015625,0,-0.00030542362947016954,0
1772656288714169600,4.237169677734375,0,-0.00030542362947016954,0.0006108472589403391
1772656288724048100,4.247048095703125,0,0.00030542362947016954,-0.0006108472589403391
1772656288733926700,4.2569267578125,0,0.0009162708884105086,-0.0006108472589403391
1772656288743805200,4.26680517578125,0.0012216945178806782,-0.00030542362947016954,0
1772656288753684000,4.27668408203125,-0.0006108472589403391,0.00030542362947016954,-0.0006108472589403391
1772656288763562500,4.2865625,0,-0.00030542362947016954,0
1772656288773441000,4.29644091796875,-0.0012216945178806782,0.0009162708884105086,0
1772656288783319600,4.306319580078125,0,0.00030542362947016954,-0.0018325417768210173
1772656288793198000,4.316197998046875,-0.0006108472589403391,-0.00030542362947016954,0
1772656288803076600,4.32607666015625,0,-0.00030542362947016954,-0.0012216945178806782
1772656288812955400,4.335955322265625,0,0.00030542362947016954,-0.0006108472589403391
1772656288822834000,4.345833984375,0,0.00030542362947016954,0
1772656288832712400,4.35571240234375,-0.0006108472589403391,0.00030542362947016954,-0.0006108472589403391
1772656288842591000,4.365591064453125,0.0006108472589403391,-0.00030542362947016954,-0.0018325417768210173
1772656288852469500,4.375469482421875,0.0006108472589403391,-0.00030542362947016954,-0.0006108472589403391
1772656288862348000,4.38534814453125,0,0.0009162708884105086,0.0006108472589403391
1772656288872226800,4.395226806640625,0,-0.00030542362947016954,-0.0012216945178806782
1772656288882105300,4.405105224609375,0,-0.0009162708884105086,0
1772656288891984000,4.41498388671875,-0.0006108472589403391,-0.00030542362947016954,0
1772656288901862400,4.4248623046875,0,0.00030542362947016954,-0.0006108472589403391
1772656288911741000,4.434740966796875,-0.0006108472589403391,0.00030542362947016954,0
1772656288921619500,4.444619384765625,-0.0012216945178806782,-0.0009162708884105086,-0.0012216945178806782
1772656288931498000,4.454498046875,0.0006108472589403391,0.00030542362947016954,0
1772656288941376800,4.464376708984375,0,-0.00030542362947016954,-0.0018325417768210173
1772656288951255300,4.47425537109375,0.0006108472589403391,-0.00030542362947016954,-0.0006108472589403391
1772656288961133800,4.4841337890625,0,0.00030542362947016954,-0.0012216945178806782
1772656288971012400,4.494012451171875,0.0006108472589403391,0.00030542362947016954,0.0006108472589403391
1772656288980891000,4.503890869140625,0.0006108472589403391,-0.0009162708884105086,0
1772656288990769400,4.513769287109375,0.0024433890357613564,-0.00030542362947016954,-0.0006108472589403391
1772656289000648000,4.52364794921875,0,-0.0009162708884105086,-0.0012216945178806782
1772656289010526700,4.533526611328125,-0.0006108472589403391,0.00030542362947016954,0.0006108472589403391
1772656289020405200,4.5434052734375,-0.0006108472589403391,-0.0009162708884105086,0.0006108472589403391
1772656289030283800,4.55328369140625,0.0012216945178806782,-0.00030542362947016954,0
1772656289040162300,4.563162353515625,0,-0.00030542362947016954,-0.0006108472589403391
1772656289050040800,4.573040771484375,0.0006108472589403391,-0.00030542362947016954,-0.0006108472589403391
1772656289059919400,4.58291943359375,-0.0006108472589403391,0.00030542362947016954,0.0006108472589403391
1772656289069798100,4.592798095703125,0.0006108472589403391,0.00030542362947016954,0
1772656289079676700,4.6026767578125,0,0.00030542362947016954,0
1772656289089555200,4.61255517578125,0.0006108472589403391,-0.00030542362947016954,0
1772656289099433700,4.622433837890625,0.0006108472589403391,-0.00030542362947016954,-0.0006108472589403391
1772656289109312300,4.632312255859375,0,0.00030542362947016954,-0.0006108472589403391
1772656289119190800,4.642190673828125,-0.0006108472589403391,0.00030542362947016954,0.0006108472589403391
1772656289129069600,4.652069580078125,0.0012216945178806782,-0.00030542362947016954,-0.0006108472589403391
1772656289138948000,4.661947998046875,0,-0.00030542362947016954,-0.0006108472589403391
1772656289148826600,4.67182666015625,0,-0.00030542362947016954,0.0006108472589403391
1772656289158705200,4.681705078125,0,-0.00030542362947016954,0
1772656289168583700,4.691583740234375,0,-0.00030542362947016954,0
1772656289178462200,4.701462158203125,0,-0.00030542362947016954,-0.0006108472589403391
1772656289188341000,4.711341064453125,-0.0012216945178806782,-0.00030542362947016954,0.0012216945178806782
1772656289198219500,4.721219482421875,0.0006108472589403391,-0.00030542362947016954,-0.0006108472589403391
1772656289208098000,4.73109814453125,-0.0006108472589403391,0.0009162708884105086,0
1772656289217976600,4.7409765625,0,-0.00030542362947016954,-0.0006108472589403391
1772656289227855000,4.750855224609375,0,0.0015271181473508477,-0.0012216945178806782
1772656289237733600,4.760733642578125,0.0006108472589403391,0.0009162708884105086,-0.0006108472589403391
1772656289247612200,4.770612060546875,0.0006108472589403391,0.00030542362947016954,0
1772656289257491000,4.780490966796875,0.0006108472589403391,-0.00030542362947016954,0
1772656289267369500,4.790369384765625,0.0006108472589403391,0.00030542362947016954,0.0006108472589403391
1772656289277248000,4.800248046875,0,0.00030542362947016954,0
1772656289287126500,4.81012646484375,0,0.00030542362947016954,0
1772656289297005000,4.820005126953125,0.0006108472589403391,0.00030542362947016954,0
1772656289306883600,4.829883544921875,0,-0.00030542362947016954,0.0006108472589403391
1772656289316762000,4.83976220703125,0,0.00030542362947016954,0.0006108472589403391
1772656289326640600,4.849640625,0.0012216945178806782,-0.00030542362947016954,0
1772656289336519400,4.85951953125,0,-0.00030542362947016954,0.0006108472589403391
1772656289346398000,4.86939794921875,0,0.0009162708884105086,-0.0006108472589403391
1772656289356276500,4.8792763671875,0.0006108472589403391,-0.00030542362947016954,-0.0012216945178806782
1772656289366155000,4.889155029296875,0,-0.00030542362947016954,-0.0012216945178806782
1772656289376033500,4.899033447265625,0.0006108472589403391,-0.00030542362947016954,-0.0012216945178806782
1772656289385912000,4.908912109375,0,0.0009162708884105086,0
1772656289395790800,4.918790771484375,0,0.00030542362947016954,0
1772656289405669400,4.92866943359375,-0.0006108472589403391,-0.00030542362947016954,-0.0006108472589403391
1772656289415548000,4.9385478515625,0.0006108472589403391,0.00030542362947016954,0.0006108472589403391
1772656289425426400,4.948426513671875,0,0.00030542362947016954,0
1772656289435305000,4.958304931640625,0.0012216945178806782,0.00030542362947016954,0.0012216945178806782
1772656289445183500,4.96818359375,0.0006108472589403391,-0.00030542362947016954,0
1772656289455062000,4.97806201171875,0.0006108472589403391,-0.00030542362947016954,-0.0006108472589403391
1772656289464940800,4.98794091796875,0.0012216945178806782,0.00030542362947016954,0
1772656289474819300,4.9978193359375,0,-0.00030542362947016954,-0.0006108472589403391
1772656289484697900,5.00769775390625,0.0012216945178806782,-0.0009162708884105086,-0.0006108472589403391
1772656289494576400,5.017576416015625,0.0006108472589403391,0.00030542362947016954,0
1772656289504455000,5.027454833984375,0.0006108472589403391,-0.00030542362947016954,0.0006108472589403391
1772656289514333400,5.03733349609375,0.0006108472589403391,-0.00030542362947016954,0.0012216945178806782
1772656289524212000,5.0472119140625,0,0.00030542362947016954,0.0006108472589403391
1772656289534090800,5.0570908203125,-0.0006108472589403391,0.00030542362947016954,0.0006108472589403391
1772656289543969300,5.06696923828125,0.0012216945178806782,-0.00030542362947016954,0.0012216945178806782
1772656289553847800,5.076847900390625,0,0.00030542362947016954,0.0018325417768210173
1772656289563726300,5.086726318359375,0,-0.00030542362947016954,0.0006108472589403391
1772656289573604900,5.09660498046875,0,-0.00030542362947016954,0
1772656289583483400,5.1064833984375,0.0018325417768210173,-0.0009162708884105086,0
1772656289593362200,5.116362060546875,0.0012216945178806782,-0.00030542362947016954,-0.0012216945178806782
1772656289603240700,5.12624072265625,0.0006108472589403391,-0.00030542362947016954,-0.0006108472589403391
1772656289613119200,5.136119140625,0.0006108472589403391,0.0009162708884105086,-0.0006108472589403391
1772656289622997800,5.145997802734375,0,-0.00030542362947016954,-0.0012216945178806782
1772656289632876300,5.155876220703125,0.0006108472589403391,0.00030542362947016954,0
1772656289642754800,5.1657548828125,0,0.0009162708884105086,-0.0006108472589403391
1772656289652633300,5.17563330078125,0.0006108472589403391,-0.00030542362947016954,0.0006108472589403391
1772656289662511900,5.185511962890625,0.0006108472589403391,-0.00030542362947016954,-0.0006108472589403391
1772656289672390700,5.195390625,0,0.0009162708884105086,0.0006108472589403391
1772656289682269200,5.205269287109375,0.0006108472589403391,-0.00030542362947016954,0
1772656289692147700,5.215147705078125,0.0006108472589403391,-0.00030542362947016954,-0.0006108472589403391
1772656289702026200,5.225026123046875,0,-0.00030542362947016954,-0.0012216945178806782
1772656289711904800,5.23490478515625,0.0006108472589403391,0.0015271181473508477,0
1772656289721783300,5.244783203125,-0.0006108472589403391,-0.00030542362947016954,0
1772656289731662000,5.254662109375,-0.0006108472589403391,0.0009162708884105086,0
1772656289741540600,5.26454052734375,0,-0.00030542362947016954,0
1772656289751419100,5.274419189453125,0.0012216945178806782,-0.00030542362947016954,-0.0006108472589403391
1772656289761297700,5.284297607421875,0,-0.00030542362947016954,0
1772656289771176200,5.29417626953125,0,-0.00030542362947016954,0.0006108472589403391
1772656289781054700,5.3040546875,-0.0006108472589403391,0.0009162708884105086,-0.0018325417768210173
1772656289790933200,5.313933349609375,0.0006108472589403391,-0.00030542362947016954,-0.0006108472589403391
1772656289800812000,5.32381201171875,0,-0.0009162708884105086,-0.0006108472589403391
1772656289810690600,5.333690673828125,0.0006108472589403391,-0.0009162708884105086,0
1772656289820569000,5.343569091796875,-0.0006108472589403391,-0.00030542362947016954,0
1772656289830447600,5.353447509765625,-0.0006108472589403391,-0.00030542362947016954,0
1772656289840326100,5.363326171875,0,0.00030542362947016954,0.0006108472589403391
1772656289850204700,5.37320458984375,-0.0006108472589403391,-0.00030542362947016954,0.0006108472589403391
1772656289860083200,5.383083251953125,0.0006108472589403391,-0.00030542362947016954,0
1772656289869961700,5.392961669921875,0.0006108472589403391,-0.00030542362947016954,-0.0006108472589403391
1772656289879840500,5.402840576171875,0,0.00030542362947016954,0
1772656289889719000,5.412718994140625,0.0004581354442052543,-0.00030542362947016954,-0.0010689827613532543
1772656289899597600,5.42259765625,-0.00015271181473508477,0.0009162708884105086,0.00015271181473508477
1772656289909476000,5.43247607421875,-0.0007635590736754239,-0.00030542362947016954,-0.0004581354442052543
1772656289919354600,5.442354736328125,0.0004581354442052543,-0.00030542362947016954,0.00015271181473508477
1772656289929233200,5.452233154296875,0.0010689827613532543,-0.00030542362947016954,0.0007635590736754239
1772656289939111700,5.462111572265625,0.0004581354442052543,0.0009162708884105086,0.0007635590736754239
1772656289948990200,5.471990234375,-0.0007635590736754239,0.0009162708884105086,-0.0004581354442052543
1772656289958869000,5.481868896484375,-0.00015271181473508477,0.00030542362947016954,-0.0004581354442052543
1772656289968747500,5.49174755859375,0.0010689827613532543,0.00030542362947016954,-0.0010689827613532543
1772656289978626000,5.5016259765625,-0.0007635590736754239,-0.00030542362947016954,-0.0004581354442052543
1772656289988504600,5.511504638671875,0.0004581354442052543,0.00030542362947016954,-0.0010689827613532543
1772656289998383000,5.521383056640625,0.0004581354442052543,0.00030542362947016954,-0.0004581354442052543
1772656290008261600,5.53126171875,0.0010689827613532543,-0.00030542362947016954,0.0007635590736754239
1772656290018140200,5.54114013671875,-0.00015271181473508477,0.00030542362947016954,0.00015271181473508477
1772656290028019000,5.55101904296875,-0.001374406274408102,-0.00030542362947016954,-0.0004581354442052543
1772656290037897500,5.5608974609375,-0.0007635590736754239,-0.00030542362947016954,-0.0004581354442052543
1772656290047776000,5.57077587890625,-0.001374406274408102,0.0009162708884105086,0.001374406274408102
1772656290057654500,5.580654541015625,-0.00015271181473508477,-0.00030542362947016954,-0.0004581354442052543
1772656290067533000,5.590532958984375,-0.001374406274408102,-0.00030542362947016954,0.00015271181473508477
1772656290077411600,5.60041162109375,0.0004581354442052543,0.00030542362947016954,0.00015271181473508477
1772656290087290000,5.6102900390625,-0.00015271181473508477,0.00030542362947016954,0.00015271181473508477
1772656290097168600,5.620168701171875,-0.0007635590736754239,0.00030542362947016954,0.0007635590736754239
1772656290107047400,5.63004736328125,-0.001374406274408102,-0.00030542362947016954,-0.0004581354442052543
1772656290116926000,5.639926025390625,0.0004581354442052543,-0.00030542362947016954,0.00015271181473508477
1772656290126804500,5.649804443359375,0.0004581354442052543,-0.00030542362947016954,0.0007635590736754239
1772656290136683000,5.65968310546875,-0.0007635590736754239,0.00030542362947016954,0.0007635590736754239
1772656290146561500,5.6695615234375,0.0004581354442052543,0.00030542362947016954,0.001374406274408102
1772656290156440000,5.679440185546875,-0.00015271181473508477,0.00030542362947016954,-0.0010689827613532543
1772656290166318600,5.689318603515625,0.0004581354442052543,0.00030542362947016954,0.0007635590736754239
1772656290176197000,5.699197021484375,-0.00015271181473508477,-0.00030542362947016954,0.001374406274408102
1772656290186076000,5.709075927734375,-0.0007635590736754239,0.00030542362947016954,0.00015271181473508477
1772656290195954400,5.718954345703125,-0.00015271181473508477,-0.00030542362947016954,-0.0004581354442052543
1772656290205833000,5.7288330078125,-0.00015271181473508477,-0.00030542362947016954,-0.0004581354442052543
1772656290215711500,5.73871142578125,0.0004581354442052543,0.0009162708884105086,-0.0004581354442052543
1772656290225590000,5.748590087890625,-0.00015271181473508477,-0.00030542362947016954,0.00015271181473508477
1772656290235468500,5.758468505859375,0.0010689827613532543,-0.00030542362947016954,-0.0016798300202935934
1772656290245347000,5.76834716796875,-0.00015271181473508477,0.00030542362947016954,-0.0004581354442052543
1772656290255225600,5.7782255859375,-0.00015271181473508477,0.0009162708884105086,-0.0004581354442052543
1772656290265104100,5.788104248046875,-0.00015271181473508477,0.0009162708884105086,0.00015271181473508477
1772656290274983000,5.79798291015625,-0.0007635590736754239,0.00030542362947016954,-0.0016798300202935934
1772656290284861400,5.807861328125,-0.00015271181473508477,0.0009162708884105086,0.00015271181473508477
1772656290294740000,5.817739990234375,0.0004581354442052543,0.00030542362947016954,-0.0004581354442052543
1772656290304618500,5.827618408203125,0.0004581354442052543,0.0009162708884105086,-0.0010689827613532543
1772656290314497000,5.8374970703125,-0.00015271181473508477,-0.0010689827613532543,-0.0016798300202935934
1772656290324375600,5.84737548828125,-0.00015271181473508477,0.00030542362947016954,0.00015271181473508477
1772656290334254000,5.857254150390625,0.0010689827613532543,-0.00030542362947016954,0.0007635590736754239
1772656290344132900,5.8671328125,-0.00015271181473508477,0.0009162708884105086,-0.0004581354442052543
1772656290354011400,5.877011474609375,0.0010689827613532543,-0.00030542362947016954,0.0007635590736754239
1772656290363890000,5.886889892578125,0.0004581354442052543,-0.00030542362947016954,0.00015271181473508477
1772656290373768400,5.8967685546875,-0.00015271181473508477,-0.0009162708884105086,0.0007635590736754239
1772656290383647000,5.90664697265625,0.0004581354442052543,-0.00030542362947016954,-0.0010689827613532543
1772656290393525500,5.916525390625,-0.0007635590736754239,0.00030542362947016954,0.00015271181473508477
1772656290403404000,5.926404052734375,-0.0007635590736754239,0.00030542362947016954,0.0007635590736754239
1772656290413282800,5.93628271484375,-0.00015271181473508477,0.00030542362947016954,0.00015271181473508477
1772656290423161300,5.946161376953125,-0.001374406274408102,-0.00030542362947016954,0.00015271181473508477
1772656290433040000,5.956039794921875,-0.0007635590736754239,-0.00030542362947016954,0.00015271181473508477
1772656290442918400,5.96591845703125,0.0010689827613532543,0.00030542362947016954,0.00015271181473508477
1772656290452797000,5.975796875,-0.00015271181473508477,-0.00030542362947016954,0.00015271181473508477
1772656290462675500,5.985675537109375,0.0004581354442052543,-0.00030542362947016954,0.0007635590736754239
1772656290472554000,5.995553955078125,-0.0007635590736754239,0.00030542362947016954,0.00015271181473508477
1772656290482432500,6.0054326171875,0.0004581354442052543,-0.00030542362947016954,-0.0010689827613532543
1772656290492311000,6.01531103515625,0.0004581354442052543,-0.00030542362947016954,0.0007635590736754239
1772656290502189600,6.025189453125,-0.0007635590736754239,0.00030542362947016954,-0.0004581354442052543
1772656290512068400,6.035068359375,-0.0007635590736754239,0.00030542362947016954,-0.0004581354442052543
1772656290521947000,6.04494677734375,-0.00015271181473508477,-0.00030542362947016954,0.0007635590736754239
1772656290531825400,6.054825439453125,-0.00015271181473508477,-0.00030542362947016954,0.00015271181473508477
1772656290541704000,6.064703857421875,0.0004581354442052543,-0.00030542362947016954,0.0007635590736754239
1772656290551582500,6.07458251953125,0.0004581354442052543,-0.0009162708884105086,-0.0004581354442052543
1772656290561461000,6.0844609375,-0.00015271181473508477,0.00030542362947016954,-0.0004581354442052543
1772656290571339500,6.094339599609375,-0.0007635590736754239,-0.00030542362947016954,0.0007635590736754239
1772656290581218000,6.104218017578125,0.0004581354442052543,0.0009162708884105086,0.00015271181473508477
1772656290591096600,6.1140966796875,-0.00015271181473508477,0.00030542362947016954,0.0007635590736754239
1772656290600975400,6.123975341796875,-0.00015271181473508477,-0.0009162708884105086,-0.0004581354442052543
1772656290610854000,6.13385400390625,0.0010689827613532543,-0.00030542362947016954,-0.0010689827613532543
1772656290620732400,6.143732421875,0.0004581354442052543,0.0009162708884105086,0.00015271181473508477
1772656290630611000,6.15361083984375,-0.00015271181473508477,-0.00030542362947016954,0.001374406274408102
1772656290640489500,6.163489501953125,-0.0007635590736754239,-0.0015271181473508477,0.0007635590736754239
1772656290650368000,6.173367919921875,0.0004581354442052543,0.00030542362947016954,0.0007635590736754239
1772656290660246500,6.18324658203125,-0.00015271181473508477,0.00030542362947016954,0.00015271181473508477
1772656290670125000,6.193125,0.0004581354442052543,-0.0009162708884105086,-0.0004581354442052543
1772656290680003800,6.20300390625,-0.0007635590736754239,-0.00030542362947016954,0.00015271181473508477
1772656290689882400,6.21288232421875,-0.00015271181473508477,-0.00030542362947016954,0.00015271181473508477
1772656290699761000,6.222760986328125,-0.00015271181473508477,-0.00030542362947016954,0.00015271181473508477
1772656290709639400,6.232639404296875,-0.00015271181473508477,-0.00030542362947016954,-0.0004581354442052543
1772656290719518000,6.24251806640625,-0.0007635590736754239,0.0009162708884105086,0.0007635590736754239
1772656290729396500,6.252396484375,-0.0007635590736754239,0.00030542362947016954,-0.0004581354442052543
1772656290739275000,6.26227490234375,-0.00015271181473508477,0.00030542362947016954,-0.0004581354442052543
1772656290749153500,6.272153564453125,-0.00015271181473508477,-0.00030542362947016954,0.0007635590736754239
1772656290759032000,6.282031982421875,0.0004581354442052543,0.00030542362947016954,0.00015271181473508477
1772656290768910600,6.29191064453125,-0.00015271181473508477,0.00030542362947016954,0.00015271181473508477
1772656290778789400,6.301789306640625,-0.00015271181473508477,0.00030542362947016954,0.0007635590736754239
1772656290788668000,6.31166796875,0.0010689827613532543,-0.00030542362947016954,-0.0004581354442052543
1772656290798546400,6.32154638671875,-0.00015271181473508477,-0.00030542362947016954,-0.0010689827613532543
1772656290808425000,6.331425048828125,-0.00015271181473508477,-0.00030542362947016954,-0.0004581354442052543
1772656290818303500,6.341303466796875,0.0010689827613532543,-0.0009162708884105086,0.00015271181473508477
1772656290828182000,6.35118212890625,-0.0007635590736754239,-0.00030542362947016954,-0.0004581354442052543
1772656290838060500,6.361060546875,-0.00015271181473508477,-0.00030542362947016954,0.00015271181473508477
1772656290847939000,6.37093896484375,0.0004581354442052543,-0.00030542362947016954,-0.0004581354442052543
1772656290857817900,6.38081787109375,0.0004581354442052543,-0.00030542362947016954,0.00015271181473508477
1772656290867696400,6.3906962890625,-0.00015271181473508477,0.00030542362947016954,0.00015271181473508477
1772656290877575000,6.400574951171875,-0.00015271181473508477,0.00030542362947016954,-0.0004581354442052543
1772656290887453400,6.410453369140625,-0.00015271181473508477,-0.00030542362947016954,-0.0004581354442052543
1772656290897332000,6.42033203125,-0.0007635590736754239,-0.00030542362947016954,0.00015271181473508477
1772656290907210500,6.43021044921875,-0.0007635590736754239,-0.00030542362947016954,0.0007635590736754239
1772656290917089000,6.440089111328125,0.0010689827613532543,-0.0009162708884105086,-0.0004581354442052543
1772656290926967600,6.449967529296875,0.0004581354442052543,0.00030542362947016954,0.00015271181473508477
1772656290936846000,6.45984619140625,-0.00015271181473508477,0.0009162708884105086,-0.0004581354442052543
1772656290946724600,6.469724609375,-0.00015271181473508477,0.00030542362947016954,0.00015271181473508477
1772656290956603400,6.479603271484375,-0.0007635590736754239,0.00030542362947016954,0.00015271181473508477
1772656290966482000,6.48948193359375,0.0004581354442052543,0.00030542362947016954,-0.0010689827613532543
1772656290976360400,6.4993603515625,-0.0007635590736754239,0.00030542362947016954,0.00015271181473508477
1772656290986239000,6.509239013671875,-0.00015271181473508477,-0.00030542362947016954,-0.0010689827613532543
1772656290996117500,6.519117431640625,-0.00015271181473508477,0.0009162708884105086,-0.0010689827613532543
1772656291005996000,6.52899609375,-0.00015271181473508477,0.00030542362947016954,-0.0004581354442052543
1772656291015874600,6.53887451171875,0.0004581354442052543,-0.00030542362947016954,0.00015271181473508477
1772656291025753000,6.548753173828125,0.0004581354442052543,0.0009162708884105086,0.001374406274408102
1772656291035631600,6.558631591796875,-0.00015271181473508477,-0.00030542362947016954,0.001374406274408102
1772656291045510100,6.56851025390625,-0.00015271181473508477,-0.00030542362947016954,0.0007635590736754239
1772656291055388700,6.578388671875,-0.00015271181473508477,0.00030542362947016954,0.00015271181473508477
1772656291065267200,6.58826708984375,-0.00015271181473508477,0.0009162708884105086,0.00015271181473508477
1772656291075146000,6.59814599609375,0.0004581354442052543,0.00030542362947016954,0.00015271181473508477
1772656291085024500,6.6080244140625,-0.0007635590736754239,-0.00030542362947016954,-0.0004581354442052543
1772656291094903000,6.617903076171875,-0.00015271181473508477,-0.00030542362947016954,-0.0010689827613532543
1772656291104781600,6.627781494140625,0.0004581354442052543,-0.00030542362947016954,0.001374406274408102
1772656291114660000,6.63766015625,-0.00015271181473508477,-0.0009162708884105086,0.00015271181473508477
1772656291124538600,6.64753857421875,-0.00015271181473508477,-0.00030542362947016954,-0.0010689827613532543
1772656291134417200,6.657417236328125,-0.00015271181473508477,-0.00030542362947016954,0.00015271181473508477
1772656291144295700,6.667295654296875,-0.0007635590736754239,0.00030542362947016954,0.00015271181473508477
1772656291154174200,6.67717431640625,-0.00015271181473508477,-0.00030542362947016954,-0.0004581354442052543
1772656291164052700,6.687052734375,-0.00015271181473508477,0.00030542362947016954,0.00015271181473508477
1772656291173931500,6.696931640625,0.0004581354442052543,-0.00030542362947016954,-0.0004581354442052543
1772656291183810000,6.70681005859375,-0.00015271181473508477,0.00030542362947016954,0.00015271181473508477
1772656291193688600,6.7166884765625,-0.00015271181473508477,0.00030542362947016954,0.0007635590736754239
1772656291203567000,6.726567138671875,0.0004581354442052543,0.00030542362947016954,0.0007635590736754239
1772656291213445600,6.736445556640625,-0.00015271181473508477,0.00030542362947016954,-0.0004581354442052543
1772656291223324200,6.74632421875,-0.0007635590736754239,0.00030542362947016954,0.00015271181473508477
1772656291233202700,6.75620263671875,-0.0007635590736754239,-0.00030542362947016954,0.00015271181473508477
1772656291243081200,6.766081298828125,0.0004581354442052543,-0.00030542362947016954,-0.0004581354442052543
1772656291252959700,6.775959716796875,0.0016798300202935934,0.00030542362947016954,0.00015271181473508477
1772656291262838300,6.78583837890625,0.0004581354442052543,0.00030542362947016954,0.00015271181473508477
1772656291272716800,6.795716796875,0.0004581354442052543,-0.00030542362947016954,0.0007635590736754239
1772656291282595300,6.80559521484375,-0.0007635590736754239,-0.00030542362947016954,0.001374406274408102
1772656291292474000,6.81547412109375,-0.00015271181473508477,0.0009162708884105086,0.0007635590736754239
1772656291302352600,6.8253525390625,0.0004581354442052543,0.00030542362947016954,0.00015271181473508477
1772656291312231200,6.835231201171875,-0.00030542362947016954,0.0009162708884105086,-0.0010689827613532543
1772656291322109700,6.845109619140625,-0.0007635590736754239,0.0015271181473508477,0.0007635590736754239
1772656291331988200,6.85498828125,-0.0007635590736754239,-0.00030542362947016954,0.0007635590736754239
1772656291341866800,6.86486669921875,0.0004581354442052543,-0.00030542362947016954,0.0007635590736754239
1772656291351745300,6.874745361328125,0.0004581354442052543,-0.00030542362947016954,-0.0004581354442052543
1772656291361623800,6.884623779296875,-0.00015271181473508477,-0.00030542362947016954,-0.0016798300202935934
1772656291371502300,6.89450244140625,-0.00015271181473508477,0.00030542362947016954,-0.0004581354442052543
1772656291381380900,6.904380859375,-0.00015271181473508477,0.00030542362947016954,-0.0004581354442052543
1772656291391259400,6.91425927734375,-0.0007635590736754239,-0.00030542362947016954,0.00015271181473508477
1772656291401138200,6.92413818359375,-0.00015271181473508477,-0.00030542362947016954,0.0007635590736754239
1772656291411016700,6.9340166015625,-0.001374406274408102,0.0009162708884105086,0.00015271181473508477
1772656291420895200,6.943895263671875,-0.00015271181473508477,-0.00030542362947016954,-0.0016798300202935934
1772656291430773800,6.953773681640625,-0.00015271181473508477,-0.00030542362947016954,0.0007635590736754239
1772656291440652300,6.96365234375,0.0010689827613532543,0.00030542362947016954,-0.0004581354442052543
1772656291450530800,6.97353076171875,0.0004581354442052543,0.00030542362947016954,0.00015271181473508477
1772656291460409300,6.983409423828125,-0.0007635590736754239,-0.00030542362947016954,0.00015271181473508477
1772656291470288000,6.993287841796875,-0.00015271181473508477,0.00030542362947016954,0.00015271181473508477
1772656291480166400,7.00316650390625,-0.00015271181473508477,-0.00030542362947016954,0.00015271181473508477
1772656291490045000,7.013044921875,0.0004581354442052543,0.00030542362947016954,0.00015271181473508477
1772656291499923500,7.02292333984375,-0.00015271181473508477,0.00030542362947016954,-0.0004581354442052543
1772656291509802200,7.03280224609375,0.0004581354442052543,0.0009162708884105086,0.0007635590736754239
1772656291519680800,7.0426806640625,-0.0007635590736754239,0.00030542362947016954,-0.0004581354442052543
1772656291529559300,7.052559326171875,-0.00015271181473508477,0.00030542362947016954,-0.0004581354442052543
1772656291539437800,7.062437744140625,0.0004581354442052543,0.00030542362947016954,0.0007635590736754239
1772656291549316400,7.07231640625,0.0004581354442052543,0.00030542362947016954,0.00015271181473508477
1772656291559195000,7.08219482421875,-0.00015271181473508477,0.00030542362947016954,-0.0004581354442052543
1772656291569073400,7.092073486328125,-0.00015271181473508477,-0.00030542362947016954,-0.0016798300202935934
1772656291578952000,7.101951904296875,-0.0007635590736754239,0.00030542362947016954,0.00015271181473508477
1772656291588830500,7.11183056640625,-0.00015271181473508477,-0.00030542362947016954,-0.0004581354442052543
1772656291598709000,7.121708984375,-0.0007635590736754239,-0.00030542362947016954,0.0007635590736754239
1772656291608587500,7.13158740234375,0.0004581354442052543,0.00030542362947016954,0.0007635590736754239
1772656291618466000,7.141466064453125,-0.0007635590736754239,-0.00030542362947016954,-0.0004581354442052543
1772656291628344600,7.151344482421875,-0.0007635590736754239,0.00030542362947016954,-0.0004581354442052543
1772656291638223400,7.161223388671875,-0.0007635590736754239,-0.0009162708884105086,-0.0004581354442052543
1772656291648102000,7.171101806640625,-0.00015271181473508477,-0.0009162708884105086,-0.0004581354442052543
1772656291657980400,7.18098046875,-0.00015271181473508477,-0.00030542362947016954,-0.0010689827613532543
1772656291667859000,7.19085888671875,0.0004581354442052543,-0.00030542362947016954,0.0007635590736754239
1772656291677737500,7.200737548828125,0.0004581354442052543,0.0009162708884105086,-0.0004581354442052543
1772656291687616000,7.210615966796875,-0.001374406274408102,0.00030542362947016954,-0.0004581354442052543
1772656291697494500,7.22049462890625,-0.00015271181473508477,0.00030542362947016954,0.00015271181473508477
1772656291707373000,7.230373046875,-0.00015271181473508477,-0.00030542362947016954,0.00015271181473508477
1772656291717251600,7.24025146484375,-0.00015271181473508477,0.00030542362947016954,0.001374406274408102
1772656291727130000,7.250130126953125,-0.0007635590736754239,-0.00030542362947016954,0.00015271181473508477
1772656291737008600,7.260008544921875,-0.00015271181473508477,0.00030542362947016954,0.0007635590736754239
1772656291746887200,7.26988720703125,0.0010689827613532543,-0.00030542362947016954,0.0007635590736754239
1772656291756765700,7.279765625,0.0004581354442052543,0.00030542362947016954,-0.0004581354442052543
1772656291766644500,7.28964453125,-0.00015271181473508477,-0.00030542362947016954,0.00015271181473508477
1772656291776523000,7.29952294921875,-0.00015271181473508477,0.00030542362947016954,0.00015271181473508477
1772656291786401500,7.309401611328125,-0.001374406274408102,-0.00030542362947016954,0.0007635590736754239
1772656291796280000,7.319280029296875,-0.0007635590736754239,0.0009162708884105086,0.00015271181473508477
1772656291806158600,7.32915869140625,-0.0007635590736754239,0.00030542362947016954,-0.0004581354442052543
1772656291816037000,7.339037109375,-0.0007635590736754239,-0.00030542362947016954,-0.0010689827613532543
1772656291825915600,7.34891552734375,0.0004581354442052543,0.00030542362947016954,0.0007635590736754239
1772656291835794200,7.358794189453125,-0.0007635590736754239,0.00030542362947016954,0.00015271181473508477
1772656291845672700,7.368672607421875,0.0004581354442052543,0.0009162708884105086,0.0007635590736754239
1772656291855551200,7.37855126953125,-0.00015271181473508477,0.00030542362947016954,0.00015271181473508477
1772656291865429800,7.3884296875,-0.00015271181473508477,0.0009162708884105086,-0.0004581354442052543
1772656291875308300,7.398308349609375,-0.0007635590736754239,-0.0009162708884105086,-0.0004581354442052543
1772656291885186800,7.408186767578125,-0.00015271181473508477,0.0009162708884105086,0.001374406274408102
1772656291895065300,7.4180654296875,-0.00015271181473508477,0.00030542362947016954,0.00015271181473508477
1772656291904943900,7.42794384765625,-0.00015271181473508477,-0.00030542362947016954,-0.0004581354442052543
1772656291914822700,7.43782275390625,-0.0007635590736754239,0.00030542362947016954,0.00015271181473508477
1772656291924701200,7.447701171875,-0.0007635590736754239,0.0009162708884105086,0.00015271181473508477
1772656291934579700,7.457579833984375,-0.00015271181473508477,0.00030542362947016954,0.00015271181473508477
1772656291944458200,7.467458251953125,-0.00015271181473508477,0.0009162708884105086,0.001374406274408102
1772656291954336800,7.477336669921875,-0.0007635590736754239,-0.00030542362947016954,-0.0004581354442052543
1772656291964215300,7.48721533203125,0.0010689827613532543,0.00030542362947016954,-0.0010689827613532543
1772656291974093800,7.49709375,-0.001374406274408102,-0.00030542362947016954,-0.0010689827613532543
1772656291983972400,7.506972412109375,-0.00015271181473508477,0.0009162708884105086,0.00015271181473508477
1772656291993851000,7.516850830078125,0.0004581354442052543,0.00030542362947016954,0.0007635590736754239
1772656292003729400,7.5267294921875,-0.00015271181473508477,-0.00030542362947016954,0.00015271181473508477
1772656292013608000,7.53660791015625,-0.001374406274408102,-0.00030542362947016954,-0.0010689827613532543
1772656292023486500,7.546486572265625,-0.00015271181473508477,-0.00030542362947016954,-0.0010689827613532543
1772656292033365000,7.556364990234375,-0.00015271181473508477,0.00030542362947016954,0.0007635590736754239
1772656292043243500,7.566243408203125,-0.00015271181473508477,0.0009162708884105086,0.00015271181473508477
1772656292053122000,7.5761220703125,0.0004581354442052543,0.00030542362947016954,0.00015271181473508477
1772656292063000600,7.58600048828125,-0.00015271181473508477,0.00030542362947016954,-0.0010689827613532543
1772656292072879000,7.595879150390625,0.0010689827613532543,0.00030542362947016954,-0.0004581354442052543
1772656292082757600,7.605757568359375,-0.0007635590736754239,-0.00030542362947016954,-0.0004581354442052543
1772656292092636200,7.61563623046875,-0.00015271181473508477,-0.00030542362947016954,-0.0010689827613532543
1772656292102515000,7.625514892578125,0.0004581354442052543,-0.00030542362947016954,0.0007635590736754239
1772656292112393500,7.6353935546875,-0.00015271181473508477,0.00030542362947016954,-0.0004581354442052543
1772656292122272000,7.64527197265625,-0.0007635590736754239,0.00030542362947016954,0.0007635590736754239
1772656292132150500,7.655150634765625,-0.00015271181473508477,-0.00030542362947016954,-0.0004581354442052543
1772656292142029000,7.665029052734375,0.0004581354442052543,-0.00030542362947016954,-0.0004581354442052543
1772656292151907600,7.674907470703125,-0.00015271181473508477,-0.00030542362947016954,0.0007635590736754239
1772656292161786000,7.6847861328125,-0.00015271181473508477,0.0009162708884105086,0.00015271181473508477
1772656292171664600,7.69466455078125,0.0004581354442052543,-0.00030542362947016954,0.0007635590736754239
1772656292181543200,7.704543212890625,0.0004581354442052543,-0.00030542362947016954,0.00015271181473508477
1772656292191421700,7.714421630859375,-0.00015271181473508477,-0.00030542362947016954,0.00015271181473508477
1772656292201300200,7.72430029296875,-0.00015271181473508477,-0.00030542362947016954,-0.0010689827613532543
1772656292211178800,7.7341787109375,0.0004581354442052543,0.00030542362947016954,-0.0010689827613532543
1772656292221057300,7.744057373046875,0.0004581354442052543,-0.0009162708884105086,-0.0010689827613532543
1772656292230935800,7.753935791015625,-0.00015271181473508477,-0.00030542362947016954,0.0007635590736754239
1772656292240814300,7.763814453125,-0.00015271181473508477,0.00030542362947016954,-0.0004581354442052543
1772656292250692900,7.77369287109375,-0.0007635590736754239,-0.00030542362947016954,-0.0004581354442052543
1772656292260571400,7.7835712890625,-0.0007635590736754239,-0.00030542362947016954,0.00015271181473508477
1772656292270450000,7.793449951171875,-0.00015271181473508477,-0.0009162708884105086,0.00015271181473508477
1772656292280328700,7.80332861328125,-0.00015271181473508477,0.00030542362947016954,-0.0004581354442052543
1772656292290207200,7.813207275390625,0.0004581354442052543,0.00030542362947016954,0.0007635590736754239
1772656292300085800,7.823085693359375,-0.00015271181473508477,-0.00030542362947016954,0.00015271181473508477
1772656292309964300,7.83296435546875,0.0004581354442052543,-0.0009162708884105086,0.001985253533348441
1772656292319842800,7.8428427734375,-0.00015271181473508477,-0.00030542362947016954,-0.0004581354442052543
1772656292329721300,7.852721435546875,-0.001374406274408102,0.00030542362947016954,0.00015271181473508477
1772656292339600000,7.862599853515625,-0.00015271181473508477,-0.0009162708884105086,-0.0004581354442052543
1772656292349478400,7.872478515625,-0.00015271181473508477,-0.00030542362947016954,-0.0010689827613532543
1772656292359357000,7.88235693359375,-0.0007635590736754239,0.0009162708884105086,0.00015271181473508477
1772656292369235500,7.8922353515625,-0.00015271181473508477,0.00030542362947016954,-0.0010689827613532543
1772656292379114000,7.902114013671875,-0.00015271181473508477,-0.00030542362947016954,-0.0004581354442052543
1772656292388992500,7.911992431640625,-0.0007635590736754239,-0.0009162708884105086,-0.0010689827613532543
1772656292398871000,7.92187109375,-0.0007635590736754239,-0.00030542362947016954,0.0007635590736754239
1772656292408749600,7.93174951171875,-0.001374406274408102,-0.00030542362947016954,-0.0004581354442052543
1772656292418628000,7.941628173828125,0.0004581354442052543,0.00030542362947016954,0.001374406274408102
1772656292428506600,7.951506591796875,-0.00015271181473508477,-0.00030542362947016954,0.0007635590736754239
1772656292438385200,7.96138525390625,-0.00015271181473508477,-0.00030542362947016954,0.00015271181473508477
1772656292448263700,7.971263671875,-0.00015271181473508477,-0.00030542362947016954,0.00015271181473508477
1772656292458142200,7.98114208984375,0.0004581354442052543,0.00030542362947016954,0.00015271181473508477
1772656292468020700,7.991020751953125,-0.00015271181473508477,-0.0009162708884105086,0.00015271181473508477
1772656292477899300,8.000899169921874,-0.0007635590736754239,-0.00030542362947016954,-0.0004581354442052543
1772656292487777800,8.01077783203125,-0.00015271181473508477,-0.00030542362947016954,-0.0004581354442052543
1772656292497656300,8.02065625,-0.00015271181473508477,0.00030542362947016954,-0.0004581354442052543
1772656292507534800,8.030534912109376,-0.00015271181473508477,-0.00030542362947016954,-0.0004581354442052543
1772656292517413400,8.040413330078126,-0.00015271181473508477,-0.00030542362947016954,-0.0004581354442052543
1772656292527292000,8.0502919921875,-0.00015271181473508477,-0.00030542362947016954,-0.0004581354442052543
1772656292537170400,8.06017041015625,0.0004581354442052543,-0.00030542362947016954,-0.0004581354442052543
1772656292547049200,8.07004931640625,-0.0007635590736754239,0.0009162708884105086,-0.0004581354442052543
1772656292556927700,8.079927734375,-0.00015271181473508477,0.00030542362947016954,0.00015271181473508477
1772656292566806300,8.08980615234375,0.0004581354442052543,0.00030542362947016954,-0.0004581354442052543
1772656292576684800,8.099684814453125,0.0004581354442052543,0.0009162708884105086,0.0007635590736754239
1772656292586563300,8.109563232421875,0.0010689827613532543,0.0009162708884105086,-0.0004581354442052543
1772656292596441900,8.11944189453125,-0.00015271181473508477,-0.00030542362947016954,-0.0010689827613532543
1772656292606320400,8.1293203125,-0.00015271181473508477,-0.00030542362947016954,0.00015271181473508477
1772656292616199000,8.139198974609375,-0.00015271181473508477,0.00030542362947016954,-0.0004581354442052543
1772656292626077400,8.149077392578125,-0.00015271181473508477,0.00030542362947016954,-0.0010689827613532543
1772656292635956000,8.1589560546875,0.0004581354442052543,-0.00030542362947016954,0.00015271181473508477
1772656292645834500,8.16883447265625,0.0004581354442052543,-0.00030542362947016954,0.00015271181473508477
1772656292655713000,8.178713134765625,-0.0007635590736754239,-0.00030542362947016954,-0.0004581354442052543
1772656292665591600,8.188591552734374,0.0004581354442052543,0.00030542362947016954,0.0007635590736754239
1772656292675470000,8.198469970703124,-0.0007635590736754239,-0.00030542362947016954,0.001374406274408102
1772656292685348600,8.2083486328125,-0.00015271181473508477,-0.00030542362947016954,0.00015271181473508477
1772656292695227100,8.21822705078125,-0.00015271181473508477,-0.00030542362947016954,-0.0022906772792339325
1772656292705105700,8.228105712890626,-0.00015271181473508477,-0.00030542362947016954,0.00015271181473508477
1772656292714984200,8.237984130859376,-0.0007635590736754239,0.0009162708884105086,-0.0004581354442052543
1772656292724862700,8.24786279296875,-0.0007635590736754239,-0.00030542362947016954,0.00015271181473508477
1772656292734741200,8.2577412109375,-0.0007635590736754239,0.0009162708884105086,0.001374406274408102
1772656292744619800,8.267619873046876,0.0004581354442052543,0.00030542362947016954,0.00015271181473508477
1772656292754498300,8.277498291015625,-0.0007635590736754239,0.00030542362947016954,0.00015271181473508477
1772656292764376800,8.287376953125,-0.0007635590736754239,-0.00030542362947016954,0.0007635590736754239
1772656292774255400,8.29725537109375,-0.001374406274408102,-0.00030542362947016954,-0.0004581354442052543
1772656292784134000,8.3071337890625,-0.0007635590736754239,-0.0009162708884105086,-0.0004581354442052543
1772656292794012400,8.317012451171875,-0.00015271181473508477,-0.00030542362947016954,0.00015271181473508477
1772656292803891000,8.326890869140625,-0.00015271181473508477,-0.00030542362947016954,0.001374406274408102
1772656292813769500,8.33676953125,-0.00015271181473508477,-0.00030542362947016954,0.0007635590736754239
1772656292823648000,8.34664794921875,-0.00015271181473508477,-0.00030542362947016954,-0.0004581354442052543
1772656292833526500,8.356526611328125,-0.00015271181473508477,0.0009162708884105086,0.00015271181473508477
1772656292843405000,8.366405029296875,0.0004581354442052543,0.0009162708884105086,-0.0004581354442052543
1772656292853283600,8.37628369140625,-0.0007635590736754239,-0.00030542362947016954,0.00015271181473508477
1772656292863162000,8.386162109375,-0.00015271181473508477,-0.00030542362947016954,-0.0004581354442052543
1772656292873040600,8.39604052734375,-0.00015271181473508477,-0.00030542362947016954,-0.0004581354442052543
1772656292882919400,8.40591943359375,-0.00015271181473508477,0.0009162708884105086,0.00015271181473508477
1772656292892798000,8.4157978515625,-0.00015271181473508477,0.0015271181473508477,-0.0004581354442052543
1772656292902676200,8.42567626953125,-0.00015271181473508477,0.00030542362947016954,-0.0004581354442052543
1772656292912554800,8.4355546875,-0.00015271181473508477,-0.0015271181473508477,0.0007635590736754239
1772656292922433500,8.44543359375,0.0004581354442052543,-0.00030542362947016954,-0.0004581354442052543
1772656292932312000,8.45531201171875,0.0004581354442052543,0.00030542362947016954,0.00015271181473508477
1772656292942190600,8.465190673828126,-0.00015271181473508477,0.00030542362947016954,-0.0010689827613532543
1772656292952069000,8.475069091796875,-0.00015271181473508477,-0.00030542362947016954,0.00015271181473508477
1772656292961947600,8.48494775390625,0.0004581354442052543,0.00030542362947016954,-0.0010689827613532543
1772656292971826200,8.494826171875,-0.0007635590736754239,0.00030542362947016954,-0.0016798300202935934
1772656292981704700,8.50470458984375,-0.00015271181473508477,-0.00030542362947016954,-0.0004581354442052543
1772656292991583200,8.514583251953125,0.0004581354442052543,0.00030542362947016954,-0.0004581354442052543
1772656293001461800,8.524461669921875,-0.00015271181473508477,0.0009162708884105086,-0.0004581354442052543
1772656293011340300,8.53434033203125,-0.0007635590736754239,-0.00030542362947016954,0.0007635590736754239
1772656293021218800,8.54421875,0.0010689827613532543,-0.00030542362947016954,-0.0004581354442052543
1772656293031097300,8.554097412109375,-0.00015271181473508477,0.00030542362947016954,0.0007635590736754239
1772656293040976000,8.563975830078125,0.0004581354442052543,0.00030542362947016954,0.0007635590736754239
1772656293050854400,8.5738544921875,-0.0007635590736754239,-0.00030542362947016954,0.0007635590736754239
1772656293060733000,8.58373291015625,0.0010689827613532543,-0.00030542362947016954,0.00015271181473508477
1772656293070611500,8.593611572265624,0.0004581354442052543,0.00030542362947016954,0.00015271181473508477
1772656293080490000,8.603489990234374,-0.00015271181473508477,-0.00030542362947016954,0.00015271181473508477
1772656293090368500,8.613368408203126,-0.00015271181473508477,0.00030542362947016954,0.00015271181473508477
1772656293100247000,8.6232470703125,-0.0007635590736754239,0.00030542362947016954,-0.0004581354442052543
1772656293110125600,8.63312548828125,0.0010689827613532543,-0.00030542362947016954,-0.0004581354442052543
1772656293120004000,8.643004150390626,0.0004581354442052543,0.0009162708884105086,0.0007635590736754239
1772656293129882600,8.652882568359376,0.0004581354442052543,-0.00030542362947016954,0.00015271181473508477
1772656293139761200,8.66276123046875,-0.00015271181473508477,-0.0009162708884105086,0.00015271181473508477
1772656293149639700,8.6726396484375,-0.00015271181473508477,0.0009162708884105086,-0.0004581354442052543
1772656293159518200,8.682518310546875,-0.00015271181473508477,-0.0009162708884105086,0.00015271181473508477
1772656293169396700,8.692396728515625,0.0010689827613532543,-0.0009162708884105086,0.00015271181473508477
1772656293179275300,8.702275146484375,-0.0007635590736754239,-0.00030542362947016954,-0.0010689827613532543
1772656293189153800,8.71215380859375,0.0004581354442052543,-0.0009162708884105086,0.00015271181473508477
1772656293199032300,8.7220322265625,0.0004581354442052543,-0.0009162708884105086,0.00015271181473508477
1772656293208910800,8.731910888671875,0.0004581354442052543,-0.00030542362947016954,0.00015271181473508477
1772656293218789400,8.741789306640625,-0.00015271181473508477,-0.00030542362947016954,0.0007635590736754239
1772656293228668000,8.75166796875,-0.00015271181473508477,-0.00030542362947016954,-0.0016798300202935934
1772656293238546400,8.76154638671875,0.0004581354442052543,-0.00030542362947016954,-0.0004581354442052543
1772656293248425000,8.771425048828124,-0.001374406274408102,-0.00030542362947016954,0.0007635590736754239
1772656293258303500,8.781303466796874,-0.00015271181473508477,0.00030542362947016954,-0.0004581354442052543
1772656293268182000,8.79118212890625,-0.00015271181473508477,0.00030542362947016954,-0.0010689827613532543
1772656293278060500,8.801060546875,0.0004581354442052543,0.00030542362947016954,0.00015271181473508477
1772656293287939000,8.81093896484375,-0.00015271181473508477,0.0009162708884105086,-0.0004581354442052543
1772656293297817600,8.820817626953126,-0.0007635590736754239,0.00030542362947016954,0.0007635590736754239
1772656293307696000,8.830696044921876,0.0004581354442052543,0.00030542362947016954,-0.0004581354442052543
1772656293317574700,8.84057470703125,-0.00015271181473508477,-0.00030542362947016954,0.001374406274408102
1772656293327453200,8.850453125,-0.00015271181473508477,0.00030542362947016954,-0.0004581354442052543
1772656293337331700,8.860331787109375,-0.00015271181473508477,0.0009162708884105086,-0.0004581354442052543
1772656293347210200,8.870210205078125,-0.00015271181473508477,-0.00030542362947016954,0.0007635590736754239
1772656293357088800,8.8800888671875,-0.00015271181473508477,-0.00030542362947016954,-0.0010689827613532543
1772656293366967300,8.88996728515625,0.0004581354442052543,0.00030542362947016954,0.0007635590736754239
1772656293376845800,8.899845703125,-0.00015271181473508477,-0.00030542362947016954,0.0007635590736754239
1772656293386724400,8.909724365234375,0.0004581354442052543,0.00030542362947016954,-0.0004581354442052543
1772656293396603000,8.919602783203125,0.0004581354442052543,-0.00030542362947016954,0.00015271181473508477
1772656293406481400,8.9294814453125,-0.00015271181473508477,-0.00030542362947016954,-0.0004581354442052543
1772656293416360000,8.93935986328125,-0.00015271181473508477,-0.00030542362947016954,0.001374406274408102
1772656293426238500,8.949238525390625,0.0010689827613532543,0.00030542362947016954,-0.0004581354442052543
1772656293436117000,8.959116943359374,0.0004581354442052543,-0.0009162708884105086,0.00015271181473508477
1772656293445995500,8.96899560546875,-0.00015271181473508477,-0.00030542362947016954,0.00015271181473508477
1772656293455874000,8.9788740234375,0.0004581354442052543,0.00030542362947016954,-0.0004581354442052543
1772656293465752600,8.988752685546874,-0.001374406274408102,-0.00030542362947016954,-0.0010689827613532543
1772656293475631000,8.998631103515624,0,0.00030542362947016954,-0.0004581354442052543
1772656293485509600,9.008509521484376,0.0012216945178806782,0.0009162708884105086,0.00015271181473508477
1772656293495388200,9.01838818359375,0,0.00030542362947016954,-0.0004581354442052543
1772656293505266700,9.0282666015625,0,-0.0009162708884105086,0.00015271181473508477
1772656293515145200,9.038145263671876,0.0006108472589403391,-0.00030542362947016954,-0.0004581354442052543
1772656293525023700,9.048023681640625,0,0.00030542362947016954,-0.0010689827613532543
1772656293534902300,9.05790234375,0,-0.00030542362947016954,0.0007635590736754239
1772656293544780800,9.06778076171875,-0.0006108472589403391,0.00030542362947016954,-0.0004581354442052543
1772656293554659300,9.077659423828125,0,-0.00030542362947016954,0.00015271181473508477
1772656293564537900,9.087537841796875,0,0.00030542362947016954,-0.0004581354442052543
1772656293574416400,9.09741650390625,0,-0.00030542362947016954,-0.0010689827613532543
1772656293584295000,9.107294921875,0,0.0009162708884105086,0.00015271181473508477
1772656293594173400,9.11717333984375,-0.0006108472589403391,0.00030542362947016954,-0.0010689827613532543
1772656293604052000,9.127052001953125,0,0.00030542362947016954,0.00015271181473508477
1772656293613930500,9.136930419921875,0.0006108472589403391,0.00030542362947016954,-0.0004581354442052543
1772656293623809000,9.14680908203125,0,0.0009162708884105086,0.00015271181473508477
1772656293633687600,9.1566875,0.0006108472589403391,-0.00030542362947016954,0.00015271181473508477
1772656293643566000,9.166566162109374,0,-0.00030542362947016954,0.0007635590736754239
1772656293653444600,9.176444580078124,0,0.00030542362947016954,0.001374406274408102
1772656293663323100,9.1863232421875,0,-0.00030542362947016954,0.0007635590736754239
1772656293673201700,9.19620166015625,0,0.00030542362947016954,0.001985253533348441
1772656293683080200,9.206080078125,0,0.0009162708884105086,-0.0004581354442052543
1772656293692958700,9.215958740234376,0.0006108472589403391,0.00030542362947016954,-0.0004581354442052543
1772656293702837200,9.225837158203126,0,0.00030542362947016954,0.00015271181473508477
1772656293712715800,9.2357158203125,0,-0.00030542362947016954,-0.0010689827613532543
1772656293722594300,9.24559423828125,0,-0.00030542362947016954,0.00015271181473508477
1772656293732472800,9.255472900390625,0.0006108472589403391,-0.00030542362947016954,0.00015271181473508477
1772656293742351400,9.265351318359375,-0.0006108472589403391,-0.0009162708884105086,0.00015271181473508477
1772656293752230000,9.27522998046875,0.0006108472589403391,-0.00030542362947016954,-0.0004581354442052543
1772656293762108400,9.2851083984375,0,0.0009162708884105086,0.00015271181473508477
