time,seconds_elapsed,z,y,x
1772650694497716500,0.126716552734375,6.49770975112915,-5.817550182342529,-4.466203689575195
1772650694517471000,0.146470947265625,6.413362979888916,-5.763113498687744,-4.509274482727051
1772650694537225500,0.1662255859375,6.430710792541504,-5.819942951202393,-4.47278356552124
1772650694547102700,0.176102783203125,6.449853420257568,-5.853442192077637,-4.47278356552124
1772650694556980000,0.18597998046875,6.4354963302612305,-5.856433391571045,-4.505684852600098
1772650694566857200,0.195857177734375,6.394818305969238,-5.827719688415527,-4.491926193237305
1772650694576734500,0.205734375,6.354140758514404,-5.782256126403809,-4.46560525894165
1772650694586611700,0.21561181640625,6.337390899658203,-5.755934715270996,-4.459024906158447
1772650694596489000,0.225489013671875,6.339783668518066,-5.7750773429870605,-4.470390796661377
1772650694606366200,0.2353662109375,6.339783668518066,-5.758925914764404,-4.478167533874512
1772650694616243200,0.2452431640625,6.34217643737793,-5.717649936676025,-4.444668292999268
1772650694626120400,0.255120361328125,6.337390899658203,-5.68175745010376,-4.393222332000732
1772650694635997700,0.264997802734375,6.305685997009277,-5.616552829742432,-4.322035789489746
1772650694645875000,0.274875,6.236293792724609,-5.574080467224121,-4.30588436126709
1772650694655752200,0.284752197265625,6.189035892486572,-5.573482036590576,-4.241278171539307
1772650694665629400,0.29462939453125,6.1914286613464355,-5.664409637451172,-4.326223373413086
1772650694675506700,0.304506591796875,6.208178520202637,-5.674578666687012,-4.342374801635742
1772650694685384000,0.314384033203125,6.1675004959106445,-5.687141418457031,-4.399204254150391
1772650694695261200,0.32426123046875,6.114858150482178,-5.632106304168701,-4.364508628845215
1772650694705138400,0.334138427734375,6.107679843902588,-5.546562671661377,-4.183850288391113
1772650694715015700,0.344015625,6.071787357330322,-5.543571949005127,-4.083950042724609
1772650694724893000,0.353892822265625,5.959324836730957,-5.472385406494141,-4.015156269073486
1772650694734770200,0.363770263671875,5.837889194488525,-5.4526448249816895,-3.933800458908081
1772650694744647400,0.3736474609375,5.459823131561279,-5.269593715667725,-3.655036687850952
1772650694754524700,0.383524658203125,5.208576679229736,-5.011168956756592,-3.4307093620300293
1772650694764402000,0.39340185546875,4.893322467803955,-5.1182475090026855,-3.754936933517456
1772650694774279200,0.403279052734375,4.541577339172363,-5.087738990783691,-3.9846479892730713
1772650694784156400,0.413156494140625,4.185046672821045,-4.917848587036133,-4.021138668060303
1772650694794033700,0.42303369140625,3.9667017459869385,-4.77667236328125,-4.095315933227539
1772650694803911000,0.432910888671875,3.7058839797973633,-4.578067779541016,-3.958326816558838
1772650694813788200,0.4427880859375,3.607778310775757,-4.298107624053955,-3.594019651412964
1772650694823665400,0.45266552734375,3.5718860626220703,-4.252045631408691,-3.4534413814544678
1772650694833542700,0.462542724609375,3.5497524738311768,-4.657629489898682,-3.4468610286712646
1772650694843420000,0.472419921875,3.896711587905884,-4.139583110809326,-2.8462624549865723
1772650694853297200,0.482297119140625,3.472583770751953,-3.730410575866699,-2.750549554824829
1772650694863174400,0.49217431640625,3.211168050765991,-3.455834150314331,-2.8552355766296387
1772650694873051600,0.5020517578125,3.558725595474243,-3.0281169414520264,-2.4538395404815674
1772650694882929000,0.511928955078125,4.027120590209961,-2.813361167907715,-1.5780665874481201
1772650694892806100,0.52180615234375,5.003392219543457,-2.7074787616729736,-0.3415754437446594
1772650694902669600,0.531669677734375,5.632106304168701,-2.352742910385132,0.8632107973098755
1772650694912560600,0.541560546875,5.896512985229492,-1.949552297592163,1.2939188480377197
1772650694922438000,0.55143798828125,6.374479293823242,-2.2402801513671875,0.8662018179893494
1772650694932301300,0.56130126953125,7.558328628540039,-3.5270206928253174,-0.19980068504810333
1772650694942192400,0.5711923828125,10.225129127502441,-5.3246283531188965,-0.9158528447151184
1772650694952069600,0.581069580078125,13.1694974899292,-7.426723480224609,-0.8979067206382751
1772650694961933000,0.59093310546875,14.941981315612793,-7.643871784210205,-1.0929217338562012
1772650694971824000,0.60082421875,15.16331672668457,-6.63350248336792,-1.8616160154342651
1772650694981701400,0.610701416015625,12.262020111083984,-6.32363224029541,-3.500699520111084
1772650694991564800,0.620564697265625,8.924630165100098,-7.478767395019531,-5.56151819229126
1772650695001455900,0.630455810546875,9.976874351501465,-9.56889820098877,-5.505885124206543
1772650695011333000,0.6403330078125,12.327223777770996,-11.465807914733887,-6.041278839111328
1772650695021196500,0.650196533203125,14.158929824829102,-12.308679580688477,-8.340781211853027
1772650695031087600,0.660087646484375,15.112469673156738,-13.315460205078125,-12.04487133026123
1772650695040964900,0.66996484375,15.63111400604248,-14.715261459350586,-15.325430870056152
1772650695050828300,0.679828369140625,17.104494094848633,-16.245471954345703,-16.556537628173828
1772650695060719400,0.68971923828125,19.331016540527344,-17.392230987548828,-16.091135025024414
1772650695070596600,0.6995966796875,21.360130310058594,-16.649858474731445,-13.520644187927246
1772650695080460000,0.7094599609375,23.419153213500977,-15.695121765136719,-10.945368766784668
1772650695090351000,0.71935107421875,24.345176696777344,-15.815361022949219,-10.409377098083496
1772650695100228400,0.729228271484375,24.038894653320312,-15.418152809143066,-10.948360443115234
1772650695110091800,0.739091796875,22.72762680053711,-14.100305557250977,-12.098111152648926
1772650695119982800,0.74898291015625,20.944974899291992,-14.544174194335938,-13.914263725280762
1772650695129860000,0.758860107421875,18.17348861694336,-13.438092231750488,-13.1365966796875
1772650695139723500,0.7687236328125,14.976676940917969,-11.603395462036133,-11.84447193145752
1772650695149614600,0.778614501953125,13.177872657775879,-9.546764373779297,-8.291728973388672
1772650695159491800,0.788491943359375,10.148558616638184,-7.331608772277832,-4.593023300170898
1772650695169355300,0.798355224609375,5.6931233406066895,-5.8582282066345215,-2.8755745887756348
1772650695179246300,0.808246337890625,0.760917603969574,-5.516652584075928,-2.1128623485565186
1772650695189123600,0.81812353515625,-2.785843849182129,-4.420141696929932,-3.335594654083252
1772650695198987000,0.827987060546875,-6.297310829162598,-3.741776466369629,-3.5988051891326904
1772650695208878000,0.837878173828125,-5.4556355476379395,-1.9010975360870361,-1.2352946996688843
1772650695218755300,0.84775537109375,-3.8979079723358154,-0.44027936458587646,1.2987045049667358
1772650695228618800,0.85761865234375,-2.679363250732422,1.6133606433868408,3.6083765029907227
1772650695238509800,0.867509765625,-2.3850460052490234,3.57906436920166,4.557130813598633
1772650695248387000,0.877386962890625,-2.7672994136810303,4.149752616882324,3.2129626274108887
1772650695258250500,0.88725048828125,-2.816352367401123,2.9138598442077637,0.8811569213867188
1772650695268141600,0.8971416015625,-2.599203586578369,1.231107234954834,-0.8177471160888672
1772650695278018800,0.907018798828125,-2.0985054969787598,-0.12502498924732208,-1.9381862878799438
1772650695287882500,0.916882568359375,-1.1407781839370728,-0.5156532526016235,-2.5351955890655518
1772650695297773300,0.926773193359375,0.12622138857841492,-0.053240302950143814,-2.5471596717834473
1772650695307650600,0.936650634765625,1.5822539329528809,0.3445664644241333,-1.882553219795227
1772650695317514000,0.946513916015625,3.404388427734375,0.5952146053314209,-1.3130614757537842
1772650695327405000,0.956405029296875,4.836492538452148,1.160519003868103,-0.9212366938591003
1772650695337282300,0.9662822265625,4.761716842651367,1.8747764825820923,-0.7232306599617004
1772650695347146000,0.97614599609375,4.226921081542969,1.5990036725997925,-1.2041879892349243
1772650695357036800,0.986036865234375,3.1477582454681396,0.8249256014823914,-1.657029628753662
1772650695366914000,0.9959140625,1.8047864437103271,0.5228317379951477,-1.563111424446106
1772650695376777500,1.005777587890625,0.5527420043945312,0.753140926361084,-0.9128618240356445
1772650695386668500,1.01566845703125,-0.5473581552505493,0.7878368496894836,-0.33738797903060913
1772650695396545800,1.0255458984375,-1.262213945388794,0.5772684812545776,0.15613168478012085
1772650695406409500,1.035409423828125,-2.0709879398345947,0.3607180118560791,0.24945175647735596
1772650695416300300,1.04530029296875,-2.7314071655273438,0.10468599200248718,0.16390834748744965
1772650695426177500,1.055177490234375,-3.0526435375213623,-0.2566302418708801,0.14715859293937683
1772650695436041200,1.065041259765625,-2.8241288661956787,-0.6514459848403931,0.1866401731967926
1772650695445932000,1.07493212890625,-2.1672990322113037,-1.1443674564361572,0.3433700501918793
1772650695455809500,1.0848095703125,-1.566102385520935,-1.4632110595703125,0.43489551544189453
1772650695465686500,1.0946865234375,-1.3704891204833984,-1.4931213855743408,0.2273181527853012
1772650695475563800,1.104563720703125,-1.490728497505188,-1.4530415534973145,-0.2919243574142456
1772650695485441300,1.114441162109375,-1.5326029062271118,-1.3950155973434448,-0.9930213689804077
1772650695495318500,1.124318603515625,-1.5672988891601562,-1.2436695098876953,-1.3968101739883423
1772650695505195800,1.13419580078125,-1.4273186922073364,-1.1629117727279663,-1.4769697189331055
1772650695515073000,1.144072998046875,-1.0701899528503418,-1.3411771059036255,-1.064207911491394
1772650695524950300,1.1539501953125,-0.5060819983482361,-1.6863417625427246,-0.41216370463371277
1772650695534827500,1.16382763671875,-0.33499518036842346,-2.0063817501068115,-0.2189432680606842
1772650695544704800,1.173704833984375,-0.6909275650978088,-1.9872392416000366,-1.6354942321777344
1772650695554568200,1.183568115234375,-0.7956135272979736,-2.953939437866211,-3.741178274154663
1772650695564459300,1.193459228515625,-0.2638086974620819,-4.505684852600098,-5.367101192474365
1772650695574336500,1.20333642578125,1.3902299404144287,-6.992425918579102,-7.93998384475708
1772650695584200000,1.213199951171875,4.5583271980285645,-11.83430290222168,-9.399007797241211
1772650695594091000,1.223091064453125,11.447263717651367,-17.689538955688477,-10.980663299560547
1772650695603968300,1.23296826171875,33.40559768676758,-25.353153228759766,-7.7700934410095215
1772650695613832000,1.24283203125,40.3663215637207,-21.990638732910156,-6.088537216186523
1772650695623722800,1.25272265625,34.496726989746094,-4.7473602294921875,3.1100711822509766
1772650695633600000,1.26260009765625,25.118656158447266,-2.5292134284973145,-0.5132604837417603
1772650695643463700,1.272463623046875,16.014564514160156,-6.667600154876709,-6.058627128601074
1772650695653354500,1.2823544921875,11.55553913116455,-10.41476058959961,-10.910075187683105
1772650695663231700,1.292231689453125,9.253643035888672,-13.702498435974121,-14.379667282104492
1772650695673095400,1.302095458984375,7.910671710968018,-13.122239112854004,-14.778671264648438
1772650695682986200,1.311986328125,11.13320541381836,-14.206786155700684,-14.243874549865723
1772650695692863700,1.32186376953125,20.428722381591797,-13.900505065917969,-13.778470993041992
1772650695702727200,1.33172705078125,28.150362014770508,-12.586247444152832,-10.51107120513916
1772650695712618000,1.341617919921875,30.02274513244629,-10.831709861755371,-7.800601959228516
1772650695722495500,1.35149560546875,27.1687068939209,-10.074381828308105,-8.800801277160645
1772650695732359000,1.36135888671875,23.58844566345215,-10.630114555358887,-12.994223594665527
1772650695742250000,1.37125,22.214366912841797,-12.171690940856934,-15.818950653076172
1772650695752127200,1.381127197265625,23.2307186126709,-13.986048698425293,-16.916658401489258
1772650695761990700,1.39099072265625,25.03789710998535,-15.67358684539795,-17.228322982788086
1772650695771881700,1.4008818359375,26.409584045410156,-16.194623947143555,-16.57986831665039
1772650695781759000,1.410759033203125,26.60579490661621,-15.05145263671875,-13.797015190124512
1772650695791622400,1.420622314453125,25.012174606323242,-12.253046989440918,-9.795019149780273
1772650695801513500,1.430513427734375,20.88156509399414,-8.741579055786133,-7.3537421226501465
1772650695811390700,1.440390625,15.411572456359863,-8.36710262298584,-5.164309501647949
1772650695821254100,1.450254150390625,9.09811019897461,-6.80877685546875,-4.387240409851074
1772650695831145200,1.460145263671875,3.0963125228881836,-7.396812915802002,-5.706881999969482
1772650695841022500,1.4700224609375,1.303490161895752,-7.514659404754639,-5.563910961151123
1772650695850886000,1.479885986328125,-0.2386840581893921,-6.570691108703613,-5.491528034210205
1772650695860777000,1.48977685546875,-1.5990036725997925,-3.929612874984741,-3.6358940601348877
1772650695870654200,1.499654296875,-2.3886351585388184,-1.2251251935958862,-0.8530412912368774
1772650695880517600,1.509517578125,-3.363112211227417,0.2602194547653198,1.555932879447937
1772650695890408700,1.51940869140625,-5.104488849639893,1.316650629043579,2.7385854721069336
1772650695900286000,1.529285888671875,-6.49770975112915,2.4598217010498047,2.062613010406494
1772650695910149600,1.539149658203125,-6.355935096740723,2.650649309158325,0.4301098585128784
1772650695920040400,1.54904052734375,-5.371288776397705,2.2582263946533203,-0.5964110493659973
1772650695929917700,1.558917724609375,-4.124628067016602,1.9968105554580688,-1.2490534782409668
1772650695939795200,1.568795166015625,-3.6957144737243652,1.9561325311660767,-1.898106575012207
1772650695949672400,1.57867236328125,-2.9934210777282715,0.9732806086540222,-2.7248268127441406
1772650695959549700,1.5885498046875,-1.6773686408996582,-0.3565305769443512,-3.3547372817993164
1772650695969413000,1.5984130859375,-0.5569294691085815,-1.342971682548523,-4.025325775146484
1772650695979304200,1.60830419921875,0.844068169593811,-1.6995022296905518,-4.389034748077393
1772650695989181400,1.618181396484375,1.9938194751739502,-1.439282774925232,-4.329812526702881
1772650695999044900,1.628044921875,3.108276605606079,-0.6352944374084473,-3.221935749053955
1772650696008936000,1.63793603515625,3.394218921661377,0.06041877344250679,-1.6241283416748047
1772650696018813200,1.647813232421875,3.119044303894043,0.24526432156562805,-0.15254244208335876
1772650696028676600,1.657676513671875,2.482553482055664,0.2560320198535919,0.5246263742446899
1772650696038567700,1.667567626953125,1.545763373374939,0.4618147611618042,0.9523434042930603
1772650696048445000,1.67744482421875,0.36191442608833313,1.0630114078521729,1.4506487846374512
1772650696058308400,1.687308349609375,-0.06281159073114395,0.3720839321613312,1.4476577043533325
1772650696068199400,1.697199462890625,-1.0133603811264038,0.21714866161346436,1.0929217338562012
1772650696078076700,1.70707666015625,-1.7772690057754517,0.2111666053533554,1.2388839721679688
1772650696087940000,1.716940185546875,-2.2785654067993164,-0.06999006122350693,0.9595218896865845
1772650696097831200,1.7268310546875,-2.3910279273986816,-0.607776939868927,0.6227321028709412
1772650696107708400,1.73670849609375,-2.108076810836792,-1.0265209674835205,0.12083754688501358
1772650696117585700,1.746585693359375,-1.8388842344284058,-0.9906286001205444,-0.19740787148475647
1772650696127463000,1.756462890625,-1.8813568353652954,-0.32303106784820557,-0.7405785918235779
1772650696137340400,1.76634033203125,-1.872383713722229,0.19920247793197632,-1.2460623979568481
1772650696147217700,1.7762177734375,-1.6366907358169556,0.3200400173664093,-1.4769697189331055
1772650696157095000,1.786094970703125,-1.674377679824829,0.16091732680797577,-1.5990036725997925
1772650696166972200,1.79597216796875,-1.9142581224441528,-0.16809579730033875,-1.7928223609924316
1772650696176849400,1.805849365234375,-2.152942180633545,-0.5365904569625854,-2.316850423812866
1772650696186726700,1.8157265625,-2.2821545600891113,-1.4159528017044067,-3.177070379257202
1772650696196604000,1.82560400390625,-2.0057835578918457,-1.6666009426116943,-2.8420751094818115
1772650696206481200,1.835481201171875,-1.9094724655151367,-1.7258232831954956,-2.5609183311462402
1772650696216358400,1.8453583984375,-1.4817553758621216,-2.307279348373413,-2.6662025451660156
1772650696226235600,1.855235595703125,0.22552353143692017,-4.073780536651611,-3.250051259994507
1772650696236099000,1.86509912109375,2.9252257347106934,-6.573083877563477,-4.762315273284912
1772650696245990100,1.874990234375,5.807380676269531,-8.243273735046387,-6.197410583496094
1772650696255867400,1.884867431640625,9.366703987121582,-9.241679191589355,-7.258627414703369
1772650696265731000,1.89473095703125,12.16391372680664,-9.66819953918457,-6.5712890625
1772650696275622000,1.904621826171875,15.26501178741455,-10.043274879455566,-7.0887370109558105
1772650696285499100,1.9144990234375,19.85624122619629,-10.65224838256836,-8.2695951461792
1772650696295362800,1.92436279296875,22.38365936279297,-9.92243766784668,-6.165705680847168
1772650696305253600,1.934253662109375,24.703500747680664,-12.113664627075195,-5.43709135055542
1772650696315131100,1.944131103515625,31.423145294189453,-17.55255126953125,-9.779465675354004
1772650696324994600,1.95399462890625,34.60200881958008,-23.043479919433594,-5.119443893432617
1772650696334885600,1.9638857421875,20.93001937866211,-21.386449813842773,-3.8009986877441406
1772650696344763000,1.973762939453125,12.549158096313477,-18.86680793762207,-13.386646270751953
1772650696354626300,1.983626220703125,16.945371627807617,-19.577476501464844,-17.19841194152832
1772650696364517400,1.993517333984375,19.051055908203125,-14.886945724487305,-15.869797706604004
1772650696374394600,2.00339453125,22.781465530395508,-10.88435173034668,-10.755738258361816
1772650696384258000,2.013258056640625,27.551557540893555,-11.259427070617676,-8.416155815124512
1772650696394149000,2.023149169921875,31.750961303710938,-12.166905403137207,-7.614559650421143
1772650696404026400,2.0330263671875,34.323246002197266,-14.033905029296875,-7.82692289352417
1772650696413889800,2.042889892578125,33.2297248840332,-16.772489547729492,-8.933603286743164
1772650696423780900,2.05278076171875,29.772695541381836,-18.197416305541992,-9.966704368591309
1772650696433658000,2.062658203125,26.3395938873291,-18.3314151763916,-7.8556365966796875
1772650696443521500,2.072521484375,22.9908390045166,-16.121044158935547,-8.368298530578613
1772650696453412600,2.08241259765625,18.521644592285156,-12.972687721252441,-6.113063812255859
1772650696463289900,2.092289794921875,13.4703950881958,-9.313464164733887,-4.06121826171875
1772650696473153500,2.102153564453125,8.066802978515625,-6.436094760894775,-3.428914785385132
1772650696483044400,2.11204443359375,3.073580741882324,-4.661816596984863,-3.985844373703003
1772650696492921900,2.121921875,-0.44745782017707825,-3.393620729446411,-3.961916208267212
1772650696502785300,2.131785400390625,-2.956930637359619,-1.836491346359253,-3.542573928833008
1772650696512676400,2.14167626953125,-4.308277130126953,-2.4185454845428467,-3.459423303604126
1772650696522553600,2.1515537109375,-4.8299126625061035,-2.289931297302246,-3.5258240699768066
1772650696532417000,2.1614169921875,-5.931209087371826,-1.3908281326293945,-3.1280174255371094
1772650696542308000,2.17130810546875,-7.985447406768799,0.5724828243255615,-2.5328028202056885
1772650696552185300,2.181185302734375,-8.127820014953613,1.638485312461853,-2.2618155479431152
1772650696562048800,2.191048828125,-7.936992645263672,1.1629117727279663,-3.442075490951538
1772650696571939800,2.20093994140625,-7.534400463104248,1.1617153882980347,-4.00319242477417
1772650696581817000,2.210817138671875,-5.4795637130737305,-0.711864709854126,-4.182653903961182
1772650696591680800,2.2206806640625,-3.472583770751953,-1.932802438735962,-3.9086756706237793
1772650696601571600,2.230571533203125,-1.721037745475769,-1.8293129205703735,-2.9419753551483154
1772650696611448800,2.24044873046875,0.07597211748361588,-1.5361921787261963,-1.6785650253295898
1772650696621312500,2.2503125,1.4488540887832642,-0.9343972206115723,-0.8446664214134216
1772650696631203600,2.26020361328125,2.5980072021484375,-0.2356930375099182,-0.08614161610603333
1772650696641080800,2.270080810546875,3.394218921661377,0.5784648656845093,0.9343972206115723
1772650696650944300,2.2799443359375,3.920639991760254,1.1018948554992676,1.618146300315857
1772650696660835300,2.28983544921875,4.244269371032715,1.1467602252960205,2.197807550430298
1772650696670712600,2.299712646484375,4.052245140075684,1.0061819553375244,2.5597219467163086
1772650696680576000,2.309575927734375,3.073580741882324,0.833898663520813,2.6769702434539795
1772650696690467000,2.319467041015625,1.5499508380889893,0.7328019142150879,2.681756019592285
1772650696700344300,2.32934423828125,0.0771685317158699,0.890728235244751,1.9680966138839722
1772650696710207700,2.339207763671875,-1.1647064685821533,0.28893333673477173,0.8901300430297852
1772650696720098800,2.349098876953125,-2.2480568885803223,0.2799602448940277,-0.12801600992679596
1772650696729976000,2.35897607421875,-2.927020311355591,0.15254244208335876,-1.0271191596984863
1772650696739839700,2.36883984375,-3.4199416637420654,0.08315058797597885,-1.587039589881897
1772650696749730600,2.37873046875,-3.583850145339966,-0.16271193325519562,-1.8197416067123413
1772650696759608000,2.388608154296875,-3.4707891941070557,-0.5096712112426758,-1.9836499691009521
1772650696769471500,2.398471435546875,-3.3164522647857666,-0.9361918568611145,-2.2127628326416016
1772650696779362600,2.408362548828125,-3.390031576156616,-1.1802598237991333,-2.527418851852417
1772650696789239800,2.41823974609375,-3.308675527572632,-1.3824533224105835,-3.0311081409454346
1772650696799103200,2.428103271484375,-2.8761727809906006,-1.6660027503967285,-3.6466617584228516
1772650696808994300,2.437994384765625,-2.5674986839294434,-1.4327025413513184,-4.071985721588135
1772650696818871600,2.44787158203125,-2.239083766937256,-1.2293126583099365,-4.1730828285217285
1772650696828735000,2.45773486328125,-1.688734531402588,-1.0803594589233398,-4.545764923095703
1772650696838626000,2.4676259765625,-0.511465847492218,-2.334796667098999,-5.216951370239258
1772650696848503300,2.47750341796875,1.6426727771759033,-4.218546390533447,-5.753541946411133
1772650696858367000,2.487366943359375,5.14576530456543,-6.203392505645752,-6.949355125427246
1772650696868257800,2.4972578125,8.659027099609375,-8.303094863891602,-7.844270706176758
1772650696878135300,2.50713525390625,12.313465118408203,-10.451848983764648,-7.517052173614502
1772650696887998700,2.516998779296875,13.676177978515625,-13.83649730682373,-6.714858531951904
1772650696897889800,2.526889892578125,20.018354415893555,-16.217355728149414,-6.5288166999816895
1772650696907767000,2.53676708984375,23.38027000427246,-20.857637405395508,-8.688937187194824
1772650696917630500,2.54663037109375,33.22075271606445,-21.77169418334961,-5.294718265533447
1772650696927521500,2.556521484375,41.475990295410156,-24.891935348510742,0.5563312768936157
1772650696937398800,2.566398681640625,40.43989944458008,-24.153749465942383,3.9074792861938477
1772650696947262200,2.57626220703125,35.968910217285156,-21.511476516723633,-0.7322037220001221
1772650696957153300,2.5861533203125,29.973094940185547,-17.3814640045166,-5.377270698547363
1772650696967030500,2.596030517578125,25.5158634185791,-18.731613159179688,-5.9539408683776855
1772650696976894200,2.605894287109375,25.85564422607422,-22.053449630737305,-6.734001159667969
1772650696986785000,2.615784912109375,26.938995361328125,-23.488544464111328,-7.82692289352417
1772650696996662300,2.625662353515625,26.692535400390625,-19.80838394165039,-7.784450054168701
1772650697006526000,2.63552587890625,27.759136199951172,-16.646268844604492,-4.711467742919922
1772650697016417000,2.6454169921875,28.364519119262695,-14.417952537536621,-5.648856163024902
1772650697026294300,2.655294189453125,25.27179718017578,-10.328021049499512,-3.7800614833831787
1772650697036157700,2.66515771484375,19.72463607788086,-6.482156753540039,-2.0093727111816406
1772650697046048800,2.675048828125,13.999208450317383,-5.062614440917969,-1.4973087310791016
1772650697055926000,2.684926025390625,9.076574325561523,-5.241477966308594,-2.05603289604187
1772650697065789400,2.69478955078125,4.30588436126709,-4.886143684387207,-2.956930637359619
1772650697075680500,2.704680419921875,0.39541393518447876,-4.768895626068115,-4.658825874328613
1772650697085557800,2.714557861328125,-3.0586254596710205,-4.658825874328613,-5.827121257781982
1772650697095421200,2.724421142578125,-5.548955917358398,-4.576871395111084,-6.468996047973633
1772650697105312300,2.734312255859375,-6.829115867614746,-5.56869649887085,-7.459624767303467
1772650697115189500,2.744189453125,-8.367700576782227,-4.235296249389648,-5.787639617919922
1772650697125053200,2.75405322265625,-9.108877182006836,-2.342573404312134,-4.6438703536987305
1772650697134944300,2.7639443359375,-8.98086166381836,-1.649253010749817,-4.8227338790893555
1772650697144821500,2.773821533203125,-8.301898002624512,-1.3070793151855469,-4.969294548034668
1772650697154685000,2.783684814453125,-7.283751964569092,-1.3908281326293945,-4.612165451049805
1772650697164576000,2.793575927734375,-6.331408500671387,-1.5553346872329712,-4.1760735511779785
1772650697174453200,2.803453369140625,-5.161318302154541,-1.4644074440002441,-4.143172264099121
1772650697184316700,2.813316650390625,-3.772883176803589,-0.9032905697822571,-3.8799619674682617
1772650697194207700,2.823207763671875,-1.4404792785644531,-0.7310073375701904,-2.7487549781799316
1772650697204085000,2.8330849609375,2.389233350753784,-1.0277173519134521,0.029910283163189888
1772650697213948400,2.842948486328125,5.373681545257568,-0.41874396800994873,2.2097716331481934
1772650697223839500,2.852839599609375,7.079165935516357,0.7334001660346985,3.8285162448883057
1772650697233716700,2.862716796875,7.4847493171691895,1.8299111127853394,4.814359188079834
1772650697243580400,2.872580322265625,6.733402729034424,2.667997360229492,4.70608377456665
1772650697253471500,2.882471435546875,4.887340068817139,2.3533411026000977,3.930211305618286
1772650697263348700,2.8923486328125,3.7776687145233154,0.3655036687850952,2.7774689197540283
1772650697273212200,2.902212158203125,1.339382529258728,-0.14297115802764893,1.6528422832489014
1772650697283103200,2.912103271484375,-0.7896314859390259,-0.1657029688358307,1.062413215637207
1772650697292980500,2.92198046875,-1.6109678745269775,-0.6640082597732544,-0.10648060590028763
1772650697302844000,2.931843994140625,-2.0416758060455322,-0.7956135272979736,-0.9966106414794922
1772650697312735000,2.94173486328125,-2.3802602291107178,-0.46839502453804016,-1.0492527484893799
1772650697322612200,2.9516123046875,-2.5459632873535156,-0.005383851006627083,-0.6574280261993408
1772650697332475600,2.9614755859375,-2.445464849472046,-0.03768695518374443,-0.6101697683334351
1772650697342366700,2.97136669921875,-2.3910279273986816,-0.607776939868927,-0.8757730722427368
1772650697352244000,2.981243896484375,-2.3569302558898926,-1.0510473251342773,-1.3818551301956177
1772650697362107600,2.991107666015625,-2.417349100112915,-0.5910272002220154,-2.3676979541778564
1772650697371998500,3.00099853515625,-1.6683956384658813,-0.48574298620224,-2.424527645111084
1772650697381875700,3.010875732421875,-0.6819544434547424,-0.37926238775253296,-2.3575284481048584
1772650697391739400,3.020739501953125,0.8943174481391907,-1.1216355562210083,-2.8079774379730225
1772650697401630500,3.03063037109375,3.424727439880371,-3.1902308464050293,-3.084946632385254
1772650697411507700,3.0405078125,8.102097511291504,-5.623133182525635,-2.9036903381347656
1772650697421371100,3.05037109375,11.177473068237305,-8.015357971191406,-3.865604877471924
1772650697431262200,3.06026220703125,14.126028060913086,-8.439485549926758,-4.203591346740723
1772650697441139500,3.070139404296875,17.60399627685547,-8.71645450592041,-4.8568315505981445
1772650697451003000,3.0800029296875,20.413169860839844,-8.636893272399902,-7.260422229766846
1772650697460894000,3.08989404296875,28.390840530395508,-12.631112098693848,-7.1850481033325195
1772650697470771200,3.099771240234375,26.867809295654297,-15.165709495544434,-7.232306480407715
1772650697480634600,3.109634521484375,19.088144302368164,-7.596613883972168,-5.647659778594971
1772650697490525700,3.119525634765625,18.687944412231445,-10.96869945526123,-10.740184783935547
1772650697500403000,3.12940283203125,23.767309188842773,-15.975082397460938,-12.223135948181152
1772650697510266600,3.1392666015625,26.726633071899414,-19.016359329223633,-11.102697372436523
1772650697520157700,3.14915771484375,26.26481819152832,-18.67717742919922,-9.574281692504883
1772650697530035000,3.159034912109375,23.806791305541992,-15.459428787231445,-8.595019340515137
1772650697539912200,3.168912109375,22.247268676757812,-14.11526107788086,-8.35274600982666
1772650697549789400,3.17878955078125,22.613967895507812,-14.44188117980957,-6.954739093780518
1772650697559666700,3.188666748046875,24.02393913269043,-15.224932670593262,-5.317450046539307
1772650697569530000,3.198530029296875,24.949363708496094,-13.465609550476074,-4.535595417022705
1772650697579421200,3.208421142578125,24.122045516967773,-12.728021621704102,-4.604389190673828
1772650697589298400,3.21829833984375,24.611377716064453,-14.459827423095703,-1.9746768474578857
1772650697599161900,3.228161865234375,22.529024124145508,-15.78664779663086,-2.246262311935425
1772650697609053000,3.238052978515625,18.02214241027832,-15.253645896911621,-3.6340994834899902
1772650697618930200,3.24793017578125,12.042478561401367,-11.94736385345459,-4.860421180725098
1772650697628793900,3.2577939453125,6.21774959564209,-8.161917686462402,-5.044070243835449
1772650697638684700,3.2676845703125,2.373081922531128,-6.8171515464782715,-5.374279499053955
1772650697648562200,3.277562255859375,-0.21355941891670227,-4.905884742736816,-4.78385066986084
1772650697658425600,3.287425537109375,-2.149951219558716,-2.854039192199707,-4.9740800857543945
1772650697668316700,3.297316650390625,-2.9694929122924805,-1.5996019840240479,-4.931009292602539
1772650697678194000,3.30719384765625,-3.5682966709136963,-0.2554338276386261,-4.101896286010742
1772650697688057300,3.317057373046875,-3.379862070083618,0.7836494445800781,-3.2027931213378906
1772650697697948400,3.326948486328125,-2.7146573066711426,1.2131611108779907,-2.4640090465545654
1772650697707825700,3.33682568359375,-2.400001049041748,1.3836497068405151,-1.1318050622940063
1772650697717689000,3.346689208984375,-2.6566312313079834,1.333998680114746,-0.5132604837417603
1772650697727580200,3.356580078125,-3.152543783187866,1.0372886657714844,-0.6831508874893188
1772650697737457400,3.36645751953125,-3.8123645782470703,1.144965648651123,-0.8626125454902649
1772650697747321000,3.376321044921875,-4.240679740905762,1.1820544004440308,-1.085145115852356
1772650697757212000,3.3862119140625,-3.8213376998901367,0.8219345808029175,-1.459621787071228
1772650697767089200,3.396089111328125,-2.7726831436157227,0.5928218364715576,-1.649253010749817
1772650697776952800,3.405952880859375,-1.545763373374939,0.50129634141922,-1.26699960231781
1772650697786844000,3.415843994140625,-0.35892340540885925,0.19202402234077454,-0.5581258535385132
1772650697796721200,3.42572119140625,0.8859425783157349,-0.357128769159317,-0.10408778488636017
1772650697806584600,3.43558447265625,1.765903115272522,-0.9577272534370422,0.3415754437446594
1772650697816475600,3.4454755859375,2.321636199951172,-1.1611171960830688,0.8249256014823914
1772650697826353000,3.455352783203125,2.2707886695861816,-0.8422735929489136,1.2628121376037598
1772650697836230100,3.465230224609375,1.5391831398010254,-0.2392822653055191,0.9517452120780945
1772650697846107400,3.475107421875,0.600000262260437,0.17706887423992157,0.2267199456691742
1772650697855984600,3.484984619140625,-0.04187439754605293,0.4175475537776947,-0.3355933725833893
1772650697865862000,3.49486181640625,-0.4253242313861847,0.5880361795425415,-0.5808576941490173
1772650697875739100,3.5047392578125,-0.6143572330474854,0.7208378314971924,-0.5718846321105957
1772650697885616400,3.514616455078125,-0.6107679605484009,0.9332008361816406,-0.8099704384803772
1772650697895493600,3.52449365234375,-0.42412781715393066,0.8069794178009033,-0.8739784955978394
1772650697905371000,3.534370849609375,-0.39960137009620667,0.6251249313354492,-0.9320043921470642
1772650697915248400,3.544248291015625,-0.43190449476242065,0.26081767678260803,-1.1114661693572998
1772650697925125600,3.554125732421875,-0.4827519655227661,-0.3008974492549896,-1.2484551668167114
1772650697935003000,3.5640029296875,0.16869398951530457,-1.482353687286377,-1.8370895385742188
1772650697944880000,3.573880126953125,1.277767300605774,-2.5076780319213867,-2.524427890777588
1772650697954743600,3.58374365234375,2.4161527156829834,-3.4654054641723633,-2.8283164501190186
1772650697964634600,3.593634521484375,3.8799619674682617,-5.226522922515869,-2.9377880096435547
1772650697974511900,3.603511962890625,5.563910961151123,-7.885547161102295,-2.2612173557281494
1772650697984375300,3.613375244140625,7.729415416717529,-9.846465110778809,-0.357128769159317
1772650697994266400,3.623266357421875,10.28195858001709,-11.389237403869629,0.9732806086540222
1772650698004143600,3.6331435546875,12.483355522155762,-13.945968627929688,1.184447169303894
1772650698014007300,3.64300732421875,16.743776321411133,-17.85284996032715,1.0582258701324463
1772650698023898000,3.652898193359375,20.253448486328125,-19.377676010131836,-2.218146562576294
1772650698033775400,3.662775390625,22.585254669189453,-20.998214721679688,-4.268795490264893
1772650698043639000,3.67263916015625,18.582660675048828,-21.77707862854004,-4.599005222320557
1772650698053530000,3.682530029296875,15.793227195739746,-22.071395874023438,-5.082953453063965
1772650698063407000,3.692406982421875,17.05544090270996,-18.335601806640625,-6.5868425369262695
1772650698073270800,3.702270751953125,16.55474281311035,-13.149158477783203,-4.793421745300293
1772650698083161900,3.712161865234375,16.485950469970703,-10.237691879272461,-5.945566177368164
1772650698093039000,3.7220390625,16.55713653564453,-9.038289070129395,-8.781061172485352
1772650698102902500,3.731902587890625,17.43589973449707,-9.146564483642578,-7.463811874389648
1772650698112793600,3.741793701171875,19.482959747314453,-11.203195571899414,-5.520241737365723
1772650698122670800,3.7516708984375,20.7900390625,-13.8849515914917,-4.59421968460083
1772650698132534300,3.7615341796875,21.238096237182617,-15.5024995803833,-3.521636724472046
1772650698142425300,3.77142529296875,20.343778610229492,-15.644872665405273,-1.82273268699646
1772650698152302600,3.781302490234375,18.94098663330078,-15.282360076904297,-1.252044439315796
1772650698162166000,3.791166015625,17.714065551757812,-14.156537055969238,-2.066202402114868
1772650698172057000,3.80105712890625,16.4129695892334,-13.415360450744629,-2.819343328475952
1772650698181934300,3.810934326171875,15.06162166595459,-13.639687538146973,-3.324826955795288
1772650698191798000,3.820798095703125,13.95972728729248,-12.943974494934082,-3.2584261894226074
1772650698201688800,3.830688720703125,13.292129516601562,-11.84447193145752,-2.74755859375
1772650698211566300,3.84056640625,11.747562408447266,-10.416555404663086,-1.4482558965682983
1772650698221429800,3.8504296875,9.755537986755371,-9.548559188842773,-0.9349954724311829
1772650698231320800,3.86032080078125,7.590033531188965,-8.745766639709473,-1.2335001230239868
1772650698241198000,3.870197998046875,5.062016487121582,-7.642077445983887,-1.7539390325546265
1772650698251061500,3.8800615234375,2.2719850540161133,-6.542575359344482,-1.9986051321029663
1772650698260952600,3.88995263671875,-0.09092725813388824,-5.682953834533691,-1.9770697355270386
1772650698270829800,3.899829833984375,-1.5625132322311401,-5.110470771789551,-2.124826431274414
1772650698280693200,3.909693359375,-3.074777126312256,-3.8835511207580566,-2.1888344287872314
1772650698290584300,3.919584228515625,-3.869194269180298,-2.5046870708465576,-2.3958137035369873
1772650698300461600,3.929461669921875,-4.28734016418457,-1.2388839721679688,-2.073380708694458
1772650698310325200,3.9393251953125,-4.319643020629883,-0.04247260093688965,-1.6510475873947144
1772650698320216000,3.949216064453125,-3.741178274154663,0.6382854580879211,-1.0432707071304321
1772650698330093300,3.95909326171875,-2.953341245651245,0.8195417523384094,-0.5880361795425415
1772650698339957000,3.96895703125,-2.0721843242645264,0.9912267923355103,-0.4289134442806244
1772650698349848000,3.97884814453125,-1.4709876775741577,1.1180464029312134,-0.6059823632240295
1772650698359725300,3.988725341796875,-1.0474581718444824,1.26699960231781,-1.1718848943710327
1772650698369588700,3.998588623046875,-0.6580262184143066,1.211964726448059,-1.3513466119766235
1772650698379479800,4.008479736328125,-1.1228320598602295,1.5607185363769531,-2.397010087966919
1772650698389357000,4.018357177734375,-1.4847464561462402,1.7312071323394775,-2.8809585571289062
1772650698399234300,4.028234375,-1.8747764825820923,1.8023936748504639,-3.0065815448760986
1772650698409111600,4.038111572265625,-1.6995022296905518,1.9100706577301025,-2.2743778228759766
1772650698418988800,4.04798876953125,-1.4638092517852783,1.8287147283554077,-1.6498512029647827
1772650698428866000,4.057865966796875,-1.144965648651123,1.0666006803512573,-1.150349497795105
1772650698438743300,4.067743408203125,-0.8925228714942932,0.30149564146995544,-0.9050851464271545
1772650698448620500,4.07762060546875,-1.1096714735031128,-0.2063809484243393,-0.3439682424068451
1772650698458497800,4.087497802734375,-1.5044872760772705,-0.34636107087135315,-0.06699903309345245
1772650698468375000,4.097375,-1.2861422300338745,-0.6346961855888367,-0.10289137065410614
1772650698478252500,4.10725244140625,-1.740180253982544,-0.625723123550415,-0.0323031060397625
1772650698488129800,4.1171298828125,-1.2586246728897095,-0.7447660565376282,0.36729827523231506
1772650698498007000,4.127007080078125,-0.5539384484291077,-0.8925228714942932,0.3038884699344635
1772650698507884300,4.13688427734375,-0.21714866161346436,-0.9726824164390564,0.02273181453347206
1772650698517761500,4.146761474609375,-0.03469592705368996,-1.0289137363433838,-0.9403793215751648
1772650698527638800,4.156638671875,0.8703892230987549,-1.6169499158859253,-2.4675984382629395
1772650698537516000,4.16651611328125,2.93001127243042,-3.765106439590454,-3.4157543182373047
1772650698547379500,4.17637939453125,5.0949177742004395,-5.781657695770264,-3.3816566467285156
1772650698557270500,4.1862705078125,8.360522270202637,-8.602795600891113,-4.3686957359313965
1772650698567147800,4.196147705078125,13.414761543273926,-11.105688095092773,-6.215356826782227
1772650698577011200,4.20601123046875,22.505693435668945,-14.276178359985352,-9.340981483459473
1772650698586902300,4.21590234375,35.9527587890625,-21.177078247070312,-8.353343963623047
1772650698596779500,4.225779541015625,29.635705947875977,-16.509878158569336,-7.717451095581055
1772650698606643000,4.235642822265625,20.26601219177246,-4.666004180908203,-8.284550666809082
1772650698616534000,4.245533935546875,14.228919982910156,-4.750949382781982,-10.901700019836426
1772650698626411300,4.255411376953125,16.29033660888672,-10.435099601745605,-11.901900291442871
1772650698636275000,4.26527490234375,20.038692474365234,-13.968700408935547,-10.171290397644043
1772650698646165800,4.275165771484375,19.591833114624023,-12.888938903808594,-8.779266357421875
1772650698656043000,4.28504296875,18.54557228088379,-10.279565811157227,-8.1493558883667
1772650698665906700,4.29490673828125,17.654844284057617,-9.284152030944824,-6.9720869064331055
1772650698675797800,4.3047978515625,19.210777282714844,-11.532807350158691,-4.917848587036133
1772650698685675000,4.314675048828125,21.02992057800293,-13.571492195129395,-3.545564889907837
1772650698695538400,4.324538330078125,20.405990600585938,-12.978072166442871,-3.5778679847717285
1772650698705429500,4.334429443359375,18.977476119995117,-13.005589485168457,-5.44008207321167
1772650698715306800,4.344306640625,18.92363739013672,-13.50449275970459,-7.510472297668457
1772650698725170200,4.354170166015625,19.114465713500977,-13.730016708374023,-7.801798343658447
1772650698735061200,4.364061279296875,17.87618064880371,-12.805190086364746,-7.828119277954102
1772650698744938500,4.3739384765625,15.707684516906738,-14.117653846740723,-8.014161109924316
1772650698754802000,4.383802001953125,15.042479515075684,-13.170694351196289,-7.801798343658447
1772650698764693000,4.39369287109375,11.895319938659668,-11.351551055908203,-6.91765022277832
1772650698774570200,4.4035703125,9.274580955505371,-8.793025016784668,-5.375475883483887
1772650698784433700,4.41343359375,5.739185333251953,-5.2181477546691895,-3.799802303314209
1772650698794324700,4.42332470703125,2.8941190242767334,-2.7774689197540283,-3.373281717300415
1772650698804202000,4.433201904296875,-0.019740786403417587,-1.1210373640060425,-3.9320058822631836
1772650698814065700,4.443065673828125,-2.3330020904541016,0.005383851006627083,-4.490131855010986
1772650698823956500,4.45295654296875,-3.002394199371338,-0.7932206988334656,-5.6823554039001465
1772650698833834000,4.462833984375,-3.177668571472168,-1.714457392692566,-5.398806095123291
1772650698843697400,4.472697509765625,-2.8971099853515625,-1.892722725868225,-3.937389612197876
1772650698853588500,4.48258837890625,-2.4119651317596436,-1.3848460912704468,-2.386242389678955
1772650698863465700,4.4924658203125,-2.480160713195801,-0.9852447509765625,-0.867398202419281
1772650698873329200,4.5023291015625,-2.9724838733673096,-0.6873382925987244,-0.24167509377002716
1772650698883220200,4.51222021484375,-2.3958137035369873,0.3655036687850952,0.39122650027275085
1772650698893097500,4.522097412109375,-2.9186453819274902,0.9110672473907471,-1.0325030088424683
1772650698902961000,4.5319609375,-3.820141315460205,1.6079767942428589,-1.3603196144104004
1772650698912852000,4.54185205078125,-2.342573404312134,2.7080769538879395,-0.6406782865524292
1772650698922729200,4.551729248046875,-1.8729819059371948,1.4949159622192383,0.07058826833963394
1772650698932592600,4.561592529296875,-0.7226324677467346,1.1988041400909424,0.08554340898990631
1772650698942483700,4.571483642578125,-0.1782652884721756,-0.34217363595962524,0.6496513485908508
1772650698952361000,4.58136083984375,-0.14057832956314087,-1.144965648651123,-0.052043892443180084
1772650698962224600,4.591224609375,0.9248259663581848,-1.389631748199463,-0.9403793215751648
1772650698972115700,4.60111572265625,1.1479566097259521,-1.8849459886550903,0.15074782073497772
1772650698981993000,4.610992919921875,1.461416482925415,-1.7581263780593872,0.8273184299468994
1772650698991856400,4.6208564453125,0.9332008361816406,-0.6293123364448547,1.856830358505249
1772650699001747500,4.63074755859375,0.29312077164649963,0.008374879136681557,1.9334007501602173
1772650699011624700,4.640624755859375,-0.4492524564266205,0.28654050827026367,1.170688509941101
1772650699021502000,4.650501953125,-0.4773681163787842,0.035892341285943985,-0.16091732680797577
1772650699031379200,4.660379150390625,-0.09272187948226929,-0.3008974492549896,-1.113858938217163
1772650699041256400,4.67025634765625,0.39421752095222473,-0.29730820655822754,-1.1922239065170288
1772650699051133700,4.6801337890625,0.9834501147270203,-0.4049852192401886,-0.4259224236011505
1772650699061011000,4.690010986328125,1.1988041400909424,-1.0606186389923096,-1.7425731420516968
1772650699070888200,4.69988818359375,1.9166508913040161,-2.8516464233398438,-2.5393829345703125
1772650699080751900,4.709751953125,2.3407788276672363,-4.469194412231445,-3.001796007156372
1772650699090642700,4.719642578125,3.2165517807006836,-6.370890140533447,-3.87876558303833
1772650699100520000,4.72952001953125,5.155336380004883,-9.019744873046875,-5.067399978637695
1772650699110383600,4.739383544921875,7.533802032470703,-11.264212608337402,-5.498706340789795
1772650699120274700,4.749274658203125,10.325029373168945,-12.091530799865723,-4.9740800857543945
1772650699130152000,4.75915185546875,13.080963134765625,-11.6183500289917,-4.226921081542969
1772650699140015400,4.769015380859375,14.58485221862793,-9.841081619262695,-3.31884503364563
1772650699149906400,4.778906494140625,13.900505065917969,-8.283951759338379,-1.542174220085144
1772650699159783700,4.78878369140625,11.294122695922852,-8.233702659606934,1.5427724123001099
1772650699169647000,4.798647216796875,11.596217155456543,-11.344970703125,1.34476637840271
1772650699179538200,4.8085380859375,13.475778579711914,-12.943375587463379,-4.018745422363281
1772650699189415400,4.81841552734375,12.954143524169922,-11.071590423583984,-5.901896953582764
1772650699199278800,4.82827880859375,11.47119140625,-9.870393753051758,-5.408377170562744
1772650699209170000,4.838169921875,11.509476661682129,-7.80837869644165,-4.79102897644043
1772650699219047200,4.848047119140625,16.05883026123047,-6.029314994812012,-6.455835342407227
1772650699228910600,4.85791064453125,21.38226318359375,-5.208576679229736,-6.25723123550415
1772650699238801700,4.8678017578125,23.596820831298828,-3.8530426025390625,-2.465205430984497
1772650699248679000,4.877678955078125,21.855443954467773,-4.2825541496276855,1.9992033243179321
1772650699258542600,4.88754248046875,20.397018432617188,-9.050851821899414,5.153541564941406
1772650699268433400,4.897433349609375,18.094524383544922,-13.574482917785645,3.668795347213745
1772650699278311000,4.907310791015625,13.787444114685059,-16.729419708251953,-1.5774682760238647
1772650699288174300,4.91717431640625,11.386844635009766,-21.107088088989258,-8.110472679138184
1772650699298065400,4.9270654296875,11.155937194824219,-24.762723922729492,-11.000404357910156
1772650699307942700,4.936942626953125,12.553345680236816,-23.5914363861084,-8.203194618225098
1772650699317820000,4.94681982421875,13.452448844909668,-19.86760711669922,-5.209175109863281
1772650699327697200,4.956697265625,15.204593658447266,-17.620147705078125,-3.053241729736328
1772650699337574400,4.966574462890625,18.902103424072266,-15.281163215637207,-1.633101463317871
1772650699347437800,4.976437744140625,18.6436767578125,-12.464811325073242,-0.5712863802909851
1772650699357329000,4.986328857421875,17.193029403686523,-10.64387321472168,0.6376872062683105
1772650699367206100,4.9962060546875,14.411372184753418,-9.81236743927002,1.6761722564697266
1772650699377069600,5.006069580078125,12.389437675476074,-9.486345291137695,0.5676971673965454
1772650699386960600,5.015960693359375,10.925628662109375,-10.235897064208984,-1.4398809671401978
1772650699396838000,5.025837890625,9.993623733520508,-10.137791633605957,-2.5836503505706787
1772650699406701600,5.03570166015625,9.008378982543945,-8.061419486999512,-2.5561327934265137
1772650699416592400,5.04559228515625,7.322635650634766,-5.259424209594727,-2.249253273010254
1772650699426470000,5.055469970703125,4.3794636726379395,-2.6470601558685303,-2.0315065383911133
1772650699436333300,5.065333251953125,1.1802598237991333,-1.5080764293670654,-2.672184705734253
1772650699446224400,5.075224365234375,-0.7417750358581543,-1.4428720474243164,-3.356531858444214
1772650699456101600,5.0851015625,-2.414358139038086,-1.551147222518921,-4.088137626647949
1772650699465965000,5.094965087890625,-2.950948476791382,-1.9818553924560547,-4.765904426574707
1772650699475856100,5.104856201171875,-2.754737138748169,-3.239881753921509,-4.696512699127197
1772650699485733400,5.1147333984375,-2.7050859928131104,-3.218346357345581,-4.953741073608398
1772650699495596800,5.1245966796875,-3.0137600898742676,-2.572882652282715,-5.176273345947266
1772650699505488000,5.13448779296875,-3.128615617752075,-1.8442680835723877,-5.014159679412842
1772650699515365000,5.144365234375,-2.933600664138794,-1.5649060010910034,-4.800600528717041
1772650699525228800,5.154228759765625,-2.5322046279907227,-0.9463613629341125,-4.634897232055664
1772650699535119600,5.16411962890625,-1.8562321662902832,-0.25423741340637207,-4.146163463592529
1772650699544996900,5.173996826171875,-1.1593226194381714,0.3900300860404968,-3.102294445037842
1772650699554860500,5.183860595703125,-0.5527420043945312,0.8925228714942932,-1.6630117893218994
1772650699564751600,5.193751708984375,-0.18424734473228455,1.3663017749786377,-0.32542386651039124
1772650699574628900,5.20362890625,0.04486542567610741,1.6289139986038208,0.6221339106559753
1772650699584492300,5.2134921875,0.6017948985099792,1.2646067142486572,1.2047861814498901
1772650699594383400,5.22338330078125,1.1611171960830688,0.786640465259552,1.6863417625427246
1772650699604260600,5.233260498046875,1.6055840253829956,0.09092725813388824,2.825923442840576
1772650699614124000,5.2431240234375,1.851446509361267,-0.8117650747299194,3.432504177093506
1772650699624015000,5.25301513671875,1.841277003288269,-1.7515461444854736,3.6681971549987793
1772650699633892400,5.262892333984375,1.2592228651046753,-2.5328028202056885,3.28773832321167
1772650699643755800,5.272755859375,0.6424728631973267,-3.0275187492370605,2.101496458053589
1772650699653646800,5.282646728515625,-0.20757736265659332,-3.205185890197754,0.3451646566390991
1772650699663524000,5.292524169921875,-0.8877372145652771,-2.8390841484069824,-1.347757339477539
1772650699673387500,5.302387451171875,-0.7854440212249756,-2.589632272720337,-3.7902309894561768
1772650699683278600,5.312278564453125,1.8490537405014038,-4.092324733734131,-6.410970211029053
1772650699693155800,5.32215576171875,5.44845724105835,-7.313064098358154,-8.61475944519043
1772650699703019300,5.332019287109375,8.270791053771973,-9.397212982177734,-8.648857116699219
1772650699712910300,5.341910400390625,15.671194076538086,-13.386646270751953,-10.74257755279541
1772650699722787600,5.35178759765625,19.29871368408203,-10.881958961486816,-9.385248184204102
1772650699732651000,5.361651123046875,24.6801700592041,-5.087141036987305,1.0773683786392212
1772650699742542000,5.3715419921875,31.19044303894043,0.5138586759567261,8.68774127960205
1772650699752419300,5.38141943359375,24.778276443481445,-2.36291241645813,-5.081757068634033
1772650699762282800,5.39128271484375,16.460824966430664,0.15912270545959473,-5.0117669105529785
1772650699772173800,5.401173828125,13.941183090209961,-3.466003656387329,-7.9968132972717285
1772650699782051000,5.411051025390625,11.557332992553711,-9.037691116333008,-16.48774528503418
1772650699791914500,5.42091455078125,11.553744316101074,-13.752748489379883,-17.33779525756836
1772650699801805600,5.4308056640625,10.094720840454102,-13.322039604187012,-15.89552116394043
1772650699811682800,5.440682861328125,10.211968421936035,-11.044671058654785,-11.656037330627441
1772650699821546200,5.450546142578125,18.071792602539062,-10.131211280822754,-8.470592498779297
1772650699831437300,5.460437255859375,22.53022003173828,-8.897710800170898,-7.11565637588501
1772650699841314600,5.470314453125,21.970298767089844,-5.062016487121582,-8.189435958862305
1772650699851178000,5.480177978515625,20.773290634155273,-7.609774112701416,-12.035299301147461
1772650699861069000,5.490069091796875,18.775880813598633,-11.342577934265137,-13.264612197875977
1772650699870946300,5.4999462890625,17.222938537597656,-13.010375022888184,-13.225131034851074
1772650699880810000,5.50981005859375,17.531015396118164,-13.199407577514648,-12.65025520324707
1772650699890700800,5.51970068359375,18.653249740600586,-12.904492378234863,-11.882757186889648
1772650699900578000,5.529578125,19.594823837280273,-12.973286628723145,-10.196415901184082
1772650699910441700,5.539441650390625,19.342382431030273,-11.510673522949219,-7.7491559982299805
1772650699920332500,5.54933251953125,17.254045486450195,-9.17886734008789,-5.243870735168457
1772650699930210000,5.5592099609375,14.20559024810791,-6.608377933502197,-3.6191442012786865
1772650699940073500,5.569073486328125,11.186446189880371,-6.088537216186523,-3.675375461578369
1772650699949964300,5.57896435546875,8.500502586364746,-6.015556335449219,-4.004388809204102
1772650699959841800,5.588841796875,5.648856163024902,-6.192026615142822,-4.347160339355469
1772650699969705200,5.598705322265625,2.94975209236145,-6.652047157287598,-4.551148891448975
1772650699979596300,5.60859619140625,0.3409772217273712,-6.778268337249756,-5.029115200042725
1772650699989473500,5.6184736328125,-1.7808582782745361,-6.26440954208374,-5.557928562164307
1772650699999337000,5.6283369140625,-3.2859437465667725,-4.851448059082031,-5.113461971282959
1772650700009228000,5.63822802734375,-4.1383867263793945,-2.785843849182129,-4.273581027984619
1772650700019105300,5.648105224609375,-4.739583492279053,-0.3409772217273712,-3.538984775543213
1772650700028968700,5.65796875,-4.929812908172607,1.7395820617675781,-1.9010975360870361
1772650700038859800,5.66785986328125,-4.519443988800049,2.9557342529296875,-0.5826523303985596
1772650700048737000,5.677737060546875,-4.3896331787109375,3.61435866355896,0.1818545162677765
1772650700058600400,5.687600341796875,-4.305285930633545,3.3684961795806885,-0.11605189740657806
1772650700068491500,5.697491455078125,-4.264608383178711,2.0584256649017334,-0.5006981492042542
1772650700078368800,5.70736865234375,-3.6155550479888916,0.34636107087135315,-0.6358926296234131
1772650700088232200,5.717232177734375,-2.489133834838867,-1.0103694200515747,-0.2925225794315338
1772650700098123300,5.727123291015625,-1.1318050622940063,-1.576271891593933,0.13698910176753998
1772650700108000500,5.73700048828125,0.14895321428775787,-1.425524115562439,0.6831508874893188
1772650700117864000,5.746864013671875,1.201795220375061,-1.1024930477142334,1.414756417274475
1772650700127755000,5.756755126953125,1.755135416984558,-0.7489534616470337,1.7593228816986084
1772650700137632300,5.76663232421875,2.134995937347412,-0.8243274092674255,1.6923238039016724
1772650700147509500,5.776509521484375,1.3154542446136475,-0.6215356588363647,0.26560330390930176
1772650700157386800,5.78638671875,-0.16331014037132263,-0.16510476171970367,-0.13160525262355804
1772650700167264000,5.796263916015625,-0.7489534616470337,-0.2793620526790619,-0.5970092415809631
1772650700177127700,5.806127685546875,-0.7794619798660278,-0.6532405614852905,-1.2532408237457275
1772650700187018500,5.8160185546875,-0.6885347366333008,-0.7836494445800781,-1.5194423198699951
1772650700196895700,5.825895751953125,-0.576670229434967,-0.7058826684951782,-1.3680963516235352
1772650700206773000,5.83577294921875,-0.5455635786056519,-0.5808576941490173,-1.0666006803512573
1772650700216650200,5.845650146484375,-1.0827522277832031,-0.08434699475765228,-1.0648061037063599
1772650700226527500,5.855527587890625,-1.6462619304656982,0.4181457459926605,-1.4279168844223022
1772650700236405000,5.865405029296875,-1.9812572002410889,0.22911277413368225,-2.111067771911621
1772650700246282200,5.8752822265625,-2.4747767448425293,0.8380861282348633,-3.0801608562469482
1772650700256159500,5.885159423828125,-2.258824586868286,0.9074779748916626,-3.43908429145813
1772650700266036700,5.89503662109375,-1.5954145193099976,0.4181457459926605,-3.5084762573242188
1772650700275914000,5.9049140625,-0.1579262912273407,-0.2829512655735016,-4.059423446655273
1772650700285791200,5.914791259765625,2.008774518966675,-1.2640085220336914,-5.256433010101318
1772650700295654700,5.924654541015625,5.081757068634033,-2.544168710708618,-6.123831272125244
1772650700305545700,5.934545654296875,8.331210136413574,-4.3998026847839355,-5.874379634857178
1772650700315423000,5.944423095703125,10.813165664672852,-7.818548202514648,-4.13060998916626
1772650700325286400,5.954286376953125,16.357336044311523,-15.175281524658203,-4.590630054473877
1772650700335177500,5.964177490234375,28.009782791137695,-25.912473678588867,-7.753942012786865
1772650700345054700,5.9740546875,37.95615005493164,-29.788249969482422,-11.23490047454834
1772650700354918100,5.983918212890625,40.256248474121094,-23.07638168334961,-6.059823513031006
1772650700364809200,5.993809326171875,36.91706466674805,-16.96331787109375,2.1200408935546875
1772650700374686500,6.0036865234375,31.15335464477539,-18.561723709106445,-2.2121646404266357
1772650700384550000,6.0135498046875,24.629920959472656,-24.01556396484375,-8.909076690673828
1772650700394441000,6.02344091796875,20.931814193725586,-27.21776008605957,-9.031708717346191
1772650700404318200,6.033318115234375,20.95574188232422,-27.89971351623535,-9.275178909301758
1772650700414181600,6.043181640625,21.827327728271484,-24.6556453704834,-10.912467956542969
1772650700424072700,6.05307275390625,23.389244079589844,-22.436302185058594,-11.179266929626465
1772650700433950000,6.062949951171875,24.014368057250977,-20.919252395629883,-7.908876895904541
1772650700443813400,6.0728134765625,23.097318649291992,-19.58226203918457,-4.587639331817627
1772650700453704400,6.082704345703125,20.10270118713379,-17.717056274414062,-3.64546537399292
1772650700463581700,6.092581787109375,15.783058166503906,-15.65683650970459,-5.110470771789551
1772650700473445000,6.102445068359375,11.449058532714844,-13.521242141723633,-6.567101955413818
1772650700483336200,6.112336181640625,8.11824893951416,-11.672786712646484,-7.068996429443359
1772650700493213400,6.12221337890625,5.02432918548584,-9.550353050231934,-6.362515449523926
1772650700503076900,6.132076904296875,1.9417755603790283,-7.10010290145874,-5.3246283531188965
1772650700512968000,6.141968017578125,-0.6963114142417908,-4.584050178527832,-4.06839656829834
1772650700522845200,6.15184521484375,-2.6841487884521484,-2.104487419128418,-2.7038896083831787
1772650700532708900,6.161708984375,-3.675973892211914,0.18424734473228455,-1.6348960399627686
1772650700542599700,6.171599609375,-4.418346881866455,1.9710876941680908,-1.0474581718444824
1772650700552477000,6.181476806640625,-5.306084156036377,3.6227335929870605,-0.8135597109794617
1772650700562340600,6.191340576171875,-6.563512325286865,4.993222713470459,-0.9726824164390564
1772650700572231400,6.2012314453125,-7.612765312194824,5.666802406311035,-1.2687941789627075
1772650700582108700,6.211108642578125,-7.743772506713867,4.732405185699463,-1.8735800981521606
1772650700591972400,6.220972412109375,-7.120441913604736,2.729612350463867,-2.5292134284973145
1772650700601863400,6.230863525390625,-5.566303730010986,0.25782662630081177,-3.1794631481170654
1772650700611740700,6.24074072265625,-3.704089403152466,-1.7629120349884033,-3.25663161277771
1772650700621604000,6.25060400390625,-1.8975083827972412,-3.067000389099121,-3.1166515350341797
1772650700631495200,6.2604951171875,-0.13639089465141296,-3.768695592880249,-2.870789051055908
1772650700641372400,6.270372314453125,1.4404792785644531,-3.5204403400421143,-2.183450698852539
1772650700651235800,6.28023583984375,2.8737800121307373,-2.7314071655273438,-1.2580264806747437
1772650700661127000,6.290126953125,3.950550079345703,-1.485344648361206,-0.07118647545576096
1772650700671004200,6.300004150390625,4.386641979217529,-0.19202402234077454,1.3411771059036255
1772650700680867600,6.30986767578125,4.0319061279296875,0.4953143000602722,2.2510478496551514
1772650700690758700,6.319758544921875,2.9617161750793457,0.7716853022575378,2.6901309490203857
1772650700700636000,6.329635986328125,1.1694921255111694,0.7202396392822266,2.4951157569885254
1772650700710499300,6.339499267578125,-0.17706887423992157,0.45523449778556824,1.6827524900436401
1772650700720390400,6.349390380859375,-0.8213363885879517,-0.6376872062683105,0.8835497498512268
1772650700730267600,6.359267578125,-1.4584254026412964,-1.0259226560592651,0.19920247793197632
1772650700740131000,6.369131103515625,-1.9609181880950928,-1.0815558433532715,-0.21774685382843018
1772650700750022100,6.379022216796875,-2.4185454845428467,-0.7322037220001221,-0.43130627274513245
1772650700759899400,6.3888994140625,-2.7260231971740723,-0.39601215720176697,-0.5383850932121277
1772650700769776600,6.398776611328125,-2.5734808444976807,-0.3475574851036072,-0.7734799385070801
1772650700779654000,6.40865380859375,-2.146361827850342,-0.41515472531318665,-1.0145567655563354
1772650700789531100,6.41853125,-1.3980066776275635,-0.5150550603866577,-1.0426725149154663
1772650700799408400,6.428408447265625,-0.6819544434547424,-0.4743770956993103,-0.7986045479774475
1772650700809285600,6.43828564453125,-0.13459627330303192,-0.47617170214653015,-0.7070791125297546
1772650700819163000,6.448162841796875,0.37088751792907715,-0.7405785918235779,-0.37507495284080505
1772650700829026300,6.4580263671875,0.9349954724311829,-1.1264212131500244,0.25304099917411804
1772650700838917400,6.46791748046875,1.28255295753479,-1.2454642057418823,0.6083751320838928
1772650700848794600,6.477794677734375,1.2837493419647217,-1.2197413444519043,0.06041877344250679
1772650700858671900,6.487671875,1.153340458869934,-1.301695466041565,-1.0396814346313477
1772650700868549000,6.497549072265625,1.1653046607971191,-1.4973087310791016,-2.772084951400757
1772650700878426400,6.50742626953125,1.7641085386276245,-3.0855448246002197,-4.529015064239502
1772650700888289800,6.517289794921875,3.355933666229248,-5.769693374633789,-6.020341873168945
1772650700898180900,6.527180908203125,5.9784674644470215,-9.951150894165039,-8.075178146362305
1772650700908058000,6.53705810546875,10.475179672241211,-16.0707950592041,-9.456435203552246
1772650700917921500,6.546921630859375,17.798412322998047,-21.12204360961914,-8.967700958251953
1772650700927812600,6.5568125,24.603002548217773,-21.157936096191406,-7.887341499328613
1772650700937689900,6.56668994140625,28.658239364624023,-14.511273384094238,-4.572085857391357
1772650700947553300,6.57655322265625,32.85405349731445,-13.488341331481934,-2.4370899200439453
1772650700957444400,6.5864443359375,28.4315185546875,-14.137992858886719,-7.667799949645996
1772650700967321600,6.596321533203125,20.926429748535156,-16.46261978149414,-14.016556739807129
1772650700977185000,6.60618505859375,16.126428604125977,-21.72323989868164,-17.998212814331055
1772650700987076000,6.616076171875,17.670995712280273,-27.40380096435547,-17.993427276611328
1772650700996953300,6.625953369140625,22.119253158569336,-28.292734146118164,-15.553945541381836
1772650701006816800,6.635816650390625,25.771297454833984,-23.115863800048828,-13.928620338439941
1772650701016707800,6.645707763671875,28.16292381286621,-19.32503318786621,-12.527623176574707
1772650701026585000,6.655585205078125,28.09353256225586,-18.004196166992188,-11.048858642578125
1772650701036448500,6.665448486328125,25.238895416259766,-17.22114372253418,-10.591231346130371
1772650701046339600,6.675339599609375,21.086151123046875,-16.549360275268555,-11.297114372253418
1772650701056216800,6.685216796875,17.891733169555664,-15.996617317199707,-11.874980926513672
1772650701066080300,6.695080322265625,15.503097534179688,-15.080764770507812,-11.489736557006836
1772650701075971300,6.704971435546875,13.494921684265137,-14.254642486572266,-10.067801475524902
1772650701085848600,6.7148486328125,11.444870948791504,-12.672389030456543,-8.401200294494629
1772650701095712000,6.7247119140625,8.873184204101562,-10.471590042114258,-6.426523208618164
1772650701105603000,6.73460302734375,5.611767292022705,-7.761718273162842,-4.852644443511963
1772650701115480300,6.744480224609375,2.736790895462036,-5.4867424964904785,-3.0113673210144043
1772650701125343700,6.75434375,-0.4055834412574768,-3.012563705444336,-1.9716858863830566
1772650701135234800,6.76423486328125,-3.415156126022339,0.08733802288770676,-1.389631748199463
1772650701145112000,6.774112060546875,-5.087141036987305,2.5740790367126465,-1.1413763761520386
1772650701154975500,6.7839755859375,-5.712863922119141,3.7220356464385986,-1.0773683786392212
1772650701164866600,6.793866455078125,-6.165705680847168,4.082753658294678,-0.8428717851638794
1772650701174743800,6.803743896484375,-6.439085960388184,3.799802303314209,-0.8344969153404236
1772650701184607200,6.813607177734375,-6.637091636657715,3.169891834259033,-0.8321040868759155
1772650701194498300,6.823498291015625,-6.467799663543701,1.9423737525939941,-1.306481122970581
1772650701204375600,6.83337548828125,-5.8959150314331055,0.8458628058433533,-1.950150489807129
1772650701214239000,6.843239013671875,-5.316253662109375,-0.13519448041915894,-2.235494613647461
1772650701224130000,6.853130126953125,-3.049652576446533,-2.2755744457244873,-1.7120646238327026
1772650701234007300,6.86300732421875,-0.8303094506263733,-2.919841766357422,-1.5876377820968628
1772650701243870700,6.87287060546875,1.0456634759902954,-2.2582263946533203,-0.7004988193511963
1772650701253761800,6.88276171875,2.68953275680542,-0.8745766878128052,0.20817556977272034
1772650701263639000,6.89263916015625,3.779463291168213,0.18723836541175842,0.5724828243255615
1772650701273502500,6.90250244140625,4.137788772583008,0.8512466549873352,0.5072783827781677
1772650701283393500,6.9123935546875,3.7286159992218018,0.9643075466156006,0.5246263742446899
1772650701293270800,6.922270751953125,2.915654420852661,0.5395814776420593,0.2763710021972656
1772650701303148000,6.93214794921875,1.8580267429351807,0.17647066712379456,-0.1136590763926506
1772650701313025300,6.942025390625,0.7800601720809937,-0.21176479756832123,-0.3535395562648773
1772650701322902500,6.951902587890625,-0.09511470049619675,-0.07417750358581543,-0.33499518036842346
1772650701332766000,6.961765869140625,-0.656829833984375,-0.17946170270442963,-0.6652047038078308
1772650701342657000,6.971656982421875,-0.9828519225120544,-0.3924229145050049,-0.8554341197013855
1772650701352534300,6.9815341796875,-1.2502498626708984,-0.47676992416381836,-0.8817551732063293
1772650701362397700,6.991397705078125,-1.5314065217971802,-0.5222335457801819,-0.7495517134666443
1772650701372288800,7.001288818359375,-1.8203397989273071,-0.6323033571243286,-0.6735795736312866
1772650701382166000,7.011166015625,-2.011765718460083,-0.5353940725326538,-0.7208378314971924
1772650701392043300,7.021043212890625,-1.947757601737976,-0.46839502453804016,-0.9768698215484619
1772650701401920500,7.03092041015625,-1.7736797332763672,-0.43968117237091064,-1.0115658044815063
1772650701411797800,7.0407978515625,-1.6588243246078491,-0.4289134442806244,-0.6544370055198669
1772650701421675000,7.050675048828125,-1.7324036359786987,-0.39960137009620667,-0.2967100143432617
1772650701431552300,7.06055224609375,-1.7892330884933472,-1.0103694200515747,-0.2835494875907898
1772650701441429500,7.070429443359375,-1.695314884185791,-1.8346967697143555,-0.5210371017456055
1772650701451306800,7.080306640625,-1.5391831398010254,-2.2366909980773926,-0.9649057388305664
1772650701461184000,7.09018408203125,-1.184447169303894,-2.3126630783081055,-1.83828604221344
1772650701471061200,7.100061279296875,-0.29012975096702576,-3.0969107151031494,-3.136990547180176
1772650701480924700,7.109924560546875,0.9337990283966064,-4.29033088684082,-3.988835334777832
1772650701490815700,7.119815673828125,2.389233350753784,-5.715256690979004,-4.392025947570801
1772650701500693000,7.12969287109375,5.0327043533325195,-8.044670104980469,-4.561916351318359
1772650701510556400,7.139556396484375,9.047262191772461,-12.08913803100586,-5.021936416625977
1772650701520447500,7.149447509765625,15.67238998413086,-18.43669891357422,-6.86680269241333
1772650701530324700,7.15932470703125,22.55594253540039,-24.446870803833008,-9.020941734313965
1772650701540188200,7.169188232421875,29.03271484375,-25.164716720581055,-9.845269203186035
1772650701550079000,7.179078857421875,32.71586608886719,-21.47977066040039,-9.10110092163086
1772650701559956200,7.188956298828125,33.82793045043945,-19.249061584472656,-10.02592658996582
1772650701569820000,7.19881982421875,31.41118049621582,-20.659032821655273,-11.820544242858887
1772650701579710700,7.208710693359375,29.217561721801758,-21.713668823242188,-13.555339813232422
1772650701589588000,7.218587890625,29.98027229309082,-22.439889907836914,-13.46740436553955
1772650701599451600,7.22845166015625,30.0484676361084,-22.883758544921875,-9.42891788482666
1772650701609342500,7.238342529296875,26.30729103088379,-19.66541290283203,-7.656434059143066
1772650701619219700,7.2482197265625,22.29273223876953,-17.482561111450195,-10.37767219543457
1772650701629083400,7.25808349609375,20.903100967407227,-18.308683395385742,-10.902297973632812
1772650701638974200,7.26797412109375,21.2051944732666,-19.814964294433594,-8.073982238769531
1772650701648851500,7.2778515625,19.515262603759766,-17.900705337524414,-5.697310924530029
1772650701658715000,7.28771484375,16.72044563293457,-14.42752456665039,-5.633901119232178
1772650701668606000,7.29760595703125,13.64028549194336,-11.401800155639648,-6.313462734222412
1772650701678483200,7.307483154296875,10.159326553344727,-8.572287559509277,-5.367101192474365
1772650701688346600,7.3173466796875,6.778866767883301,-6.000002861022949,-3.9008991718292236
1772650701698237700,7.32723779296875,3.737588882446289,-4.402195453643799,-3.2859437465667725
1772650701708115000,7.337114990234375,1.1114661693572998,-3.7022948265075684,-3.3786656856536865
1772650701717978400,7.346978271484375,-1.5720844268798828,-2.035693883895874,-3.1094729900360107
1772650701727869400,7.356869384765625,-4.011567115783691,-0.6873382925987244,-2.908475875854492
1772650701737746700,7.36674658203125,-6.168098449707031,0.4707878530025482,-2.650649309158325
1772650701747610000,7.376610107421875,-7.618149280548096,1.4416756629943848,-2.107478618621826
1772650701757501200,7.386501220703125,-8.724231719970703,2.155334949493408,-1.8317056894302368
1772650701767378400,7.39637841796875,-9.20279598236084,2.255833625793457,-2.1643080711364746
1772650701777241900,7.406241943359375,-9.028717994689941,1.9525432586669922,-2.717050075531006
1772650701787133000,7.4161328125,-8.373085021972656,1.7204394340515137,-2.7984061241149902
1772650701797010200,7.42601025390625,-7.478168964385986,1.317248821258545,-2.6949164867401123
1772650701806887400,7.435887451171875,-5.917450428009033,0.8165507316589355,-2.228316068649292
1772650701816764700,7.4457646484375,-3.403790235519409,-0.373878538608551,-1.5254244804382324
1772650701826642000,7.455641845703125,0.02871387079358101,-2.1361923217773438,0.016749758273363113
1772650701836505300,7.46550537109375,3.7256247997283936,-3.783052682876587,1.5182459354400635
1772650701846396400,7.475396484375,5.536393165588379,-2.7116663455963135,2.847458839416504
1772650701856273700,7.485273681640625,5.748756408691406,-0.8015955686569214,2.9389843940734863
1772650701866137000,7.49513720703125,4.503292083740234,0.13220344483852386,2.026122570037842
1772650701876028200,7.505028076171875,3.5676984786987305,-0.6275177597999573,1.7132610082626343
1772650701885905400,7.514905517578125,2.3024935722351074,-0.7680960893630981,0.7471588850021362
1772650701895768800,7.524768798828125,0.851844847202301,-0.3433700501918793,0.8434699773788452
1772650701905660000,7.534659912109375,0.33738797903060913,-0.8374879360198975,0.776470959186554
1772650701915537000,7.544536865234375,0.08733802288770676,-1.089930772781372,0.6017948985099792
1772650701925414100,7.5544140625,-0.13998012244701385,-1.1252248287200928,0.24047867953777313
1772650701935291400,7.56429150390625,-0.3852444589138031,-1.0001999139785767,-0.5670989751815796
1772650701945168600,7.574168701171875,-0.6029912829399109,-0.6436693072319031,-1.0965110063552856
1772650701955046000,7.5840458984375,-0.6017948985099792,-0.3158525824546814,-1.211964726448059
1772650701964923100,7.593923095703125,-0.30209386348724365,-0.007178467698395252,-1.2735798358917236
1772650701974800400,7.60380029296875,0.1782652884721756,0.016749758273363113,-0.9822536706924438
1772650701984677600,7.613677734375,0.6957131624221802,-0.3170489966869354,-0.9098708033561707
1772650701994555000,7.623554931640625,0.7806583642959595,-0.9152546525001526,-1.628315806388855
1772650702004432100,7.63343212890625,0.641276478767395,-2.080559253692627,-2.221137523651123
1772650702014295600,7.643295654296875,0.35054850578308105,-3.6394832134246826,-2.733201742172241
1772650702024186600,7.6531865234375,0.2632105052471161,-5.232504844665527,-3.4241292476654053
1772650702034064000,7.66306396484375,1.825723648071289,-7.46201753616333,-4.205984115600586
1772650702043927300,7.67292724609375,5.7032928466796875,-9.708279609680176,-4.95493745803833
1772650702053818400,7.682818359375,10.86281681060791,-9.943374633789062,-6.634698867797852
1772650702063695600,7.692695556640625,21.220149993896484,-12.282957077026367,-9.41336441040039
1772650702073559000,7.70255908203125,31.11028289794922,-16.35972785949707,-8.336593627929688
1772650702083450000,7.7124501953125,23.874387741088867,-9.31047248840332,-5.9060845375061035
1772650702093327400,7.722327392578125,15.510276794433594,-2.7176482677459717,-6.160920143127441
1772650702103190800,7.732190673828125,11.967702865600586,-4.333401679992676,-11.967103958129883
1772650702113081900,7.742081787109375,18.947566986083984,-16.26461410522461,-19.858633041381836
1772650702122959000,7.751958984375,18.59462547302246,-18.321842193603516,-18.775880813598633
1772650702132822500,7.761822509765625,13.095319747924805,-13.705490112304688,-18.068801879882812
1772650702142713600,7.771713623046875,19.849061965942383,-16.90888214111328,-18.177675247192383
1772650702152590800,7.7815908203125,26.389842987060547,-19.741384506225586,-15.826128959655762
1772650702162454300,7.791454345703125,24.55634307861328,-15.972090721130371,-14.297115325927734
1772650702172345300,7.801345458984375,19.97707748413086,-12.044272422790527,-15.082559585571289
1772650702182222600,7.81122265625,17.5011043548584,-10.798210144042969,-15.55334758758545
1772650702192086000,7.8210859375,17.471792221069336,-11.602198600769043,-14.989837646484375
1772650702201977000,7.83097705078125,18.511474609375,-12.004791259765625,-12.818948745727539
1772650702211854300,7.840854248046875,19.199411392211914,-13.36989688873291,-10.631909370422363
1772650702221717800,7.8507177734375,18.125032424926758,-13.549956321716309,-7.988438606262207
1772650702231608800,7.86060888671875,15.183655738830566,-12.87936782836914,-5.515456199645996
1772650702241486000,7.870486083984375,10.73838996887207,-10.89392375946045,-3.4031920433044434
1772650702251349500,7.880349609375,6.083751678466797,-7.6289167404174805,-2.09431791305542
1772650702261240600,7.890240478515625,2.276172637939453,-4.868197441101074,-2.7966115474700928
1772650702271117600,7.90011767578125,-1.0456634759902954,-3.3720853328704834,-2.9425735473632812
1772650702280981200,7.909981201171875,-2.982055187225342,-1.6169499158859253,-2.4436700344085693
1772650702290872000,7.9198720703125,-4.538586139678955,0.3774677813053131,-2.548356056213379
1772650702300749300,7.929749267578125,-5.411368370056152,1.9848463535308838,-2.2779672145843506
1772650702310613000,7.939613037109375,-5.064409255981445,2.572882652282715,-1.7395820617675781
1772650702320503800,7.94950390625,-4.361517429351807,2.138585329055786,-1.0396814346313477
1772650702330381000,7.959381103515625,-3.5395829677581787,1.1802598237991333,-0.2584248483181
1772650702340244700,7.96924462890625,-2.6177480220794678,0.0687936544418335,-0.12442677468061447
1772650702350135600,7.979135498046875,-1.9411773681640625,-0.6634100675582886,-0.4055834412574768
1772650702360012800,7.9890126953125,-1.5134602785110474,-0.8225327730178833,-0.7322037220001221
1772650702369890000,7.99889013671875,-0.9672985672950745,-0.6735795736312866,-0.8662018179893494
1772650702379767300,8.008767333984375,-0.10827522724866867,-0.5024927258491516,-0.7501499056816101
1772650702389644500,8.01864453125,1.069591760635376,-0.4815555512905121,-0.5138586759567261
1772650702399508000,8.028508056640625,2.134995937347412,-0.5000999569892883,-0.34636107087135315
1772650702409399000,8.03839892578125,2.523829698562622,-0.16869398951530457,-0.04307080805301666
1772650702419276300,8.0482763671875,2.053041934967041,0.5353940725326538,-0.029910283163189888
1772650702429153500,8.058153564453125,1.3268201351165771,0.9224331378936768,-0.47916272282600403
1772650702439030800,8.06803076171875,0.5539384484291077,1.0737791061401367,-0.8422735929489136
1772650702448908000,8.077907958984374,-0.08853443711996078,0.9655039310455322,-0.9218349456787109
1772650702458785300,8.087785400390626,-0.6406782865524292,0.6203392744064331,-0.8548358678817749
1772650702468662500,8.09766259765625,-1.083350419998169,0.11485548317432404,-0.8697910308837891
1772650702478539800,8.107539794921875,-1.3806586265563965,-0.14895321428775787,-0.98703932762146
1772650702488417000,8.1174169921875,-1.5906288623809814,-0.4450650215148926,-1.441077470779419
1772650702498294300,8.127294189453124,-1.8293129205703735,-0.6801598072052002,-1.9573289155960083
1772650702508171500,8.137171630859376,-2.359323024749756,-0.7429714202880859,-2.1164517402648926
1772650702518035000,8.147034912109374,-2.80558443069458,-0.8847461938858032,-2.255833625793457
1772650702527926000,8.156926025390625,-2.7846474647521973,-1.557727575302124,-2.6021945476531982
1772650702537803300,8.16680322265625,-2.239083766937256,-2.5178475379943848,-3.1920254230499268
1772650702547666700,8.176666748046875,-0.9308080077171326,-3.8159539699554443,-3.99900484085083
1772650702557557800,8.186557861328126,0.5982056856155396,-4.8568315505981445,-4.680361270904541
1772650702567435000,8.19643505859375,1.9680966138839722,-5.865406513214111,-5.011168956756592
1772650702577298400,8.20629833984375,3.352942705154419,-6.997809886932373,-5.464608669281006
1772650702587189500,8.216189453125,4.463212490081787,-8.206783294677734,-5.830710411071777
1772650702597066800,8.226066650390624,5.5387864112854,-9.136993408203125,-6.282355785369873
1772650702606930200,8.23593017578125,7.886145114898682,-10.541580200195312,-6.8895344734191895
1772650702616821200,8.2458212890625,12.133405685424805,-13.616955757141113,-8.684749603271484
1772650702626698500,8.255698486328125,19.920846939086914,-17.16371726989746,-11.227124214172363
1772650702636562000,8.26556201171875,30.865018844604492,-20.584854125976562,-9.803394317626953
1772650702646452700,8.27545263671875,33.00001525878906,-23.276182174682617,-0.8033902049064636
1772650702656330000,8.285330078125,25.104896545410156,-22.696521759033203,2.8899314403533936
1772650702666193400,8.295193359375,18.721445083618164,-24.0664119720459,-2.788834810256958
1772650702676084500,8.30508447265625,15.337394714355469,-25.009782791137695,-7.682157039642334
1772650702685961700,8.314961669921875,13.16650676727295,-24.33620262145996,-10.268798828125
1772650702695825200,8.3248251953125,13.01934814453125,-22.042083740234375,-11.32822036743164
1772650702705716200,8.33471630859375,14.000405311584473,-18.977476119995117,-9.46181869506836
1772650702715593500,8.344593505859375,16.234106063842773,-16.867605209350586,-6.958926677703857
1772650702725457000,8.354456787109376,18.3308162689209,-15.482160568237305,-5.007579803466797
1772650702735348000,8.364347900390625,19.03490447998047,-14.534603118896484,-2.9491539001464844
1772650702745225200,8.37422509765625,17.63869285583496,-13.35733413696289,-2.2743778228759766
1772650702755088600,8.384088623046875,14.473586082458496,-12.027523040771484,-3.4031920433044434
1772650702764979700,8.393979736328125,11.132607460021973,-11.00997543334961,-4.980660438537598
1772650702774857000,8.40385693359375,8.991629600524902,-9.7998046875,-5.302495002746582
1772650702784720400,8.413720458984375,7.803592681884766,-8.703293800354004,-4.6540398597717285
1772650702794611500,8.423611572265624,6.790830612182617,-7.231110095977783,-3.995415687561035
1772650702804488700,8.43348876953125,5.535795211791992,-5.802595138549805,-3.8075790405273438
1772650702814352100,8.44335205078125,4.286741733551025,-4.576871395111084,-3.565305709838867
1772650702824243200,8.4532431640625,3.1441688537597656,-3.6323046684265137,-3.370290756225586
1772650702834120400,8.463120361328125,2.0751755237579346,-2.623729944229126,-2.988635540008545
1772650702843984000,8.47298388671875,0.9092726111412048,-1.6612170934677124,-2.145763635635376
1772650702853875000,8.482875,0.09870393574237823,-1.2993026971817017,-1.6049858331680298
1772650702863752200,8.492752197265625,-0.8039883971214294,-1.201795220375061,-1.2526426315307617
1772650702873615600,8.50261572265625,-1.561316728591919,-0.966102123260498,-1.2544373273849487
1772650702883506400,8.51250634765625,-2.0985054969787598,-0.6508477330207825,-1.5056836605072021
1772650702893383700,8.5223837890625,-2.444268226623535,-0.33798620104789734,-1.612762451171875
1772650702903247400,8.532247314453125,-2.7176482677459717,0.2997010350227356,-2.1948165893554688
1772650702913138200,8.54213818359375,-2.709273338317871,0.6771687865257263,-2.1511476039886475
1772650702923015400,8.552015380859375,-2.617149829864502,1.1772687435150146,-1.7204394340515137
1772650702932879000,8.561879150390626,-2.1828525066375732,1.3441680669784546,-1.1778669357299805
1772650702942770000,8.57177001953125,-1.7958134412765503,1.5134602785110474,-0.828514814376831
1772650702952647200,8.581647216796876,-1.4781662225723267,1.5774682760238647,-0.735194742679596
1772650702962524400,8.5915244140625,-1.0558329820632935,1.628315806388855,-0.582054078578949
1772650702972401700,8.601401611328125,-0.6508477330207825,1.4889339208602905,-0.28654050827026367
1772650702982279000,8.61127880859375,-0.13040883839130402,1.1850453615188599,0.13878370821475983
1772650702992142300,8.621142333984375,0.46002015471458435,0.5880361795425415,0.5808576941490173
1772650703002033400,8.631033447265626,1.0683952569961548,-0.007178467698395252,1.2448660135269165
1772650703011910700,8.64091064453125,1.5828521251678467,-0.243469700217247,1.2711870670318604
1772650703021774000,8.650774169921876,1.95852530002594,-0.5096712112426758,0.9601200819015503
1772650703031665200,8.6606650390625,1.8885352611541748,-0.9756734371185303,0.9272187948226929
1772650703041542400,8.67054248046875,1.1312068700790405,-1.6109678745269775,0.6245267391204834
1772650703051405800,8.68040576171875,0.14057832956314087,-2.3748764991760254,-0.8697910308837891
1772650703061297000,8.690296875,-0.6442674994468689,-2.3186452388763428,-2.9048867225646973
1772650703071174100,8.700174072265625,-0.4713860750198364,-2.669193744659424,-4.5200419425964355
1772650703081037600,8.71003759765625,0.9314061999320984,-3.7058839797973633,-5.472385406494141
1772650703090928600,8.7199287109375,2.7038896083831787,-5.191826820373535,-6.183651924133301
1772650703100806000,8.729805908203126,6.603592395782471,-7.724629878997803,-7.204190731048584
1772650703110669300,8.73966943359375,17.77328872680664,-14.536397933959961,-7.70967435836792
1772650703120560000,8.74956005859375,29.853452682495117,-21.783658981323242,-7.552944660186768
1772650703130437400,8.759437255859375,22.968107223510742,-9.395418167114258,-6.449853420257568
1772650703140300800,8.76930078125,12.263216018676758,1.1635099649429321,-8.671588897705078
1772650703150191900,8.77919189453125,9.502496719360352,-1.8418751955032349,-14.461023330688477
1772650703160069000,8.789069091796875,16.589439392089844,-10.97169017791748,-14.058431625366211
1772650703169932500,8.7989326171875,15.291333198547363,-14.904891967773438,-14.764911651611328
1772650703179823600,8.80882373046875,11.921640396118164,-16.999210357666016,-18.276378631591797
1772650703189700900,8.818700927734374,14.81815242767334,-20.050657272338867,-16.19940948486328
1772650703199564300,8.828564208984375,18.172889709472656,-21.37687873840332,-11.385049819946289
1772650703209455400,8.838455322265625,19.41655921936035,-19.2933292388916,-8.227720260620117
1772650703219332600,8.84833251953125,18.70349884033203,-17.09791374206543,-6.336792469024658
1772650703229196000,8.858196044921876,17.343177795410156,-15.326028823852539,-6.839883327484131
1772650703239087000,8.868087158203124,15.881762504577637,-14.097314834594727,-8.00100040435791
1772650703248964000,8.877964111328126,14.101502418518066,-13.671392440795898,-8.687142372131348
1772650703258827800,8.887827880859374,12.312867164611816,-13.357932090759277,-9.348159790039062
1772650703268718600,8.897718505859375,10.51107120513916,-12.948760032653809,-10.262816429138184
1772650703278595800,8.907595947265625,8.714659690856934,-11.888739585876465,-10.767104148864746
1772650703288459500,8.91745947265625,7.437490940093994,-11.203195571899414,-11.382059097290039
1772650703298350300,8.927350341796876,6.873383045196533,-10.288538932800293,-11.08893871307373
1772650703308227600,8.9372275390625,6.341578006744385,-8.690134048461914,-9.32602596282959
1772650703318091000,8.947091064453126,5.303691387176514,-6.999006271362305,-7.1234331130981445
1772650703327982000,8.956982177734375,3.9218363761901855,-5.335994720458984,-5.262415409088135
1772650703337859300,8.966859375,1.7521443367004395,-3.5401811599731445,-3.940380573272705
1772650703347722800,8.97672265625,-0.29371899366378784,-2.1098713874816895,-2.9252257347106934
1772650703357613800,8.98661376953125,-1.633699655532837,-1.633699655532837,-1.4572290182113647
1772650703367491000,8.996490966796875,-2.5112674236297607,-1.2939188480377197,0.0011964113218709826
1772650703377354500,9.0063544921875,-3.0622148513793945,-0.9954141974449158,1.0671988725662231
1772650703387245600,9.01624560546875,-3.421138286590576,-0.8769695162773132,1.1228320598602295
1772650703397122800,9.026122802734376,-4.064209461212158,0.12622138857841492,0.24945175647735596
1772650703406986200,9.035986328125,-4.129413604736328,0.6502495408058167,-0.06041877344250679
1772650703416877300,9.045877197265625,-3.373879909515381,0.7758727669715881,0.5718846321105957
1772650703426754600,9.055754638671875,-1.6636099815368652,0.4265206456184387,1.5098711252212524
1772650703436618000,9.065617919921875,-0.04546362906694412,0.47676992416381836,2.18045973777771
1772650703446509000,9.075509033203126,1.399801254272461,0.6705885529518127,2.6638097763061523
1772650703456386300,9.08538623046875,2.565704107284546,0.6448656916618347,2.7595226764678955
1772650703466249700,9.095249755859374,3.1172497272491455,0.6933203339576721,2.6596224308013916
1772650703476140500,9.105140625,3.2823543548583984,0.7968099117279053,1.8951154947280884
1772650703486017800,9.115017822265624,2.441277265548706,1.1012966632843018,0.844068169593811
1772650703495881200,9.124881103515625,1.1407781839370728,1.5176477432250977,-0.053240302950143814
1772650703505772300,9.134772216796875,0.012562318705022335,1.4506487846374512,-0.6293123364448547
1772650703515649500,9.1446494140625,-0.8482556343078613,1.0510473251342773,-0.8727820515632629
1772650703525513000,9.154512939453125,-1.158724308013916,0.44805604219436646,-0.9798609018325806
1772650703535404000,9.164404052734374,-1.1114661693572998,-0.0364905446767807,-1.0247262716293335
1772650703545281300,9.17428125,-0.9744769930839539,-0.16450655460357666,-0.7334001660346985
1772650703555158500,9.184158447265625,-0.727418065071106,-0.4103690981864929,-0.8225327730178833
1772650703565035800,9.194035888671875,-0.3535395562648773,-0.641276478767395,-0.711864709854126
1772650703574913000,9.2039130859375,-0.15074782073497772,-0.584446907043457,-0.5964110493659973
1772650703584790300,9.213790283203124,-0.08015955984592438,-0.3439682424068451,-0.8638089895248413
1772650703594667500,9.22366748046875,-0.01375873014330864,-0.5000999569892883,-1.3250255584716797
1772650703604544800,9.233544677734375,0.2997010350227356,-1.445863127708435,-2.052443504333496
1772650703614408200,9.243408203125,1.1186445951461792,-3.1830523014068604,-3.445664644241333
1772650703624299300,9.25329931640625,2.5016961097717285,-5.353342533111572,-4.753940582275391
1772650703634176500,9.263176513671874,4.289134502410889,-8.228917121887207,-5.569892883300781
1772650703644040000,9.2730400390625,6.763911247253418,-11.579466819763184,-6.510272026062012
1772650703653930800,9.2829306640625,10.051650047302246,-15.042479515075684,-7.4709906578063965
1772650703663808000,9.29280810546875,13.670195579528809,-18.08734703063965,-7.799405574798584
1772650703673671400,9.30267138671875,17.771493911743164,-19.847267150878906,-6.290730953216553
1772650703683562500,9.3125625,21.11307144165039,-18.76930046081543,-3.366103172302246
1772650703693439700,9.322439697265626,20.01117515563965,-15.512669563293457,-2.833101987838745
1772650703703303200,9.33230322265625,17.413766860961914,-13.319646835327148,-3.7465620040893555
1772650703713194200,9.3421943359375,15.620346069335938,-11.997612953186035,-5.013561725616455
1772650703723071500,9.352071533203125,15.252449989318848,-12.095120429992676,-6.593422889709473
1772650703732935000,9.361934814453125,14.803196907043457,-12.329018592834473,-7.254439830780029
1772650703742826000,9.371825927734376,14.009378433227539,-11.252248764038086,-6.540182590484619
1772650703752703200,9.381703125,13.084552764892578,-11.170294761657715,-6.833303451538086
1772650703762566700,9.391566650390626,12.66461181640625,-12.3338041305542,-7.892127513885498
1772650703772457500,9.40145751953125,13.339985847473145,-13.419548034667969,-7.926225185394287
1772650703782334700,9.411334716796874,14.175679206848145,-13.83649730682373,-6.188437461853027
1772650703792198400,9.421198486328125,14.393425941467285,-14.190634727478027,-5.365904808044434
1772650703802089200,9.431089111328125,14.31625747680664,-14.913865089416504,-6.401997089385986
1772650703811966500,9.440966552734375,14.535799026489258,-15.578472137451172,-8.166105270385742
1772650703821830100,9.450830078125,14.495719909667969,-14.998810768127441,-9.206384658813477
1772650703831721000,9.460720947265624,14.24267864227295,-13.088739395141602,-8.676973342895508
1772650703841598200,9.47059814453125,13.901103019714355,-11.350354194641113,-7.327421188354492
1772650703851461600,9.480461669921874,13.293924331665039,-9.608379364013672,-5.963512420654297
1772650703861352700,9.490352783203125,12.696915626525879,-7.959724426269531,-4.9154558181762695
1772650703871230000,9.50022998046875,11.71705436706543,-6.948757171630859,-4.0666022300720215
1772650703881093400,9.51009326171875,10.254441261291504,-6.284748554229736,-3.1387851238250732
1772650703890984400,9.519984375,8.72482967376709,-5.863611698150635,-2.4155545234680176
1772650703900861700,9.52986181640625,7.186244487762451,-5.746363639831543,-2.207977056503296
1772650703910725000,9.53972509765625,5.505885124206543,-5.326423168182373,-2.0608184337615967
1772650703920616200,9.5496162109375,4.048655986785889,-4.653441905975342,-2.2504496574401855
1772650703930493400,9.559493408203124,2.6877379417419434,-4.303491592407227,-2.0033907890319824
1772650703940356900,9.56935693359375,1.5194423198699951,-3.4654054641723633,-1.6600207090377808
1772650703950247700,9.57924755859375,-0.018544375896453857,-3.0729825496673584,-1.9896320104599
1772650703960125000,9.589125,-1.4135600328445435,-2.620738983154297,-2.489133834838867
1772650703969988400,9.59898828125,-2.599801778793335,-1.8999011516571045,-3.040081262588501
1772650703979879400,9.60887939453125,-3.257229804992676,-1.3046865463256836,-3.3960134983062744
1772650703989756700,9.618756591796876,-3.301496982574463,-0.32123643159866333,-3.061018466949463
1772650703999620000,9.6286201171875,-2.3850460052490234,0.6203392744064331,-2.435295343399048
1772650704009511200,9.63851123046875,-0.784247636795044,0.9912267923355103,-1.4297115802764893
1772650704019388400,9.648388427734375,0.7447660565376282,1.4057832956314087,-0.07896314561367035
1772650704029251800,9.658251953125,1.8831514120101929,1.6432709693908691,1.3986048698425293
1772650704039143000,9.668142822265626,2.5812573432922363,1.2975081205368042,2.1481566429138184
1772650704049020200,9.678020263671876,2.861815929412842,0.6484549641609192,2.806182861328125
1772650704058883600,9.687883544921876,2.1361923217773438,0.494716078042984,2.9389843940734863
1772650704068774400,9.6977744140625,1.317248821258545,0.6113662123680115,3.284149169921875
1772650704078651600,9.707651611328124,1.0971091985702515,-0.022133609279990196,2.9461629390716553
1772650704088515300,9.717515380859375,1.5451651811599731,-1.085145115852356,2.359323024749756
1772650704098406100,9.72740625,2.1200408935546875,-1.1694921255111694,2.0267207622528076
1772650704108283400,9.737283447265625,2.7248268127441406,-0.8512466549873352,1.633101463317871
1772650704118146800,9.747146728515625,2.977867841720581,-0.24586252868175507,0.20817556977272034
1772650704128038000,9.757037841796874,3.4133615493774414,-1.1359925270080566,-1.5619150400161743
1772650704137915100,9.7669150390625,4.843072891235352,-3.047259569168091,-2.9491539001464844
1772650704147778600,9.776778564453124,7.086942672729492,-5.567500114440918,-3.9942193031311035
1772650704157669600,9.786669677734375,9.89970588684082,-8.3898344039917,-5.656034469604492
1772650704167547000,9.796546875,12.483355522155762,-10.681560516357422,-7.934599876403809
1772650704177410300,9.806410400390625,15.598212242126465,-11.09611701965332,-8.58784008026123
1772650704187301400,9.81630126953125,16.171293258666992,-9.129216194152832,-7.909475326538086
1772650704197178400,9.826178466796875,13.308280944824219,-2.840280532836914,-7.950751304626465
1772650704207042000,9.8360419921875,12.530613899230957,-2.3784656524658203,-10.540383338928223
1772650704216932900,9.845932861328125,13.954343795776367,-4.89691162109375,-12.06640625
1772650704226810000,9.85581005859375,13.826925277709961,-3.9834516048431396,-9.19442081451416
1772650704236673500,9.865673583984375,12.948760032653809,-3.098705291748047,-7.624729156494141
1772650704246564600,9.875564697265625,11.553744316101074,-4.381258487701416,-8.000402450561523
1772650704256441900,9.88544189453125,10.41057300567627,-6.553941249847412,-8.504690170288086
1772650704266305300,9.89530517578125,10.071989059448242,-8.50708293914795,-7.528418064117432
1772650704276196400,9.9051962890625,10.694721221923828,-9.317651748657227,-5.682953834533691
1772650704286073600,9.915073486328126,11.440683364868164,-8.994620323181152,-4.385445594787598
1772650704295937000,9.92493701171875,12.014960289001465,-7.937591075897217,-4.038486480712891
1772650704305827800,9.934827880859375,12.566506385803223,-6.6113691329956055,-3.7537405490875244
1772650704315705000,9.944705078125,12.722638130187988,-5.516054630279541,-3.2650065422058105
1772650704325568500,9.954568603515625,12.189038276672363,-4.777868747711182,-3.4163525104522705
1772650704335459600,9.96445947265625,11.486146926879883,-4.800002098083496,-3.978067636489868
1772650704345336800,9.9743369140625,10.813165664672852,-5.207978248596191,-4.77667236328125
1772650704355214000,9.984214111328125,10.371091842651367,-5.478367328643799,-5.410770416259766
1772650704365091300,9.99409130859375,9.981060981750488,-5.37069034576416,-5.505885124206543
1772650704374968600,10.003968505859374,9.44626522064209,-4.997410297393799,-5.917450428009033
1772650704384832000,10.01383203125,9.072386741638184,-4.759324073791504,-5.842076301574707
1772650704394723000,10.02372314453125,8.890532493591309,-4.392624378204346,-5.3593244552612305
1772650704404600300,10.033600341796875,8.559126853942871,-3.824328899383545,-5.120640277862549
1772650704414463700,10.043463623046875,8.227720260620117,-3.2955150604248047,-4.584050178527832
1772650704424354600,10.0533544921875,8.248658180236816,-3.431307554244995,-4.06121826171875
1772650704434231800,10.063231689453126,8.35992431640625,-3.720839262008667,-3.686741590499878
1772650704444109000,10.073109130859375,8.21994400024414,-3.714258909225464,-3.390629768371582
1772650704453986300,10.082986328125,8.328817367553711,-3.9828531742095947,-3.1334011554718018
1772650704463863600,10.092863525390625,8.321041107177734,-4.323232173919678,-3.0514471530914307
