time,seconds_elapsed,z,y,x
1772556524153538800,0.067538818359375,-0.779449462890625,-0.2873992919921875,-0.2327880859375
1772556524163523000,0.077523193359375,-0.771270751953125,-0.3035430908203125,-0.2274932861328125
1772556524173507000,0.087507080078125,-0.7655181884765625,-0.309539794921875,-0.2297210693359375
1772556524183491000,0.097490966796875,-0.7743377685546875,-0.314544677734375,-0.2276458740234375
1772556524193475000,0.10747509765625,-0.79144287109375,-0.3203887939453125,-0.23388671875
1772556524203459000,0.117458984375,-0.8113250732421875,-0.3258056640625,-0.244720458984375
1772556524213443000,0.127443115234375,-0.82861328125,-0.3328399658203125,-0.249481201171875
1772556524223427000,0.137427001953125,-0.855316162109375,-0.3405609130859375,-0.2516326904296875
1772556524233411000,0.1474111328125,-0.8740386962890625,-0.35406494140625,-0.2548370361328125
1772556524243394000,0.15739404296875,-0.88836669921875,-0.3657684326171875,-0.2573089599609375
1772556524253377000,0.167376953125,-0.8685455322265625,-0.3508148193359375,-0.2496490478515625
1772556524263361000,0.177361083984375,-0.8463134765625,-0.3497314453125,-0.2430877685546875
1772556524273345000,0.187344970703125,-0.8343353271484375,-0.3562469482421875,-0.23797607421875
1772556524283328800,0.197328857421875,-0.833648681640625,-0.3591766357421875,-0.224456787109375
1772556524293312800,0.207312744140625,-0.842803955078125,-0.3616790771484375,-0.1996917724609375
1772556524303296800,0.217296875,-0.83087158203125,-0.36297607421875,-0.1797332763671875
1772556524313280800,0.22728076171875,-0.8149871826171875,-0.3652496337890625,-0.1727142333984375
1772556524323264800,0.2372646484375,-0.80535888671875,-0.37225341796875,-0.175384521484375
1772556524333248800,0.247248779296875,-0.808563232421875,-0.379180908203125,-0.1802520751953125
1772556524343232800,0.257232666015625,-0.8146209716796875,-0.3892364501953125,-0.1861419677734375
1772556524353216800,0.267216796875,-0.81304931640625,-0.4001007080078125,-0.191925048828125
1772556524363201000,0.277200927734375,-0.80767822265625,-0.40789794921875,-0.1939239501953125
1772556524373185000,0.28718505859375,-0.8018951416015625,-0.417205810546875,-0.1984405517578125
1772556524383169000,0.2971689453125,-0.7922515869140625,-0.4249725341796875,-0.204833984375
1772556524393153000,0.307153076171875,-0.778411865234375,-0.43121337890625,-0.2098388671875
1772556524403137000,0.317136962890625,-0.770263671875,-0.437408447265625,-0.2179107666015625
1772556524413121000,0.32712109375,-0.7667083740234375,-0.4405517578125,-0.2256317138671875
1772556524423105000,0.33710498046875,-0.7673492431640625,-0.4399261474609375,-0.2325286865234375
1772556524433088800,0.3470888671875,-0.76959228515625,-0.4407806396484375,-0.23687744140625
1772556524443072800,0.35707275390625,-0.7772064208984375,-0.4390411376953125,-0.2309417724609375
1772556524453055700,0.3670556640625,-0.7875213623046875,-0.4362030029296875,-0.2223968505859375
1772556524463040000,0.3770400390625,-0.79803466796875,-0.4362640380859375,-0.2169952392578125
1772556524473024000,0.38702392578125,-0.8102874755859375,-0.4439544677734375,-0.2117919921875
1772556524483008000,0.397008056640625,-0.8202667236328125,-0.4510650634765625,-0.2114410400390625
1772556524492992000,0.406991943359375,-0.8311309814453125,-0.4511871337890625,-0.20855712890625
1772556524502976000,0.41697607421875,-0.8416595458984375,-0.45220947265625,-0.213104248046875
1772556524512960000,0.4269599609375,-0.862548828125,-0.4544830322265625,-0.219940185546875
1772556524522944000,0.436944091796875,-0.8883819580078125,-0.4612274169921875,-0.2322540283203125
1772556524532928000,0.446927978515625,-0.9182586669921875,-0.453857421875,-0.244659423828125
1772556524542911700,0.456911865234375,-0.95166015625,-0.4353179931640625,-0.256927490234375
1772556524552895700,0.466895751953125,-0.9898834228515625,-0.417999267578125,-0.2678680419921875
1772556524562879700,0.476879638671875,-1.0297698974609375,-0.4017181396484375,-0.277008056640625
1772556524572863700,0.48686376953125,-1.04974365234375,-0.3871307373046875,-0.291595458984375
1772556524582847700,0.49684765625,-1.0475006103515625,-0.377166748046875,-0.301605224609375
1772556524592831700,0.506831787109375,-1.024261474609375,-0.3791046142578125,-0.3083648681640625
1772556524602815700,0.516815673828125,-0.9902496337890625,-0.4116973876953125,-0.3134918212890625
1772556524612800000,0.526800048828125,-0.9465179443359375,-0.49322509765625,-0.3188934326171875
1772556524622784000,0.536783935546875,-0.9106597900390625,-0.5570526123046875,-0.31488037109375
1772556524632768000,0.54676806640625,-0.92034912109375,-0.56884765625,-0.303924560546875
1772556524642752000,0.556751953125,-0.950225830078125,-0.5952301025390625,-0.3041534423828125
1772556524652735000,0.56673486328125,-1.0012664794921875,-0.622314453125,-0.3086395263671875
1772556524662718700,0.57671875,-1.0780181884765625,-0.6016082763671875,-0.30596923828125
1772556524672702700,0.58670263671875,-1.1407012939453125,-0.5609893798828125,-0.3006439208984375
1772556524682686700,0.596686767578125,-1.176361083984375,-0.5082855224609375,-0.282745361328125
1772556524692670700,0.606670654296875,-1.1899871826171875,-0.431732177734375,-0.24884033203125
1772556524702654700,0.61665478515625,-1.1757965087890625,-0.3589019775390625,-0.2100067138671875
1772556524712639000,0.626638916015625,-1.1262054443359375,-0.3043975830078125,-0.1869049072265625
1772556524722623000,0.636623046875,-1.054351806640625,-0.2651214599609375,-0.179168701171875
1772556524732607000,0.64660693359375,-0.9710693359375,-0.2312164306640625,-0.17034912109375
1772556524742591000,0.656591064453125,-0.8945159912109375,-0.21331787109375,-0.146759033203125
1772556524752575000,0.666574951171875,-0.841888427734375,-0.2203826904296875,-0.109405517578125
1772556524762559000,0.67655908203125,-0.81964111328125,-0.24346923828125,-0.0767822265625
1772556524772543000,0.68654296875,-0.8184967041015625,-0.2710723876953125,-0.0518035888671875
1772556524782527000,0.69652685546875,-0.818695068359375,-0.3007354736328125,-0.0356597900390625
1772556524792511000,0.706510986328125,-0.8204193115234375,-0.332611083984375,-0.02752685546875
1772556524802494700,0.71649462890625,-0.82244873046875,-0.360321044921875,-0.0229644775390625
1772556524812478700,0.726478759765625,-0.8199005126953125,-0.3837738037109375,-0.013031005859375
1772556524822462700,0.736462646484375,-0.817138671875,-0.3914947509765625,-0.018402099609375
1772556524832446700,0.74644677734375,-0.8203887939453125,-0.399322509765625,-0.0210723876953125
1772556524842430700,0.7564306640625,-0.83856201171875,-0.3934173583984375,-0.031707763671875
1772556524852414700,0.766414794921875,-0.8587646484375,-0.3777618408203125,-0.0535736083984375
1772556524862399000,0.77639892578125,-0.8639068603515625,-0.359375,-0.082916259765625
1772556524872382000,0.7863818359375,-0.8569793701171875,-0.347564697265625,-0.127899169921875
1772556524882366000,0.796365966796875,-0.8479766845703125,-0.3445281982421875,-0.1726837158203125
1772556524892350000,0.806349853515625,-0.8353424072265625,-0.3470306396484375,-0.2122039794921875
1772556524902334000,0.816333984375,-0.815032958984375,-0.3596343994140625,-0.2445220947265625
1772556524912318000,0.82631787109375,-0.791534423828125,-0.37652587890625,-0.2606658935546875
1772556524922301700,0.8363017578125,-0.7777252197265625,-0.3992462158203125,-0.267822265625
1772556524932285700,0.84628564453125,-0.7641143798828125,-0.4205780029296875,-0.27069091796875
1772556524942269700,0.856269775390625,-0.7528533935546875,-0.4340972900390625,-0.256103515625
1772556524952253700,0.866253662109375,-0.74273681640625,-0.4527587890625,-0.243804931640625
1772556524962238000,0.876238037109375,-0.7400054931640625,-0.4716796875,-0.230712890625
1772556524972222000,0.886221923828125,-0.74395751953125,-0.4863739013671875,-0.2132720947265625
1772556524982206000,0.8962060546875,-0.7501678466796875,-0.491668701171875,-0.1938629150390625
1772556524992190000,0.90618994140625,-0.75811767578125,-0.495391845703125,-0.1846466064453125
1772556525002174000,0.916174072265625,-0.756622314453125,-0.4942474365234375,-0.186065673828125
1772556525012158000,0.926157958984375,-0.75445556640625,-0.4888153076171875,-0.1761474609375
1772556525022142000,0.936141845703125,-0.7604827880859375,-0.49359130859375,-0.184051513671875
1772556525032126000,0.9461259765625,-0.771575927734375,-0.491424560546875,-0.1885833740234375
1772556525042110000,0.95610986328125,-0.7784881591796875,-0.488037109375,-0.19781494140625
1772556525052094000,0.966093994140625,-0.7852325439453125,-0.4858856201171875,-0.2121429443359375
1772556525062078000,0.976077880859375,-0.7888336181640625,-0.4783782958984375,-0.2246551513671875
1772556525072061700,0.986061767578125,-0.7953338623046875,-0.4751739501953125,-0.234527587890625
1772556525082045700,0.996045654296875,-0.7874755859375,-0.464599609375,-0.2346954345703125
1772556525092029000,1.00602880859375,-0.7890625,-0.4645538330078125,-0.2274169921875
1772556525102013000,1.016012939453125,-0.798583984375,-0.4764404296875,-0.2158966064453125
1772556525111997000,1.025996826171875,-0.801116943359375,-0.489044189453125,-0.2017669677734375
1772556525121981000,1.03598095703125,-0.8111114501953125,-0.4962615966796875,-0.1865997314453125
1772556525131965000,1.04596484375,-0.818511962890625,-0.4957733154296875,-0.1713409423828125
1772556525141949000,1.055948974609375,-0.8275604248046875,-0.4962005615234375,-0.1598358154296875
1772556525151933000,1.065932861328125,-0.84161376953125,-0.5017852783203125,-0.1600799560546875
1772556525161917000,1.0759169921875,-0.8679046630859375,-0.508514404296875,-0.1643829345703125
1772556525171901000,1.08590087890625,-0.8938140869140625,-0.51446533203125,-0.16778564453125
1772556525181884700,1.095884765625,-0.9187164306640625,-0.5206451416015625,-0.173583984375
1772556525191868700,1.10586865234375,-0.9402313232421875,-0.526214599609375,-0.1733551025390625
1772556525201852700,1.115852783203125,-0.958648681640625,-0.53564453125,-0.1734466552734375
1772556525211837000,1.1258369140625,-0.9723968505859375,-0.550628662109375,-0.169769287109375
1772556525221821000,1.135821044921875,-0.9781646728515625,-0.593231201171875,-0.167999267578125
1772556525231805000,1.145804931640625,-0.9774322509765625,-0.6573944091796875,-0.1627349853515625
1772556525241789000,1.155788818359375,-0.998565673828125,-0.67242431640625,-0.1403961181640625
1772556525251773000,1.16577294921875,-1.0386962890625,-0.651153564453125,-0.1255035400390625
1772556525261758200,1.17575830078125,-1.0902557373046875,-0.6221923828125,-0.1390533447265625
1772556525271742200,1.1857421875,-1.1550750732421875,-0.593994140625,-0.1745758056640625
1772556525281726200,1.195726318359375,-1.2024993896484375,-0.5599365234375,-0.2056732177734375
1772556525291710200,1.205710205078125,-1.2350006103515625,-0.4913330078125,-0.22296142578125
1772556525301694200,1.215694091796875,-1.2442779541015625,-0.4119873046875,-0.240936279296875
1772556525311678000,1.225677978515625,-1.2247161865234375,-0.351043701171875,-0.2719573974609375
1772556525321662000,1.235661865234375,-1.178131103515625,-0.312286376953125,-0.29779052734375
1772556525331646000,1.24564599609375,-1.1127166748046875,-0.2826080322265625,-0.3126678466796875
1772556525341629000,1.25562890625,-1.03997802734375,-0.2543182373046875,-0.3137359619140625
1772556525351613000,1.265613037109375,-0.9547576904296875,-0.23724365234375,-0.297760009765625
1772556525361597200,1.27559716796875,-0.8788604736328125,-0.232879638671875,-0.27301025390625
1772556525371581200,1.285581298828125,-0.8228912353515625,-0.2417144775390625,-0.256683349609375
1772556525381565200,1.295565185546875,-0.780853271484375,-0.259307861328125,-0.2484893798828125
1772556525391549200,1.305549072265625,-0.74493408203125,-0.2729339599609375,-0.2371978759765625
1772556525401533200,1.315533203125,-0.7212066650390625,-0.289031982421875,-0.2233734130859375
1772556525411517200,1.32551708984375,-0.7125244140625,-0.3108367919921875,-0.2063446044921875
1772556525421501200,1.335501220703125,-0.711212158203125,-0.3406829833984375,-0.193878173828125
1772556525431485000,1.34548486328125,-0.7141876220703125,-0.3734893798828125,-0.1850128173828125
1772556525441469000,1.355468994140625,-0.722625732421875,-0.4044189453125,-0.1781005859375
1772556525451453000,1.365452880859375,-0.731292724609375,-0.4373016357421875,-0.179107666015625
1772556525461437000,1.37543701171875,-0.7517852783203125,-0.4596099853515625,-0.1831817626953125
1772556525471421000,1.3854208984375,-0.7811279296875,-0.469390869140625,-0.1848297119140625
1772556525481405000,1.395405029296875,-0.8153228759765625,-0.469696044921875,-0.188385009765625
1772556525491389000,1.405388916015625,-0.8490753173828125,-0.468292236328125,-0.1824951171875
1772556525501373000,1.415373046875,-0.869415283203125,-0.4537353515625,-0.16754150390625
1772556525511357200,1.425357177734375,-0.8758544921875,-0.434814453125,-0.1552734375
1772556525521341200,1.435341064453125,-0.8693389892578125,-0.4163055419921875,-0.142303466796875
1772556525531325200,1.4453251953125,-0.85650634765625,-0.3964691162109375,-0.126434326171875
1772556525541309200,1.45530908203125,-0.837615966796875,-0.380218505859375,-0.1120452880859375
1772556525551293200,1.465293212890625,-0.8237152099609375,-0.374053955078125,-0.105255126953125
1772556525561277200,1.475277099609375,-0.8106842041015625,-0.3792724609375,-0.1089630126953125
1772556525571261200,1.48526123046875,-0.7969207763671875,-0.388824462890625,-0.1188507080078125
1772556525581245000,1.495244873046875,-0.78204345703125,-0.4006805419921875,-0.1297454833984375
1772556525591229000,1.50522900390625,-0.77398681640625,-0.4152374267578125,-0.1403045654296875
1772556525601213000,1.515212890625,-0.7608642578125,-0.4283905029296875,-0.154449462890625
1772556525611196200,1.525196044921875,-0.7472076416015625,-0.439178466796875,-0.166961669921875
1772556525621180200,1.53518017578125,-0.739166259765625,-0.4521331787109375,-0.180633544921875
1772556525631164200,1.5451640625,-0.7329864501953125,-0.4661712646484375,-0.1926422119140625
1772556525641148200,1.555148193359375,-0.7286224365234375,-0.4770050048828125,-0.19989013671875
1772556525651132200,1.565132080078125,-0.7257080078125,-0.483428955078125,-0.199310302734375
1772556525661116200,1.5751162109375,-0.728759765625,-0.4915771484375,-0.2039337158203125
1772556525671100200,1.58510009765625,-0.7303009033203125,-0.4992828369140625,-0.200927734375
1772556525681084200,1.595084228515625,-0.7354736328125,-0.50299072265625,-0.1893463134765625
1772556525691068000,1.60506787109375,-0.7534332275390625,-0.5017852783203125,-0.18023681640625
1772556525701052000,1.615052001953125,-0.7693939208984375,-0.5015716552734375,-0.167236328125
1772556525711036000,1.625035888671875,-0.775909423828125,-0.49493408203125,-0.1512603759765625
1772556525721020000,1.63502001953125,-0.7803192138671875,-0.48944091796875,-0.1411590576171875
1772556525731004000,1.64500390625,-0.78875732421875,-0.4851837158203125,-0.1356048583984375
1772556525740988000,1.65498779296875,-0.8017425537109375,-0.4830474853515625,-0.13128662109375
1772556525750972200,1.66497216796875,-0.815948486328125,-0.4835662841796875,-0.130340576171875
1772556525760956200,1.6749560546875,-0.83349609375,-0.486328125,-0.1334381103515625
1772556525770940200,1.684940185546875,-0.86810302734375,-0.487457275390625,-0.1384735107421875
1772556525780924200,1.694924072265625,-0.9189453125,-0.48480224609375,-0.1533966064453125
1772556525790908200,1.704908203125,-0.983856201171875,-0.4726104736328125,-0.166290283203125
1772556525800892200,1.71489208984375,-1.0467529296875,-0.45513916015625,-0.183258056640625
1772556525810876200,1.724876220703125,-1.0922088623046875,-0.441986083984375,-0.2052154541015625
1772556525820860200,1.734860107421875,-1.1089019775390625,-0.4304962158203125,-0.21954345703125
1772556525830844200,1.74484423828125,-1.101898193359375,-0.4263458251953125,-0.2272796630859375
1772556525840828000,1.754827880859375,-1.07440185546875,-0.4319915771484375,-0.233489990234375
1772556525850812000,1.76481201171875,-1.0274505615234375,-0.4531097412109375,-0.2364349365234375
1772556525860796000,1.7747958984375,-0.9707183837890625,-0.4962921142578125,-0.2426910400390625
1772556525870780000,1.78477978515625,-0.91778564453125,-0.5652008056640625,-0.2563629150390625
1772556525880764000,1.794763916015625,-0.8922576904296875,-0.618896484375,-0.258270263671875
1772556525890748000,1.804747802734375,-0.9217681884765625,-0.6429595947265625,-0.2442626953125
1772556525900732200,1.814732177734375,-0.994384765625,-0.6594085693359375,-0.2365875244140625
1772556525910716200,1.824716064453125,-1.0720672607421875,-0.6721649169921875,-0.236572265625
1772556525920700200,1.8347001953125,-1.153900146484375,-0.642364501953125,-0.2379913330078125
1772556525930684200,1.84468408203125,-1.235626220703125,-0.5493621826171875,-0.224395751953125
1772556525940668200,1.854668212890625,-1.2909393310546875,-0.435455322265625,-0.206146240234375
1772556525950651000,1.86465087890625,-1.3075408935546875,-0.3304443359375,-0.184173583984375
1772556525960635000,1.874634765625,-1.26898193359375,-0.241943359375,-0.1766510009765625
1772556525970619000,1.884618896484375,-1.1808013916015625,-0.1754913330078125,-0.1814422607421875
1772556525980603000,1.894602783203125,-1.0560760498046875,-0.14349365234375,-0.1705474853515625
1772556525990587000,1.9045869140625,-0.9273681640625,-0.1556854248046875,-0.1418914794921875
1772556526000571100,1.914571044921875,-0.83355712890625,-0.1908721923828125,-0.102081298828125
1772556526010555100,1.92455517578125,-0.7826995849609375,-0.226348876953125,-0.0706329345703125
1772556526020539100,1.9345390625,-0.7726898193359375,-0.26629638671875,-0.0582427978515625
1772556526030523100,1.944523193359375,-0.7686004638671875,-0.3061065673828125,-0.0412445068359375
1772556526040507100,1.954507080078125,-0.767425537109375,-0.3438873291015625,-0.020904541015625
1772556526050491100,1.9644912109375,-0.7723846435546875,-0.3708648681640625,-0.0100250244140625
1772556526060475100,1.97447509765625,-0.768798828125,-0.394561767578125,0.0067596435546875
1772556526070459100,1.984459228515625,-0.758270263671875,-0.43450927734375,0.0127105712890625
1772556526080443100,1.994443115234375,-0.7722015380859375,-0.4593048095703125,0.0219268798828125
1772556526090427100,2.00442724609375,-0.794189453125,-0.4630279541015625,0.0279998779296875
1772556526100411000,2.014410888671875,-0.8130645751953125,-0.4519500732421875,0.020965576171875
1772556526110395000,2.024394775390625,-0.8328094482421875,-0.4238739013671875,0.013519287109375
1772556526120379000,2.03437890625,-0.8487396240234375,-0.3810577392578125,0.00286865234375
1772556526130363000,2.04436279296875,-0.865386962890625,-0.3434600830078125,-0.0152740478515625
1772556526140347000,2.054346923828125,-0.883758544921875,-0.3188323974609375,-0.0413665771484375
1772556526150331100,2.0643310546875,-0.8934326171875,-0.3127899169921875,-0.0677490234375
1772556526160315100,2.074315185546875,-0.8831329345703125,-0.318206787109375,-0.0877227783203125
1772556526170299100,2.084299072265625,-0.8580169677734375,-0.3313446044921875,-0.1004638671875
1772556526180283100,2.094283203125,-0.831512451171875,-0.3541717529296875,-0.107025146484375
1772556526190267100,2.10426708984375,-0.80828857421875,-0.3815155029296875,-0.1040802001953125
1772556526200251100,2.114251220703125,-0.7933807373046875,-0.406585693359375,-0.100311279296875
1772556526210235100,2.124235107421875,-0.777740478515625,-0.4269256591796875,-0.09222412109375
1772556526220219100,2.13421923828125,-0.769256591796875,-0.445892333984375,-0.0815277099609375
1772556526230203100,2.144203125,-0.77142333984375,-0.46026611328125,-0.0654296875
1772556526240187100,2.154187255859375,-0.784759521484375,-0.4733123779296875,-0.041839599609375
1772556526250171000,2.1641708984375,-0.7993621826171875,-0.48724365234375,-0.022125244140625
1772556526260154400,2.174154296875,-0.812652587890625,-0.500946044921875,-0.01300048828125
1772556526270138000,2.18413818359375,-0.8260650634765625,-0.50714111328125,-0.014251708984375
1772556526280122000,2.1941220703125,-0.8291778564453125,-0.506317138671875,-0.0190277099609375
1772556526290106000,2.204106201171875,-0.821990966796875,-0.4977264404296875,-0.0276336669921875
1772556526300090000,2.214090087890625,-0.81964111328125,-0.4921875,-0.039825439453125
1772556526310074000,2.22407421875,-0.814117431640625,-0.4840545654296875,-0.0465850830078125
1772556526320058000,2.23405810546875,-0.8045501708984375,-0.471832275390625,-0.037933349609375
1772556526330042000,2.2440419921875,-0.8005218505859375,-0.4645233154296875,-0.026763916015625
1772556526340026000,2.254026123046875,-0.79705810546875,-0.4620208740234375,-0.0146484375
1772556526350010000,2.264010009765625,-0.797454833984375,-0.462860107421875,0.0025787353515625
1772556526359994000,2.273994140625,-0.802703857421875,-0.4677886962890625,0.015106201171875
1772556526369978000,2.28397802734375,-0.813262939453125,-0.476409912109375,0.02691650390625
1772556526379962000,2.293962158203125,-0.824462890625,-0.487152099609375,0.0381011962890625
1772556526389946000,2.303946044921875,-0.838348388671875,-0.500762939453125,0.047821044921875
1772556526399930000,2.31393017578125,-0.856201171875,-0.516876220703125,0.0532073974609375
1772556526409913000,2.3239130859375,-0.8773040771484375,-0.5320281982421875,0.0523223876953125
1772556526419898000,2.333898193359375,-0.89544677734375,-0.55120849609375,0.05145263671875
1772556526429881000,2.343881103515625,-0.9110870361328125,-0.57025146484375,0.05059814453125
1772556526439865000,2.353864990234375,-0.92413330078125,-0.5869598388671875,0.0464935302734375
1772556526449849000,2.36384912109375,-0.939361572265625,-0.602691650390625,0.0408172607421875
1772556526459833000,2.3738330078125,-0.948394775390625,-0.6252593994140625,0.0358428955078125
1772556526469817000,2.383817138671875,-0.9420928955078125,-0.65338134765625,0.034027099609375
1772556526479801000,2.393801025390625,-0.936248779296875,-0.6712646484375,0.043304443359375
1772556526489785000,2.40378515625,-0.949066162109375,-0.678253173828125,0.06341552734375
1772556526499769000,2.41376904296875,-0.97772216796875,-0.68646240234375,0.0832977294921875
1772556526509753300,2.42375341796875,-1.0214385986328125,-0.6980438232421875,0.0938568115234375
1772556526519737300,2.4337373046875,-1.1090087890625,-0.6692962646484375,0.1099090576171875
1772556526529721000,2.44372119140625,-1.22601318359375,-0.5900421142578125,0.12872314453125
1772556526539705000,2.453705078125,-1.29931640625,-0.5090484619140625,0.11572265625
1772556526549689000,2.463689208984375,-1.3144073486328125,-0.435516357421875,0.061004638671875
1772556526559673000,2.473673095703125,-1.2796783447265625,-0.36395263671875,-0.011505126953125
1772556526569657000,2.483656982421875,-1.2008056640625,-0.299072265625,-0.075103759765625
1772556526579641000,2.49364111328125,-1.0914764404296875,-0.2498779296875,-0.11907958984375
1772556526589625000,2.503625,-0.9748687744140625,-0.2301788330078125,-0.1424560546875
1772556526599609000,2.513609130859375,-0.8902435302734375,-0.2260894775390625,-0.1470794677734375
1772556526609593000,2.523593017578125,-0.84051513671875,-0.234283447265625,-0.12908935546875
1772556526619577000,2.5335771484375,-0.8155670166015625,-0.2531280517578125,-0.123382568359375
1772556526629561000,2.54356103515625,-0.799835205078125,-0.2816619873046875,-0.1220550537109375
1772556526639545000,2.553545166015625,-0.775146484375,-0.3098907470703125,-0.1116485595703125
1772556526649529300,2.563529296875,-0.7489013671875,-0.34747314453125,-0.097137451171875
1772556526659513300,2.573513427734375,-0.7257843017578125,-0.39190673828125,-0.0830535888671875
1772556526669497300,2.583497314453125,-0.708282470703125,-0.4361419677734375,-0.075836181640625
1772556526679481000,2.593481201171875,-0.7075653076171875,-0.474151611328125,-0.0673675537109375
1772556526689465000,2.603465087890625,-0.7345428466796875,-0.5148162841796875,-0.0629425048828125
1772556526699449000,2.613448974609375,-0.7823486328125,-0.536651611328125,-0.057464599609375
1772556526709433000,2.62343310546875,-0.82440185546875,-0.543914794921875,-0.0513763427734375
1772556526719417000,2.6334169921875,-0.85595703125,-0.5363922119140625,-0.039581298828125
1772556526729401000,2.643401123046875,-0.87066650390625,-0.50994873046875,-0.015106201171875
1772556526739385000,2.653385009765625,-0.876678466796875,-0.4763336181640625,0.003448486328125
1772556526749369000,2.663369140625,-0.887237548828125,-0.454010009765625,0.01416015625
1772556526759353000,2.67335302734375,-0.888458251953125,-0.4334564208984375,0.0255889892578125
1772556526769337000,2.683337158203125,-0.875579833984375,-0.423309326171875,0.040985107421875
1772556526779321000,2.693321044921875,-0.855712890625,-0.423431396484375,0.05963134765625
1772556526789305000,2.70330517578125,-0.834991455078125,-0.439849853515625,0.0653533935546875
1772556526799289300,2.713289306640625,-0.8274078369140625,-0.4678802490234375,0.0599365234375
1772556526809273300,2.7232734375,-0.82220458984375,-0.4860076904296875,0.043609619140625
1772556526819257000,2.733257080078125,-0.824310302734375,-0.508636474609375,0.0215911865234375
1772556526829241000,2.743240966796875,-0.81732177734375,-0.5266571044921875,-0.00018310546875
1772556526839225000,2.75322509765625,-0.8079681396484375,-0.539794921875,-0.010986328125
1772556526849209000,2.763208984375,-0.790802001953125,-0.548370361328125,-0.028167724609375
1772556526859193000,2.773193115234375,-0.7735137939453125,-0.5473785400390625,-0.042999267578125
1772556526869177000,2.783177001953125,-0.7607879638671875,-0.541595458984375,-0.0456085205078125
1772556526879161000,2.7931611328125,-0.7501068115234375,-0.5336456298828125,-0.0434112548828125
1772556526889145000,2.80314501953125,-0.74072265625,-0.5234832763671875,-0.0399017333984375
1772556526899129000,2.813129150390625,-0.7354583740234375,-0.5117645263671875,-0.0339508056640625
1772556526909113000,2.823113037109375,-0.7361907958984375,-0.500732421875,-0.029876708984375
1772556526919097000,2.83309716796875,-0.737213134765625,-0.492767333984375,-0.0246734619140625
1772556526929081000,2.8430810546875,-0.730621337890625,-0.483734130859375,-0.0185089111328125
1772556526939065300,2.8530654296875,-0.728179931640625,-0.474456787109375,-0.0126495361328125
1772556526949049300,2.86304931640625,-0.7262115478515625,-0.4714202880859375,-0.0128936767578125
1772556526959033300,2.873033447265625,-0.7263031005859375,-0.4749603271484375,-0.01727294921875
1772556526969017000,2.88301708984375,-0.7316131591796875,-0.4854736328125,-0.0267181396484375
1772556526979001000,2.8930009765625,-0.7496490478515625,-0.500244140625,-0.04241943359375
1772556526988985000,2.902985107421875,-0.77032470703125,-0.515716552734375,-0.05987548828125
1772556526998969000,2.912968994140625,-0.802642822265625,-0.526580810546875,-0.0720062255859375
1772556527008953000,2.922953125,-0.84796142578125,-0.5277099609375,-0.076507568359375
1772556527018937000,2.93293701171875,-0.895721435546875,-0.5278167724609375,-0.085784912109375
1772556527028921000,2.942921142578125,-0.93841552734375,-0.5326690673828125,-0.1060791015625
1772556527038905000,2.952905029296875,-0.978515625,-0.5328521728515625,-0.1253204345703125
1772556527048889000,2.96288916015625,-1.00799560546875,-0.536956787109375,-0.139007568359375
1772556527058873000,2.972873046875,-1.010986328125,-0.55902099609375,-0.1510009765625
1772556527068857000,2.982857177734375,-0.9783477783203125,-0.62652587890625,-0.1816253662109375
1772556527078841000,2.992841064453125,-0.944061279296875,-0.7129364013671875,-0.2361907958984375
1772556527088825300,3.002825439453125,-0.9577789306640625,-0.781494140625,-0.25897216796875
1772556527098809300,3.012809326171875,-1.0622711181640625,-0.7913665771484375,-0.229248046875
1772556527108793000,3.02279296875,-1.22796630859375,-0.75189208984375,-0.181732177734375
1772556527118777000,3.032777099609375,-1.3877105712890625,-0.7113800048828125,-0.1401519775390625
1772556527128761000,3.042760986328125,-1.507598876953125,-0.63592529296875,-0.0818939208984375
1772556527138745000,3.0527451171875,-1.5502471923828125,-0.5023193359375,-0.0068359375
1772556527148729000,3.06272900390625,-1.482818603515625,-0.3534393310546875,0.0416717529296875
1772556527158713000,3.072713134765625,-1.338775634765625,-0.229827880859375,0.0652923583984375
1772556527168697000,3.082697021484375,-1.13861083984375,-0.1713104248046875,0.076263427734375
1772556527178681000,3.09268115234375,-0.955078125,-0.1800537109375,0.0950927734375
1772556527188665000,3.1026650390625,-0.847869873046875,-0.216705322265625,0.128570556640625
1772556527198649000,3.112649169921875,-0.8121185302734375,-0.254547119140625,0.1572418212890625
1772556527208633000,3.122633056640625,-0.802215576171875,-0.2964630126953125,0.1724853515625
1772556527218617000,3.1326171875,-0.785064697265625,-0.3380279541015625,0.169525146484375
1772556527228601300,3.142601318359375,-0.771392822265625,-0.3750762939453125,0.1610870361328125
1772556527238585300,3.15258544921875,-0.7570953369140625,-0.3998565673828125,0.150604248046875
1772556527248569300,3.1625693359375,-0.7138671875,-0.4158935546875,0.134918212890625
1772556527258552600,3.172552490234375,-0.67779541015625,-0.4176177978515625,0.1256103515625
1772556527268536600,3.18253662109375,-0.667236328125,-0.39776611328125,0.1281890869140625
1772556527278520600,3.1925205078125,-0.673614501953125,-0.366302490234375,0.13031005859375
1772556527288504600,3.202504638671875,-0.6903839111328125,-0.3429412841796875,0.115509033203125
1772556527298488600,3.212488525390625,-0.7099456787109375,-0.324920654296875,0.0819244384765625
1772556527308472300,3.222472412109375,-0.7353668212890625,-0.31146240234375,0.0431060791015625
1772556527318456300,3.232456298828125,-0.7603912353515625,-0.3027801513671875,-0.003997802734375
1772556527328440300,3.2424404296875,-0.7859954833984375,-0.30316162109375,-0.055511474609375
1772556527338424300,3.25242431640625,-0.808074951171875,-0.3112335205078125,-0.0919952392578125
1772556527348408600,3.26240869140625,-0.808837890625,-0.338165283203125,-0.1259307861328125
1772556527358392600,3.272392578125,-0.805145263671875,-0.36749267578125,-0.1545562744140625
1772556527368376600,3.28237646484375,-0.795562744140625,-0.3880157470703125,-0.1724395751953125
1772556527378360600,3.292360595703125,-0.7843780517578125,-0.407562255859375,-0.1800994873046875
1772556527388344600,3.302344482421875,-0.7838134765625,-0.4329681396484375,-0.1764373779296875
1772556527398328600,3.31232861328125,-0.7911376953125,-0.455535888671875,-0.1651458740234375
1772556527408312600,3.3223125,-0.8017578125,-0.4716949462890625,-0.14862060546875
1772556527418296600,3.332296630859375,-0.8196258544921875,-0.481353759765625,-0.1192169189453125
1772556527428280600,3.342280517578125,-0.83917236328125,-0.488494873046875,-0.085968017578125
1772556527438264600,3.3522646484375,-0.859649658203125,-0.5026397705078125,-0.0524749755859375
1772556527448248600,3.36224853515625,-0.885009765625,-0.5147247314453125,-0.0228424072265625
1772556527458232300,3.372232421875,-0.9049530029296875,-0.5171356201171875,0.0045928955078125
1772556527468216300,3.38221630859375,-0.9150848388671875,-0.51776123046875,0.0269927978515625
1772556527478200300,3.392200439453125,-0.916595458984375,-0.51885986328125,0.0417022705078125
1772556527488184600,3.4021845703125,-0.9079437255859375,-0.51446533203125,0.0479736328125
1772556527498168600,3.41216845703125,-0.8922271728515625,-0.50384521484375,0.049163818359375
1772556527508152600,3.422152587890625,-0.87359619140625,-0.4915313720703125,0.046539306640625
1772556527518136600,3.432136474609375,-0.854156494140625,-0.4786376953125,0.04254150390625
1772556527528120600,3.44212060546875,-0.8413238525390625,-0.46343994140625,0.037567138671875
1772556527538104600,3.4521044921875,-0.832794189453125,-0.4545135498046875,0.033843994140625
1772556527548088600,3.462088623046875,-0.830657958984375,-0.4519195556640625,0.027496337890625
1772556527558072600,3.472072509765625,-0.84124755859375,-0.457855224609375,0.0247650146484375
1772556527568056600,3.482056640625,-0.8524627685546875,-0.4664459228515625,0.024139404296875
1772556527578040600,3.49204052734375,-0.86480712890625,-0.468017578125,0.022613525390625
1772556527588024600,3.502024658203125,-0.8870086669921875,-0.471160888671875,0.0205230712890625
1772556527598008300,3.51200830078125,-0.9088287353515625,-0.47711181640625,0.017364501953125
1772556527607992300,3.521992431640625,-0.92913818359375,-0.4829559326171875,0.0111083984375
1772556527617976300,3.531976318359375,-0.9454803466796875,-0.4920501708984375,0.0021209716796875
1772556527627960300,3.541960205078125,-0.9576568603515625,-0.5047760009765625,-0.0045013427734375
1772556527637944600,3.551944580078125,-0.965179443359375,-0.5213623046875,-0.004425048828125
1772556527647928600,3.561928466796875,-0.968963623046875,-0.5355224609375,-0.0009307861328125
1772556527657912600,3.57191259765625,-0.9736785888671875,-0.5492706298828125,0.000640869140625
1772556527667896600,3.581896484375,-0.9766998291015625,-0.55487060546875,0.009033203125
1772556527677880600,3.591880615234375,-0.9719390869140625,-0.55560302734375,0.0222015380859375
1772556527687864600,3.601864501953125,-0.9638671875,-0.5619354248046875,0.0345916748046875
1772556527697848600,3.6118486328125,-0.948394775390625,-0.572906494140625,0.0514373779296875
1772556527707832600,3.62183251953125,-0.9298248291015625,-0.59222412109375,0.07952880859375
1772556527717816600,3.631816650390625,-0.9277801513671875,-0.59820556640625,0.1182861328125
1772556527727800600,3.641800537109375,-0.947662353515625,-0.6056976318359375,0.15771484375
1772556527737784600,3.65178466796875,-0.97589111328125,-0.6264190673828125,0.1780853271484375
1772556527747768300,3.661768310546875,-1.0181427001953125,-0.6327362060546875,0.16973876953125
1772556527757752300,3.67175244140625,-1.11834716796875,-0.577239990234375,0.1643218994140625
1772556527767736300,3.681736328125,-1.2310791015625,-0.4948577880859375,0.1551666259765625
1772556527777720600,3.691720458984375,-1.2752227783203125,-0.4411163330078125,0.117584228515625
1772556527787704600,3.70170458984375,-1.2494354248046875,-0.389556884765625,0.051513671875
1772556527797688600,3.7116884765625,-1.1780853271484375,-0.3332977294921875,-0.038543701171875
1772556527807672600,3.721672607421875,-1.072967529296875,-0.293548583984375,-0.1271209716796875
1772556527817656600,3.731656494140625,-0.96246337890625,-0.263275146484375,-0.18115234375
1772556527827640600,3.741640625,-0.8720245361328125,-0.24468994140625,-0.1990203857421875
1772556527837624600,3.75162451171875,-0.823944091796875,-0.24957275390625,-0.18988037109375
1772556527847608600,3.761608642578125,-0.8170928955078125,-0.26348876953125,-0.175384521484375
1772556527857592600,3.771592529296875,-0.8311920166015625,-0.2836151123046875,-0.1540985107421875
1772556527867576600,3.78157666015625,-0.833740234375,-0.3107452392578125,-0.124053955078125
1772556527877560600,3.791560546875,-0.8108367919921875,-0.34613037109375,-0.090057373046875
1772556527887544300,3.80154443359375,-0.779541015625,-0.38702392578125,-0.0578155517578125
1772556527897528300,3.8115283203125,-0.7614593505859375,-0.429534912109375,-0.0377044677734375
1772556527907512300,3.82151220703125,-0.7532501220703125,-0.46221923828125,-0.0133209228515625
1772556527917496300,3.831496337890625,-0.761962890625,-0.479156494140625,0.0185546875
1772556527927480600,3.84148046875,-0.786346435546875,-0.4859161376953125,0.044525146484375
1772556527937464600,3.851464599609375,-0.8070526123046875,-0.4923095703125,0.0708770751953125
1772556527947448600,3.861448486328125,-0.8224945068359375,-0.4896240234375,0.0932159423828125
1772556527957432600,3.8714326171875,-0.8256072998046875,-0.4774627685546875,0.1118316650390625
1772556527967416600,3.88141650390625,-0.8187713623046875,-0.459136962890625,0.1174163818359375
1772556527977400600,3.891400634765625,-0.81402587890625,-0.44952392578125,0.116455078125
1772556527987384600,3.901384521484375,-0.8037567138671875,-0.4391632080078125,0.1111297607421875
1772556527997368600,3.91136865234375,-0.787506103515625,-0.425628662109375,0.10107421875
1772556528007352600,3.9213525390625,-0.77374267578125,-0.4123077392578125,0.0891265869140625
1772556528017336600,3.931336669921875,-0.7763519287109375,-0.411468505859375,0.0782012939453125
1772556528027320600,3.941320556640625,-0.7749786376953125,-0.4215850830078125,0.06103515625
1772556528037304300,3.95130419921875,-0.767486572265625,-0.44256591796875,0.04248046875
1772556528047288300,3.961288330078125,-0.766326904296875,-0.467681884765625,0.034088134765625
1772556528057272300,3.971272216796875,-0.771331787109375,-0.4947052001953125,0.0178375244140625
1772556528067256600,3.981256591796875,-0.773468017578125,-0.518035888671875,0.0054473876953125
1772556528077240600,3.991240478515625,-0.7748870849609375,-0.541259765625,-0.006622314453125
1772556528087221500,4.001221435546875,-0.7766265869140625,-0.5591888427734375,-0.015167236328125
1772556528097205500,4.01120556640625,-0.7717437744140625,-0.5690765380859375,-0.0212554931640625
1772556528107189500,4.021189453125,-0.76678466796875,-0.5700225830078125,-0.020111083984375
1772556528117173500,4.031173583984375,-0.760986328125,-0.568206787109375,-0.0176239013671875
1772556528127157500,4.041157470703125,-0.758270263671875,-0.5609130859375,-0.013885498046875
1772556528137141500,4.0511416015625,-0.7578582763671875,-0.5492095947265625,-0.0051116943359375
1772556528147125500,4.06112548828125,-0.760009765625,-0.541168212890625,0.0052947998046875
1772556528157109500,4.071109619140625,-0.77593994140625,-0.5351715087890625,0.019134521484375
1772556528167093500,4.081093505859375,-0.7810516357421875,-0.52398681640625,0.0376739501953125
1772556528177077500,4.091077392578125,-0.7761688232421875,-0.5187530517578125,0.037353515625
1772556528187061500,4.1010615234375,-0.7884063720703125,-0.51055908203125,0.0408935546875
1772556528197045500,4.11104541015625,-0.809326171875,-0.5159759521484375,0.0464630126953125
1772556528207029500,4.121029541015625,-0.8304443359375,-0.523223876953125,0.0576019287109375
1772556528217013500,4.131013427734375,-0.863983154296875,-0.5312347412109375,0.0609588623046875
1772556528226997500,4.14099755859375,-0.9093475341796875,-0.53973388671875,0.066070556640625
1772556528236981500,4.1509814453125,-0.958587646484375,-0.5481109619140625,0.0639801025390625
1772556528246965500,4.160965576171875,-1.00604248046875,-0.544830322265625,0.0556640625
1772556528256949500,4.170949462890625,-1.046630859375,-0.5302581787109375,0.044036865234375
1772556528266933800,4.180933837890625,-1.0822296142578125,-0.5140838623046875,0.0394744873046875
1772556528276917800,4.190917724609375,-1.0818939208984375,-0.5003662109375,0.030426025390625
1772556528286901800,4.20090185546875,-1.0560760498046875,-0.496246337890625,0.0107269287109375
1772556528296885800,4.2108857421875,-1.0042572021484375,-0.52947998046875,-0.026763916015625
1772556528306869800,4.220869873046875,-0.943450927734375,-0.611663818359375,-0.0653076171875
1772556528316853500,4.230853515625,-0.937957763671875,-0.6920318603515625,-0.0826416015625
1772556528326837500,4.24083740234375,-1.008270263671875,-0.7501373291015625,-0.0571441650390625
1772556528336821500,4.250821533203125,-1.1115264892578125,-0.791351318359375,-0.0030364990234375
1772556528346805500,4.260805419921875,-1.2309722900390625,-0.793792724609375,0.0624237060546875
1772556528356789500,4.27078955078125,-1.3722076416015625,-0.7346954345703125,0.1387176513671875
1772556528366773500,4.2807734375,-1.4456787109375,-0.637542724609375,0.1988067626953125
1772556528376757500,4.290757568359375,-1.406158447265625,-0.5323486328125,0.2257080078125
1772556528386741800,4.30074169921875,-1.304840087890625,-0.408355712890625,0.227020263671875
1772556528396725800,4.310725830078125,-1.1654205322265625,-0.2989349365234375,0.182891845703125
1772556528406709800,4.320709716796875,-1.0098419189453125,-0.235321044921875,0.11676025390625
1772556528416693800,4.33069384765625,-0.8630218505859375,-0.22003173828125,0.0693206787109375
1772556528426677800,4.340677734375,-0.7384033203125,-0.2430419921875,0.0602569580078125
1772556528436661800,4.350661865234375,-0.7056427001953125,-0.2748260498046875,0.0925750732421875
1772556528446645800,4.360645751953125,-0.729827880859375,-0.314971923828125,0.1268463134765625
1772556528456629500,4.37062939453125,-0.7388458251953125,-0.356536865234375,0.166656494140625
1772556528466613500,4.380613525390625,-0.7381134033203125,-0.4010009765625,0.2084808349609375
1772556528476597500,4.390597412109375,-0.7232666015625,-0.4147186279296875,0.214691162109375
1772556528486581500,4.40058154296875,-0.6922760009765625,-0.4576416015625,0.2015838623046875
1772556528496565500,4.4105654296875,-0.6736907958984375,-0.483245849609375,0.190704345703125
1772556528506550500,4.420550537109375,-0.651092529296875,-0.4756622314453125,0.19158935546875
1772556528516535600,4.43053564453125,-0.642181396484375,-0.4628143310546875,0.1987762451171875
1772556528526519600,4.44051953125,-0.6553802490234375,-0.44036865234375,0.205718994140625
1772556528536503600,4.450503662109375,-0.681121826171875,-0.410003662109375,0.2028350830078125
1772556528546487600,4.460487548828125,-0.6960601806640625,-0.39007568359375,0.18011474609375
1772556528556471600,4.470471435546875,-0.7076416015625,-0.38818359375,0.155029296875
1772556528566455600,4.48045556640625,-0.7186126708984375,-0.388946533203125,0.1241607666015625
1772556528576439600,4.490439453125,-0.7304840087890625,-0.390380859375,0.094818115234375
1772556528586423600,4.500423583984375,-0.7293853759765625,-0.3966064453125,0.05841064453125
1772556528596407600,4.510407470703125,-0.7220306396484375,-0.40997314453125,0.0274200439453125
1772556528606391600,4.5203916015625,-0.7190399169921875,-0.422637939453125,0.007354736328125
1772556528616375800,4.530375732421875,-0.7157745361328125,-0.437225341796875,-0.0044708251953125
1772556528626359800,4.54035986328125,-0.7136993408203125,-0.458984375,-0.003753662109375
1772556528636343800,4.55034375,-0.716796875,-0.477203369140625,0.0082550048828125
1772556528646327800,4.560327880859375,-0.718994140625,-0.489349365234375,0.029205322265625
1772556528656311800,4.570311767578125,-0.729400634765625,-0.495208740234375,0.053375244140625
1772556528666295600,4.580295654296875,-0.7480926513671875,-0.5013885498046875,0.0734100341796875
1772556528676279600,4.590279541015625,-0.7679595947265625,-0.5114593505859375,0.09295654296875
1772556528686263600,4.600263671875,-0.78472900390625,-0.51806640625,0.107940673828125
1772556528696247600,4.61024755859375,-0.7947235107421875,-0.5249786376953125,0.1113739013671875
1772556528706231600,4.6202314453125,-0.8068084716796875,-0.5294189453125,0.11749267578125
1772556528716215600,4.630215576171875,-0.8167724609375,-0.53302001953125,0.123565673828125
1772556528726199600,4.640199462890625,-0.82757568359375,-0.5414886474609375,0.123626708984375
1772556528736183600,4.65018359375,-0.8424072265625,-0.5499267578125,0.1186065673828125
1772556528746167600,4.66016748046875,-0.85015869140625,-0.554656982421875,0.1153106689453125
1772556528756151600,4.670151611328125,-0.8542633056640625,-0.5529327392578125,0.1110687255859375
1772556528766135800,4.6801357421875,-0.8563232421875,-0.5481414794921875,0.1109771728515625
1772556528776119800,4.690119873046875,-0.85101318359375,-0.5385589599609375,0.11260986328125
1772556528786103800,4.700103759765625,-0.8421173095703125,-0.5292816162109375,0.113494873046875
1772556528796087800,4.710087890625,-0.842559814453125,-0.52752685546875,0.1201629638671875
1772556528806071600,4.720071533203125,-0.850372314453125,-0.533843994140625,0.1345062255859375
1772556528816055600,4.7300556640625,-0.8651885986328125,-0.5472412109375,0.1453399658203125
1772556528826039600,4.74003955078125,-0.88409423828125,-0.5594329833984375,0.154022216796875
1772556528836023600,4.7500234375,-0.9045562744140625,-0.5739593505859375,0.16107177734375
1772556528846007600,4.760007568359375,-0.9217071533203125,-0.590728759765625,0.1624908447265625
1772556528855991600,4.769991455078125,-0.935302734375,-0.603302001953125,0.161102294921875
1772556528865975600,4.7799755859375,-0.9447479248046875,-0.606231689453125,0.160552978515625
1772556528875959600,4.78995947265625,-0.9493255615234375,-0.6036376953125,0.1597442626953125
1772556528885943600,4.799943603515625,-0.9602203369140625,-0.6009063720703125,0.157684326171875
1772556528895927600,4.809927490234375,-0.9627532958984375,-0.604156494140625,0.154266357421875
1772556528905911800,4.819911865234375,-0.9639892578125,-0.6044769287109375,0.1531524658203125
1772556528915895800,4.829895751953125,-0.9652099609375,-0.6038818359375,0.1607666015625
1772556528925879800,4.8398798828125,-0.95574951171875,-0.6063995361328125,0.1708831787109375
1772556528935863800,4.84986376953125,-0.9364776611328125,-0.6253509521484375,0.178192138671875
1772556528945847800,4.859847900390625,-0.924652099609375,-0.650146484375,0.188262939453125
1772556528955831600,4.86983154296875,-0.93896484375,-0.6510772705078125,0.2141265869140625
1772556528965815600,4.879815673828125,-0.9644317626953125,-0.6331024169921875,0.2315673828125
1772556528975799600,4.889799560546875,-0.9862060546875,-0.6292266845703125,0.2179718017578125
1772556528985783600,4.899783447265625,-1.0176544189453125,-0.6170196533203125,0.1863250732421875
1772556528995767600,4.909767578125,-1.07470703125,-0.560302734375,0.1722564697265625
1772556529005751600,4.91975146484375,-1.1101837158203125,-0.4988250732421875,0.1515350341796875
1772556529015735600,4.929735595703125,-1.1027679443359375,-0.4481658935546875,0.107330322265625
1772556529025719600,4.939719482421875,-1.08599853515625,-0.39404296875,0.049468994140625
1772556529035703600,4.94970361328125,-1.0373077392578125,-0.3509979248046875,-0.0043792724609375
1772556529045687600,4.9596875,-0.9712677001953125,-0.323944091796875,-0.0593719482421875
1772556529055671800,4.969671875,-0.9084320068359375,-0.3110504150390625,-0.1001129150390625
1772556529065655800,4.97965576171875,-0.852752685546875,-0.3022918701171875,-0.1200408935546875
1772556529075640600,4.989640625,-0.8170318603515625,-0.293670654296875,-0.1126251220703125
1772556529085624600,4.99962451171875,-0.8013458251953125,-0.296478271484375,-0.0949249267578125
1772556529095608800,5.00960888671875,-0.7872772216796875,-0.3150634765625,-0.068939208984375
1772556529105592800,5.0195927734375,-0.76495361328125,-0.34521484375,-0.0269622802734375
1772556529115576800,5.029576904296875,-0.7441558837890625,-0.3763427734375,0.019195556640625
1772556529125560600,5.039560546875,-0.739013671875,-0.406890869140625,0.055023193359375
1772556529135544600,5.049544677734375,-0.7445220947265625,-0.4356689453125,0.078521728515625
1772556529145528600,5.059528564453125,-0.7567138671875,-0.468994140625,0.09539794921875
1772556529155512600,5.0695126953125,-0.7706756591796875,-0.4978179931640625,0.1168060302734375
1772556529165496600,5.07949658203125,-0.789215087890625,-0.52392578125,0.143463134765625
1772556529175480600,5.08948046875,-0.813140869140625,-0.5460662841796875,0.1781158447265625
1772556529185464600,5.099464599609375,-0.8255462646484375,-0.5569000244140625,0.202667236328125
1772556529195448600,5.109448486328125,-0.8295745849609375,-0.5453338623046875,0.2102508544921875
1772556529205432600,5.1194326171875,-0.8299560546875,-0.528076171875,0.2032623291015625
1772556529215416600,5.12941650390625,-0.823150634765625,-0.5076141357421875,0.1921234130859375
1772556529225400600,5.139400634765625,-0.819305419921875,-0.4828338623046875,0.1817474365234375
1772556529235384600,5.149384521484375,-0.8204345703125,-0.46282958984375,0.1681671142578125
1772556529245368800,5.159368896484375,-0.8147430419921875,-0.45928955078125,0.1514739990234375
1772556529255352800,5.169352783203125,-0.8094329833984375,-0.4638519287109375,0.1326446533203125
1772556529265336600,5.179336669921875,-0.8081512451171875,-0.470245361328125,0.1151123046875
1772556529275320600,5.189320556640625,-0.807098388671875,-0.4902191162109375,0.105133056640625
1772556529285304600,5.1993046875,-0.81109619140625,-0.5081634521484375,0.0980224609375
1772556529295288600,5.20928857421875,-0.8094024658203125,-0.5217132568359375,0.0887603759765625
1772556529305272600,5.2192724609375,-0.799407958984375,-0.53289794921875,0.0776824951171875
1772556529315256600,5.229256591796875,-0.78875732421875,-0.54168701171875,0.0667572021484375
1772556529325240600,5.239240478515625,-0.7825164794921875,-0.552642822265625,0.06036376953125
1772556529335224300,5.249224365234375,-0.7762451171875,-0.56256103515625,0.0607757568359375
1772556529345208300,5.259208251953125,-0.77020263671875,-0.5699005126953125,0.0607147216796875
1772556529355192300,5.2691923828125,-0.768768310546875,-0.5761260986328125,0.0566558837890625
1772556529365176300,5.27917626953125,-0.76837158203125,-0.573638916015625,0.0583343505859375
1772556529375160600,5.28916064453125,-0.7675018310546875,-0.5682830810546875,0.0638885498046875
1772556529385144600,5.29914453125,-0.7689666748046875,-0.562957763671875,0.066253662109375
1772556529395128600,5.309128662109375,-0.7727508544921875,-0.55731201171875,0.0683441162109375
1772556529405112600,5.319112548828125,-0.776153564453125,-0.5502471923828125,0.0635223388671875
1772556529415096600,5.3290966796875,-0.7787933349609375,-0.536163330078125,0.053955078125
1772556529425080600,5.33908056640625,-0.775604248046875,-0.52362060546875,0.0412139892578125
1772556529435064600,5.349064697265625,-0.77349853515625,-0.5195159912109375,0.0266876220703125
1772556529445048600,5.359048583984375,-0.767303466796875,-0.5173797607421875,0.01007080078125
1772556529455032600,5.369032470703125,-0.768280029296875,-0.51666259765625,-0.0014190673828125
1772556529465016600,5.3790166015625,-0.7865142822265625,-0.5163421630859375,-0.0005035400390625
1772556529475000600,5.38900048828125,-0.816009521484375,-0.5111236572265625,0.0036468505859375
1772556529484984300,5.398984375,-0.8608856201171875,-0.50665283203125,0.0001373291015625
1772556529494968300,5.40896826171875,-0.901153564453125,-0.504302978515625,-0.0086212158203125
1772556529504953600,5.41895361328125,-0.938262939453125,-0.5004119873046875,-0.0124664306640625
1772556529514937300,5.428937255859375,-0.9713592529296875,-0.4946441650390625,-0.015777587890625
1772556529524921300,5.43892138671875,-0.9959564208984375,-0.4923553466796875,-0.014312744140625
1772556529534905300,5.4489052734375,-0.9935760498046875,-0.5100555419921875,-0.039825439453125
1772556529544889300,5.458889404296875,-0.9577789306640625,-0.545654296875,-0.0641632080078125
1772556529554873300,5.468873291015625,-0.8979339599609375,-0.62213134765625,-0.080047607421875
1772556529564857600,5.478857666015625,-0.866180419921875,-0.6986541748046875,-0.0703125
1772556529574841600,5.488841552734375,-0.8745880126953125,-0.7507171630859375,-0.0244293212890625
1772556529584825600,5.49882568359375,-0.9156341552734375,-0.792816162109375,0.01336669921875
1772556529594809600,5.5088095703125,-0.99322509765625,-0.8124847412109375,0.031005859375
1772556529604793600,5.518793701171875,-1.105438232421875,-0.7615509033203125,0.041015625
1772556529614777600,5.528777587890625,-1.243408203125,-0.6279754638671875,0.053497314453125
1772556529624761600,5.53876171875,-1.3425750732421875,-0.4812164306640625,0.0626678466796875
1772556529634745600,5.54874560546875,-1.352996826171875,-0.356597900390625,0.0495147705078125
1772556529644729600,5.5587294921875,-1.2960205078125,-0.2563018798828125,0.0365142822265625
1772556529654713300,5.56871337890625,-1.2105865478515625,-0.19708251953125,-0.0027008056640625
1772556529664697300,5.578697265625,-1.10296630859375,-0.165069580078125,-0.05194091796875
1772556529674681300,5.588681396484375,-0.982177734375,-0.1620635986328125,-0.0815582275390625
1772556529684665300,5.598665283203125,-0.857452392578125,-0.1863861083984375,-0.08538818359375
1772556529694649300,5.6086494140625,-0.7495880126953125,-0.2324371337890625,-0.061187744140625
1772556529704633600,5.618633544921875,-0.6851806640625,-0.275421142578125,-0.0367431640625
1772556529714617600,5.62861767578125,-0.68096923828125,-0.322845458984375,-0.0273895263671875
1772556529724601600,5.6386015625,-0.736572265625,-0.3806610107421875,-0.0254974365234375
1772556529734585600,5.648585693359375,-0.8338470458984375,-0.4419403076171875,-0.028228759765625
1772556529744569600,5.658569580078125,-0.8778839111328125,-0.4960784912109375,-0.036895751953125
1772556529754553600,5.6685537109375,-0.8514862060546875,-0.5251312255859375,-0.039031982421875
1772556529764537600,5.67853759765625,-0.8406219482421875,-0.522064208984375,-0.037628173828125
1772556529774521600,5.688521484375,-0.8620147705078125,-0.4980316162109375,-0.0407257080078125
1772556529784505600,5.698505615234375,-0.8879547119140625,-0.481170654296875,-0.0626678466796875
1772556529794489600,5.708489501953125,-0.912353515625,-0.45281982421875,-0.080657958984375
1772556529804473300,5.718473388671875,-0.920166015625,-0.420166015625,-0.098419189453125
1772556529814457300,5.728457275390625,-0.906341552734375,-0.3987579345703125,-0.126953125
1772556529824441300,5.73844140625,-0.8678436279296875,-0.381378173828125,-0.1670989990234375
1772556529834425300,5.74842529296875,-0.8151702880859375,-0.3744659423828125,-0.204193115234375
1772556529844409300,5.758409423828125,-0.7617950439453125,-0.3665924072265625,-0.2332611083984375
1772556529854393600,5.7683935546875,-0.71978759765625,-0.3603515625,-0.252716064453125
1772556529864377600,5.778377685546875,-0.698638916015625,-0.3528594970703125,-0.2677001953125
1772556529874362400,5.7883623046875,-0.7193145751953125,-0.3490447998046875,-0.27520751953125
1772556529884346400,5.798346435546875,-0.7829437255859375,-0.3514404296875,-0.257904052734375
1772556529894330600,5.80833056640625,-0.8697052001953125,-0.3522796630859375,-0.2143402099609375
1772556529904314600,5.818314697265625,-0.929290771484375,-0.3565673828125,-0.18157958984375
1772556529914298600,5.828298583984375,-0.9214019775390625,-0.355743408203125,-0.1668701171875
1772556529924282600,5.83828271484375,-0.8698272705078125,-0.348480224609375,-0.1687469482421875
1772556529934266600,5.8482666015625,-0.8183746337890625,-0.34771728515625,-0.1884613037109375
1772556529944250600,5.858250732421875,-0.789459228515625,-0.3541107177734375,-0.207733154296875
1772556529954234600,5.868234619140625,-0.78387451171875,-0.3809661865234375,-0.217864990234375
1772556529964218600,5.878218505859375,-0.7910308837890625,-0.4183197021484375,-0.22314453125
1772556529974202400,5.888202392578125,-0.7933197021484375,-0.4456329345703125,-0.219146728515625
1772556529984186400,5.898186279296875,-0.7964019775390625,-0.4636688232421875,-0.210540771484375
1772556529994170400,5.90817041015625,-0.802154541015625,-0.4711151123046875,-0.19720458984375
1772556530004154400,5.918154296875,-0.8013763427734375,-0.4716949462890625,-0.1775970458984375
1772556530014138400,5.928138427734375,-0.8057098388671875,-0.4705810546875,-0.158721923828125
1772556530024122400,5.938122314453125,-0.8199920654296875,-0.4736480712890625,-0.149444580078125
1772556530034106400,5.9481064453125,-0.8220062255859375,-0.4771728515625,-0.1439666748046875
1772556530044090600,5.958090576171875,-0.8310089111328125,-0.481201171875,-0.1368560791015625
1772556530054074600,5.96807470703125,-0.8615264892578125,-0.4868316650390625,-0.1264495849609375
1772556530064058600,5.97805859375,-0.8870849609375,-0.4958648681640625,-0.1084136962890625
1772556530074042600,5.988042724609375,-0.9027099609375,-0.5063323974609375,-0.0904541015625
1772556530084026600,5.998026611328125,-0.91094970703125,-0.5135650634765625,-0.0760345458984375
1772556530094010600,6.0080107421875,-0.90545654296875,-0.5220489501953125,-0.07537841796875
1772556530103994600,6.01799462890625,-0.8923187255859375,-0.551239013671875,-0.0979766845703125
1772556530113978600,6.027978515625,-0.8812103271484375,-0.5921783447265625,-0.1183013916015625
1772556530123962400,6.03796240234375,-0.8978729248046875,-0.5898590087890625,-0.113555908203125
1772556530133946400,6.0479462890625,-0.9237823486328125,-0.5849151611328125,-0.11236572265625
1772556530143930400,6.057930419921875,-0.9393463134765625,-0.5900115966796875,-0.1225738525390625
1772556530153914400,6.067914306640625,-0.9739837646484375,-0.574371337890625,-0.144256591796875
1772556530163898400,6.0778984375,-1.0268402099609375,-0.5400390625,-0.1668701171875
1772556530173882400,6.08788232421875,-1.0950469970703125,-0.4771881103515625,-0.185333251953125
1772556530183866600,6.09786669921875,-1.1407928466796875,-0.418792724609375,-0.222869873046875
1772556530193850600,6.1078505859375,-1.1558990478515625,-0.3983917236328125,-0.281768798828125
1772556530203834600,6.117834716796875,-1.1547088623046875,-0.3856201171875,-0.340087890625
1772556530213819400,6.1278193359375,-1.1318817138671875,-0.361602783203125,-0.375885009765625
1772556530223803600,6.1378037109375,-1.082550048828125,-0.34490966796875,-0.391845703125
1772556530233787600,6.14778759765625,-1.0084381103515625,-0.339691162109375,-0.393157958984375
1772556530243771600,6.157771728515625,-0.927490234375,-0.3325653076171875,-0.3845367431640625
1772556530253755600,6.167755615234375,-0.867523193359375,-0.3301239013671875,-0.374053955078125
1772556530263744300,6.177744140625,-0.829742431640625,-0.3292236328125,-0.356201171875
1772556530273728300,6.187728271484375,-0.807952880859375,-0.329376220703125,-0.3335723876953125
1772556530283712300,6.197712158203125,-0.8050537109375,-0.3371734619140625,-0.3404693603515625
1772556530293696300,6.2076962890625,-0.80084228515625,-0.34625244140625,-0.3229522705078125
1772556530303680300,6.21768017578125,-0.802337646484375,-0.3491363525390625,-0.308990478515625
1772556530313664300,6.227664306640625,-0.8090362548828125,-0.3551483154296875,-0.30255126953125
1772556530323648300,6.237648193359375,-0.8121185302734375,-0.353973388671875,-0.302825927734375
1772556530333632300,6.24763232421875,-0.811279296875,-0.3498687744140625,-0.30029296875
1772556530343616300,6.2576162109375,-0.81097412109375,-0.348785400390625,-0.2986907958984375
1772556530353600300,6.267600341796875,-0.811614990234375,-0.3608856201171875,-0.2980499267578125
1772556530363584300,6.277584228515625,-0.8193206787109375,-0.3769989013671875,-0.29302978515625
1772556530373568300,6.287568359375,-0.831146240234375,-0.39013671875,-0.2864837646484375
1772556530383552300,6.29755224609375,-0.83544921875,-0.39788818359375,-0.28131103515625
1772556530393536300,6.307536376953125,-0.82257080078125,-0.397613525390625,-0.2756805419921875
1772556530403520300,6.317520263671875,-0.8027191162109375,-0.3941802978515625,-0.2607574462890625
1772556530413504300,6.327504150390625,-0.782196044921875,-0.3899688720703125,-0.241058349609375
1772556530423488300,6.33748828125,-0.7653045654296875,-0.38836669921875,-0.22491455078125
1772556530433472300,6.34747216796875,-0.7546234130859375,-0.3919677734375,-0.2119293212890625
1772556530443456300,6.357456298828125,-0.7501678466796875,-0.4000091552734375,-0.201873779296875
1772556530453440300,6.367440185546875,-0.7559051513671875,-0.41094970703125,-0.1961822509765625
1772556530463424300,6.37742431640625,-0.771514892578125,-0.4202117919921875,-0.1890716552734375
1772556530473408300,6.387408203125,-0.796142578125,-0.427825927734375,-0.1776885986328125
1772556530483392300,6.397392333984375,-0.8203277587890625,-0.43621826171875,-0.1714935302734375
1772556530493376300,6.407376220703125,-0.8427276611328125,-0.4379119873046875,-0.1658172607421875
1772556530503360300,6.4173603515625,-0.8544464111328125,-0.4368133544921875,-0.169281005859375
1772556530513345300,6.42734521484375,-0.8508453369140625,-0.4346923828125,-0.1810150146484375
1772556530523329300,6.437329345703125,-0.8427734375,-0.432342529296875,-0.192718505859375
1772556530533313300,6.447313232421875,-0.834747314453125,-0.4310760498046875,-0.203399658203125
1772556530543297300,6.45729736328125,-0.8302764892578125,-0.4323577880859375,-0.20794677734375
1772556530553281300,6.46728125,-0.82562255859375,-0.4349822998046875,-0.210235595703125
1772556530563265300,6.477265380859375,-0.8149566650390625,-0.4448394775390625,-0.2117156982421875
1772556530573249300,6.487249267578125,-0.80340576171875,-0.4546356201171875,-0.20440673828125
1772556530583233300,6.4972333984375,-0.7967376708984375,-0.4560089111328125,-0.189178466796875
1772556530593217300,6.50721728515625,-0.7989501953125,-0.4604034423828125,-0.1744842529296875
1772556530603201000,6.517200927734375,-0.8054351806640625,-0.4641876220703125,-0.16168212890625
1772556530613185300,6.527185302734375,-0.81231689453125,-0.469146728515625,-0.1554718017578125
1772556530623169300,6.537169189453125,-0.8175506591796875,-0.473297119140625,-0.1518096923828125
1772556530633153300,6.5471533203125,-0.819610595703125,-0.4791717529296875,-0.14801025390625
1772556530643137300,6.55713720703125,-0.827178955078125,-0.4845123291015625,-0.148834228515625
1772556530653121300,6.567121337890625,-0.8556976318359375,-0.4835357666015625,-0.14166259765625
1772556530663105300,6.577105224609375,-0.893157958984375,-0.4774169921875,-0.14141845703125
1772556530673089300,6.58708935546875,-0.932037353515625,-0.47064208984375,-0.15411376953125
1772556530683073300,6.5970732421875,-0.9667816162109375,-0.4530029296875,-0.1700286865234375
1772556530693057300,6.607057373046875,-0.9896087646484375,-0.4321136474609375,-0.1908721923828125
1772556530703041300,6.617041259765625,-0.9940185546875,-0.4272003173828125,-0.2154693603515625
1772556530713025300,6.627025390625,-0.9784088134765625,-0.457000732421875,-0.247833251953125
1772556530723009300,6.63700927734375,-0.9518585205078125,-0.5276641845703125,-0.2714996337890625
1772556530732993300,6.6469931640625,-0.95318603515625,-0.56512451171875,-0.2664031982421875
1772556530742977000,6.65697705078125,-0.9844207763671875,-0.5778350830078125,-0.2659149169921875
1772556530752961300,6.666961181640625,-1.0252532958984375,-0.613677978515625,-0.2677154541015625
1772556530762945300,6.6769453125,-1.0839996337890625,-0.627197265625,-0.263336181640625
1772556530772929300,6.68692919921875,-1.155517578125,-0.596771240234375,-0.25836181640625
1772556530782913300,6.696913330078125,-1.234588623046875,-0.5342864990234375,-0.263580322265625
1772556530792897300,6.706897216796875,-1.2906494140625,-0.4611358642578125,-0.2641448974609375
1772556530802881300,6.71688134765625,-1.2974395751953125,-0.3952789306640625,-0.263885498046875
1772556530812865300,6.726865234375,-1.252349853515625,-0.3475494384765625,-0.25341796875
1772556530822850300,6.736850341796875,-1.1735382080078125,-0.315948486328125,-0.22943115234375
1772556530832834300,6.746834228515625,-1.0792083740234375,-0.29052734375,-0.1947479248046875
1772556530842818300,6.756818359375,-0.974151611328125,-0.2767333984375,-0.1602325439453125
1772556530852802300,6.76680224609375,-0.8734130859375,-0.274444580078125,-0.10888671875
1772556530862786300,6.776786376953125,-0.8033905029296875,-0.268157958984375,-0.0663604736328125
1772556530872770300,6.786770263671875,-0.773223876953125,-0.28082275390625,-0.0429229736328125
1772556530882754300,6.79675439453125,-0.7826690673828125,-0.3085784912109375,-0.0299835205078125
1772556530892738300,6.80673828125,-0.8027496337890625,-0.34063720703125,-0.023834228515625
1772556530902722300,6.816722412109375,-0.8066253662109375,-0.37078857421875,-0.0158843994140625
1772556530912706300,6.826706298828125,-0.7952423095703125,-0.3903350830078125,-0.00970458984375
1772556530922690000,6.83668994140625,-0.7860565185546875,-0.39617919921875,-0.0084228515625
1772556530932674000,6.846674072265625,-0.7852325439453125,-0.3979034423828125,-0.011444091796875
1772556530942658300,6.856658203125,-0.7886505126953125,-0.391632080078125,-0.0202178955078125
1772556530952642300,6.866642333984375,-0.7997589111328125,-0.369720458984375,-0.04156494140625
1772556530962626300,6.876626220703125,-0.8119659423828125,-0.3453521728515625,-0.0850677490234375
1772556530972610300,6.8866103515625,-0.8297882080078125,-0.3257904052734375,-0.125030517578125
1772556530982594300,6.89659423828125,-0.8472747802734375,-0.310638427734375,-0.154510498046875
1772556530992578300,6.906578369140625,-0.8516387939453125,-0.3080596923828125,-0.1868438720703125
1772556531002562300,6.916562255859375,-0.84979248046875,-0.3170928955078125,-0.2147674560546875
1772556531012546300,6.92654638671875,-0.838958740234375,-0.3319244384765625,-0.2332916259765625
1772556531022530300,6.9365302734375,-0.82257080078125,-0.3506317138671875,-0.2382049560546875
1772556531032514300,6.946514404296875,-0.8074798583984375,-0.3739013671875,-0.233795166015625
1772556531042498300,6.956498291015625,-0.8030853271484375,-0.39788818359375,-0.2230987548828125
1772556531052482300,6.966482421875,-0.80419921875,-0.4172821044921875,-0.2059783935546875
1772556531062466000,6.976466064453125,-0.802215576171875,-0.430023193359375,-0.1843414306640625
1772556531072450000,6.986449951171875,-0.8056488037109375,-0.440155029296875,-0.1565704345703125
1772556531082434300,6.996434326171875,-0.817047119140625,-0.4467010498046875,-0.132904052734375
1772556531092418300,7.006418212890625,-0.829498291015625,-0.450531005859375,-0.117584228515625
1772556531102402300,7.01640234375,-0.835968017578125,-0.454986572265625,-0.10577392578125
1772556531112387000,7.026386962890625,-0.8394622802734375,-0.457366943359375,-0.0936279296875
1772556531122371000,7.03637109375,-0.8395843505859375,-0.4532623291015625,-0.08270263671875
1772556531132355300,7.046355224609375,-0.838104248046875,-0.4480438232421875,-0.0831146240234375
1772556531142339300,7.05633935546875,-0.8344268798828125,-0.44317626953125,-0.0886993408203125
1772556531152323300,7.0663232421875,-0.828338623046875,-0.4365081787109375,-0.09698486328125
1772556531162307300,7.076307373046875,-0.829254150390625,-0.432861328125,-0.1049346923828125
1772556531172291300,7.086291259765625,-0.8248443603515625,-0.432342529296875,-0.1118316650390625
1772556531182275300,7.096275390625,-0.8180694580078125,-0.431793212890625,-0.1180267333984375
1772556531192259300,7.10625927734375,-0.809234619140625,-0.436126708984375,-0.1234283447265625
1772556531202243300,7.116243408203125,-0.8038177490234375,-0.440155029296875,-0.1246795654296875
1772556531212227300,7.126227294921875,-0.8117523193359375,-0.4449462890625,-0.1213531494140625
1772556531222211300,7.13621142578125,-0.825408935546875,-0.4532012939453125,-0.1214752197265625
1772556531232195000,7.146195068359375,-0.839141845703125,-0.4630279541015625,-0.1249542236328125
1772556531242179000,7.156178955078125,-0.852203369140625,-0.4722442626953125,-0.1297760009765625
1772556531252163000,7.1661630859375,-0.8600311279296875,-0.4874725341796875,-0.141510009765625
1772556531262142700,7.176142822265625,-0.867706298828125,-0.50604248046875,-0.1499176025390625
1772556531272126500,7.18612646484375,-0.8839111328125,-0.52130126953125,-0.1494140625
1772556531282110500,7.1961103515625,-0.899871826171875,-0.530242919921875,-0.145416259765625
1772556531292094500,7.206094482421875,-0.9076385498046875,-0.5366668701171875,-0.146331787109375
1772556531302078500,7.216078369140625,-0.914825439453125,-0.54473876953125,-0.14794921875
1772556531312062500,7.2260625,-0.9221343994140625,-0.5471038818359375,-0.1475067138671875
1772556531322046500,7.23604638671875,-0.926483154296875,-0.5453948974609375,-0.1399078369140625
1772556531332030500,7.246030517578125,-0.930023193359375,-0.539093017578125,-0.1320343017578125
1772556531342014500,7.256014404296875,-0.9344329833984375,-0.535888671875,-0.1230926513671875
1772556531351998500,7.26599853515625,-0.934906005859375,-0.552001953125,-0.120208740234375
1772556531361982500,7.275982421875,-0.9324188232421875,-0.5907745361328125,-0.1170196533203125
1772556531371966700,7.285966796875,-0.9542388916015625,-0.587554931640625,-0.0882720947265625
1772556531381950700,7.29595068359375,-0.992767333984375,-0.556915283203125,-0.072784423828125
1772556531391934700,7.305934814453125,-1.0196533203125,-0.5457611083984375,-0.0854034423828125
1772556531401918700,7.315918701171875,-1.055694580078125,-0.5268096923828125,-0.10308837890625
1772556531411902700,7.32590283203125,-1.116790771484375,-0.47174072265625,-0.1255950927734375
1772556531421886500,7.335886474609375,-1.165985107421875,-0.396759033203125,-0.15142822265625
1772556531431871700,7.345871826171875,-1.164947509765625,-0.3433074951171875,-0.186920166015625
1772556531441855500,7.35585546875,-1.12884521484375,-0.328338623046875,-0.236358642578125
1772556531451839500,7.365839599609375,-1.0758514404296875,-0.330841064453125,-0.279754638671875
1772556531461823500,7.375823486328125,-1.00958251953125,-0.3296051025390625,-0.3014373779296875
1772556531471807500,7.385807373046875,-0.9366302490234375,-0.3267059326171875,-0.295989990234375
1772556531481791500,7.39579150390625,-0.8700714111328125,-0.3224945068359375,-0.2660675048828125
1772556531491775500,7.405775390625,-0.8357391357421875,-0.3127593994140625,-0.2200469970703125
1772556531501759500,7.415759521484375,-0.843597412109375,-0.3104095458984375,-0.1854248046875
1772556531511743500,7.425743408203125,-0.870147705078125,-0.3110809326171875,-0.1580657958984375
1772556531521727500,7.4357275390625,-0.882354736328125,-0.3179931640625,-0.1293792724609375
1772556531531711500,7.44571142578125,-0.8731689453125,-0.326995849609375,-0.099578857421875
1772556531541695500,7.455695556640625,-0.8625030517578125,-0.335540771484375,-0.0653839111328125
1772556531551679500,7.465679443359375,-0.8567047119140625,-0.341766357421875,-0.0368499755859375
1772556531561663700,7.475663818359375,-0.8560638427734375,-0.3487396240234375,-0.0162200927734375
1772556531571647700,7.485647705078125,-0.863372802734375,-0.3567657470703125,-0.0037994384765625
1772556531581631700,7.4956318359375,-0.87890625,-0.366790771484375,-0.0009918212890625
1772556531591615500,7.505615478515625,-0.8998260498046875,-0.376007080078125,-0.0042572021484375
1772556531601599500,7.515599609375,-0.9138946533203125,-0.3790435791015625,-0.011138916015625
1772556531611583500,7.52558349609375,-0.9244842529296875,-0.3783416748046875,-0.020111083984375
1772556531621567500,7.5355673828125,-0.928680419921875,-0.3824005126953125,-0.028045654296875
1772556531631551500,7.545551513671875,-0.9261932373046875,-0.385345458984375,-0.0318603515625
1772556531641535500,7.555535400390625,-0.9175262451171875,-0.3861541748046875,-0.0353546142578125
1772556531651519500,7.56551953125,-0.905181884765625,-0.3860015869140625,-0.03961181640625
1772556531661503500,7.57550341796875,-0.889495849609375,-0.3865966796875,-0.0462799072265625
1772556531671487500,7.585487548828125,-0.873748779296875,-0.390380859375,-0.0503082275390625
1772556531681471500,7.595471435546875,-0.8634490966796875,-0.401336669921875,-0.0495147705078125
1772556531691455500,7.60545556640625,-0.8585357666015625,-0.40924072265625,-0.0452880859375
1772556531701439700,7.615439697265625,-0.8484344482421875,-0.41461181640625,-0.0409698486328125
1772556531711423700,7.625423828125,-0.837921142578125,-0.4201202392578125,-0.0397796630859375
1772556531721407700,7.63540771484375,-0.8262786865234375,-0.423828125,-0.0455474853515625
1772556531731391700,7.645391845703125,-0.8146209716796875,-0.4287109375,-0.0516815185546875
1772556531741375500,7.65537548828125,-0.8024749755859375,-0.4340362548828125,-0.056732177734375
1772556531751359500,7.665359375,-0.79571533203125,-0.4407806396484375,-0.0593719482421875
1772556531761344500,7.675344482421875,-0.7932281494140625,-0.4478912353515625,-0.06170654296875
1772556531771328500,7.68532861328125,-0.790191650390625,-0.455108642578125,-0.063079833984375
1772556531781312500,7.6953125,-0.787139892578125,-0.45654296875,-0.0654449462890625
1772556531791296500,7.705296630859375,-0.788116455078125,-0.4559326171875,-0.068389892578125
1772556531801280500,7.715280517578125,-0.787628173828125,-0.4532470703125,-0.0732879638671875
1772556531811264500,7.725264404296875,-0.7913970947265625,-0.448455810546875,-0.081512451171875
1772556531821248500,7.73524853515625,-0.7924346923828125,-0.445220947265625,-0.0861968994140625
1772556531831232500,7.745232421875,-0.78790283203125,-0.4458160400390625,-0.09075927734375
1772556531841216500,7.755216552734375,-0.7863006591796875,-0.4415740966796875,-0.09375
1772556531851200500,7.765200439453125,-0.7871856689453125,-0.4344482421875,-0.09674072265625
1772556531861184500,7.7751845703125,-0.78668212890625,-0.43377685546875,-0.1087646484375
1772556531871168500,7.78516845703125,-0.791229248046875,-0.4395294189453125,-0.1254119873046875
1772556531881152500,7.795152587890625,-0.805511474609375,-0.449615478515625,-0.1402130126953125
1772556531891136800,7.80513671875,-0.8267669677734375,-0.4603271484375,-0.150909423828125
1772556531901120800,7.815120849609375,-0.8577880859375,-0.4676513671875,-0.1621856689453125
1772556531911104500,7.8251044921875,-0.8905181884765625,-0.465423583984375,-0.1788787841796875
1772556531921088500,7.835088623046875,-0.92681884765625,-0.45166015625,-0.19793701171875
1772556531931072500,7.845072509765625,-0.9680938720703125,-0.43731689453125,-0.21826171875
1772556531941056500,7.855056396484375,-1.0000762939453125,-0.430572509765625,-0.2364654541015625
1772556531951040500,7.86504052734375,-1.0161590576171875,-0.4296112060546875,-0.2522430419921875
1772556531961024500,7.8750244140625,-1.022705078125,-0.4416961669921875,-0.2596435546875
1772556531971008500,7.885008544921875,-1.008575439453125,-0.4967193603515625,-0.2751922607421875
1772556531980992500,7.894992431640625,-0.9849853515625,-0.5868988037109375,-0.2853240966796875
1772556531990976500,7.9049765625,-1.005218505859375,-0.63836669921875,-0.2682342529296875
1772556532000960500,7.91496044921875,-1.0592498779296875,-0.6488037109375,-0.2337799072265625
1772556532010944500,7.924944580078125,-1.1318817138671875,-0.65814208984375,-0.2109375
1772556532020928500,7.934928466796875,-1.24652099609375,-0.631011962890625,-0.1990814208984375
1772556532030912500,7.94491259765625,-1.37017822265625,-0.5389556884765625,-0.18121337890625
1772556532040896800,7.954896728515625,-1.4459991455078125,-0.4322357177734375,-0.1680908203125
1772556532050880500,7.964880615234375,-1.444854736328125,-0.3338165283203125,-0.1690673828125
1772556532060864500,7.974864501953125,-1.3809051513671875,-0.239501953125,-0.1826324462890625
1772556532070848500,7.9848486328125,-1.2706451416015625,-0.161956787109375,-0.169952392578125
1772556532080832500,7.99483251953125,-1.1361083984375,-0.128570556640625,-0.1475677490234375
1772556532090815500,8.0048154296875,-0.9896392822265625,-0.1295623779296875,-0.1102752685546875
1772556532100799500,8.014799560546875,-0.85723876953125,-0.1251373291015625,-0.04083251953125
1772556532110783500,8.024783447265625,-0.7841339111328125,-0.1368560791015625,0.021636962890625
1772556532120767500,8.034767578125,-0.799346923828125,-0.176025390625,0.0402679443359375
1772556532130752500,8.04475244140625,-0.8605499267578125,-0.2350006103515625,0.047607421875
1772556532140736500,8.054736572265625,-0.8742523193359375,-0.2855072021484375,0.0560760498046875
1772556532150720500,8.064720458984375,-0.8564453125,-0.3137664794921875,0.0637359619140625
1772556532160704500,8.07470458984375,-0.8378448486328125,-0.3226470947265625,0.0584259033203125
1772556532170688500,8.0846884765625,-0.823974609375,-0.3339385986328125,0.0458221435546875
1772556532180672800,8.0946728515625,-0.82318115234375,-0.335357666015625,0.031036376953125
1772556532190656800,8.10465673828125,-0.8306121826171875,-0.3302459716796875,0.01580810546875
1772556532200640500,8.114640625,-0.843719482421875,-0.314422607421875,0.0044097900390625
1772556532210624500,8.12462451171875,-0.8488006591796875,-0.290740966796875,-0.007171630859375
1772556532220608500,8.1346083984375,-0.8353729248046875,-0.266632080078125,-0.025054931640625
1772556532230592500,8.144592529296874,-0.81195068359375,-0.25640869140625,-0.0471038818359375
1772556532240576500,8.154576416015624,-0.789031982421875,-0.258209228515625,-0.0663299560546875
1772556532250560500,8.164560546875,-0.7624053955078125,-0.270111083984375,-0.0908050537109375
1772556532260544500,8.17454443359375,-0.7398681640625,-0.2882537841796875,-0.11962890625
1772556532270530000,8.184530029296875,-0.7271881103515625,-0.3101806640625,-0.1406402587890625
1772556532280514000,8.19451416015625,-0.7211456298828125,-0.33953857421875,-0.15972900390625
1772556532290498000,8.204498046875,-0.7270965576171875,-0.3718414306640625,-0.17108154296875
1772556532300482000,8.21448193359375,-0.7403106689453125,-0.401885986328125,-0.1664276123046875
1772556532310466000,8.224466064453125,-0.7521209716796875,-0.4288330078125,-0.14666748046875
1772556532320450000,8.234449951171875,-0.763336181640625,-0.447235107421875,-0.1201019287109375
1772556532330434000,8.24443408203125,-0.779632568359375,-0.45831298828125,-0.0935821533203125
1772556532340418000,8.25441796875,-0.7936859130859375,-0.465118408203125,-0.0705718994140625
1772556532350402000,8.264402099609375,-0.8011474609375,-0.46038818359375,-0.0525054931640625
1772556532360385800,8.2743857421875,-0.816497802734375,-0.449981689453125,-0.0420074462890625
1772556532370369800,8.284369873046876,-0.83447265625,-0.441619873046875,-0.03472900390625
1772556532380354000,8.29435400390625,-0.8539581298828125,-0.4329681396484375,-0.0315704345703125
1772556532390338000,8.304338134765626,-0.8749237060546875,-0.425140380859375,-0.039031982421875
1772556532400322000,8.314322021484376,-0.896942138671875,-0.4186248779296875,-0.0459442138671875
1772556532410306000,8.32430615234375,-0.918487548828125,-0.4117584228515625,-0.054473876953125
1772556532420290000,8.3342900390625,-0.936279296875,-0.4064178466796875,-0.0681610107421875
1772556532430274000,8.344274169921874,-0.9501495361328125,-0.4041595458984375,-0.0824432373046875
1772556532440258000,8.354258056640624,-0.9596099853515625,-0.4027862548828125,-0.0944976806640625
1772556532450242000,8.364241943359374,-0.9580230712890625,-0.404876708984375,-0.1049041748046875
1772556532460226000,8.37422607421875,-0.964080810546875,-0.4083709716796875,-0.1009063720703125
1772556532470210000,8.3842099609375,-0.9802703857421875,-0.4090423583984375,-0.0844573974609375
1772556532480194000,8.394194091796875,-0.998779296875,-0.4054718017578125,-0.067413330078125
1772556532490178000,8.404177978515625,-1.02337646484375,-0.40264892578125,-0.0562744140625
1772556532500162000,8.414162109375,-1.0533447265625,-0.397857666015625,-0.050872802734375
1772556532510149000,8.424149169921876,-1.0782470703125,-0.390625,-0.05328369140625
1772556532520133000,8.434133056640626,-1.088714599609375,-0.3896484375,-0.058624267578125
1772556532530117000,8.4441171875,-1.07574462890625,-0.3916015625,-0.0615997314453125
1772556532540101000,8.45410107421875,-1.049072265625,-0.3957366943359375,-0.059967041015625
1772556532550086100,8.464086181640624,-1.0218048095703125,-0.4038848876953125,-0.0516510009765625
1772556532560070100,8.474070068359374,-1.0009613037109375,-0.412109375,-0.0424652099609375
1772556532570054100,8.48405419921875,-0.9842987060546875,-0.42364501953125,-0.03460693359375
1772556532580038100,8.4940380859375,-0.975738525390625,-0.4408416748046875,-0.02716064453125
1772556532590022100,8.504022216796875,-0.965057373046875,-0.482574462890625,-0.0254364013671875
1772556532600006100,8.514006103515625,-0.97271728515625,-0.5118255615234375,-0.018951416015625
1772556532609990100,8.523990234375,-1.0193634033203125,-0.474151611328125,0.003509521484375
1772556532619974000,8.533973876953125,-1.0519256591796875,-0.4359588623046875,0.0072021484375
1772556532629958000,8.5439580078125,-1.055938720703125,-0.432525634765625,-0.0133819580078125
1772556532639942000,8.55394189453125,-1.077545166015625,-0.4071807861328125,-0.04608154296875
1772556532649926000,8.56392578125,-1.1114654541015625,-0.35980224609375,-0.0692901611328125
1772556532659910000,8.573909912109375,-1.1294097900390625,-0.3144073486328125,-0.088714599609375
1772556532669894000,8.583893798828125,-1.1380157470703125,-0.2821044921875,-0.114501953125
1772556532679878000,8.5938779296875,-1.1356201171875,-0.27398681640625,-0.156341552734375
1772556532689862000,8.60386181640625,-1.120025634765625,-0.272613525390625,-0.1957550048828125
1772556532699846100,8.61384619140625,-1.0950469970703125,-0.2639923095703125,-0.2230224609375
1772556532709830100,8.623830078125,-1.0618133544921875,-0.2491302490234375,-0.2381744384765625
1772556532719814100,8.633814208984376,-1.016693115234375,-0.238677978515625,-0.2411041259765625
1772556532729798100,8.643798095703126,-0.9669647216796875,-0.2343292236328125,-0.235595703125
1772556532739782100,8.6537822265625,-0.9263916015625,-0.23223876953125,-0.2215728759765625
1772556532749766100,8.66376611328125,-0.90362548828125,-0.2316741943359375,-0.2087249755859375
1772556532759750000,8.67375,-0.8925628662109375,-0.23748779296875,-0.1976470947265625
1772556532769734000,8.68373388671875,-0.878082275390625,-0.2499542236328125,-0.1877593994140625
1772556532779718000,8.6937177734375,-0.86553955078125,-0.2649078369140625,-0.181121826171875
1772556532789702000,8.703701904296874,-0.8544921875,-0.28076171875,-0.1788482666015625
1772556532799686000,8.713685791015624,-0.845794677734375,-0.2978668212890625,-0.18109130859375
1772556532809670000,8.723669921875,-0.83807373046875,-0.3126220703125,-0.185211181640625
1772556532819654000,8.73365380859375,-0.8366241455078125,-0.3260040283203125,-0.1914520263671875
1772556532829638000,8.743637939453125,-0.8424224853515625,-0.3415374755859375,-0.197052001953125
1772556532839622100,8.7536220703125,-0.8573455810546875,-0.35638427734375,-0.2017822265625
1772556532849606100,8.763606201171875,-0.8677978515625,-0.3659210205078125,-0.1949310302734375
1772556532859590100,8.773590087890625,-0.8599700927734375,-0.3741302490234375,-0.1792755126953125
1772556532869574100,8.78357421875,-0.836639404296875,-0.3778839111328125,-0.16534423828125
1772556532879558100,8.79355810546875,-0.813568115234375,-0.378570556640625,-0.1564788818359375
1772556532889542100,8.803542236328125,-0.7952880859375,-0.3742523193359375,-0.141448974609375
1772556532899526100,8.813526123046875,-0.7795867919921875,-0.3693389892578125,-0.124176025390625
1772556532909510000,8.823510009765625,-0.76739501953125,-0.3636627197265625,-0.109619140625
1772556532919494000,8.833493896484375,-0.7589569091796875,-0.361236572265625,-0.0981903076171875
1772556532929478000,8.843477783203125,-0.7480316162109375,-0.361602783203125,-0.093902587890625
1772556532939462000,8.8534619140625,-0.7376556396484375,-0.36395263671875,-0.096710205078125
1772556532949446000,8.86344580078125,-0.7366790771484375,-0.37255859375,-0.1035308837890625
1772556532959430000,8.873429931640626,-0.7386932373046875,-0.381439208984375,-0.112701416015625
1772556532969414000,8.883413818359376,-0.7413330078125,-0.39105224609375,-0.1222381591796875
1772556532979398000,8.89339794921875,-0.7502593994140625,-0.405731201171875,-0.1365509033203125
1772556532989382100,8.903382080078124,-0.7651519775390625,-0.4231109619140625,-0.1539764404296875
1772556532999366100,8.9133662109375,-0.780670166015625,-0.4371490478515625,-0.1671600341796875
1772556533009350100,8.92335009765625,-0.793731689453125,-0.45074462890625,-0.176605224609375
1772556533019334100,8.933334228515625,-0.80181884765625,-0.458038330078125,-0.1842498779296875
1772556533029318100,8.943318115234375,-0.80462646484375,-0.461090087890625,-0.187530517578125
1772556533039302100,8.95330224609375,-0.8056488037109375,-0.4661407470703125,-0.1920013427734375
1772556533049286000,8.963285888671875,-0.8053741455078125,-0.4683837890625,-0.193359375
1772556533059271200,8.973271240234375,-0.81390380859375,-0.4701995849609375,-0.191986083984375
1772556533069255200,8.983255126953125,-0.82373046875,-0.4737701416015625,-0.18780517578125
1772556533079239000,8.993239013671875,-0.8221893310546875,-0.475921630859375,-0.1782379150390625
1772556533089223000,9.003222900390625,-0.8164520263671875,-0.4768829345703125,-0.1659393310546875
1772556533099207000,9.01320703125,-0.8189849853515625,-0.47857666015625,-0.1583709716796875
1772556533109191000,9.02319091796875,-0.82757568359375,-0.48065185546875,-0.1531219482421875
1772556533119175000,9.0331748046875,-0.843597412109375,-0.4801483154296875,-0.1509246826171875
1772556533129159000,9.043158935546876,-0.862945556640625,-0.474639892578125,-0.1539154052734375
1772556533139143000,9.053142822265626,-0.8876495361328125,-0.471954345703125,-0.1609954833984375
1772556533149127000,9.063126953125,-0.914276123046875,-0.46905517578125,-0.1674346923828125
1772556533159111000,9.07311083984375,-0.9498748779296875,-0.459625244140625,-0.1747894287109375
1772556533169095000,9.083094970703126,-0.9882354736328125,-0.44720458984375,-0.184478759765625
1772556533179079200,9.0930791015625,-1.0173492431640625,-0.4321746826171875,-0.191497802734375
1772556533189063200,9.103063232421874,-1.040496826171875,-0.4207000732421875,-0.19195556640625
1772556533199047200,9.113047119140624,-1.041107177734375,-0.4222869873046875,-0.1949920654296875
1772556533209031200,9.12303125,-1.022796630859375,-0.4465179443359375,-0.20050048828125
1772556533219015200,9.13301513671875,-0.9892730712890625,-0.5184783935546875,-0.2098236083984375
1772556533228999000,9.1429990234375,-0.9925079345703125,-0.578704833984375,-0.2136688232421875
1772556533238983000,9.15298291015625,-1.0456695556640625,-0.5853271484375,-0.204681396484375
1772556533248967000,9.162966796875,-1.09619140625,-0.5887908935546875,-0.1988677978515625
1772556533258951000,9.172950927734375,-1.1693572998046875,-0.5747222900390625,-0.1989288330078125
1772556533268937500,9.1829375,-1.2637939453125,-0.5171356201171875,-0.19482421875
1772556533278921500,9.19292138671875,-1.3438262939453125,-0.4410400390625,-0.1981964111328125
1772556533288905500,9.202905517578126,-1.3911895751953125,-0.36126708984375,-0.19915771484375
1772556533298889500,9.212889404296876,-1.3786468505859375,-0.2864227294921875,-0.194915771484375
1772556533308873500,9.22287353515625,-1.3159027099609375,-0.2181854248046875,-0.185455322265625
1772556533318857500,9.232857421875,-1.2142181396484375,-0.1646728515625,-0.1644134521484375
1772556533328841500,9.242841552734374,-1.0937957763671875,-0.1346893310546875,-0.136016845703125
1772556533338825500,9.252825439453124,-0.963775634765625,-0.149017333984375,-0.11639404296875
1772556533348809500,9.2628095703125,-0.8622283935546875,-0.161895751953125,-0.0735321044921875
1772556533358793500,9.27279345703125,-0.7890472412109375,-0.175537109375,-0.032745361328125
1772556533368777200,9.282777099609374,-0.758453369140625,-0.2064971923828125,-0.0000457763671875
1772556533378761200,9.29276123046875,-0.811492919921875,-0.247650146484375,0.021270751953125
1772556533388745200,9.3027451171875,-0.86822509765625,-0.2874603271484375,0.040191650390625
1772556533398729200,9.312729248046875,-0.865478515625,-0.3145751953125,0.05889892578125
1772556533408713200,9.322713134765625,-0.852081298828125,-0.3249969482421875,0.075225830078125
1772556533418697500,9.332697509765625,-0.8368682861328125,-0.3240814208984375,0.0832366943359375
1772556533428681500,9.342681396484375,-0.8276214599609375,-0.3202667236328125,0.075531005859375
1772556533438665500,9.35266552734375,-0.8263397216796875,-0.319580078125,0.057159423828125
1772556533448649500,9.3626494140625,-0.829620361328125,-0.3135528564453125,0.037139892578125
1772556533458633500,9.372633544921875,-0.843170166015625,-0.2989959716796875,0.019073486328125
1772556533468617500,9.382617431640625,-0.852081298828125,-0.2890167236328125,-0.01318359375
1772556533478601500,9.3926015625,-0.85693359375,-0.2831268310546875,-0.050384521484375
1772556533488585500,9.40258544921875,-0.8541412353515625,-0.2835845947265625,-0.0857696533203125
1772556533498569500,9.412569580078125,-0.8443450927734375,-0.291351318359375,-0.116180419921875
1772556533508553200,9.42255322265625,-0.833953857421875,-0.3095855712890625,-0.1388092041015625
1772556533518537200,9.432537109375,-0.8142242431640625,-0.3381500244140625,-0.1565093994140625
1772556533528521200,9.442521240234376,-0.7979888916015625,-0.3702392578125,-0.1682281494140625
1772556533538505200,9.452505126953126,-0.7931976318359375,-0.396697998046875,-0.1710662841796875
1772556533548489200,9.4624892578125,-0.7941741943359375,-0.4202880859375,-0.16302490234375
1772556533558473500,9.472473388671874,-0.79632568359375,-0.43975830078125,-0.1404266357421875
1772556533568457500,9.48245751953125,-0.8001556396484375,-0.454498291015625,-0.113189697265625
1772556533578441500,9.49244140625,-0.80926513671875,-0.458831787109375,-0.0924835205078125
1772556533588425500,9.502425537109374,-0.8188018798828125,-0.457275390625,-0.0790252685546875
1772556533598409500,9.512409423828124,-0.8277740478515625,-0.451019287109375,-0.0629730224609375
1772556533608393500,9.5223935546875,-0.83685302734375,-0.4449005126953125,-0.0502471923828125
1772556533618377500,9.53237744140625,-0.8490447998046875,-0.4418792724609375,-0.04638671875
1772556533628361500,9.542361572265625,-0.8601226806640625,-0.4388580322265625,-0.0478515625
1772556533638345500,9.552345458984375,-0.8665008544921875,-0.4353485107421875,-0.049468994140625
1772556533648329500,9.56232958984375,-0.87115478515625,-0.4303436279296875,-0.0587158203125
1772556533658313200,9.572313232421875,-0.8746795654296875,-0.4216156005859375,-0.0767974853515625
1772556533668297200,9.582297119140625,-0.8797149658203125,-0.4159088134765625,-0.0970306396484375
1772556533678281200,9.59228125,-0.8873138427734375,-0.4163055419921875,-0.1193084716796875
1772556533688265200,9.60226513671875,-0.887725830078125,-0.4146881103515625,-0.1345062255859375
1772556533698249200,9.612249267578125,-0.879974365234375,-0.413665771484375,-0.1405487060546875
1772556533708234200,9.622234130859376,-0.8700408935546875,-0.415069580078125,-0.1434783935546875
1772556533718218200,9.63221826171875,-0.853759765625,-0.4202423095703125,-0.1449737548828125
1772556533728202200,9.6422021484375,-0.845184326171875,-0.4233551025390625,-0.1404571533203125
1772556533738186200,9.652186279296876,-0.853271484375,-0.423919677734375,-0.13311767578125
1772556533748170500,9.66217041015625,-0.8719635009765625,-0.4295196533203125,-0.1323089599609375
1772556533758154500,9.672154541015624,-0.892242431640625,-0.43975830078125,-0.1403045654296875
1772556533768138500,9.682138427734374,-0.9056549072265625,-0.4533843994140625,-0.1505889892578125
1772556533778122500,9.69212255859375,-0.918365478515625,-0.4658966064453125,-0.1639862060546875
1772556533788106500,9.7021064453125,-0.9281768798828125,-0.475189208984375,-0.17626953125
1772556533798090500,9.712090576171875,-0.932952880859375,-0.480926513671875,-0.187530517578125
1772556533808074500,9.722074462890625,-0.9384613037109375,-0.4901580810546875,-0.2049713134765625
1772556533818058500,9.73205859375,-0.948486328125,-0.4940185546875,-0.2169952392578125
1772556533828042200,9.742042236328125,-0.964324951171875,-0.490509033203125,-0.2224273681640625
1772556533838026200,9.752026123046875,-0.9693603515625,-0.4951019287109375,-0.22509765625
1772556533848010200,9.76201025390625,-0.954986572265625,-0.52886962890625,-0.2095489501953125
1772556533857994200,9.771994140625,-0.94097900390625,-0.59197998046875,-0.169097900390625
1772556533867978200,9.781978271484375,-0.9645843505859375,-0.601318359375,-0.11968994140625
1772556533877962200,9.791962158203125,-1.0136871337890625,-0.5658721923828125,-0.1179351806640625
1772556533887946200,9.8019462890625,-1.0510101318359375,-0.5455474853515625,-0.1391448974609375
1772556533897930500,9.811930419921875,-1.0976409912109375,-0.5124969482421875,-0.1592254638671875
1772556533907914500,9.82191455078125,-1.173858642578125,-0.4609375,-0.1868438720703125
1772556533917898500,9.8318984375,-1.2295074462890625,-0.4003448486328125,-0.2259063720703125
1772556533927882500,9.841882568359376,-1.2317962646484375,-0.3574371337890625,-0.268463134765625
1772556533937866500,9.851866455078126,-1.19744873046875,-0.3435516357421875,-0.3131866455078125
1772556533947850500,9.8618505859375,-1.1555938720703125,-0.336517333984375,-0.354034423828125
1772556533957834500,9.87183447265625,-1.0999755859375,-0.3282623291015625,-0.3815460205078125
1772556533967818500,9.881818603515624,-1.0294189453125,-0.313140869140625,-0.38189697265625
1772556533977802200,9.89180224609375,-0.952484130859375,-0.2882232666015625,-0.3572998046875
1772556533987786200,9.9017861328125,-0.883514404296875,-0.2720184326171875,-0.33660888671875
1772556533997770200,9.911770263671874,-0.84271240234375,-0.2655792236328125,-0.3140869140625
1772556534007754200,9.921754150390624,-0.81341552734375,-0.266845703125,-0.2903289794921875
1772556534017738200,9.93173828125,-0.7906951904296875,-0.2819976806640625,-0.2633819580078125
1772556534027722200,9.94172216796875,-0.773406982421875,-0.301239013671875,-0.2396697998046875
1772556534037706500,9.95170654296875,-0.7626800537109375,-0.3154296875,-0.22271728515625
1772556534047690500,9.9616904296875,-0.7586517333984375,-0.328582763671875,-0.2150115966796875
1772556534057674500,9.971674560546875,-0.7594451904296875,-0.338958740234375,-0.2138519287109375
1772556534067658500,9.981658447265625,-0.761383056640625,-0.3509368896484375,-0.21685791015625
1772556534077642500,9.991642578125,-0.7684783935546875,-0.3703460693359375,-0.226654052734375
1772556534087626500,10.00162646484375,-0.777130126953125,-0.388275146484375,-0.2345428466796875
1772556534097610500,10.011610595703125,-0.7852783203125,-0.3999176025390625,-0.2374114990234375
1772556534107594500,10.021594482421875,-0.7979278564453125,-0.4082794189453125,-0.2363128662109375
1772556534117578200,10.031578125,-0.810943603515625,-0.4110260009765625,-0.2315673828125
1772556534127562200,10.041562255859375,-0.81951904296875,-0.4049835205078125,-0.217529296875
1772556534137546200,10.051546142578125,-0.8148040771484375,-0.395294189453125,-0.1974029541015625
1772556534147530200,10.0615302734375,-0.798187255859375,-0.388824462890625,-0.1843109130859375
1772556534157514200,10.07151416015625,-0.78009033203125,-0.3865509033203125,-0.174285888671875
1772556534167498200,10.081498291015626,-0.76190185546875,-0.3863525390625,-0.1668243408203125
1772556534177482200,10.091482177734376,-0.749755859375,-0.3876800537109375,-0.1574554443359375
1772556534187466500,10.101466552734376,-0.7422332763671875,-0.39837646484375,-0.15069580078125
1772556534197450500,10.111450439453124,-0.7424468994140625,-0.4093170166015625,-0.1472015380859375
1772556534207434500,10.1214345703125,-0.7479248046875,-0.4244232177734375,-0.1540374755859375
1772556534217418500,10.13141845703125,-0.753936767578125,-0.4401397705078125,-0.169219970703125
1772556534227402500,10.141402587890624,-0.76153564453125,-0.45050048828125,-0.1751556396484375
1772556534237386500,10.151386474609374,-0.774505615234375,-0.4649505615234375,-0.181732177734375
1772556534247370500,10.16137060546875,-0.785614013671875,-0.478607177734375,-0.1894378662109375
1772556534257354500,10.1713544921875,-0.78570556640625,-0.4863433837890625,-0.204010009765625
1772556534267335000,10.1813349609375,-0.78497314453125,-0.494171142578125,-0.2175750732421875
1772556534277319000,10.19131884765625,-0.7824859619140625,-0.500396728515625,-0.2272491455078125
1772556534287303000,10.201302978515624,-0.781158447265625,-0.499053955078125,-0.2278900146484375
1772556534297287000,10.211286865234374,-0.7840576171875,-0.4954986572265625,-0.22332763671875
1772556534307271000,10.22127099609375,-0.789825439453125,-0.494354248046875,-0.2230682373046875
1772556534317255000,10.2312548828125,-0.7943878173828125,-0.491912841796875,-0.222686767578125
1772556534327239000,10.241239013671875,-0.7963104248046875,-0.488555908203125,-0.2194976806640625
1772556534337223200,10.25122314453125,-0.8055877685546875,-0.487548828125,-0.21600341796875
1772556534347207200,10.261207275390625,-0.8214263916015625,-0.4859466552734375,-0.2018280029296875
1772556534357191200,10.271191162109375,-0.8377838134765625,-0.487396240234375,-0.19384765625
1772556534367175200,10.281175048828125,-0.8556976318359375,-0.491546630859375,-0.193267822265625
1772556534377159200,10.2911591796875,-0.866851806640625,-0.4990692138671875,-0.1982879638671875
1772556534387143000,10.301142822265625,-0.8736572265625,-0.505523681640625,-0.2072296142578125
1772556534397127000,10.311126953125,-0.890625,-0.5085296630859375,-0.222381591796875
1772556534407111000,10.32111083984375,-0.9288330078125,-0.5052032470703125,-0.2381591796875
1772556534417095000,10.331094970703125,-0.973297119140625,-0.48980712890625,-0.249114990234375
1772556534427079000,10.341078857421875,-1.00982666015625,-0.4669036865234375,-0.25537109375
1772556534437063000,10.35106298828125,-1.02911376953125,-0.4538421630859375,-0.262237548828125
1772556534447047000,10.361046875,-1.0235748291015625,-0.4589385986328125,-0.269500732421875
1772556534457031000,10.371031005859376,-0.9885711669921875,-0.476043701171875,-0.2736053466796875
1772556534467015000,10.381014892578126,-0.9340972900390625,-0.5390625,-0.2783203125
1772556534476999200,10.390999267578126,-0.8770294189453125,-0.6375579833984375,-0.2756500244140625
1772556534486983200,10.400983154296876,-0.866973876953125,-0.67681884765625,-0.2636871337890625
1772556534496967200,10.41096728515625,-0.917236328125,-0.6779327392578125,-0.253173828125
1772556534506951200,10.420951171875,-0.9934539794921875,-0.6776580810546875,-0.240081787109375
1772556534516935200,10.43093505859375,-1.074127197265625,-0.6512908935546875,-0.2319183349609375
1772556534526919200,10.440919189453124,-1.159423828125,-0.5971832275390625,-0.2334136962890625
1772556534536903000,10.45090283203125,-1.21820068359375,-0.5210418701171875,-0.2294769287109375
1772556534546887000,10.460886962890624,-1.218048095703125,-0.4294281005859375,-0.2153778076171875
1772556534556871000,10.470870849609375,-1.1806182861328125,-0.3467254638671875,-0.1948394775390625
1772556534566855000,10.48085498046875,-1.10906982421875,-0.2900390625,-0.179901123046875
1772556534576839000,10.4908388671875,-1.0077667236328125,-0.2570343017578125,-0.1759185791015625
1772556534586823000,10.500822998046875,-0.9057464599609375,-0.2420196533203125,-0.154449462890625
1772556534596807000,10.510806884765625,-0.82147216796875,-0.2412872314453125,-0.1244354248046875
1772556534606791000,10.520791015625,-0.7548065185546875,-0.2584381103515625,-0.09796142578125
1772556534616775000,10.53077490234375,-0.7324981689453125,-0.2850341796875,-0.083740234375
1772556534626760000,10.540760009765625,-0.7532958984375,-0.31787109375,-0.078125
1772556534636743200,10.5507431640625,-0.796783447265625,-0.355712890625,-0.073699951171875
1772556534646728000,10.56072802734375,-0.820770263671875,-0.3937530517578125,-0.068511962890625
1772556534656712000,10.5707119140625,-0.821319580078125,-0.422088623046875,-0.06109619140625
1772556534666696200,10.5806962890625,-0.811492919921875,-0.43463134765625,-0.0627899169921875
1772556534676680200,10.59068017578125,-0.8028717041015625,-0.441009521484375,-0.0738067626953125
1772556534686664200,10.600664306640626,-0.7994384765625,-0.4415435791015625,-0.0930328369140625
1772556534696648200,10.610648193359374,-0.809844970703125,-0.434234619140625,-0.11553955078125
1772556534706632000,10.6206318359375,-0.8195037841796875,-0.4239044189453125,-0.1401824951171875
1772556534716616000,10.630615966796874,-0.823974609375,-0.41326904296875,-0.1674041748046875
1772556534726600000,10.640599853515624,-0.825408935546875,-0.3932342529296875,-0.194732666015625
1772556534736584000,10.650583984375,-0.822113037109375,-0.37347412109375,-0.2183837890625
1772556534746568000,10.66056787109375,-0.80938720703125,-0.3687744140625,-0.23907470703125
1772556534756552000,10.670552001953125,-0.7921142578125,-0.3740234375,-0.2516632080078125
1772556534766536000,10.680535888671875,-0.7796478271484375,-0.384429931640625,-0.2560882568359375
1772556534776520000,10.69052001953125,-0.7725982666015625,-0.4027862548828125,-0.2519378662109375
1772556534786504000,10.70050390625,-0.7720489501953125,-0.4204559326171875,-0.234466552734375
1772556534796488000,10.710488037109375,-0.77447509765625,-0.4407806396484375,-0.2106475830078125
1772556534806472000,10.720471923828125,-0.77587890625,-0.4651641845703125,-0.1921844482421875
1772556534816456200,10.730456298828125,-0.7719268798828125,-0.484710693359375,-0.1723175048828125
1772556534826440200,10.740440185546875,-0.7659149169921875,-0.4930267333984375,-0.146026611328125
1772556534836424200,10.750424072265625,-0.7625732421875,-0.4944610595703125,-0.1177978515625
1772556534846408000,10.760407958984375,-0.761383056640625,-0.4934234619140625,-0.0989227294921875
1772556534856392000,10.770391845703125,-0.76019287109375,-0.4925994873046875,-0.0917205810546875
1772556534866376000,10.7803759765625,-0.762939453125,-0.4938507080078125,-0.0898590087890625
1772556534876360000,10.79035986328125,-0.7713775634765625,-0.4930877685546875,-0.088623046875
1772556534886344000,10.800343994140626,-0.782440185546875,-0.4933319091796875,-0.0968170166015625
1772556534896328000,10.810327880859376,-0.789581298828125,-0.4892578125,-0.105865478515625
1772556534906312000,10.82031201171875,-0.7975921630859375,-0.4826812744140625,-0.114959716796875
1772556534916296000,10.8302958984375,-0.8097381591796875,-0.4799652099609375,-0.1232452392578125
1772556534926280000,10.840280029296874,-0.810577392578125,-0.47735595703125,-0.13861083984375
1772556534936264000,10.850263916015624,-0.798919677734375,-0.47222900390625,-0.1536865234375
1772556534946248000,10.860248046875,-0.7912750244140625,-0.4675750732421875,-0.16656494140625
1772556534956232200,10.870232177734374,-0.784698486328125,-0.4677886962890625,-0.1731414794921875
1772556534966216200,10.88021630859375,-0.7737579345703125,-0.474761962890625,-0.1757659912109375
1772556534976200200,10.8902001953125,-0.7629547119140625,-0.482757568359375,-0.17510986328125
1772556534986184200,10.90018408203125,-0.7545318603515625,-0.4847869873046875,-0.158538818359375
1772556534996168000,10.91016796875,-0.8050537109375,-0.4827117919921875,-0.1248931884765625
1772556535006152000,10.92015185546875,-0.948150634765625,-0.5038299560546875,-0.095184326171875
1772556535016136000,10.930135986328125,-0.9818115234375,-0.5299224853515625,-0.093353271484375
1772556535026120000,10.940119873046875,-0.9911346435546875,-0.5298004150390625,-0.11151123046875
1772556535036104000,10.95010400390625,-0.97088623046875,-0.5287017822265625,-0.13323974609375
1772556535046088000,10.960087890625,-0.93048095703125,-0.5312957763671875,-0.1536102294921875
1772556535056072000,10.970072021484375,-0.9019622802734375,-0.53363037109375,-0.183441162109375
1772556535066056000,10.980055908203125,-0.904449462890625,-0.5349273681640625,-0.2010498046875
