time,seconds_elapsed,z,y,x
1772556524166017000,0.08001708984375,-8.801265335476398,-3.7485920700520277,-2.15781647792235
1772556524176001000,0.0900009765625,-8.785368093642592,-3.7928696031957863,-2.1451871518433094
1772556524185985000,0.099985107421875,-8.776157197704912,-3.825268190236389,-2.125269276191294
1772556524195969000,0.109968994140625,-8.772479385975002,-3.846481658656895,-2.1020380382075903
1772556524205953000,0.119953125,-8.773458460140228,-3.85686101385206,-2.0788053389191625
1772556524215937000,0.12993701171875,-8.778724417844414,-3.8567853182673453,-2.0565956990681586
1772556524225921300,0.13992138671875,-8.788958227089047,-3.8449636553093787,-2.0349078911341727
1772556524235905000,0.149905029296875,-8.802905503898858,-3.8223695461854335,-2.0171097841151058
1772556524245888000,0.159887939453125,-8.81840117919445,-3.7922239987686273,-2.00629408332929
1772556524255870700,0.16987060546875,-8.833289536246657,-3.760353527255356,-2.0007810189962387
1772556524265854700,0.179854736328125,-8.846150186863541,-3.7309392167225477,-1.9990268688052892
1772556524275839000,0.1898388671875,-8.856451800647378,-3.705847153303027,-2.000086606991291
1772556524285823000,0.199822998046875,-8.864113713577389,-3.6845462988600133,-2.005491096383333
1772556524295807000,0.209806884765625,-8.868917314466833,-3.6676024705827235,-2.0152878293849525
1772556524305791000,0.219791015625,-8.87088481514752,-3.6559272303581234,-2.0278024430431425
1772556524315775000,0.22977490234375,-8.870664450395108,-3.649180386446416,-2.040875567366928
1772556524325759000,0.239759033203125,-8.869714602324366,-3.6449200986534356,-2.052584855991602
1772556524335743000,0.249742919921875,-8.86955795045793,-3.6403172810330986,-2.0614105520039794
1772556524345727000,0.25972705078125,-8.87120221053362,-3.633511108149588,-2.0663376331426204
1772556524355711000,0.2697109375,-8.874432278496027,-3.6246982716187834,-2.067945945122093
1772556524365695000,0.279695068359375,-8.878410534477233,-3.6151921921268104,-2.067509891792387
1772556524375678700,0.2896787109375,-8.882123417520523,-3.606974106618762,-2.065915462207794
1772556524385662700,0.299662841796875,-8.884788252815603,-3.601841712166369,-2.0634103475190697
1772556524395646700,0.309646728515625,-8.885705367660522,-3.6014322545826434,-2.0601726807720957
1772556524405630700,0.319630615234375,-8.885085189935564,-3.6056966340288517,-2.055381793233752
1772556524415614700,0.32961474609375,-8.883599919813872,-3.61383142516762,-2.047500100073218
1772556524425599000,0.339598876953125,-8.881999498879908,-3.6245042103514074,-2.035545019993931
1772556524435583000,0.3495830078125,-8.880662697318195,-3.6367017208844423,-2.019558492441475
1772556524445567000,0.35956689453125,-8.879841444063187,-3.649633975432813,-1.9997437849029898
1772556524455550000,0.369550048828125,-8.879545091465115,-3.6628961925879118,-1.9766789895273744
1772556524465534000,0.379533935546875,-8.879581916344165,-3.6767122442334887,-1.9506907079204916
1772556524475518000,0.38951806640625,-8.879832676234841,-3.6908939143210646,-1.9225652681544423
1772556524485501700,0.399501708984375,-8.87992736878097,-3.7058369241699576,-1.8931581180147825
1772556524495485700,0.409485595703125,-8.878927251827717,-3.722666186156869,-1.8646159141413867
1772556524505469700,0.4194697265625,-8.876131483629345,-3.7420743587210774,-1.8389006042569875
1772556524515453700,0.42945361328125,-8.871651123344897,-3.7632922110557554,-1.8170907773785292
1772556524525438000,0.43943798828125,-8.866039128682017,-3.7850636056199667,-1.799172989502549
1772556524535422000,0.449421875,-8.859798772987723,-3.8060233915403483,-1.785648029758036
1772556524545406000,0.459406005859375,-8.853094891434907,-3.82469857365489,-1.7789821421280503
1772556524555390000,0.469389892578125,-8.845927484023571,-3.839928291490674,-1.7818248182080685
1772556524565374000,0.4793740234375,-8.838290705534815,-3.851450094719231,-1.7948082184217868
1772556524575358000,0.48935791015625,-8.829839103531837,-3.860400001633167,-1.8170413852788507
1772556524585342000,0.499342041015625,-8.819889371925592,-3.8696047600910064,-1.845560500537604
1772556524595326000,0.509325927734375,-8.807717872616648,-3.882425370958447,-1.8765042125947773
1772556524605310000,0.51931005859375,-8.792560050973295,-3.9022511844128367,-1.9062297810338436
1772556524615294000,0.5292939453125,-8.773463136315346,-3.931772170190513,-1.9333641639359294
1772556524625278000,0.53927783203125,-8.750250018510222,-3.97098014498502,-1.9582715184383093
1772556524635261700,0.54926171875,-8.72410610795021,-4.015546724203229,-1.9838699239447712
1772556524645245700,0.55924560546875,-8.697794439607858,-4.058398900718987,-2.0120029624953863
1772556524655229000,0.56922900390625,-8.67457313849628,-4.091024282252788,-2.0458945645727216
1772556524665213000,0.579212890625,-8.657439048343896,-4.1066947295933955,-2.0866703732058403
1772556524675197000,0.589197021484375,-8.64822172266543,-4.102598107929528,-2.1324463282138106
1772556524685181000,0.599180908203125,-8.646788474991917,-4.0797973703175785,-2.181440514615923
1772556524695165000,0.6091650390625,-8.651212136653065,-4.04296021630764,-2.2319006819173692
1772556524705149000,0.61914892578125,-8.658498786529899,-3.9997973664075133,-2.280877478793263
1772556524715133000,0.6291328125,-8.665129018324613,-3.959769599662721,-2.325113072491437
1772556524725117000,0.639116943359375,-8.668367854115367,-3.9322731054499744,-2.3594505186401307
1772556524735101000,0.649100830078125,-8.66617940416038,-3.925942441123724,-2.377959988798946
1772556524745085000,0.6590849609375,-8.65743378764689,-3.945500251291692,-2.377446047927439
1772556524755068700,0.669068603515625,-8.641852187633514,-3.990392701463401,-2.3591404297776517
1772556524765052700,0.679052734375,-8.620379191493987,-4.054577004343271,-2.3280578937716783
1772556524775037000,0.689036865234375,-8.594633924862743,-4.130596706445515,-2.289283195827901
1772556524785021000,0.69902099609375,-8.567320970523356,-4.210338643941283,-2.2459837139360603
1772556524795005000,0.7090048828125,-8.541135558909177,-4.286716073440015,-2.200784389772266
1772556524804989000,0.718989013671875,-8.518366093218326,-4.3542301052644845,-2.1560390929862856
1772556524814973000,0.728972900390625,-8.500293260911107,-4.40975120921731,-2.1141161601446568
1772556524824957000,0.73895703125,-8.487289986953138,-4.451321529228985,-2.078948692912608
1772556524834941000,0.74894091796875,-8.479767774754762,-4.477534121111035,-2.0531956813663244
1772556524844925000,0.758925048828125,-8.478221714356541,-4.487281315882504,-2.0382453649938106
1772556524854909000,0.768908935546875,-8.482553606081009,-4.481256648765504,-2.0334723053731025
1772556524864893000,0.778892822265625,-8.491637076246738,-4.4626323200553655,-2.0365166415050626
1772556524874876000,0.7888759765625,-8.503667705780268,-4.435300076493621,-2.046004162427038
1772556524884860000,0.79885986328125,-8.516972593033314,-4.402990629041195,-2.060396991047263
1772556524894844000,0.808843994140625,-8.530614749416708,-4.368778270576894,-2.0767223951652647
1772556524904828000,0.818827880859375,-8.543979842424392,-4.335386873106658,-2.091702083762735
1772556524914812000,0.82881201171875,-8.55645821572542,-4.305081166692078,-2.1032547205209733
1772556524924796000,0.8387958984375,-8.567405141675472,-4.278862729591131,-2.112177593297511
1772556524934780000,0.84877978515625,-8.575622350400685,-4.257863780704141,-2.1212442584589124
1772556524944764000,0.858763916015625,-8.580847391572593,-4.242456075952947,-2.1309635423101483
1772556524954748000,0.868747802734375,-8.583750127276778,-4.23197705977559,-2.140090120965242
1772556524964732000,0.87873193359375,-8.585579680791497,-4.224400194780528,-2.147708048623055
1772556524974716000,0.8887158203125,-8.587376501080394,-4.21745841281861,-2.154157663153857
1772556524984700000,0.898699951171875,-8.590443487435579,-4.208877631478011,-2.158705389586091
1772556524994684000,0.908683837890625,-8.595110894724726,-4.197618278577924,-2.1620487086646256
1772556525004668000,0.91866796875,-8.600360485816001,-4.18442035883069,-2.1667516256585717
1772556525014651600,0.928651611328125,-8.60595728290975,-4.170028845384716,-2.1722676126010714
1772556525024636000,0.938635986328125,-8.612048001000284,-4.15420700687468,-2.1784354875810443
1772556525034620000,0.948619873046875,-8.618814426395296,-4.137840101702511,-2.1828204246670007
1772556525044604000,0.95860400390625,-8.626407950264214,-4.121737692685425,-2.18328804217875
1772556525054588000,0.968587890625,-8.634775381115078,-4.10675347404331,-2.1784425018437203
1772556525064572000,0.978572021484375,-8.642665257582069,-4.09462990552932,-2.1699615276157855
1772556525074556000,0.988555908203125,-8.648836639693378,-4.0872105691835285,-2.1593321431823074
1772556525084540000,0.998539794921875,-8.651969677022098,-4.087162053866685,-2.146836088094115
1772556525094523000,1.00852294921875,-8.651591491359472,-4.094845886367559,-2.1336780619658526
1772556525104507000,1.0185068359375,-8.647713773143291,-4.109692157843709,-2.120816534566134
1772556525114491000,1.028490966796875,-8.640749194827675,-4.130499675811827,-2.108746449805051
1772556525124475000,1.038474853515625,-8.63109815390706,-4.156499793986976,-2.0971489509917793
1772556525134459000,1.048458984375,-8.619356862708926,-4.186691518633068,-2.085350084387511
1772556525144443000,1.05844287109375,-8.606658124655485,-4.219013533306121,-2.072617444064468
1772556525154427000,1.068427001953125,-8.594427004113793,-4.251082450000942,-2.05779119246304
1772556525164411000,1.078410888671875,-8.584407714402674,-4.279722269029915,-2.0401715107508003
1772556525174395000,1.088394775390625,-8.57790724646747,-4.302842155593633,-2.018772456630319
1772556525184379000,1.09837890625,-8.575455177140235,-4.319492846143246,-1.993474056983739
1772556525194363000,1.10836279296875,-8.576579212734103,-4.330167677153646,-1.965278766851872
1772556525204347000,1.118346923828125,-8.580417183461785,-4.3359334010735155,-1.9355895849004388
1772556525214331000,1.128330810546875,-8.585914027312397,-4.338531016351283,-1.905153822365403
1772556525224315000,1.13831494140625,-8.592199975714086,-4.3391520708590745,-1.8751655113369226
1772556525234299000,1.148298828125,-8.597983819812535,-4.338991327339411,-1.8488427370786666
1772556525244283000,1.158282958984375,-8.603097801825404,-4.337297382903099,-1.8289184316858649
1772556525254267000,1.168266845703125,-8.608013630917668,-4.332407272773981,-1.8173431447044013
1772556525264252000,1.178251953125,-8.614187935638427,-4.3206683196634055,-1.8160342540629206
1772556525274236000,1.18823583984375,-8.623882231178879,-4.298214788053929,-1.8232928468890488
1772556525284220000,1.198219970703125,-8.63803642873764,-4.264556556341052,-1.8352838750645517
1772556525294204000,1.208203857421875,-8.655990018579363,-4.222124651063979,-1.8487515516638755
1772556525304188000,1.21818798828125,-8.674924436151981,-4.176863659840822,-1.8627622490987181
1772556525314172000,1.228171875,-8.690933321666718,-4.136362722626329,-1.8784489169217644
1772556525324156200,1.23815625,-8.700406667932867,-4.108572213903069,-1.8955070192284882
1772556525334140200,1.24814013671875,-8.700455183249712,-4.100317888037861,-1.9130765781886874
1772556525344123100,1.258123046875,-8.68857477584183,-4.117287435278296,-1.9305447226010262
1772556525354107100,1.268107177734375,-8.66330647907257,-4.162444966126978,-1.947192928932607
1772556525364091100,1.278091064453125,-8.62486890412867,-4.234170770427585,-1.9631142822943626
1772556525374075000,1.288074951171875,-8.575344702503084,-4.326314216595888,-1.9791053398914633
1772556525384059000,1.298058837890625,-8.519067519485949,-4.429986480255424,-1.992760063495487
1772556525394043000,1.30804296875,-8.461710724538564,-4.535820890384913,-1.999041774113476
1772556525404027000,1.31802685546875,-8.408986850088834,-4.635134082052112,-1.9937040663473307
1772556525414011000,1.328010986328125,-8.36615717766583,-4.720342760521174,-1.9738705079779029
1772556525423995100,1.3379951171875,-8.336600828313827,-4.786364215700328,-1.9396360838122664
1772556525433979100,1.347979248046875,-8.321804825720191,-4.830300095799565,-1.8937129754185675
1772556525443963100,1.357963134765625,-8.3214529435426,-4.851876552313566,-1.8393197064518927
1772556525453947100,1.367947021484375,-8.334893439874053,-4.8511038143754,-1.779529985269159
1772556525463931100,1.37793115234375,-8.360929798406362,-4.828411797834932,-1.7180455889977513
1772556525473915100,1.3879150390625,-8.398469547727704,-4.784035480491816,-1.6580417866729198
1772556525483899100,1.397899169921875,-8.445401979294418,-4.7200788488879795,-1.602006741848588
1772556525493883100,1.407883056640625,-8.498511638191342,-4.641185052654147,-1.5508315581455825
1772556525503867100,1.4178671875,-8.553294198736548,-4.554066156649589,-1.5073228174172342
1772556525513851100,1.42785107421875,-8.604178582799435,-4.467564808021486,-1.4762652697220444
1772556525523835000,1.4378349609375,-8.646704888361691,-4.389401079627871,-1.4622009424038231
1772556525533819000,1.44781884765625,-8.677697992518544,-4.326035399654508,-1.467431390403211
1772556525543803000,1.457802978515625,-8.69646757491827,-4.2803380628407,-1.4901475184716284
1772556525553787000,1.467786865234375,-8.704699981212615,-4.25097372892946,-1.5257127528496086
1772556525563771100,1.477771240234375,-8.705200331950188,-4.234530543650687,-1.5679986737847327
1772556525573755100,1.487755126953125,-8.701161870214342,-4.226603550043702,-1.6112074086531996
1772556525583739100,1.4977392578125,-8.695735168990492,-4.222493192115426,-1.6507948842845857
1772556525593723100,1.50772314453125,-8.691592662358284,-4.218135581427813,-1.6834303488209843
1772556525603707100,1.51770703125,-8.690298530894518,-4.211417086827755,-1.7067692849628626
1772556525613690000,1.527690185546875,-8.692892639040947,-4.200812690705061,-1.71964279506132
1772556525623674000,1.537674072265625,-8.699492475697397,-4.18596875731647,-1.722462528657168
1772556525633657900,1.547657958984375,-8.709114290523528,-4.168279663629829,-1.716727492136508
1772556525643641900,1.557641845703125,-8.720566827908158,-4.149325080052018,-1.7044642228908835
1772556525653625900,1.5676259765625,-8.732548357602953,-4.131063154913485,-1.6873931149721144
1772556525663609900,1.57760986328125,-8.74430659993589,-4.114485237339139,-1.6668813650801777
1772556525673594000,1.587593994140625,-8.755521236911415,-4.100251544803381,-1.6429145062983035
1772556525683578000,1.597578125,-8.765949107423424,-4.088623943112791,-1.6160680004268884
1772556525693562000,1.60756201171875,-8.775921635383368,-4.078601730792224,-1.5870083485506474
1772556525703546000,1.617546142578125,-8.785421869656442,-4.070164741836488,-1.5557992635555564
1772556525713530000,1.627530029296875,-8.794133583900331,-4.064261363011599,-1.5216383430175482
1772556525723514000,1.63751416015625,-8.80191590833962,-4.061540705876052,-1.4834255167402326
1772556525733498000,1.647498046875,-8.808504054558277,-4.062396445922554,-1.4413792497798799
1772556525743482000,1.657482177734375,-8.813245696127414,-4.067416904433071,-1.3975724028877914
1772556525753466000,1.667466064453125,-8.815495520880818,-4.077175205120444,-1.3542770126491783
1772556525763450000,1.6774501953125,-8.815303797701,-4.090429531230032,-1.3149851589635013
1772556525773434000,1.68743408203125,-8.813614529439807,-4.104117280320823,-1.2832766000136733
1772556525783417900,1.69741796875,-8.81207723686993,-4.113767152197659,-1.2627725950367747
1772556525793401900,1.70740185546875,-8.812763465568423,-4.114395220968127,-1.2559200987935066
1772556525803385900,1.7173857421875,-8.817192972448467,-4.102876924870908,-1.2624939242258668
1772556525813370000,1.7273701171875,-8.825494936847686,-4.079165209893882,-1.2811866419970988
1772556525823354000,1.73735400390625,-8.836178243425488,-4.047074958150088,-1.3090139755994081
1772556525833338000,1.747338134765625,-8.84706613266468,-4.0122371612638235,-1.342294167780131
1772556525843322000,1.757322021484375,-8.855462789610028,-3.9817107978358863,-1.3773686960317193
1772556525853306000,1.76730615234375,-8.85888984144926,-3.9626913323283195,-1.4097976782105863
1772556525863290000,1.7772900390625,-8.85549727640152,-3.9608375211551783,-1.4360766133271157
1772556525873274000,1.787274169921875,-8.84445507338345,-3.97842110864073,-1.455389362692833
1772556525883258000,1.797258056640625,-8.827059701946377,-4.011958052061498,-1.4688757439926265
1772556525893242000,1.8072421875,-8.806386331751941,-4.052461035102605,-1.4817216354317961
1772556525903226000,1.81722607421875,-8.786437184178828,-4.088554385007917,-1.5008764177568257
1772556525913210000,1.827210205078125,-8.77123610791564,-4.109952270084619,-1.5310414005264639
1772556525923193900,1.83719384765625,-8.76329070186913,-4.109704432803392,-1.5765294785037636
1772556525933177900,1.847177734375,-8.763176135578751,-4.085317595043779,-1.6393006997153161
1772556525943161900,1.857161865234375,-8.770238329049944,-4.038822678111494,-1.714995992168784
1772556525953145000,1.86714501953125,-8.78350639142394,-3.9762478562548753,-1.7916053307272493
1772556525963129000,1.877129150390625,-8.801005807757377,-3.908287249706685,-1.854177960626781
1772556525973113000,1.887113037109375,-8.819576652714609,-3.8489652921661732,-1.8896860579900443
1772556525983097000,1.89709716796875,-8.834415909928083,-3.81393694114387,-1.8913925696469842
1772556525993081000,1.9070810546875,-8.840566833773256,-3.814369779603183,-1.861543374828249
1772556526003065000,1.917065185546875,-8.834787081328034,-3.853460265497863,-1.807697949002683
1772556526013049000,1.927049072265625,-8.816749320334196,-3.92592169059664,-1.7385208062715827
1772556526023033000,1.937033203125,-8.7887852086097,-4.021058473362029,-1.6609407229848205
1772556526033017000,1.94701708984375,-8.754834423691033,-4.1277068302229045,-1.5764830090135336
1772556526043000800,1.957000732421875,-8.719141763541101,-4.235201282519101,-1.4866151065617799
1772556526052984800,1.96698486328125,-8.68529619256258,-4.335213854627311,-1.393531603064388
1772556526062969000,1.976968994140625,-8.655948517525196,-4.422290957316756,-1.2993385308898984
1772556526072953000,1.986953125,-8.633284850296377,-4.492256473946571,-1.2068198947336524
1772556526082937000,1.99693701171875,-8.619661398613452,-4.541211643512547,-1.1176852019272745
1772556526092921000,2.006921142578125,-8.616345405933261,-4.567414006261528,-1.0332958039518445
1772556526102905000,2.016905029296875,-8.623831962296366,-4.5707849439993495,-0.9528026096973568
1772556526112889000,2.02688916015625,-8.640490836152434,-4.55482895771563,-0.8751192121665924
1772556526122873000,2.036873046875,-8.66356951392293,-4.5245340649560095,-0.800960773891583
1772556526132857000,2.046857177734375,-8.69031314394176,-4.4846199877187605,-0.7328193308837712
1772556526142841000,2.056841064453125,-8.718463133627175,-4.439145061483979,-0.6728847213376313
1772556526152825000,2.0668251953125,-8.745523574510216,-4.39304031291306,-0.6224119868155569
1772556526162809000,2.07680908203125,-8.769514106428623,-4.350724142970145,-0.5806959747228772
1772556526172793000,2.08679296875,-8.788983361530303,-4.3159433369681235,-0.544783169016242
1772556526182777000,2.096777099609375,-8.803322852528094,-4.290804804058372,-0.5107635201124474
1772556526192760800,2.1067607421875,-8.812610320833326,-4.275538261343539,-0.47755471266750243
1772556526202745000,2.1167451171875,-8.817555376020074,-4.268875004062056,-0.4447514172835275
1772556526212729000,2.12672900390625,-8.818992130824922,-4.269181878054142,-0.4121241725862026
1772556526222713000,2.136713134765625,-8.81806566362977,-4.274037501391768,-0.3803998315453529
1772556526232697000,2.146697021484375,-8.81612797356546,-4.2805242330625655,-0.3512617441380396
1772556526242681000,2.15668115234375,-8.814648548662662,-4.2855981753259895,-0.3255860356116667
1772556526252665000,2.1666650390625,-8.814775389912723,-4.286878862786293,-0.3046076180560514
1772556526262648000,2.17664794921875,-8.817111723905802,-4.283096421638131,-0.28984728956399486
1772556526272632000,2.186632080078125,-8.822125168153644,-4.2733585792168975,-0.2808926699423231
1772556526282616000,2.196615966796875,-8.829415909683703,-4.258668082824349,-0.27485021144030614
1772556526292600000,2.20660009765625,-8.838215302211045,-4.240774990998208,-0.2686347161926329
1772556526302584000,2.216583984375,-8.84725084158182,-4.222447891668975,-0.2597544221824966
1772556526312568000,2.226568115234375,-8.854391945508121,-4.208232611572742,-0.24677794489990917
1772556526322552300,2.23655224609375,-8.857838871091603,-4.201982611267268,-0.2289559272822924
1772556526332536300,2.246536376953125,-8.856160708746314,-4.206689473783969,-0.20631710223378613
1772556526342520300,2.256520263671875,-8.848663046467303,-4.22372565651983,-0.17800136406002565
1772556526352504000,2.266504150390625,-8.834861315608023,-4.253802230353653,-0.14412504175021312
1772556526362488000,2.276488037109375,-8.814805785050988,-4.296313922868669,-0.10616799859856255
1772556526372472000,2.28647216796875,-8.789427598166466,-4.348796974299848,-0.06567872442239896
1772556526382456000,2.2964560546875,-8.760206764379143,-4.407789261494576,-0.023613380585529375
1772556526392440000,2.306440185546875,-8.729169821080564,-4.468957723684609,0.019947583520400804
1772556526402424000,2.316424072265625,-8.698263226163387,-4.528401846300065,0.0646581948687788
1772556526412407000,2.326406982421875,-8.669284968960286,-4.582792192657291,0.10908514642058871
1772556526422392000,2.33639208984375,-8.643792800307274,-4.629496660687029,0.15162348034735768
1772556526432375300,2.346375244140625,-8.62281840133965,-4.667013613654673,0.1907088334091939
1772556526442359300,2.356359375,-8.606626560473442,-4.695278169630468,0.22521111473077907
1772556526452343300,2.36634326171875,-8.595022047397494,-4.71496837400645,0.2550567293529399
1772556526462327300,2.376327392578125,-8.586957983407377,-4.728170677667856,0.28095667508924377
1772556526472311000,2.38631103515625,-8.580281574383378,-4.738814236757159,0.30460891496399417
1772556526482295000,2.396294921875,-8.57363672954142,-4.749380054435133,0.3263839079910889
1772556526492279000,2.406279052734375,-8.56709125342071,-4.759936227501928,0.3440044299535453
1772556526502263000,2.416262939453125,-8.562223939645289,-4.767920796515047,0.3544473519042134
1772556526512247000,2.4262470703125,-8.562102943614125,-4.76812011847943,0.35469537184853106
1772556526522231000,2.43623095703125,-8.571032684522867,-4.753032731723785,0.3412756991093978
1772556526532215000,2.446215087890625,-8.591378722459078,-4.71807481558919,0.31364103853497655
1772556526542199000,2.456198974609375,-8.622298176857829,-4.663687391841411,0.27637533864835273
1772556526552183000,2.46618310546875,-8.659034793102741,-4.597327498488128,0.23680777329383418
1772556526562167000,2.4761669921875,-8.693995631846786,-4.532569779634476,0.20157936965478582
1772556526572151300,2.4861513671875,-8.718948286795616,-4.485667450945079,0.17063114581927658
1772556526582135300,2.49613525390625,-8.726715998187661,-4.471586903144419,0.1404590665885713
1772556526592119300,2.506119384765625,-8.713771760940551,-4.497671484732628,0.10732521494282408
1772556526602103300,2.516103271484375,-8.681164207324386,-4.561043302185833,0.06822672840477899
1772556526612087300,2.52608740234375,-8.633240426632762,-4.651546872192621,0.0254579124736716
1772556526622071000,2.536071044921875,-8.57585849724412,-4.756541324366629,-0.01871293172548758
1772556526632055000,2.546054931640625,-8.515493752652405,-4.863455930948257,-0.059588545187981797
1772556526642039000,2.5560390625,-8.457583999997377,-4.963014037287235,-0.09024346689903177
1772556526652023000,2.56602294921875,-8.40670078497827,-5.048407424673438,-0.10653342524431646
1772556526662007000,2.576007080078125,-8.366098140954971,-5.115392464187741,-0.1074643311525695
1772556526671991000,2.585990966796875,-8.337616142836213,-5.16192508278191,-0.095249595490098
1772556526681975000,2.59597509765625,-8.3227394762218,-5.186222488692403,-0.07405864029549993
1772556526691959000,2.605958984375,-8.322909572091698,-5.186244116002321,-0.04932197988464031
1772556526701943000,2.615943115234375,-8.339262740999459,-5.160077409088611,-0.02616853126132628
1772556526711927300,2.62592724609375,-8.370821077823638,-5.1087809370934965,-0.009361507364042336
1772556526721911300,2.635911376953125,-8.414286710062623,-5.036880653008819,-0.001561368706851499
1772556526731895300,2.645895263671875,-8.465133684724568,-4.950948920962214,-0.0017163375041549442
1772556526741879300,2.65587939453125,-8.518936002060771,-4.857782853747904,-0.007841829224315006
1772556526751863300,2.66586328125,-8.571704884696006,-4.764019405162334,-0.019402564807329326
1772556526761847000,2.675846923828125,-8.620033739057183,-4.675912082642316,-0.03536932136352407
1772556526771831000,2.6858310546875,-8.660875452533364,-4.599637236735225,-0.05438255577641539
1772556526781815000,2.69581494140625,-8.691958573061227,-4.540305634583532,-0.07656471853202675
1772556526791799000,2.705799072265625,-8.712697994229197,-4.4998418145090335,-0.10343297501094639
1772556526801783000,2.715782958984375,-8.72515240213275,-4.474862563814223,-0.13304399542594328
1772556526811767000,2.72576708984375,-8.732008259376883,-4.460513428205251,-0.16196392830424008
1772556526821751000,2.7357509765625,-8.736144336268305,-4.451375012981892,-0.18821071471683679
1772556526831735000,2.745735107421875,-8.739390186321735,-4.443981395599246,-0.21089895013133061
1772556526841719000,2.755718994140625,-8.742876859393716,-4.436230343081057,-0.2287923159521073
1772556526851703000,2.765703125,-8.746490373715758,-4.42842814489752,-0.24148495305832474
1772556526861687300,2.775687255859375,-8.749239964684843,-4.422487648932636,-0.2505633999890648
1772556526871671300,2.78567138671875,-8.750015040710569,-4.420536222603917,-0.25783857862381265
1772556526881655300,2.7956552734375,-8.747709101855754,-4.424713800549507,-0.26434531190302224
1772556526891639300,2.805639404296875,-8.74175223927796,-4.436125129140914,-0.2700927512475289
1772556526901623300,2.815623291015625,-8.732136269670724,-4.454814924302697,-0.27350173770710823
1772556526911607000,2.82560693359375,-8.719528132510185,-4.479457198128104,-0.2732729887188412
1772556526921591000,2.835591064453125,-8.704450974887608,-4.509007410000264,-0.26789573439359665
1772556526931575000,2.845574951171875,-8.687270707505942,-4.5427141570299865,-0.2558606478806585
1772556526941559000,2.85555908203125,-8.668171454760431,-4.580091409265995,-0.23653264614688232
1772556526951543000,2.86554296875,-8.647086581155657,-4.62103716763854,-0.21045703331641852
1772556526961527000,2.875527099609375,-8.623921394145489,-4.665413484981656,-0.17966774463597684
1772556526971511000,2.885510986328125,-8.599286719104647,-4.7117894517093895,-0.14730518788998015
1772556526981495000,2.8954951171875,-8.574715172427892,-4.757214401322603,-0.11644376555508933
1772556526991479000,2.90547900390625,-8.551821788096428,-4.798805179600417,-0.09050158811225556
1772556527001463300,2.91546337890625,-8.532406309008598,-4.833527825674414,-0.0737418294312898
1772556527011447300,2.925447265625,-8.51805805018246,-4.858847560369968,-0.06837868126321119
1772556527021431300,2.935431396484375,-8.509906892430783,-4.873005849581957,-0.07538911714770365
1772556527031415300,2.945415283203125,-8.508188982596993,-4.87570458714664,-0.09277209946066141
1772556527041399300,2.9553994140625,-8.512624334695936,-4.867438278582692,-0.11683954167333431
1772556527051383000,2.965383056640625,-8.52132435850203,-4.851469725078344,-0.14373298282586036
1772556527061367000,2.975366943359375,-8.531391579008101,-4.832970191791653,-0.16777226752312854
1772556527071351000,2.98535107421875,-8.538967567220329,-4.81893289861083,-0.18519215234695002
1772556527081335000,2.9953349609375,-8.541507314831017,-4.813899288357794,-0.19852882297774777
1772556527091319000,3.005319091796875,-8.540660342612862,-4.814624680022895,-0.2165638257589191
1772556527101303000,3.015302978515625,-8.54351631656587,-4.807959084653854,-0.24948092024829238
1772556527111287000,3.025287109375,-8.55901432994902,-4.777441781315207,-0.29951469709752127
1772556527121271000,3.03527099609375,-8.59366537209153,-4.71055786408782,-0.3604854630246758
1772556527131255000,3.045255126953125,-8.647585762849449,-4.605534770341217,-0.4227215544462204
1772556527141239000,3.055239013671875,-8.713452027466893,-4.474508343549073,-0.47425702282898125
1772556527151223300,3.065223388671875,-8.778392409411072,-4.342200644774735,-0.505479551827535
1772556527161207300,3.075207275390625,-8.828990377748012,-4.237494069631397,-0.5127922859936952
1772556527171191300,3.08519140625,-8.854633353048563,-4.185442103093862,-0.49791565591190007
1772556527181175300,3.09517529296875,-8.850637561410664,-4.197130202800035,-0.46978451705742624
1772556527191159300,3.1051591796875,-8.818677658048271,-4.2671684924051165,-0.43884756353460247
1772556527201143000,3.11514306640625,-8.7647262876302,-4.379478236028552,-0.41246421819552775
1772556527211127000,3.125126953125,-8.696384572809935,-4.515539149856567,-0.39140203134659673
1772556527221111000,3.135111083984375,-8.621706640705465,-4.658009053944051,-0.3735081723354757
1772556527231095000,3.145094970703125,-8.547932379442454,-4.79330804348886,-0.3569781855560839
1772556527241079000,3.1550791015625,-8.480320147940516,-4.913092360776663,-0.3407024292660877
1772556527251063000,3.16506298828125,-8.421183483839034,-5.014855283683538,-0.3244699641285464
1772556527261046500,3.175046630859375,-8.371759819978475,-5.097839271840453,-0.3099243195667863
1772556527271030500,3.185030517578125,-8.333117662373185,-5.16138381551206,-0.29942223304109644
1772556527281014500,3.1950146484375,-8.306141392642258,-5.204869321495294,-0.2962005493145436
1772556527290998500,3.20499853515625,-8.292009406915307,-5.227154218539595,-0.2996928118770942
1772556527300982500,3.214982421875,-8.291352404311299,-5.227781410527229,-0.3068615344626829
1772556527310966500,3.224966552734375,-8.304363861575721,-5.206694198834896,-0.3134681296534836
1772556527320950500,3.234950439453125,-8.330863161444663,-5.164001889055967,-0.3165324491275474
1772556527330934500,3.2449345703125,-8.37020323818624,-5.100091434681415,-0.3148761332878843
1772556527340918500,3.25491845703125,-8.420404316160083,-5.017157715407014,-0.3087016093714163
1772556527350902500,3.264902587890625,-8.477695060133934,-4.920318220376968,-0.2992230754734948
1772556527360886500,3.274886474609375,-8.53794231582582,-4.815684125947952,-0.28827877987194805
1772556527370870500,3.28487060546875,-8.597572316402196,-4.709169624599814,-0.27541752646686507
1772556527380854500,3.2948544921875,-8.653674142852426,-4.60621076990664,-0.2590966523935087
1772556527390838500,3.304838623046875,-8.704621070757508,-4.51031235511899,-0.23884017417058348
1772556527400822500,3.314822509765625,-8.749502999535203,-4.4237814881354565,-0.21621254636952653
1772556527410806500,3.324806640625,-8.788210623592137,-4.347463679869473,-0.19313702867049723
1772556527420790500,3.33479052734375,-8.821265920975804,-4.28086910097748,-0.1726776665529236
1772556527430774500,3.3447744140625,-8.849815723633766,-4.22215913785547,-0.1565692661864683
1772556527440758500,3.354758544921875,-8.87544993110597,-4.168426963146031,-0.1448823263909202
1772556527450742500,3.364742431640625,-8.899781239286064,-4.116502130119502,-0.1366912202213425
1772556527460726500,3.3747265625,-8.923861787575483,-4.064253179705143,-0.13006961012450047
1772556527470710500,3.38471044921875,-8.948069177114963,-4.01091964892447,-0.12235824116272852
1772556527480694500,3.394694580078125,-8.971754588606952,-3.9579853465944526,-0.11113037937944754
1772556527490678500,3.404678466796875,-8.993343320080637,-3.9091257463574407,-0.0943380153368227
1772556527500662500,3.41466259765625,-9.011126229530573,-3.8684403924867508,-0.07181933236953336
1772556527510646500,3.424646484375,-9.023176148286462,-3.8406633277669546,-0.044514319308009
1772556527520630500,3.434630615234375,-9.028035278755425,-3.8294653496652837,-0.01265470939875813
1772556527530614500,3.444614501953125,-9.024729807469248,-3.8372058807894587,0.022124619315518065
1772556527540598300,3.454598388671875,-9.013272009387611,-3.863674785520136,0.05768720051210839
1772556527550582500,3.46458251953125,-8.994991087287664,-3.9053912360042333,0.09187107723401859
1772556527560566500,3.47456640625,-8.971926438042521,-3.9572213764846325,0.12376415330474264
1772556527570550500,3.484550537109375,-8.946382246941328,-4.01360377344191,0.153650346532464
1772556527580534500,3.494534423828125,-8.92064282552898,-4.069282990565895,0.18289355654837564
1772556527590518500,3.5045185546875,-8.897115234947204,-4.119054737211764,0.21240646861745044
1772556527600502500,3.51450244140625,-8.877553625386954,-4.159399607081711,0.2425329277412966
1772556527610486500,3.524486572265625,-8.862556547263264,-4.189370090192556,0.2732318895234726
1772556527620470500,3.534470458984375,-8.852256687045097,-4.20903925178051,0.30318381406432016
1772556527630454500,3.54445458984375,-8.846372889703511,-4.2192686771109695,0.3314282223012298
1772556527640438500,3.5544384765625,-8.844075134155153,-4.221982612244784,0.3571807223908603
1772556527650422500,3.564422607421875,-8.844237631240487,-4.219700931048393,0.37942839269731193
1772556527660406500,3.574406494140625,-8.845366343009472,-4.2156329509571195,0.39789570421483367
1772556527670390500,3.584390625,-8.846027437266708,-4.212827830408513,0.4126346063263714
1772556527680374500,3.59437451171875,-8.844929120635985,-4.214039836546778,0.4236507615877315
1772556527690358500,3.604358642578125,-8.840417196169495,-4.222518911078572,0.43329460558257993
1772556527700342500,3.614342529296875,-8.830798303952813,-4.241557373547554,0.44336281246934084
1772556527710326500,3.624326416015625,-8.814930872735381,-4.273360917304456,0.45360604712944474
1772556527720310500,3.634310546875,-8.793005456653237,-4.317208242337405,0.46384117154832927
1772556527730294500,3.64429443359375,-8.766735289365053,-4.369315446193516,0.47309864657409484
1772556527740278500,3.654278564453125,-8.73897166864872,-4.423870335462689,0.4797160188872367
1772556527750262500,3.664262451171875,-8.713689343354105,-4.473444513709843,0.47989590549878774
1772556527760246500,3.67424658203125,-8.696313261139393,-4.508276757638156,0.46899731220249086
1772556527770230500,3.68423046875,-8.690601897755265,-4.5215021499142045,0.44703609415460377
1772556527780214500,3.694214599609375,-8.695248262256383,-4.515364670072496,0.4177611920924857
1772556527790198500,3.704198486328125,-8.705059462174773,-4.499257000358402,0.38601332404557614
1772556527800182500,3.7141826171875,-8.712456586688756,-4.487390621475875,0.3561059692988172
1772556527810166500,3.72416650390625,-8.709835590535402,-4.494510682614147,0.32942608869858087
1772556527820150500,3.734150634765625,-8.691770941534639,-4.531099414820969,0.30437538020275534
1772556527830134300,3.74413427734375,-8.656960324916243,-4.598674529182911,0.28215863475752995
1772556527840118500,3.754118408203125,-8.608242763498424,-4.690167694748938,0.26621854016268626
1772556527850102500,3.7641025390625,-8.55192641751468,-4.792473638491332,0.25910300906905903
1772556527860086500,3.77408642578125,-8.495238315609097,-4.892098380325734,0.2620740607690997
1772556527870070500,3.784070556640625,-8.443761226350068,-4.97956594363749,0.2778505805663764
1772556527880054500,3.794054443359375,-8.400462767371534,-5.050390707445144,0.310096461263299
1772556527890038500,3.80403857421875,-8.366890168115496,-5.102678528565168,0.3580629485854879
1772556527900022500,3.8140224609375,-8.343879879406094,-5.135891062337159,0.41554797302242363
1772556527910006500,3.824006591796875,-8.331721824100613,-5.150429875299334,0.4752587106848135
1772556527919990500,3.833990478515625,-8.330948501640558,-5.146327116155624,0.5300904076013714
1772556527929974500,3.843974609375,-8.34200064153075,-5.12356232663989,0.574903691589646
1772556527939958500,3.85395849609375,-8.364740296605229,-5.082550517293811,0.6076107600575312
1772556527949942500,3.863942626953125,-8.397505086609721,-5.025614578106999,0.6288820596124977
1772556527959926500,3.873926513671875,-8.437257251283526,-4.957027364093065,0.6410551663566381
1772556527969910500,3.88391064453125,-8.480825759375096,-4.881674893727898,0.6443783924952149
1772556527979894300,3.893894287109375,-8.525064714074134,-4.80484387524277,0.6380672365870327
1772556527989878500,3.90387841796875,-8.566749308115243,-4.732096618939936,0.6232596166208386
1772556527999862500,3.913862548828125,-8.603134042182564,-4.668220359095931,0.6034799803957343
1772556528009846500,3.923846435546875,-8.633041689190268,-4.615528925611079,0.5812658105000853
1772556528019830500,3.93383056640625,-8.656654035446048,-4.574091876590252,0.5571420075908303
1772556528029814500,3.943814453125,-8.674185015961527,-4.543748760774731,0.5322028697106987
1772556528039798500,3.953798583984375,-8.686663973784446,-4.522572994016111,0.5085086903903633
1772556528049782500,3.963782470703125,-8.695957287308573,-4.506994024351239,0.4875680110292509
1772556528059766500,3.9737666015625,-8.703934257537126,-4.493428440335393,0.47011597750149664
1772556528069750500,3.98375048828125,-8.71231688595712,-4.478529269628226,0.4568324983626604
1772556528079734500,3.993734619140625,-8.722032808807493,-4.460515474031865,0.44757600971758366
1772556528089717500,4.003717529296875,-8.733285439705849,-4.438995716141164,0.4420706902995705
1772556528099701500,4.013701416015625,-8.745331851330398,-4.41531848795563,0.44103911876212804
1772556528109685500,4.023685546875,-8.757199983778595,-4.391326786993444,0.4450617984069511
1772556528119669500,4.03366943359375,-8.767865754699706,-4.369088651700317,0.45384924476817246
1772556528129653500,4.043653564453125,-8.776190515452623,-4.351088884629309,0.46571014375798403
1772556528139637500,4.053637451171875,-8.781016912695765,-4.3399461438462135,0.4785299143752083
1772556528149621500,4.06362158203125,-8.78137931626737,-4.337651603168249,0.4924873472528532
1772556528159605500,4.07360546875,-8.777116982647776,-4.344255823738873,0.5099417554007842
1772556528169589500,4.083589599609375,-8.767887382009626,-4.360239867073298,0.5318263280158863
1772556528179573500,4.093573486328125,-8.753184902918338,-4.386286454738676,0.5591339851256459
1772556528189557500,4.1035576171875,-8.733551397165655,-4.421139449194073,0.5907495320297778
1772556528199541500,4.11354150390625,-8.710126682436465,-4.462555163165927,0.6242419056564569
1772556528209525500,4.123525390625,-8.684412395465374,-4.507804171690345,0.6565536911964416
1772556528219509500,4.133509521484375,-8.658542041149735,-4.553509691810608,0.6823396551642567
1772556528229493500,4.143493408203125,-8.635007436305283,-4.59572912338078,0.6973550726622343
1772556528239477500,4.1534775390625,-8.616051975944638,-4.630780855278671,0.6999312798257917
1772556528249461500,4.16346142578125,-8.602966868922113,-4.65633264516443,0.6913141119975597
1772556528259445500,4.173445556640625,-8.596020995306969,-4.671703232775628,0.6737965754855424
1772556528269429800,4.1834296875,-8.594218329799174,-4.678391624498367,0.6499542198661714
1772556528279413800,4.193413818359375,-8.594550338232517,-4.681074872232974,0.6258053555808961
1772556528289397800,4.203397705078125,-8.593044609844684,-4.686233862431347,0.6076025767510757
1772556528299381800,4.2133818359375,-8.58546160736978,-4.700987779448926,0.6007873437782749
1772556528309365800,4.22336572265625,-8.569062845754623,-4.7297892187803985,0.6088045364193618
1772556528319349500,4.233349609375,-8.545649821463227,-4.7694481522127985,0.6281864054985344
1772556528329333500,4.24333349609375,-8.521499130547046,-4.810005495789647,0.6467450485613196
1772556528339317500,4.2533173828125,-8.504597095584868,-4.8391313447698945,0.6519378679640591
1772556528349301500,4.263301513671875,-8.503197165659069,-4.844053019081056,0.6333821475107222
1772556528359285500,4.273285400390625,-8.521676240679621,-4.817296529580652,0.5874335028169676
1772556528369269500,4.28326953125,-8.556510238173603,-4.76273988674581,0.5223300027329474
1772556528379253500,4.29325341796875,-8.59866887946725,-4.693621634595096,0.45076797415930775
1772556528389237800,4.30323779296875,-8.636398598402739,-4.629686922562122,0.3860091593271121
1772556528399221800,4.3132216796875,-8.659265094727278,-4.5904994060337545,0.33887042806595563
1772556528409205800,4.323205810546875,-8.659953076991439,-4.590875253608822,0.3153725385027006
1772556528419189800,4.333189697265625,-8.634742647889256,-4.63802804992795,0.3167030929867178
1772556528429173800,4.343173828125,-8.584125974851846,-4.729426815208792,0.3401240813888609
1772556528439157800,4.35315771484375,-8.51433113861382,-4.851347852264344,0.3754621924800798
1772556528449141800,4.363141845703125,-8.434318275222182,-4.986181562384963,0.41310467152353375
1772556528459125500,4.37312548828125,-8.352277120873332,-5.119278365710377,0.45038047267906367
1772556528469109500,4.383109619140625,-8.274877654850483,-5.239940050354599,0.4897055710472166
1772556528479093500,4.393093505859375,-8.20552062550783,-5.343886162519454,0.5316976966675371
1772556528489077500,4.403077392578125,-8.146092284983396,-5.429627924951911,0.575064508174546
1772556528499061500,4.4130615234375,-8.097685104689,-5.496920422980189,0.6178560770768672
1772556528509049600,4.423049560546875,-8.060738645085692,-5.546222506287694,0.6590122633296996
1772556528519033600,4.43303369140625,-8.035482623276113,-5.578198191741109,0.6964990403547883
1772556528529017600,4.443017578125,-8.022897282469271,-5.592254774144291,0.7281438133534044
1772556528539001600,4.453001708984375,-8.023640794312954,-5.587741096112132,0.754143493137136
1772556528548985600,4.462985595703125,-8.036575094687938,-5.565945443889499,0.7772342266716062
1772556528558969900,4.472969970703125,-8.060143017280101,-5.52855007147491,0.7997591430168598
1772556528568953600,4.48295361328125,-8.092797917169332,-5.477090517872572,0.8237018902707844
1772556528578937600,4.4929375,-8.13183754965961,-5.414902649506926,0.8499597825992852
1772556528588921600,4.502921630859375,-8.173950598245858,-5.346576716777682,0.8780833957344293
1772556528598905600,4.512905517578125,-8.215811133375764,-5.277273463448882,0.9062062051519751
1772556528608889600,4.5228896484375,-8.255242980054021,-5.210888143393397,0.9316567266203463
1772556528618873600,4.53287353515625,-8.290799446603655,-5.150309463790059,0.9525457123268395
1772556528628857600,4.542857666015625,-8.32182528398633,-5.097001651972532,0.9685955143738537
1772556528638841600,4.552841552734375,-8.348261455491185,-5.051413620752096,0.9798645118851214
1772556528648825600,4.56282568359375,-8.370820493301748,-5.01246517367661,0.9873922039762139
1772556528658809600,4.5728095703125,-8.390816402626037,-4.977908824080228,0.992475060198456
1772556528668793600,4.582793701171875,-8.410159400999545,-4.944293554726243,0.9967776527632027
1772556528678777600,4.592777587890625,-8.430501931804418,-4.908518476989865,1.0017316219087689
1772556528688761600,4.60276171875,-8.452629592460394,-4.869001874637603,1.008097795939818
1772556528698745600,4.61274560546875,-8.476298052817583,-4.826241175797581,1.0149651974912732
1772556528708729900,4.622729736328125,-8.501173550876974,-4.781282674652338,1.019692372143641
1772556528718713600,4.632713623046875,-8.526476334437728,-4.735666878642141,1.0212971039265393
1772556528728697600,4.642697509765625,-8.551393333551287,-4.690792256388068,1.0200629590217023
1772556528738681600,4.652681640625,-8.57501620120108,-4.648127419137954,1.0170541325945406
1772556528748665600,4.66266552734375,-8.59627818493843,-4.609248530167341,1.0145048134379089
1772556528758649600,4.672649658203125,-8.614101426398754,-4.575967315073311,1.0139834199123083
1772556528768633600,4.682633544921875,-8.627406898173689,-4.550435106670856,1.0157640927840024
1772556528778617600,4.69261767578125,-8.63493963176608,-4.535165056824684,1.0200383360370993
1772556528788601600,4.7026015625,-8.636064836403728,-4.531671077229082,1.0260239132527262
1772556528798585600,4.712585693359375,-8.631046131458879,-4.539969242236018,1.0315567051995544
1772556528808569600,4.722569580078125,-8.621282862335443,-4.557379811242223,1.0364167124513537
1772556528818553600,4.7325537109375,-8.609210147225856,-4.579119933885336,1.0409333130929619
1772556528828537600,4.74253759765625,-8.597219849702716,-4.600611342464387,1.045262355273217
1772556528838521600,4.752521484375,-8.587446059185266,-4.617925173097849,1.0492470409952104
1772556528848505900,4.762505859375,-8.58117180122137,-4.628889926965535,1.0522633200764655
1772556528858489600,4.772489501953125,-8.578622701260446,-4.63316979624182,1.0542057593811303
1772556528868473600,4.7824736328125,-8.57921365289092,-4.63181808937192,1.0553377590857445
1772556528878457600,4.79245751953125,-8.581918820196389,-4.626607368986308,1.0562024130910634
1772556528888441600,4.802441650390625,-8.58544290266931,-4.619867247076332,1.057064144486934
1772556528898425600,4.812425537109375,-8.588085526132582,-4.6147269615784285,1.0580493561320006
1772556528908409600,4.82240966796875,-8.58831407419145,-4.614392030535638,1.0576523927036672
1772556528918393600,4.8323935546875,-8.584607036367059,-4.622051020856201,1.0543015479058027
1772556528928377600,4.842377685546875,-8.57516642332673,-4.6410772083655,1.0475257701605558
1772556528938361600,4.852361572265625,-8.559069859528542,-4.673203115944564,1.0362800073944032
1772556528948345600,4.862345703125,-8.536694946113228,-4.717982461130619,1.0177742635626346
1772556528958329600,4.87232958984375,-8.510004507586359,-4.7716933007910844,0.9905332054156809
1772556528968313600,4.882313720703125,-8.481820031109452,-4.828395723482966,0.9569252425853162
1772556528978297600,4.892297607421875,-8.455403148826957,-4.881842651510238,0.9187802939124405
1772556528988281600,4.902281494140625,-8.433938335993885,-4.926653853139281,0.875873537665233
1772556528998265900,4.912265869140625,-8.420067047029733,-4.958732998967171,0.8269357576254754
1772556529008249600,4.92224951171875,-8.41425339231491,-4.977155375364423,0.7737215423755347
1772556529018233600,4.932233642578125,-8.41412421297729,-4.985494749164581,0.7195446926385164
1772556529028217600,4.942217529296875,-8.416396834084392,-4.989254393959045,0.66482094960846
1772556529038201600,4.95220166015625,-8.41591518804729,-4.9965731925398105,0.6140072926942258
1772556529048185600,4.962185546875,-8.408551965802907,-5.014178407335281,0.5697852160647511
1772556529058169600,4.972169677734375,-8.392038637897372,-5.045787013041973,0.5330191910622641
1772556529068153600,4.982153564453125,-8.366229658380151,-5.091365107390284,0.5045656883856281
1772556529078138600,4.992138671875,-8.333522736042738,-5.146655617457628,0.48447453852593897
1772556529088122600,5.00212255859375,-8.297874499556421,-5.20511949686408,0.4715785243347287
1772556529098106600,5.012106689453125,-8.262963929694891,-5.26082735556066,0.46636944791693236
1772556529108090600,5.022090576171875,-8.23125829335451,-5.309821980354189,0.471760566370748
1772556529118074600,5.03207470703125,-8.204909800133109,-5.3488879163295024,0.4891111122854054
1772556529128058600,5.04205859375,-8.186173535481094,-5.374992663922906,0.5161306366361678
1772556529138042600,5.052042724609375,-8.177000048944354,-5.385622779008746,0.549652857411839
1772556529148026600,5.062026611328125,-8.178840123853087,-5.379017681655287,0.5857676154313609
1772556529158010600,5.0720107421875,-8.19226074644029,-5.354765283930301,0.6194649005129933
1772556529167994600,5.08199462890625,-8.217405709090828,-5.313050879272819,0.645078138262406
1772556529177978600,5.091978515625,-8.253094862109423,-5.2559571191757914,0.6570546264559031
1772556529187962600,5.101962646484375,-8.296865614774823,-5.187256507915258,0.6517503825679422
1772556529197946600,5.111946533203125,-8.345327155604958,-5.112086992901563,0.62647419475317
1772556529207930600,5.1219306640625,-8.394756664684415,-5.035909762150049,0.5814269924111664
1772556529217914600,5.13191455078125,-8.441661039200424,-4.963704942160844,0.5199850470419973
1772556529227898600,5.141898681640625,-8.48355898373127,-4.899122287613153,0.4452104130974039
1772556529237882600,5.151882568359375,-8.519322371029853,-4.843793491362035,0.359433688949421
1772556529247866600,5.16186669921875,-8.548281923532485,-4.798561141711473,0.26658046881025654
1772556529257850400,5.171850341796875,-8.570873694568872,-4.762449963888526,0.17199545644242314
1772556529267834400,5.18183447265625,-8.58855489721,-4.732935700112581,0.08018384517752565
1772556529277818400,5.191818359375,-8.603079097124933,-4.7071641299963,-0.00461495358482498
1772556529287802400,5.20180224609375,-8.616001122540235,-4.68275887979716,-0.08173675544164143
1772556529297786400,5.211786376953125,-8.628238088300824,-4.658427863878011,-0.151456718078861
1772556529307770400,5.221770263671875,-8.639981717586517,-4.634183941720426,-0.2131524098802358
1772556529317754600,5.231754638671875,-8.651254806751012,-4.610390685939788,-0.2654742976666428
1772556529327738600,5.241738525390625,-8.662088919976354,-4.5874394339412445,-0.3065931293174624
1772556529337722600,5.25172265625,-8.672119900125265,-4.566482862891257,-0.33458675939738747
1772556529347706600,5.26170654296875,-8.68098651266992,-4.548499170172215,-0.3493007097307592
1772556529357690600,5.271690673828125,-8.688097805979847,-4.53458433432728,-0.353389476881735
1772556529367674600,5.281674560546875,-8.692644217237829,-4.526099414576589,-0.35034167015105483
1772556529377658600,5.29165869140625,-8.693737857693433,-4.524590471318364,-0.3426215972930193
1772556529387642600,5.301642578125,-8.690922215750813,-4.530782019434869,-0.3320663740742951
1772556529397626400,5.31162646484375,-8.68372850485444,-4.545419908857346,-0.31999607011750336
1772556529407610400,5.3216103515625,-8.671856865274906,-4.568802538010478,-0.30874760393761097
1772556529417594400,5.331594482421875,-8.654669583630561,-4.601830947387218,-0.3003811412011273
1772556529427578400,5.341578369140625,-8.631708394759892,-4.644968662846088,-0.297093808359839
1772556529437562400,5.351562255859375,-8.602754102954268,-4.698104625228047,-0.3013619689320214
1772556529447546400,5.36154638671875,-8.568252113893628,-4.759940903677046,-0.31370182881150394
1772556529457530600,5.371530517578125,-8.52995950037837,-4.826928573539853,-0.33306733127776533
1772556529467514600,5.3815146484375,-8.490668523475527,-4.8939706039384,-0.35774759902600195
1772556529477498600,5.39149853515625,-8.454104925709963,-4.954843590313196,-0.3847337690964341
1772556529487482600,5.401482666015625,-8.424206631052494,-5.003378780901432,-0.4114840115191415
1772556529497467400,5.41146728515625,-8.403367841163277,-5.036284440681338,-0.43547129203453655
1772556529507451600,5.42145166015625,-8.392650632315874,-5.052276375061274,-0.45640649150293316
1772556529517435600,5.431435546875,-8.39144301009178,-5.052480957722664,-0.4759251387042924
1772556529527419600,5.441419677734375,-8.39771317640245,-5.040229378914833,-0.49486010426618154
1772556529537403600,5.451403564453125,-8.407778643342851,-5.021484930956364,-0.5141262745438143
1772556529547387600,5.4613876953125,-8.417119887661933,-5.004058579859137,-0.5309160447705537
1772556529557371600,5.47137158203125,-8.421848085227609,-4.994861712446808,-0.5424107773290947
1772556529567355400,5.48135546875,-8.420396717375516,-4.9964825916469096,-0.5499679512429982
1772556529577339400,5.49133935546875,-8.414244039964675,-5.006050630459189,-0.5570804135967046
1772556529587323400,5.501323486328125,-8.407368308976292,-5.016058229732513,-0.5707034268882125
1772556529597307400,5.511307373046875,-8.404828561365603,-5.017154792797565,-0.5978292611576617
1772556529607291400,5.52129150390625,-8.411387481489777,-5.00054735686779,-0.6430150682527571
1772556529617275400,5.531275390625,-8.430564475646614,-4.9592438710987565,-0.7084222639910877
1772556529627259400,5.54125927734375,-8.461431323075294,-4.893468791896105,-0.7927935417879373
1772556529637243400,5.551243408203125,-8.499330553358792,-4.810974048560857,-0.8867306664399802
1772556529647227600,5.5612275390625,-8.538099552214145,-4.723831187158822,-0.9780890266451984
1772556529657211600,5.571211669921875,-8.57283359646499,-4.642637005028129,-1.0596383788891135
1772556529667195600,5.581195556640625,-8.59969237729609,-4.576731577444076,-1.126587762568146
1772556529677179600,5.5911796875,-8.616490951883792,-4.532872561973333,-1.1745358739834277
1772556529687163600,5.60116357421875,-8.621928174501656,-4.515921427172422,-1.1996649084124713
1772556529697147600,5.611147705078125,-8.615567407298087,-4.527687852811813,-1.2010114276506005
1772556529707131600,5.621131591796875,-8.598785199323297,-4.564407517921924,-1.1821440839648245
1772556529717115400,5.631115478515625,-8.574451553055644,-4.616920964491367,-1.1546454708602278
1772556529727099400,5.641099365234375,-8.548260296222567,-4.6699458677142855,-1.1354437806535511
1772556529737083400,5.65108349609375,-8.527804368171095,-4.70654862844646,-1.1381277590405194
1772556529747067400,5.6610673828125,-8.518641403028369,-4.717887476323544,-1.159597321113944
1772556529757051400,5.671051513671875,-8.522392279994488,-4.7033498324051495,-1.1906794917937367
1772556529767035400,5.681035400390625,-8.53837018584907,-4.664609182861447,-1.2280217457816005
1772556529777019400,5.691019287109375,-8.564658473315834,-4.6038215366825455,-1.2735134770207106
1772556529787003400,5.70100341796875,-8.59831115207076,-4.52439290291965,-1.3301513100437818
1772556529796987600,5.710987548828125,-8.635864929917455,-4.43115143238157,-1.3989694102041423
1772556529806971600,5.7209716796875,-8.673739610281586,-4.330597300742566,-1.4773463429570197
1772556529816955600,5.73095556640625,-8.70862738378942,-4.229868981580436,-1.5615382455989717
1772556529826939600,5.740939697265625,-8.738438000163436,-4.135663049924373,-1.6451052943408488
1772556529836923600,5.750923583984375,-8.762546605503559,-4.053480441278219,-1.719726966213435
1772556529846907600,5.76090771484375,-8.781060167315601,-3.987682857982814,-1.7781325395613907
1772556529856891400,5.770891357421875,-8.794984063249826,-3.9407214925825595,-1.813658610972762
1772556529866875400,5.78087548828125,-8.805666200783849,-3.912040172499418,-1.8238874517813324
1772556529876860700,5.790860595703125,-8.814329399710893,-3.8971076840445398,-1.8139837512739
1772556529886844400,5.800844482421875,-8.821069521620869,-3.889557122534513,-1.79734825829342
1772556529896828400,5.810828369140625,-8.824737981000542,-3.8843779663309452,-1.7905296643197535
1772556529906812400,5.8208125,-8.824271532532572,-3.8801252773225303,-1.8020105510160327
1772556529916796400,5.83079638671875,-8.81912773990333,-3.880519537337124,-1.826180531154573
1772556529926780400,5.840780517578125,-8.809510016730428,-3.8904683921605345,-1.8512616347886621
1772556529936764400,5.850764404296875,-8.796199284258485,-3.9120106541439887,-1.8690734780721365
1772556529946748400,5.86074853515625,-8.77979292385876,-3.9446713992521163,-1.8775488993421197
1772556529956732400,5.870732421875,-8.760677889022231,-3.985786376711726,-1.8800049141921102
1772556529966716400,5.88071630859375,-8.739635100993514,-4.031701740190386,-1.8800389625921845
1772556529976700700,5.89070068359375,-8.71785815347135,-4.079643348799646,-1.877722356212884
1772556529986684700,5.9006845703125,-8.695651582360266,-4.12805111361593,-1.8748919550925491
1772556529996668700,5.910668701171875,-8.672681041139363,-4.176927080465853,-1.8730381439194081
1772556530006652700,5.920652587890625,-8.648207109618186,-4.227143940530717,-1.8735415633969008
1772556530016636700,5.93063671875,-8.621566355451941,-4.279373017200827,-1.877748367436975
1772556530026620700,5.94062060546875,-8.593749543243646,-4.332396166858077,-1.883666359309107
1772556530036604400,5.9506044921875,-8.566740540286897,-4.38432976771295,-1.8865297859162091
1772556530046588400,5.96058837890625,-8.541675657135247,-4.4330143036440015,-1.8864103973202406
1772556530056572400,5.970572509765625,-8.51921715708971,-4.475813873189687,-1.8869043183170258
1772556530066556400,5.980556396484375,-8.499394850766658,-4.511370047478377,-1.8916154186174272
1772556530076540400,5.99054052734375,-8.480916360267996,-4.540808323408663,-1.9040728952609
1772556530086524400,6.0005244140625,-8.462085403069853,-4.5674689513191575,-1.923984779563546
1772556530096508400,6.01050830078125,-8.44204331651628,-4.594074341911077,-1.9485306072771549
1772556530106492400,6.020492431640625,-8.420753275728226,-4.62190313681811,-1.9746672113135455
1772556530116476400,6.030476318359375,-8.399037118482589,-4.650671258401871,-1.9994535697847604
1772556530126460700,6.040460693359375,-8.379407119861245,-4.6774756786972285,-2.019193896912783
1772556530136444700,6.050444580078125,-8.364615208920837,-4.698925586222112,-2.0306886660039423
1772556530146428700,6.0604287109375,-8.357140927517413,-4.711596559485793,-2.0321016015417874
1772556530156412700,6.07041259765625,-8.359234684926271,-4.71185462590009,-2.0228703934684393
1772556530166396700,6.080396728515625,-8.371435410329699,-4.696968899196386,-2.0069734438955784
1772556530176380400,6.09038037109375,-8.392984978836774,-4.665935463029146,-1.9892821582518516
1772556530186364400,6.100364501953125,-8.422600949421524,-4.619767586094141,-1.9717833264403044
1772556530196348400,6.110348388671875,-8.457861647894978,-4.561422364631295,-1.9566268199712036
1772556530206332400,6.12033251953125,-8.495017950856685,-4.495660144910216,-1.9478429172739384
1772556530216317400,6.1303173828125,-8.529427585458755,-4.429432353504001,-1.949199592579901
1772556530226301400,6.140301513671875,-8.556752814757823,-4.369859636072814,-1.9638455191783606
1772556530236285400,6.150285400390625,-8.57391671552658,-4.32416434508562,-1.989959472991526
1772556530246269400,6.16026953125,-8.58016525452733,-4.296731856019795,-2.02218913320601
1772556530256253400,6.17025341796875,-8.576331959974766,-4.288825612939894,-2.054965175256878
1772556530266242300,6.1802421875,-8.56408622638583,-4.298343675130606,-2.0859194087080657
1772556530276226300,6.190226318359375,-8.546656952679157,-4.3209988667920225,-2.1104523769401013
1772556530286210300,6.200210205078125,-8.528106565988063,-4.350453509335219,-2.1249334683656693
1772556530296194300,6.2101943359375,-8.512346686798333,-4.380881965346634,-2.1256077143654224
1772556530306178300,6.22017822265625,-8.50166805639565,-4.407525934383273,-2.1132306094817817
1772556530316162300,6.230162353515625,-8.497540747332572,-4.4265465689346195,-2.089945010962337
1772556530326146300,6.240146240234375,-8.500390291544795,-4.436073398953676,-2.0579104349285364
1772556530336130000,6.250130126953125,-8.50972393707931,-4.435708365033567,-2.019770527756959
1772556530346114000,6.260114013671875,-8.525194477933645,-4.424678436975181,-1.9782978229008614
1772556530356098000,6.27009814453125,-8.546642924153804,-4.402139272908866,-1.935573072157055
1772556530366082300,6.280082275390625,-8.57361977840662,-4.367531193125248,-1.8942261856377123
1772556530376066300,6.29006640625,-8.605486158266663,-4.320472797091305,-1.8572861557751892
1772556530386050300,6.30005029296875,-8.640765561440586,-4.262727295087277,-1.8266687530629335
1772556530396034300,6.310034423828125,-8.676817118030787,-4.199155278886854,-1.8028652681492268
1772556530406018300,6.320018310546875,-8.710262876036763,-4.1358752313703295,-1.787804038748145
1772556530416002300,6.330002197265625,-8.738246861505507,-4.078868272773922,-1.782207972306758
1772556530425986300,6.339986328125,-8.759331735110282,-4.032024980795383,-1.7852922020576893
1772556530435970300,6.34997021484375,-8.77345261492133,-3.99722108617872,-1.7941935936547815
1772556530445954300,6.359954345703125,-8.781706648525596,-3.973661639153957,-1.8061086339846253
1772556530455938300,6.369938232421875,-8.78578193514049,-3.9588495622083544,-1.8187724468551576
1772556530465922300,6.37992236328125,-8.787510950890184,-3.9494510347440834,-1.8308114058256149
1772556530475906300,6.38990625,-8.78841169912219,-3.942245633409917,-1.8419835188336668
1772556530485890000,6.39989013671875,-8.789875341933966,-3.9340518055602907,-1.852488107843697
1772556530495874000,6.4098740234375,-8.792577002108096,-3.923306831923127,-1.8624299484044313
1772556530505859300,6.419859375,-8.796453551280498,-3.9103085264012214,-1.8714364078111945
1772556530515843000,6.429843017578125,-8.800957292440533,-3.896657017667591,-1.8787223270356654
1772556530525827000,6.4398271484375,-8.805232485541701,-3.8847058831110592,-1.8834340118579564
1772556530535811000,6.44981103515625,-8.808711559829115,-3.876017549742758,-1.8850670198872683
1772556530545795300,6.45979541015625,-8.810732836523652,-3.872326294009387,-1.8832040024943648
1772556530555779300,6.469779296875,-8.81075387931168,-3.875030876792967,-1.877533117251098
1772556530565763300,6.479763427734375,-8.808447940456867,-3.884703252762556,-1.868343410231918
1772556530575747300,6.489747314453125,-8.80347950439453,-3.9018937492772934,-1.8558976240262388
1772556530585731300,6.4997314453125,-8.79604204787016,-3.9262577906832097,-1.8397098748132585
1772556530595715300,6.50971533203125,-8.786788481834531,-3.956337871648371,-1.8193758195757865
1772556530605699300,6.51969921875,-8.776372886282205,-3.990461675046384,-1.7949603402435779
1772556530615683300,6.529683349609375,-8.765031992578505,-4.027934204350411,-1.7664504312045872
1772556530625667300,6.539667236328125,-8.753136387601494,-4.067855295850336,-1.7336501314952968
1772556530635651300,6.5496513671875,-8.74078017937541,-4.109809646743535,-1.6966475577905773
1772556530645635300,6.55963525390625,-8.72793005015254,-4.152769667547941,-1.6577474799014627
1772556530655619000,6.569619140625,-8.715066476926207,-4.194001257124543,-1.6212209992758928
1772556530665603000,6.57960302734375,-8.702823665946722,-4.230676790831983,-1.591420027513057
1772556530675587000,6.589587158203125,-8.69225375661552,-4.260250675840676,-1.5701533676005899
1772556530685571000,6.599571044921875,-8.684090323904156,-4.281455376432836,-1.5575937457568942
1772556530695555300,6.609555419921875,-8.678236921700835,-4.295100163164735,-1.5526434298731386
1772556530705539300,6.619539306640625,-8.673867620575427,-4.303863899856806,-1.5527911677807569
1772556530715523300,6.6295234375,-8.669831496927142,-4.311320061081648,-1.554648486085236
1772556530725507300,6.63950732421875,-8.664391351699829,-4.3212031571924685,-1.5575335400022565
1772556530735491300,6.6494912109375,-8.657587516903877,-4.333675977535545,-1.5607085167765617
1772556530745475300,6.659475341796875,-8.651703719562292,-4.34437155907303,-1.563598685260117
1772556530755459300,6.669459228515625,-8.648513983610272,-4.348544753104448,-1.5696340199016035
1772556530765443300,6.679443359375,-8.649794671070575,-4.341295512628555,-1.582589801456034
1772556530775427300,6.68942724609375,-8.657688054668903,-4.318068658559024,-1.6028426081508398
1772556530785411300,6.699411376953125,-8.673350318703054,-4.275892481608689,-1.6309882139220833
1772556530795395300,6.709395263671875,-8.695790698570013,-4.216490444569289,-1.6657783722743391
1772556530805380400,6.71938037109375,-8.721873818853497,-4.146726587991417,-1.7041018193192778
1772556530815364400,6.7293642578125,-8.746980787581204,-4.077646622024476,-1.7416984133943914
1772556530825348000,6.73934814453125,-8.76619869827032,-4.021757561542094,-1.77471644750759
1772556530835332000,6.74933203125,-8.775555724680423,-3.9895474828109143,-1.8009777008369563
1772556530845316000,6.759316162109375,-8.772717286384106,-3.9881449225366112,-1.817831658873707
1772556530855300000,6.769300048828125,-8.757277725189924,-4.019872478447854,-1.8223872763514517
1772556530865284000,6.7792841796875,-8.730739846876263,-4.08118297945708,-1.8134268480435012
1772556530875268000,6.78926806640625,-8.69631793731451,-4.162870790323614,-1.793027180223912
1772556530885252400,6.79925244140625,-8.658391234502195,-4.25256801238358,-1.7658739464908837
1772556530895236400,6.809236328125,-8.621416133326292,-4.3390936186701055,-1.7360389263279734
1772556530905220400,6.819220458984375,-8.588774092918634,-4.415600519767404,-1.7046468859814106
1772556530915204400,6.829204345703125,-8.562866329202055,-4.47824285390228,-1.671242044507712
1772556530925188400,6.839188232421875,-8.544699388870596,-4.525236952528357,-1.6372918441109359
1772556530935172400,6.84917236328125,-8.5343615347296,-4.555795756921172,-1.6061692683555184
1772556530945156400,6.85915625,-8.53128110437095,-4.570889281156659,-1.5794282686851917
1772556530955140400,6.869140380859375,-8.534831490328907,-4.571861925581097,-1.557277957805991
1772556530965124400,6.879124267578125,-8.544434015932678,-4.559799147343635,-1.5398910619363189
1772556530975108000,6.889108154296875,-8.559231187570095,-4.536192938567698,-1.527383024149388
1772556530985092000,6.899092041015625,-8.577824828881024,-4.5037467129930855,-1.519071269008517
1772556530995076000,6.909076171875,-8.598896258482336,-4.465306215439736,-1.5134104667678474
1772556531005060000,6.91906005859375,-8.621015735831856,-4.424070826470851,-1.5086644412845371
1772556531015044000,6.929044189453125,-8.6427938523978,-4.383267399178445,-1.5031540072999894
1772556531025028400,6.9390283203125,-8.66325211853683,-4.3452945191368455,-1.4956129442706703
1772556531035012400,6.949012451171875,-8.68163767005503,-4.3115944941088555,-1.4865084313169121
1772556531044996400,6.958996337890625,-8.697348449406027,-4.282677319443225,-1.478238469491154
1772556531054980400,6.96898046875,-8.710228389245271,-4.258239043757319,-1.4729919471397994
1772556531064964400,6.97896435546875,-8.720500776934623,-4.237838645285367,-1.4710434434205293
1772556531074948400,6.9889482421875,-8.728884574398398,-4.220242782840132,-1.4719089742086826
1772556531084932400,6.998932373046875,-8.736775619909167,-4.202768208687007,-1.47508468163535
1772556531094916400,7.008916259765625,-8.745524743553995,-4.183047609172761,-1.4792860788479447
1772556531104900400,7.018900390625,-8.755789532458781,-4.160112723787129,-1.4832362777784467
1772556531114885400,7.028885498046875,-8.767977398380637,-4.1338773355513805,-1.4845933914758265
1772556531124869400,7.038869384765625,-8.781794326809049,-4.105224949301779,-1.4824315372668206
1772556531134853400,7.048853271484375,-8.796158367726207,-4.0762598438411946,-1.477189106568694
1772556531144837000,7.058837158203125,-8.809578405791521,-4.049935608278215,-1.469602304701507
1772556531154821000,7.068821044921875,-8.820465710508822,-4.029300524267554,-1.4609956582672894
1772556531164805000,7.07880517578125,-8.827423859083652,-4.016906029857695,-1.4530790399238467
1772556531174789000,7.0887890625,-8.829501249879598,-4.014890013860166,-1.446009832189977
1772556531184773000,7.098773193359375,-8.82623201895058,-4.0245059834673995,-1.4392220717459916
1772556531194757000,7.108757080078125,-8.817624349603056,-4.045883994799852,-1.432027337936312
1772556531204741000,7.1187412109375,-8.804774220380187,-4.076776561191678,-1.423458100903034
1772556531214725400,7.128725341796875,-8.789206064370275,-4.113489212039113,-1.4140201182112098
1772556531224709400,7.13870947265625,-8.772856987115741,-4.151882071058452,-1.4032945799268781
1772556531234693400,7.148693359375,-8.757688059556484,-4.187753010384738,-1.3914067198649047
1772556531244677400,7.158677490234375,-8.745020885685086,-4.218590923979878,-1.3778525340259073
1772556531254661400,7.168661376953125,-8.73587487167716,-4.242615065906942,-1.3620172515124083
1772556531264640500,7.178640625,-8.73078193245232,-4.258804568685591,-1.3440293210096657
1772556531274624500,7.18862451171875,-8.729725116875768,-4.266908380164206,-1.3250572017751634
1772556531284608500,7.1986083984375,-8.732074310350418,-4.267885116241872,-1.3062994559437036
1772556531294592500,7.208592529296875,-8.73708600103259,-4.262973086541891,-1.2887109000220893
1772556531304576500,7.218576416015625,-8.743721493524312,-4.254071402683854,-1.2730261318951845
1772556531314560800,7.228560791015625,-8.75112913943231,-4.242956426690519,-1.2591460751026868
1772556531324544800,7.238544677734375,-8.758270827880501,-4.231878275576234,-1.2467083260729908
1772556531334528500,7.248528564453125,-8.764579572635888,-4.2220001479014755,-1.2358192677900195
1772556531344512500,7.258512451171875,-8.769359792649745,-4.214572335988283,-1.22723001088202
1772556531354496500,7.26849658203125,-8.771990141153335,-4.2105265677288175,-1.2223119898326695
1772556531364480500,7.27848046875,-8.772143870410323,-4.209571751222014,-1.2244930601987987
1772556531374464500,7.288464599609375,-8.770217870783805,-4.210606062705814,-1.2346885101944207
1772556531384448500,7.298448486328125,-8.76776580145657,-4.210445026925206,-1.2525275337457655
1772556531394432500,7.3084326171875,-8.76601398935318,-4.206671645866334,-1.277225044889748
1772556531404416500,7.31841650390625,-8.766007559612392,-4.196814853240549,-1.3092935231931506
1772556531414400500,7.328400390625,-8.768583547580242,-4.178590629763901,-1.3497080972984432
1772556531424385500,7.338385498046875,-8.773849505284428,-4.1526323049038645,-1.394845462141931
1772556531434369500,7.34836962890625,-8.780851493000984,-4.122700107976794,-1.4388792496576905
1772556531444353500,7.358353515625,-8.787499260452389,-4.094511832107603,-1.4782450453624127
1772556531454337500,7.368337646484375,-8.791025681012869,-4.07482338129729,-1.51131247157529
1772556531464321500,7.378321533203125,-8.78912247774005,-4.069231552639604,-1.5372253498584032
1772556531474305500,7.388305419921875,-8.779853129613398,-4.082666496013105,-1.5544747369535266
1772556531484289500,7.39828955078125,-8.762701503804326,-4.117017970687151,-1.5606429041944443
1772556531494273500,7.4082734375,-8.739057008844613,-4.168451220804453,-1.5566884674802421
1772556531504257500,7.418257568359375,-8.712136268693207,-4.228362084148824,-1.5459667285881935
1772556531514241500,7.428241455078125,-8.686294555950164,-4.286820410597324,-1.5303066565111278
1772556531524225500,7.4382255859375,-8.665513049206137,-4.3366020941153165,-1.507698080470413
1772556531534209500,7.44820947265625,-8.652067876699567,-4.3742406276360155,-1.475848213353753
1772556531544193500,7.458193603515625,-8.64670605740547,-4.3983676454156635,-1.4349980243101714
1772556531554177500,7.468177490234375,-8.649366216525435,-4.408423175483942,-1.3873181353770196
1772556531564161500,7.47816162109375,-8.659400703805684,-4.404634012334048,-1.3357998373247681
1772556531574145500,7.4881455078125,-8.676113938197494,-4.387409905810654,-1.2829920839838682
1772556531584129500,7.498129638671875,-8.698496450397371,-4.357580292475223,-1.23208826456815
1772556531594113500,7.508113525390625,-8.725476227259636,-4.316097358486056,-1.18648912743181
1772556531604097500,7.51809765625,-8.755777257499098,-4.265170012064278,-1.146766188852489
1772556531614081500,7.52808154296875,-8.787546022203564,-4.208125936327875,-1.114043630554527
1772556531624065500,7.5380654296875,-8.818614529684185,-4.149053569634258,-1.0898523884322493
1772556531634049500,7.548049560546875,-8.846724771881103,-4.092297078667581,-1.076545674548298
1772556531644033500,7.558033447265625,-8.870387971541286,-4.041105528351665,-1.0752028816372154
1772556531654017500,7.568017578125,-8.888941280841827,-3.997466877633333,-1.08506508109048
1772556531664001500,7.57800146484375,-8.902373593866825,-3.962044266596436,-1.104686531079188
1772556531673985500,7.587985595703125,-8.911470508036016,-3.9337119060814376,-1.1322468112431465
1772556531683969500,7.597969482421875,-8.917350213724374,-3.91041403260231,-1.1661509805411099
1772556531693953500,7.60795361328125,-8.921194614192842,-3.8899128041043873,-1.2046774028122424
1772556531703937500,7.6179375,-8.9237361153692,-3.8713165324449537,-1.245080871001631
1772556531713921500,7.627921630859375,-8.925518322610854,-3.8540430338218807,-1.2852460003904997
1772556531723905500,7.637905517578125,-8.926744065013528,-3.8383904143989085,-1.3230199968591332
1772556531733889500,7.6478896484375,-8.927699173781276,-3.824455120287835,-1.3565100323982535
1772556531743873500,7.65787353515625,-8.928571280440687,-3.8125276588678356,-1.3840645404085516
1772556531753857500,7.667857421875,-8.929393702739477,-3.802818165758252,-1.4053044584445655
1772556531763842600,7.677842529296875,-8.930165271633863,-3.7950621448040005,-1.4212791494287549
1772556531773826600,7.68782666015625,-8.930699524641037,-3.789415955610573,-1.432939922736585
1772556531783810600,7.697810546875,-8.930745701870322,-3.7860616767466064,-1.4414941083312034
1772556531793794600,7.707794677734375,-8.930332444894313,-3.7849557613313194,-1.446946236257255
1772556531803778600,7.717778564453125,-8.929605299663542,-3.7858918731376527,-1.448984464086592
1772556531813762600,7.727762451171875,-8.928483602157234,-3.7890900846570728,-1.4475376262791453
1772556531823746600,7.73774658203125,-8.926170649039745,-3.79633114182651,-1.4428230188474058
1772556531833730600,7.74773046875,-8.922072566071153,-3.808806300257146,-1.435270996032655
1772556531843714600,7.757714599609375,-8.91562353606224,-3.827372761300206,-1.4259221529290078
1772556531853698600,7.767698486328125,-8.90669087254405,-3.852261118841171,-1.4146823815122247
1772556531863682600,7.7776826171875,-8.895527673494815,-3.8829450109183785,-1.400968036675453
1772556531873666600,7.78766650390625,-8.882565316069126,-3.9180616247460245,-1.3853566260457038
1772556531883650600,7.797650634765625,-8.868952970302104,-3.9546702306970953,-1.36844333903715
1772556531893634600,7.807634521484375,-8.856132651695608,-3.989272465261817,-1.3509296019174157
1772556531903618600,7.81761865234375,-8.845807657036184,-4.0178988402873275,-1.3336273155912757
1772556531913602600,7.8276025390625,-8.839410649475456,-4.037380662609636,-1.317103612422198
1772556531923586600,7.837586669921875,-8.83759103283286,-4.045947123163939,-1.3029498532548547
1772556531933570600,7.847570556640625,-8.840262882390618,-4.043191102454066,-1.293346158607304
1772556531943554600,7.857554443359375,-8.846537724876404,-4.030917311814427,-1.2887449484221636
1772556531953538600,7.86753857421875,-8.855111491954325,-4.012190107251704,-1.2882999811336397
1772556531963522600,7.8775224609375,-8.864412988784908,-3.9909067884653804,-1.2904378699451684
1772556531973506600,7.887506591796875,-8.872856992003321,-3.9714708511114116,-1.292367084442079
1772556531983490600,7.897490478515625,-8.878905624517797,-3.9572953185036774,-1.2943081355072557
1772556531993474600,7.907474609375,-8.882602140948176,-3.94711733109951,-1.3000105849325656
1772556532003458600,7.91745849609375,-8.885845068392157,-3.934998438760638,-1.314505704883486
1772556532013442600,7.927442626953125,-8.89214270723164,-3.9116330530032513,-1.3413815829798579
1772556532023426600,7.937426513671875,-8.905055964818596,-3.8675457817345857,-1.3829152242429554
1772556532033410600,7.94741064453125,-8.926632421332597,-3.7975671133622524,-1.4366966449216008
1772556532043394600,7.95739453125,-8.955857931295037,-3.704466804860532,-1.4966374650128185
1772556532053378600,7.967378662109375,-8.989093845942616,-3.598983984647691,-1.55367116548568
1772556532063362600,7.977362548828125,-9.021308016327023,-3.49696065723896,-1.5992684029258786
1772556532073346600,7.9873466796875,-9.046537734651565,-3.4180808895304797,-1.627039622426778
1772556532083327500,7.997327392578125,-9.059878277739882,-3.3778552621260283,-1.6367920778952538
1772556532093311500,8.0073115234375,-9.058344492301345,-3.386874434883892,-1.6266110217511653
1772556532103295500,8.01729541015625,-9.041322045829892,-3.44801367097944,-1.5925069459669292
1772556532113279500,8.027279541015625,-9.009711102035642,-3.5537042887240644,-1.5383996543347835
1772556532123263500,8.037263427734375,-8.967087181317806,-3.6854803648397323,-1.4761334600359202
1772556532133247500,8.04724755859375,-8.919217761161923,-3.823204827965796,-1.4145835973128675
1772556532143232500,8.057232421875,-8.871688532745837,-3.9536215984269973,-1.3536616572298108
1772556532153216500,8.067216552734376,-8.82867590497136,-4.068377273897826,-1.2935107015192508
1772556532163200500,8.077200439453126,-8.792758788415789,-4.163109275254607,-1.2354346523866058
1772556532173184500,8.0871845703125,-8.76580531503856,-4.234841217035055,-1.182016292866692
1772556532183168800,8.097168701171874,-8.749313029921055,-4.281414752161503,-1.135511950518936
1772556532193152800,8.10715283203125,-8.744124229106307,-4.302385936258733,-1.0955134098686277
1772556532203136500,8.117136474609374,-8.749795260480045,-4.299381201484799,-1.0615031498476861
1772556532213120500,8.12712060546875,-8.764168653747438,-4.276992551805079,-1.0329880531769244
1772556532223104500,8.1371044921875,-8.784162224984168,-4.241737698550522,-1.0082331858225166
1772556532233088500,8.147088623046875,-8.806228510841727,-4.200816490097344,-0.9868432648565619
1772556532243072500,8.157072509765625,-8.827307539227604,-4.16043684117496,-0.9694319651979952
1772556532253056500,8.167056396484375,-8.845310228908062,-4.125240147848427,-0.9556487929087132
1772556532263040500,8.17704052734375,-8.859405389755963,-4.097470389652252,-0.9444872743599116
1772556532273026000,8.187026123046875,-8.869940812295674,-4.0768092944175,-0.9349632208198309
1772556532283010000,8.197010009765625,-8.877922458699345,-4.061167196388542,-0.9272489931806921
1772556532292994000,8.206994140625,-8.885205016922951,-4.046287022642791,-0.9225375275541097
1772556532302978000,8.21697802734375,-8.893569525164365,-4.028085887780786,-0.9215916250061243
1772556532312962000,8.226962158203126,-8.904531648683548,-4.002985641054809,-0.9250997792575508
1772556532322946000,8.236946044921876,-8.919286150223016,-3.9681066353753205,-0.9331905120588838
1772556532332930000,8.246929931640626,-8.938234596320987,-3.922023806375265,-0.9466117191679775
1772556532342914000,8.2569140625,-8.96131561217904,-3.8645039298206565,-0.9647872811973094
1772556532352898000,8.26689794921875,-8.987842384576798,-3.797089851239323,-0.9854887815076857
1772556532362881800,8.2768818359375,-9.017063802886009,-3.7211744862943887,-1.0078710745118558
1772556532372865800,8.28686572265625,-9.047672876161336,-3.6394498505488038,-1.0316973557792604
1772556532382850000,8.29685009765625,-9.07892141638398,-3.5534102742135523,-1.0568086353559047
1772556532392834000,8.306833984375,-9.10988120279312,-3.465283662471175,-1.0827065352655947
1772556532402818000,8.316818115234375,-9.139546273216604,-3.3780800107926128,-1.10799770145379
1772556532412802000,8.326802001953125,-9.16708485300541,-3.2946588002622126,-1.1314430205795913
1772556532422786000,8.3367861328125,-9.191675104382634,-3.2183482985198495,-1.1514004245243965
1772556532432770000,8.34677001953125,-9.21260683325231,-3.152139796335995,-1.1671627148669212
1772556532442754000,8.356754150390625,-9.229500684908032,-3.098429541197419,-1.1774699546739458
1772556532452738000,8.366738037109375,-9.242050954401492,-3.059251669280231,-1.1814624583762139
1772556532462722000,8.37672216796875,-9.250492619532347,-3.0345620491817593,-1.1790705217383801
1772556532472706000,8.3867060546875,-9.255374546355009,-3.0228774566069245,-1.170743422897905
1772556532482690000,8.39668994140625,-9.257426218187808,-3.0220436361312863,-1.1565875448387115
1772556532492674000,8.406674072265625,-9.257820185941457,-3.028450580564141,-1.1365006692953408
1772556532502657800,8.41665771484375,-9.257533185693621,-3.038764177046716,-1.1110242096681147
1772556532512643000,8.42664306640625,-9.256929959103465,-3.051246934261918,-1.0814433103967458
1772556532522627000,8.436626953125,-9.255869051873683,-3.065884823684394,-1.0486284707054496
1772556532532610800,8.44661083984375,-9.253340994700789,-3.085089290370047,-1.0140445024497806
1772556532542594800,8.4565947265625,-9.247942350527644,-3.112120505158603,-0.9801283504530787
1772556532552580000,8.466580078125,-9.238225843155384,-3.149959821948409,-0.9504317158475518
1772556532562563800,8.476563720703124,-9.223786398914456,-3.198723268334567,-0.9275301482096314
1772556532572547800,8.4865478515625,-9.204994020161033,-3.25661811568141,-0.9126366035256535
1772556532582531800,8.49653173828125,-9.183227594032884,-3.319815453350544,-0.9041807637389748
1772556532592515800,8.506515869140625,-9.160352329879998,-3.3834728097468614,-0.9002459815733134
1772556532602499800,8.516499755859375,-9.138777626931667,-3.4415129107832905,-0.8995105069056153
1772556532612484000,8.526484130859375,-9.1210929171592,-3.487928624999523,-0.9002225276324898
1772556532622468000,8.536468017578125,-9.108362614923715,-3.520784308157861,-0.9012154111273586
1772556532632452000,8.5464521484375,-9.100329530593752,-3.5409462216988206,-0.9033756579011678
1772556532642436000,8.55643603515625,-9.096315034255385,-3.549570842181146,-0.9099351625472306
1772556532652420000,8.566420166015625,-9.095451695424318,-3.5483927383124825,-0.9230646932333707
1772556532662404000,8.576404052734375,-9.096706079399585,-3.540149226102233,-0.942163288391754
1772556532672388000,8.58638818359375,-9.09893544588685,-3.527453702919185,-0.9678987642813474
1772556532682372000,8.5963720703125,-9.101011083117127,-3.512794478447735,-1.0011274454705417
1772556532692356000,8.606356201171875,-9.101952163359522,-3.498995962458849,-1.040135586844012
1772556532702340000,8.616340087890626,-9.100902946567535,-3.4887574770390986,-1.0828305269714444
1772556532712323800,8.62632373046875,-9.096703156790136,-3.485515134117007,-1.1276369062948972
1772556532722307800,8.636307861328126,-9.087871031036972,-3.493518407830596,-1.1731630512602627
1772556532732291800,8.646291748046876,-9.073518680557608,-3.515314352314174,-1.2182828804470598
1772556532742275800,8.65627587890625,-9.05383841305375,-3.5509342394888397,-1.2606614481016993
1772556532752260000,8.666260009765624,-9.030055970928073,-3.5973014383882282,-1.299190062329918
1772556532762244000,8.676244140625,-9.00417392617464,-3.649864861579239,-1.3318125212542713
1772556532772228000,8.68622802734375,-8.978472498685122,-3.7040699144974347,-1.3554643227376042
1772556532782212000,8.696212158203124,-8.95467661255598,-3.7564337234631178,-1.3687069584093987
1772556532792196000,8.706196044921874,-8.933924916428326,-3.804301097792387,-1.372100692500919
1772556532802180000,8.71618017578125,-8.916478107064961,-3.8466768889680503,-1.3674357694298027
1772556532812164000,8.7261640625,-8.902619093060492,-3.8827845596596595,-1.3556335418246686
1772556532822148000,8.736148193359375,-8.892730151730776,-3.9117166396334766,-1.337238053434342
1772556532832132000,8.746132080078125,-8.887510371255875,-3.931652635464072,-1.3132578967794775
1772556532842116000,8.7561162109375,-8.887150890293716,-3.941125397208333,-1.28703580641672
1772556532852099800,8.766099853515625,-8.891028023988008,-3.940360550315678,-1.2623643064968286
1772556532862083800,8.776083740234375,-8.897741842412948,-3.931947234496474,-1.2411156206324696
1772556532872067800,8.78606787109375,-8.90566737471521,-3.9196652605503797,-1.2229900352247058
1772556532882051800,8.7960517578125,-8.913330456689,-3.9067148858234284,-1.2085145698223263
1772556532892035800,8.806035888671875,-8.919383765378594,-3.895772343787551,-1.1991390579074621
1772556532902020000,8.81602001953125,-8.923280188295244,-3.8879341975077986,-1.1955846533615142
1772556532912004000,8.826004150390625,-8.92459360898137,-3.8840865821689365,-1.198282733339071
1772556532921988000,8.835988037109376,-8.923466650778055,-3.8840830750375983,-1.2066608317144214
1772556532931972000,8.84597216796875,-8.920655100488663,-3.8871602905258533,-1.2174876384161413
1772556532941956000,8.8559560546875,-8.916881427168846,-3.8923034986332055,-1.2286505452044307
1772556532951940000,8.865940185546876,-8.912877452224492,-3.898018953670561,-1.23953405052945
1772556532961924000,8.875924072265626,-8.90939487080574,-3.902741598278284,-1.2496717059232294
1772556532971908000,8.885908203125,-8.90736015010774,-3.9047473851427434,-1.2578826310381293
1772556532981892000,8.89589208984375,-8.907830105707049,-3.9019910721719264,-1.263096712424606
1772556532991876000,8.9058759765625,-8.911621899205446,-3.8927085723027584,-1.264991001738608
1772556533001859800,8.91585986328125,-8.918781707832217,-3.876429345414042,-1.2645192925736308
1772556533011843800,8.92584375,-8.928409367877244,-3.854480548456311,-1.2636705667898058
1772556533021827800,8.935827880859375,-8.939219515705108,-3.8292961305782196,-1.263814797566086
1772556533031811800,8.945811767578125,-8.950047783711552,-3.8035610930800434,-1.2648932404525577
1772556533041796000,8.955796142578125,-8.960043108025193,-3.7793069417893883,-1.2668285924293101
1772556533051780000,8.965780029296875,-8.968878156387806,-3.758164200517535,-1.2672047322653233
1772556533061764900,8.975764892578125,-8.976399784064292,-3.740736972637474,-1.2655097649157045
1772556533071748900,8.985748779296875,-8.982345540726184,-3.727775491994619,-1.2615620502032339
1772556533081732900,8.99573291015625,-8.986278203999996,-3.720722066351771,-1.2543588408261537
1772556533091717000,9.005717041015625,-8.987771657428144,-3.7207843179330227,-1.2434252127490937
1772556533101701000,9.015701171875,-8.986838760492205,-3.7278862588927146,-1.2288115809850395
1772556533111685000,9.02568505859375,-8.983730857604742,-3.741039462715387,-1.2114400288149714
1772556533121669000,9.035669189453126,-8.978725596663356,-3.7590062042996286,-1.1927873507931828
1772556533131653000,9.045653076171876,-8.972612082219124,-3.7796161538690325,-1.173506969327107
1772556533141637000,9.05563720703125,-8.966043225222826,-3.8008106253281233,-1.155113745959103
1772556533151621000,9.06562109375,-8.96010389830172,-3.819895557287335,-1.1381201602559536
1772556533161605000,9.075605224609374,-8.95583338137567,-3.8339550622999665,-1.1243755664113908
1772556533171588900,9.0855888671875,-8.9540237016052,-3.841002350462973,-1.114695518592
1772556533181572900,9.09557275390625,-8.954998684117198,-3.8404403326660392,-1.108783737264946
1772556533191556900,9.105556884765624,-8.957689822897315,-3.834586638201773,-1.107305627536401
1772556533201540900,9.115540771484374,-8.960407849684357,-3.8276331658020615,-1.10936869754605
1772556533211524900,9.12552490234375,-8.961605535036325,-3.824060568012297,-1.112012709248811
1772556533221508900,9.1355087890625,-8.960282177478074,-3.8265605681344863,-1.1140732219751923
1772556533231493000,9.1454931640625,-8.957055032125115,-3.832966343523562,-1.1179982133992015
1772556533241477000,9.15547705078125,-8.954268616276979,-3.837093652586639,-1.126129278210923
1772556533251461000,9.165461181640625,-8.954501255989074,-3.8318437692344185,-1.142043105853349
1772556533261445000,9.175445068359375,-8.960395574724673,-3.809625215424597,-1.169810379831493
1772556533271431400,9.185431396484375,-8.973876403066516,-3.7646778201952573,-1.2112505706574768
1772556533281415400,9.19541552734375,-8.995208529430627,-3.6954569844529033,-1.264993485956639
1772556533291399400,9.2053994140625,-9.021734717306494,-3.6073978849887847,-1.3286705699667334
1772556533301383400,9.215383544921876,-9.04932765763104,-3.511271214403212,-1.3967926506869495
1772556533311367200,9.2253671875,-9.07336495130062,-3.4212665338292716,-1.4626576001301408
1772556533321351200,9.23535107421875,-9.089478466233611,-3.352943815970421,-1.5197142430871724
1772556533331335400,9.24533544921875,-9.09516527969837,-3.3183146933987735,-1.5611336103208362
1772556533341319400,9.2553193359375,-9.08923647417128,-3.3246064870193597,-1.5821360663391648
1772556533351303400,9.265303466796874,-9.07166691521108,-3.3725191617950796,-1.5815692262366414
1772556533361287400,9.275287353515624,-9.043220572927593,-3.45841991418153,-1.558806628677994
1772556533371271400,9.285271484375,-9.00609408058226,-3.5712981053426858,-1.518711057393998
1772556533381255400,9.29525537109375,-8.964331745129822,-3.692508656041324,-1.4753046079963446
1772556533391239400,9.305239501953125,-8.922526155057549,-3.8077129520624875,-1.4353501987487076
1772556533401223400,9.315223388671875,-8.884292578253149,-3.9095398801162835,-1.3982934106387197
1772556533411207400,9.32520751953125,-8.85157981069684,-3.994661172562837,-1.364773418352753
1772556533421191400,9.33519140625,-8.825154160585999,-4.062173158560693,-1.3363332135491073
1772556533431175400,9.345175537109375,-8.805592551025748,-4.111446892556548,-1.3145055587530134
1772556533441159400,9.355159423828125,-8.793124114596843,-4.1425168613418935,-1.3003496076285839
1772556533451143200,9.36514306640625,-8.787522641327977,-4.156207240781188,-1.2945134488210082
1772556533461127200,9.375127197265625,-8.78840877651274,-4.15395595472306,-1.2957244320459662
1772556533471111400,9.385111328125,-8.794646794119476,-4.13866310852319,-1.3023185696139932
1772556533481095400,9.395095458984375,-8.804864821273087,-4.113532758919894,-1.3128548689365387
1772556533491079400,9.405079345703125,-8.817419182419776,-4.082586708775162,-1.3251349431864916
1772556533501063400,9.4150634765625,-8.831240202501416,-4.048715418833494,-1.3369685888431966
1772556533511047400,9.42504736328125,-8.845240086281299,-4.014981783796847,-1.3461166486777365
1772556533521031400,9.435031494140626,-8.858376046708226,-3.9839980319902297,-1.3517851958334446
1772556533531015400,9.445015380859376,-8.8704721426934,-3.9564489308074116,-1.3533724650248884
1772556533540999400,9.45499951171875,-8.881765105602145,-3.931695305562019,-1.3514438350498676
1772556533550983400,9.4649833984375,-8.892585774824022,-3.90867011154443,-1.3470721958369016
1772556533560967400,9.474967529296874,-8.902854655382036,-3.8869852262198923,-1.341978087568283
1772556533570951400,9.484951416015624,-8.912705018267035,-3.8655578227877614,-1.3384845463640986
1772556533580935400,9.494935302734374,-8.922459519562125,-3.8431642046719787,-1.3379802501037716
1772556533590919400,9.50491943359375,-8.93246594979167,-3.8185949960827825,-1.3415543091982602
1772556533600903200,9.514903076171874,-8.942903172653914,-3.791460320919752,-1.3489621012367308
1772556533610887200,9.52488720703125,-8.953728518050909,-3.761841719986498,-1.3600266622170805
1772556533620871400,9.534871337890625,-8.96488002666235,-3.729634563864767,-1.3751850683823228
1772556533630855400,9.54485546875,-8.975779606339335,-3.696111064447462,-1.3944620157822967
1772556533640839400,9.55483935546875,-8.985459288832544,-3.663649056781828,-1.4175982689589262
1772556533650823400,9.564823486328125,-8.992885054919123,-3.6349981318369506,-1.4440192428946494
1772556533660807400,9.574807373046875,-8.997337358152866,-3.612225451275706,-1.4731369085684418
1772556533670791400,9.58479150390625,-8.998477760359645,-3.59647784704566,-1.5043690821781754
1772556533680775400,9.594775390625,-8.99615720845759,-3.588374035567045,-1.5372431777760385
1772556533690759400,9.604759521484375,-8.99050254369676,-3.5884362871482964,-1.56983173443079
1772556533700743400,9.614743408203125,-8.98119812425673,-3.5975972064644095,-1.6018004056215285
1772556533710728400,9.624728515625,-8.96819601934254,-3.616388708434999,-1.632045467890054
1772556533720712400,9.63471240234375,-8.951499736085534,-3.6450352494657037,-1.6597450834594667
1772556533730696400,9.644696533203126,-8.931459403097628,-3.682616207580268,-1.684564175156504
1772556533740680400,9.654680419921876,-8.908925499728321,-3.7266973413690923,-1.7067963191002606
1772556533750664400,9.66466455078125,-8.885326597476006,-3.773628311631083,-1.7265816544137893
1772556533760648400,9.6746484375,-8.86228474458456,-3.8200218140155076,-1.7429074969232081
1772556533770632200,9.684632080078124,-8.840877214896679,-3.8637835065916177,-1.7551207895472645
1772556533780616200,9.6946162109375,-8.821755165797471,-3.9037951989844437,-1.7627846021734177
1772556533790600200,9.70460009765625,-8.805151821520925,-3.939906376807391,-1.7654527984693646
1772556533800584200,9.714584228515625,-8.790867860102653,-3.9723429577708242,-1.7639491159081457
1772556533810568400,9.724568359375,-8.778234003978968,-4.00155794633925,-1.76083142227903
1772556533820552400,9.734552490234375,-8.766866222268343,-4.027509256936609,-1.7582982505396008
1772556533830536400,9.744536376953125,-8.756022756692767,-4.050890424785018,-1.7586166688390075
1772556533840520400,9.7545205078125,-8.74505069630146,-4.073290764902532,-1.7614697201825678
1772556533850504400,9.76450439453125,-8.733291284924745,-4.0967467515528195,-1.765408959327638
1772556533860488400,9.774488525390625,-8.719763110309838,-4.122507800275087,-1.7723006185375152
1772556533870472400,9.784472412109375,-8.70584798220396,-4.147631720137596,-1.7820615495733916
1772556533880456400,9.79445654296875,-8.694870076593757,-4.166880025964975,-1.7907354160249231
1772556533890440400,9.8044404296875,-8.68893191871643,-4.176992254656553,-1.795990706204623
1772556533900424400,9.814424560546875,-8.68876240736842,-4.175213846807182,-1.8009385378703473
1772556533910408400,9.824408447265625,-8.694200799030066,-4.15972840064466,-1.8105035079427063
1772556533920392200,9.83439208984375,-8.704796427324414,-4.131337587940693,-1.8245415317758917
1772556533930376200,9.844376220703126,-8.718739027959108,-4.095491490794718,-1.8387294854737817
1772556533940360200,9.854360107421876,-8.732198228991031,-4.0602363452792165,-1.8529931347563862
1772556533950344400,9.864344482421876,-8.740447586420178,-4.033483362910151,-1.87242395754382
1772556533960328400,9.874328369140626,-8.739367389968038,-4.022234239143133,-1.9014396241478622
1772556533970312400,9.8843125,-8.726779126551747,-4.03095004504025,-1.9403994694001971
1772556533980296400,9.89429638671875,-8.702447818371652,-4.061854301869869,-1.9847221568599343
1772556533990280400,9.904280517578124,-8.667965703055263,-4.112928947807848,-2.0299189968056974
1772556534000264400,9.914264404296874,-8.626114520275593,-4.1791839194819325,-2.0724270360589028
1772556534010248400,9.92424853515625,-8.5808923997581,-4.253829118360579,-2.1079865713484582
1772556534020232400,9.934232421875,-8.536129128924012,-4.330910312214494,-2.1326263609558342
1772556534030216400,9.944216552734375,-8.495244160827994,-4.404933579802512,-2.144241395425796
1772556534040200400,9.954200439453125,-8.460757369336486,-4.471730403268337,-2.142332639195025
1772556534050184400,9.964184326171875,-8.434250470682978,-4.528250747391581,-2.1280860871776937
1772556534060168200,9.974168212890625,-8.416679742679,-4.572685224662721,-2.1024834438875315
1772556534070152200,9.984152099609375,-8.408645489305258,-4.6037730213657015,-2.0664789413094518
1772556534080136200,9.99413623046875,-8.409662557393313,-4.62129961796701,-2.0227571423523125
1772556534090120200,10.0041201171875,-8.418736090686917,-4.625427511551976,-1.9750166092731058
1772556534100104400,10.0141044921875,-8.434640346783398,-4.616904597878456,-1.9265047995604574
1772556534110088400,10.02408837890625,-8.45605079908073,-4.5969130724683405,-1.8798891788579521
1772556534120072400,10.034072509765625,-8.480856739035248,-4.568012848937511,-1.8381269895359873
1772556534130056400,10.044056396484375,-8.506277596017718,-4.533771556639671,-1.8051431499533355
1772556534140040400,10.05404052734375,-8.529498897129297,-4.498898396179079,-1.7826786585584282
1772556534150024400,10.0640244140625,-8.5483093960613,-4.467136061215401,-1.772422491351515
1772556534160008400,10.074008544921876,-8.561656953412294,-4.441187673227489,-1.773208527162671
1772556534169992400,10.083992431640626,-8.569460905161499,-4.422510153025389,-1.7821701245144008
1772556534179976400,10.0939765625,-8.57236890156269,-4.410941588045657,-1.79679369315058
1772556534189960400,10.10396044921875,-8.571973180243372,-4.4045176924780005,-1.814354484282434
1772556534199944400,10.1139443359375,-8.57002087713182,-4.400712454976142,-1.8327185546211897
1772556534209928200,10.12392822265625,-8.568611594855785,-4.396500682500005,-1.8493394345544278
1772556534219912200,10.133912109375,-8.569635677206517,-4.389043352231383,-1.8622643825791776
1772556534229896200,10.143896240234374,-8.573989196240902,-4.37690867780149,-1.870766253464669
1772556534239880400,10.15388037109375,-8.5816177914232,-4.359434103648364,-1.8765815156146883
1772556534249864400,10.163864501953125,-8.591850431624055,-4.3373572963967915,-1.8809104847297071
1772556534259848400,10.173848388671875,-8.603695183196663,-4.312745417709649,-1.883357877881825
1772556534269829000,10.1838291015625,-8.615814075535535,-4.288118633714318,-1.8841892141394316
1772556534279813000,10.193813232421874,-8.627079565915464,-4.265676500281692,-1.8835823342874645
1772556534289797000,10.203797119140624,-8.636582138276099,-4.247254708406329,-1.8816649563588201
1772556534299781000,10.213781005859374,-8.643625627046823,-4.234133653287589,-1.8788911077313124
1772556534309765000,10.22376513671875,-8.647928877198696,-4.226772476869821,-1.8756600168555975
1772556534319749000,10.2337490234375,-8.649277953720093,-4.225648149015009,-1.8719705146878958
1772556534329732900,10.24373291015625,-8.64762024964094,-4.230680297963321,-1.8682593852102756
1772556534339716900,10.253716796875,-8.643328689926863,-4.241115767259895,-1.8644550244912503
1772556534349700900,10.263700927734375,-8.636963831070066,-4.25639984563142,-1.8591117637671528
1772556534359684900,10.273684814453125,-8.6288798933357,-4.276029259730875,-1.8515920357868074
1772556534369668900,10.2836689453125,-8.6192165774554,-4.299261374497413,-1.8427810989521443
1772556534379652900,10.29365283203125,-8.60789906462729,-4.325878747788072,-1.8333666432663798
1772556534389637000,10.30363720703125,-8.595093943589925,-4.355083799484372,-1.8242777662731706
1772556534399621000,10.31362109375,-8.581627143773437,-4.384337074236572,-1.8175930278122423
1772556534409605000,10.323605224609375,-8.56894068067968,-4.409712923033535,-1.8160583655908702
1772556534419589000,10.333589111328125,-8.558390645092725,-4.428403302717209,-1.8203234756894409
1772556534429573000,10.343572998046875,-8.55075386660397,-4.439383254154026,-1.8294436246037482
1772556534439557000,10.35355712890625,-8.545511289775371,-4.44413249450773,-1.8423652116276323
1772556534449541000,10.363541015625,-8.54090701085031,-4.446847306424379,-1.8571046617284417
1772556534459525000,10.373525146484376,-8.534587160179019,-4.453614900863171,-1.8698979461975394
1772556534469509000,10.383509033203126,-8.523801562270522,-4.470689369782805,-1.8783334738485513
1772556534479492900,10.393492919921876,-8.506923492705821,-4.501131854319572,-1.8821406110465526
1772556534489476900,10.403476806640626,-8.48577549073696,-4.541095615917444,-1.8816097190402448
1772556534499460900,10.4134609375,-8.464307170772551,-4.580751334479451,-1.8821815275788305
1772556534509444900,10.42344482421875,-8.4467802819103,-4.6096746466249225,-1.8902860697098076
1772556534519428900,10.433428955078124,-8.4377517568022,-4.618993971373141,-1.9077812482595442
1772556534529412900,10.443412841796874,-8.439830316641926,-4.603792018327117,-1.935135703653097
1772556534539397000,10.453397216796875,-8.452520871388911,-4.56512472628057,-1.9710178950257597
1772556534549381000,10.463381103515625,-8.471179394629598,-4.511813991853595,-2.013215407025069
1772556534559365000,10.473365234375,-8.489827980998157,-4.455663065564632,-2.0591905378669497
1772556534569349000,10.48334912109375,-8.50265648291111,-4.409755593131482,-2.1045818774715066
1772556534579333000,10.4933330078125,-8.50534177647233,-4.385672414493561,-2.1436935522846876
1772556534589317000,10.503317138671875,-8.496124450793863,-4.390018042482436,-2.171173387623578
1772556534599301000,10.513301025390625,-8.475284491860865,-4.42513699439764,-2.181306074581295
1772556534609285000,10.52328515625,-8.444955404570699,-4.487660086067021,-2.171178209929168
1772556534619268900,10.533268798828125,-8.408639059564472,-4.568246657693386,-2.143897404293716
1772556534629254100,10.543254150390625,-8.370935059592128,-4.654312245252728,-2.10599291331321
1772556534639236900,10.55323681640625,-8.336246608048677,-4.734298220637441,-2.0648966405540703
1772556534649222000,10.563221923828126,-8.30779851219952,-4.801065525747835,-2.0250021448001263
1772556534659206000,10.573205810546876,-8.287673423537612,-4.850819444476068,-1.9885691876769065
1772556534669190000,10.58318994140625,-8.276288690692185,-4.882753628875315,-1.957587627827376
1772556534679174000,10.593173828125,-8.273734914556146,-4.896764618571102,-1.933232354249805
1772556534689158000,10.603157958984376,-8.280061779490113,-4.892802436941862,-1.9161032325334846
1772556534699142000,10.613141845703124,-8.295255841490626,-4.8714475142240525,-1.9047608775250613
1772556534709126000,10.6231259765625,-8.318612751680613,-4.834935646645724,-1.8959063938096166
1772556534719110000,10.63310986328125,-8.348312308895588,-4.786807283292711,-1.887468674201518
1772556534729094100,10.64309423828125,-8.38161719712615,-4.732020631094277,-1.8779938666306435
1772556534739078100,10.653078125,-8.414941959100961,-4.676963345260918,-1.8668563865445553
1772556534749062100,10.663062255859375,-8.444739131471515,-4.628277640286088,-1.8535953384332358
1772556534759046100,10.673046142578125,-8.468809158366918,-4.590438615757226,-1.8378055024966597
1772556534769030100,10.683030029296875,-8.485901747465133,-4.565691420252621,-1.820527327698469
1772556534779014100,10.69301416015625,-8.496096393743157,-4.553472574670613,-1.803502981530875
1772556534788998000,10.702997802734375,-8.500693658405542,-4.550923474709689,-1.7882091124176978
1772556534798982000,10.71298193359375,-8.501913555589319,-4.553697615598142,-1.7753006771363318
1772556534808966000,10.7229658203125,-8.502253162807225,-4.557243033120036,-1.7645440130613743
1772556534818950000,10.732949951171875,-8.503864689657092,-4.55766330435872,-1.7556687788188456
1772556534828934000,10.742933837890625,-8.507683371162415,-4.553414122481644,-1.7481781308025122
1772556534838918000,10.75291796875,-8.513481828308105,-4.544583750294149,-1.7429199180133639
1772556534848902000,10.76290185546875,-8.520812317326664,-4.531867768844962,-1.740206275140494
1772556534858886000,10.772885986328125,-8.529235862278938,-4.516456849223375,-1.7390066900923846
1772556534868870100,10.7828701171875,-8.538751294121147,-4.499188903558254,-1.7370692922890185
1772556534878854100,10.792854248046876,-8.54915052306056,-4.480780847947299,-1.733496986760199
1772556534888838100,10.802838134765626,-8.559557350784539,-4.4622444897815585,-1.7299530305430293
1772556534898822100,10.812822265625,-8.56918267274201,-4.444866361740231,-1.727036558574438
1772556534908806100,10.82280615234375,-8.577469439572095,-4.429273948071897,-1.725959723123163
1772556534918790100,10.8327900390625,-8.584142925986647,-4.415946556726098,-1.7269297371990977
1772556534928774100,10.842774169921874,-8.588899765124916,-4.406192347691953,-1.7281946425683796
1772556534938758000,10.8527578125,-8.591645264440775,-4.401318896436691,-1.726965539164841
1772556534948742000,10.862741943359374,-8.592304605132341,-4.402265529637038,-1.7212625052176416
1772556534958726000,10.872725830078124,-8.5908164124012,-4.409355487897992,-1.7105084714911878
1772556534968710000,10.8827099609375,-8.587062028303741,-4.4231116260498755,-1.6937648419611155
1772556534978694000,10.89269384765625,-8.580933900812267,-4.44362922116071,-1.6709636659577487
1772556534988678000,10.902677978515625,-8.57093331580162,-4.4738963491305705,-1.6412613322637974
1772556534998662000,10.912661865234375,-8.559140586677193,-4.505449717518687,-1.6162996172256767
1772556535008646000,10.92264599609375,-8.549870069506763,-4.527925753220916,-1.6024981786273418
1772556535018630100,10.932630126953125,-8.545285664325952,-4.5383813885226845,-1.597365784174949
1772556535028614100,10.9426142578125,-8.546127375847101,-4.537897696658969,-1.594233185237646
1772556535038598100,10.95259814453125,-8.55052824115455,-4.5316187625199555,-1.588487042801082
1772556535048582100,10.96258203125,-8.554695882228016,-4.52720971390605,-1.5785872878164051
1772556535058566100,10.972566162109375,-8.556955643853545,-4.527854733811319,-1.5644244685597717
1772556535068550100,10.982550048828125,-8.557358379435538,-4.533489817088842,-1.5457910797603427
