time,seconds_elapsed,z,y,x
1772556524153538800,0.067538818359375,-0.37813690304756165,-0.25106897950172424,0.6592950820922852
1772556524163523000,0.077523193359375,-0.4504004716873169,-0.1335439383983612,0.4978571832180023
1772556524173507000,0.087507080078125,-0.5013366341590881,-0.0428614467382431,0.34262287616729736
1772556524183491000,0.097490966796875,-0.5259926915168762,0.017185911536216736,0.2038916051387787
1772556524193475000,0.10747509765625,-0.5082722902297974,0.046720102429389954,0.08459131419658661
1772556524203459000,0.117458984375,-0.4569166898727417,0.06269560754299164,-0.024458471685647964
1772556524213443000,0.127443115234375,-0.3803308308124542,0.08297957479953766,-0.1259709745645523
1772556524223427000,0.137427001953125,-0.298572838306427,0.11421205848455429,-0.24308402836322784
1772556524233411000,0.1474111328125,-0.18344412744045258,0.10375808924436569,-0.3338296413421631
1772556524243394000,0.15739404296875,-0.057198572903871536,0.07693872600793839,-0.37423938512802124
1772556524253377000,0.167376953125,0.04905196651816368,0.07246754318475723,-0.35231196880340576
1772556524263361000,0.177361083984375,0.13844655454158783,0.06968241184949875,-0.29835712909698486
1772556524273345000,0.187344970703125,0.20242980122566223,0.06504558026790619,-0.23123908042907715
1772556524283328800,0.197328857421875,0.23896917700767517,0.022885341197252274,-0.18200309574604034
1772556524293312800,0.207312744140625,0.23496004939079285,-0.025647839531302452,-0.1302781105041504
1772556524303296800,0.217296875,0.2045275717973709,-0.0637427568435669,-0.07569795846939087
1772556524313280800,0.22728076171875,0.1722061187028885,-0.07379219681024551,-0.028502214699983597
1772556524323264800,0.2372646484375,0.14417581260204315,-0.06760114431381226,-0.017965683713555336
1772556524333248800,0.247248779296875,0.1210920661687851,-0.04072585701942444,-0.030240194872021675
1772556524343232800,0.257232666015625,0.1024416834115982,0.00034967303508892655,-0.06483199447393417
1772556524353216800,0.267216796875,0.08233961462974548,0.02654292806982994,-0.09073842316865921
1772556524363201000,0.277200927734375,0.06295552849769592,0.03623337298631668,-0.09881472587585449
1772556524373185000,0.28718505859375,0.053887467831373215,0.0459190234541893,-0.07983064651489258
1772556524383169000,0.2971689453125,0.04132453724741936,0.04779761657118797,-0.04121561348438263
1772556524393153000,0.307153076171875,0.03832768276333809,0.054011568427085876,0.013943245634436607
1772556524403137000,0.317136962890625,0.04568279907107353,0.07859760522842407,0.06629513204097748
1772556524413121000,0.32712109375,0.05674796923995018,0.1210784912109375,0.1097123846411705
1772556524423105000,0.33710498046875,0.0719413012266159,0.17674094438552856,0.1400258094072342
1772556524433088800,0.3470888671875,0.0948127955198288,0.233565092086792,0.15858805179595947
1772556524443072800,0.35707275390625,0.10774031281471252,0.2815326154232025,0.16616180539131165
1772556524453055700,0.3670556640625,0.12245028465986252,0.31937161087989807,0.17593401670455933
1772556524463040000,0.3770400390625,0.13428963720798492,0.35601508617401123,0.18250083923339844
1772556524473024000,0.38702392578125,0.15371179580688477,0.3876955211162567,0.19121868908405304
1772556524483008000,0.397008056640625,0.17263329029083252,0.4065515100955963,0.20419707894325256
1772556524492992000,0.406991943359375,0.20188331604003906,0.4001740515232086,0.23688843846321106
1772556524502976000,0.41697607421875,0.235453262925148,0.37903812527656555,0.2692759335041046
1772556524512960000,0.4269599609375,0.272833913564682,0.34908103942871094,0.2997369170188904
1772556524522944000,0.436944091796875,0.29728439450263977,0.31899556517601013,0.3010093867778778
1772556524532928000,0.446927978515625,0.29761356115341187,0.2653357982635498,0.28882941603660583
1772556524542911700,0.456911865234375,0.2824766933917999,0.1725083887577057,0.25766563415527344
1772556524552895700,0.466895751953125,0.2439572662115097,0.042039595544338226,0.20620137453079224
1772556524562879700,0.476879638671875,0.19834744930267334,-0.0869751125574112,0.15534858405590057
1772556524572863700,0.48686376953125,0.157688170671463,-0.20774786174297333,0.12425670027732849
1772556524582847700,0.49684765625,0.11634764820337296,-0.28519710898399353,0.12856116890907288
1772556524592831700,0.506831787109375,0.09087930619716644,-0.3144812285900116,0.1716950535774231
1772556524602815700,0.516815673828125,0.09162206202745438,-0.28927841782569885,0.2635863721370697
1772556524612800000,0.526800048828125,0.12332406640052795,-0.24356712400913239,0.3894372284412384
1772556524622784000,0.536783935546875,0.1795354038476944,-0.20088356733322144,0.5111157298088074
1772556524632768000,0.54676806640625,0.2396133840084076,-0.1851821094751358,0.5706965327262878
1772556524642752000,0.556751953125,0.29783010482788086,-0.19614873826503754,0.5447126030921936
1772556524652735000,0.56673486328125,0.34842535853385925,-0.24647608399391174,0.41207197308540344
1772556524662718700,0.57671875,0.36488449573516846,-0.31698834896087646,0.2082458734512329
1772556524672702700,0.58670263671875,0.3210882842540741,-0.3920372724533081,-0.02954058162868023
1772556524682686700,0.596686767578125,0.23840458691120148,-0.46312636137008667,-0.2589210271835327
1772556524692670700,0.606670654296875,0.12792068719863892,-0.5267003178596497,-0.4311513900756836
1772556524702654700,0.61665478515625,0.014731275849044323,-0.5483896136283875,-0.5100060105323792
1772556524712639000,0.626638916015625,-0.05716688185930252,-0.5221495032310486,-0.46283581852912903
1772556524722623000,0.636623046875,-0.08092653751373291,-0.39928561449050903,-0.2992072105407715
1772556524732607000,0.64660693359375,-0.07143396884202957,-0.1956443339586258,-0.028903020545840263
1772556524742591000,0.656591064453125,-0.049204565584659576,0.037935130298137665,0.2869310975074768
1772556524752575000,0.666574951171875,-0.020559603348374367,0.2509198486804962,0.5806176066398621
1772556524762559000,0.67655908203125,0.016504142433404922,0.3983228802680969,0.7953251004219055
1772556524772543000,0.68654296875,0.04429103061556816,0.49297666549682617,0.9196241497993469
1772556524782527000,0.69652685546875,0.06006013974547386,0.5442630648612976,0.9444026947021484
1772556524792511000,0.706510986328125,0.06678515672683716,0.5645757913589478,0.891004741191864
1772556524802494700,0.71649462890625,0.06216350570321083,0.5555561780929565,0.7735201716423035
1772556524812478700,0.726478759765625,0.04177780821919441,0.49967053532600403,0.6191146373748779
1772556524822462700,0.736462646484375,0.044378116726875305,0.4137662947177887,0.4542711079120636
1772556524832446700,0.74644677734375,0.0469169095158577,0.29996275901794434,0.2666705846786499
1772556524842430700,0.7564306640625,0.05143602564930916,0.16888143122196198,0.07183823734521866
1772556524852414700,0.766414794921875,0.03500618785619736,0.047445014119148254,-0.11213266104459763
1772556524862399000,0.77639892578125,0.009109076112508774,-0.05229782685637474,-0.2535504996776581
1772556524872382000,0.7863818359375,-0.004908472299575806,-0.13471519947052002,-0.3516395390033722
1772556524882366000,0.796365966796875,-0.002651176881045103,-0.18094688653945923,-0.3984488546848297
1772556524892350000,0.806349853515625,0.008644887246191502,-0.18949909508228302,-0.4069163501262665
1772556524902334000,0.816333984375,0.025379126891493797,-0.15597601234912872,-0.3849114775657654
1772556524912318000,0.82631787109375,0.038590267300605774,-0.10177696496248245,-0.33978232741355896
1772556524922301700,0.8363017578125,0.07424946129322052,-0.06202821806073189,-0.2784785032272339
1772556524932285700,0.84628564453125,0.11580755561590195,-0.04911454766988754,-0.20639418065547943
1772556524942269700,0.856269775390625,0.14908748865127563,-0.03895485773682594,-0.12970659136772156
1772556524952253700,0.866253662109375,0.1640741527080536,-0.02407124824821949,-0.07323746383190155
1772556524962238000,0.876238037109375,0.16340065002441406,-0.006698648910969496,-0.04530756175518036
1772556524972222000,0.886221923828125,0.14712713658809662,0.001484712352976203,-0.05041124299168587
1772556524982206000,0.8962060546875,0.10936909914016724,0.005290902219712734,-0.08466881513595581
1772556524992190000,0.90618994140625,0.07306621968746185,-0.0016753945965319872,-0.12635821104049683
1772556525002174000,0.916174072265625,0.03847149387001991,-0.041000429540872574,-0.15643514692783356
1772556525012158000,0.926157958984375,-0.011546667665243149,-0.07173304259777069,-0.17753377556800842
1772556525022142000,0.936141845703125,-0.05600867420434952,-0.09616488218307495,-0.20448122918605804
1772556525032126000,0.9461259765625,-0.11039228737354279,-0.0939139798283577,-0.22329594194889069
1772556525042110000,0.95610986328125,-0.15191176533699036,-0.0668376162648201,-0.22709093987941742
1772556525052094000,0.966093994140625,-0.19955146312713623,-0.02388668991625309,-0.2239404171705246
1772556525062078000,0.976077880859375,-0.21179135143756866,0.00606321869418025,-0.19176198542118073
1772556525072061700,0.986061767578125,-0.22032038867473602,0.026496855542063713,-0.12542903423309326
1772556525082045700,0.996045654296875,-0.23444579541683197,0.03841050714254379,-0.03777507692575455
1772556525092029000,1.00602880859375,-0.24794907867908478,0.03512869402766228,0.04608440399169922
1772556525102013000,1.016012939453125,-0.27818527817726135,0.015591742470860481,0.11940016597509384
1772556525111997000,1.025996826171875,-0.31543517112731934,-0.014697186648845673,0.1757260262966156
1772556525121981000,1.03598095703125,-0.37070056796073914,-0.04591875523328781,0.21968282759189606
1772556525131965000,1.04596484375,-0.43049946427345276,-0.0697907954454422,0.2524242699146271
1772556525141949000,1.055948974609375,-0.49104854464530945,-0.08424856513738632,0.2587740421295166
1772556525151933000,1.065932861328125,-0.5365254878997803,-0.08170364797115326,0.23560373485088348
1772556525161917000,1.0759169921875,-0.5627791881561279,-0.06390973925590515,0.1811079978942871
1772556525171901000,1.08590087890625,-0.5734672546386719,-0.023034213110804558,0.1127433255314827
1772556525181884700,1.095884765625,-0.5593141317367554,0.02490721456706524,0.04106008633971214
1772556525191868700,1.10586865234375,-0.5208365321159363,0.07387129217386246,-0.014237524941563606
1772556525201852700,1.115852783203125,-0.4638318419456482,0.11527492851018906,-0.055031560361385345
1772556525211837000,1.1258369140625,-0.396636039018631,0.15780960023403168,-0.07066138833761215
1772556525221821000,1.135821044921875,-0.3084007203578949,0.18929588794708252,-0.06770714372396469
1772556525231805000,1.145804931640625,-0.23352034389972687,0.17441362142562866,-0.06041833758354187
1772556525241789000,1.155788818359375,-0.22129963338375092,0.09943364560604095,-0.07577945291996002
1772556525251773000,1.16577294921875,-0.2445301115512848,-0.017309214919805527,-0.12529774010181427
1772556525261758200,1.17575830078125,-0.2619820833206177,-0.1453462690114975,-0.22585763037204742
1772556525271742200,1.1857421875,-0.27000245451927185,-0.2429572492837906,-0.3559005856513977
1772556525281726200,1.195726318359375,-0.28693243861198425,-0.29107046127319336,-0.4896932542324066
1772556525291710200,1.205710205078125,-0.2976575195789337,-0.3008232116699219,-0.5778769254684448
1772556525301694200,1.215694091796875,-0.28917187452316284,-0.3062132000923157,-0.5936383008956909
1772556525311678000,1.225677978515625,-0.24038197100162506,-0.298576295375824,-0.5013179779052734
1772556525321662000,1.235661865234375,-0.16448615491390228,-0.27551358938217163,-0.31514304876327515
1772556525331646000,1.24564599609375,-0.09219463914632797,-0.24932193756103516,-0.05826756730675697
1772556525341629000,1.25562890625,-0.05052762106060982,-0.22059868276119232,0.2568261921405792
1772556525351613000,1.265613037109375,-0.057669952511787415,-0.21959947049617767,0.5862272381782532
1772556525361597200,1.27559716796875,-0.10558608174324036,-0.23617258667945862,0.8792998790740967
1772556525371581200,1.285581298828125,-0.16595275700092316,-0.26988181471824646,1.0824087858200073
1772556525381565200,1.295565185546875,-0.24377058446407318,-0.2742864191532135,1.1800061464309692
1772556525391549200,1.305549072265625,-0.337015300989151,-0.2247614711523056,1.1624932289123535
1772556525401533200,1.315533203125,-0.45441409945487976,-0.14363838732242584,1.0416128635406494
1772556525411517200,1.32551708984375,-0.5650879144668579,-0.033430129289627075,0.8307635188102722
1772556525421501200,1.335501220703125,-0.648328959941864,0.0800466313958168,0.57412189245224
1772556525431485000,1.34548486328125,-0.7007138729095459,0.17702537775039673,0.2978913486003876
1772556525441469000,1.355468994140625,-0.7135058641433716,0.26137036085128784,0.02966095693409443
1772556525451453000,1.365452880859375,-0.6794354915618896,0.3358243405818939,-0.22400620579719543
1772556525461437000,1.37543701171875,-0.5965629816055298,0.3935994803905487,-0.46640658378601074
1772556525471421000,1.3854208984375,-0.4743814170360565,0.4400969445705414,-0.6955337524414062
1772556525481405000,1.395405029296875,-0.3310098946094513,0.46649208664894104,-0.8815217614173889
1772556525491389000,1.405388916015625,-0.1947188824415207,0.47977831959724426,-1.0102248191833496
1772556525501373000,1.415373046875,-0.06482533365488052,0.4508015215396881,-1.0521728992462158
1772556525511357200,1.425357177734375,0.06204313039779663,0.3553410470485687,-0.9939029216766357
1772556525521341200,1.435341064453125,0.17294462025165558,0.19679296016693115,-0.8486413359642029
1772556525531325200,1.4453251953125,0.2543686330318451,0.013514210470020771,-0.6477851867675781
1772556525541309200,1.45530908203125,0.289310097694397,-0.1614927500486374,-0.4307612478733063
1772556525551293200,1.465293212890625,0.2903599143028259,-0.2954026162624359,-0.2488449662923813
1772556525561277200,1.475277099609375,0.2721622884273529,-0.36778494715690613,-0.11374227702617645
1772556525571261200,1.48526123046875,0.23910818994045258,-0.37926051020622253,-0.0328972302377224
1772556525581245000,1.495244873046875,0.20073923468589783,-0.34263351559638977,-0.006904777605086565
1772556525591229000,1.50522900390625,0.16226880252361298,-0.27455592155456543,-0.025594841688871384
1772556525601213000,1.515212890625,0.12669137120246887,-0.1788850575685501,-0.06863845139741898
1772556525611196200,1.525196044921875,0.1020779013633728,-0.07051251828670502,-0.11830933392047882
1772556525621180200,1.53518017578125,0.08607017248868942,0.035954538732767105,-0.1686798334121704
1772556525631164200,1.5451640625,0.08326718956232071,0.1306927651166916,-0.20030300319194794
1772556525641148200,1.555148193359375,0.08942122757434845,0.20006385445594788,-0.20440053939819336
1772556525651132200,1.565132080078125,0.1053735613822937,0.25908535718917847,-0.1899888515472412
1772556525661116200,1.5751162109375,0.12741868197917938,0.30584222078323364,-0.16449999809265137
1772556525671100200,1.58510009765625,0.14728611707687378,0.35212022066116333,-0.13387072086334229
1772556525681084200,1.595084228515625,0.1680060476064682,0.3924367427825928,-0.10130424797534943
1772556525691068000,1.60506787109375,0.1972574144601822,0.4261086881160736,-0.07933689653873444
1772556525701052000,1.615052001953125,0.21827827394008636,0.4648798108100891,-0.055643290281295776
1772556525711036000,1.625035888671875,0.233099564909935,0.5075793266296387,-0.02375832572579384
1772556525721020000,1.63502001953125,0.2481999546289444,0.5594558119773865,0.017115337774157524
1772556525731004000,1.64500390625,0.26116636395454407,0.6062374711036682,0.05927877128124237
1772556525740988000,1.65498779296875,0.2756664752960205,0.6272652745246887,0.10872434824705124
1772556525750972200,1.66497216796875,0.2908448874950409,0.6209381222724915,0.16449786722660065
1772556525760956200,1.6749560546875,0.3103421628475189,0.5772867798805237,0.20142020285129547
1772556525770940200,1.684940185546875,0.31527939438819885,0.48303163051605225,0.19777512550354004
1772556525780924200,1.694924072265625,0.2962825298309326,0.33654552698135376,0.13091273605823517
1772556525790908200,1.704908203125,0.23950180411338806,0.15078231692314148,0.006217682268470526
1772556525800892200,1.71489208984375,0.1665775328874588,-0.03296513855457306,-0.14973171055316925
1772556525810876200,1.724876220703125,0.09879102557897568,-0.20008009672164917,-0.289527952671051
1772556525820860200,1.734860107421875,0.04777311533689499,-0.31767329573631287,-0.38195961713790894
1772556525830844200,1.74484423828125,0.01786981150507927,-0.38345685601234436,-0.3990856111049652
1772556525840828000,1.754827880859375,0.03868081793189049,-0.3790415823459625,-0.32397007942199707
1772556525850812000,1.76481201171875,0.09643945097923279,-0.30921271443367004,-0.1654968112707138
1772556525860796000,1.7747958984375,0.18336449563503265,-0.1954706907272339,0.0579618364572525
1772556525870780000,1.78477978515625,0.29379433393478394,-0.061883606016635895,0.29848790168762207
1772556525880764000,1.794763916015625,0.40733447670936584,0.045454032719135284,0.48368969559669495
1772556525890748000,1.804747802734375,0.4956800639629364,0.0754990205168724,0.5455373525619507
1772556525900732200,1.814732177734375,0.5511590242385864,0.012342154048383236,0.47465014457702637
1772556525910716200,1.824716064453125,0.5644524693489075,-0.11672022193670273,0.28627917170524597
1772556525920700200,1.8347001953125,0.5213558673858643,-0.3220483362674713,0.01811988092958927
1772556525930684200,1.84468408203125,0.431416392326355,-0.5632657408714294,-0.2698567807674408
1772556525940668200,1.854668212890625,0.3136380910873413,-0.7497248649597168,-0.5344846844673157
1772556525950651000,1.86465087890625,0.1730213165283203,-0.7824977040290833,-0.719010055065155
1772556525960635000,1.874634765625,0.05203896760940552,-0.6297726035118103,-0.7685379385948181
1772556525970619000,1.884618896484375,-0.026093652471899986,-0.32596665620803833,-0.6406870484352112
1772556525980603000,1.894602783203125,-0.0637664645910263,0.05265309289097786,-0.33087778091430664
1772556525990587000,1.9045869140625,-0.06432892382144928,0.3921816349029541,0.09427297115325928
1772556526000571100,1.914571044921875,-0.06022978574037552,0.6469563841819763,0.5332300662994385
1772556526010555100,1.92455517578125,-0.04855874553322792,0.7966036796569824,0.8915943503379822
1772556526020539100,1.9345390625,-0.042334407567977905,0.883909285068512,1.1268175840377808
1772556526030523100,1.944523193359375,-0.059477709233760834,0.9581329226493835,1.222307562828064
1772556526040507100,1.954507080078125,-0.09605889022350311,0.9979948401451111,1.2027884721755981
1772556526050491100,1.9644912109375,-0.141478031873703,1.0105642080307007,1.0950242280960083
1772556526060475100,1.97447509765625,-0.16984176635742188,1.0029693841934204,0.9317596554756165
1772556526070459100,1.984459228515625,-0.17085084319114685,0.9788895845413208,0.7288853526115417
1772556526080443100,1.994443115234375,-0.17088252305984497,0.9326065182685852,0.4743894040584564
1772556526090427100,2.00442724609375,-0.17153100669384003,0.8785960078239441,0.21136631071567535
1772556526100411000,2.014410888671875,-0.18186220526695251,0.8293363451957703,-0.05072416365146637
1772556526110395000,2.024394775390625,-0.22435720264911652,0.7778142690658569,-0.268085777759552
1772556526120379000,2.03437890625,-0.27402517199516296,0.700247585773468,-0.4167274534702301
1772556526130363000,2.04436279296875,-0.31937187910079956,0.6029551029205322,-0.5157493948936462
1772556526140347000,2.054346923828125,-0.33357903361320496,0.49343448877334595,-0.5654191970825195
1772556526150331100,2.0643310546875,-0.31855401396751404,0.3885898292064667,-0.556420087814331
1772556526160315100,2.074315185546875,-0.2809443175792694,0.3173939287662506,-0.49385231733322144
1772556526170299100,2.084299072265625,-0.22361764311790466,0.28762778639793396,-0.3908820152282715
1772556526180283100,2.094283203125,-0.15682236850261688,0.30859220027923584,-0.2731311321258545
1772556526190267100,2.10426708984375,-0.08088286221027374,0.3357146084308624,-0.15567268431186676
1772556526200251100,2.114251220703125,0.002320145955309272,0.37628522515296936,-0.058159176260232925
1772556526210235100,2.124235107421875,0.088456891477108,0.4129447042942047,0.02376285381615162
1772556526220219100,2.13421923828125,0.16153936088085175,0.4339005649089813,0.06742192059755325
1772556526230203100,2.144203125,0.20930661261081696,0.42519018054008484,0.07816936820745468
1772556526240187100,2.154187255859375,0.22431805729866028,0.3926127851009369,0.05535966157913208
1772556526250171000,2.1641708984375,0.21377725899219513,0.326101154088974,0.00293293921276927
1772556526260154400,2.174154296875,0.18710331618785858,0.24019555747509003,-0.05602198839187622
1772556526270138000,2.18413818359375,0.1402849406003952,0.15660825371742249,-0.12828660011291504
1772556526280122000,2.1941220703125,0.08023065328598022,0.10063845664262772,-0.18263958394527435
1772556526290106000,2.204106201171875,0.012052934616804123,0.0791720524430275,-0.21560712158679962
1772556526300090000,2.214090087890625,-0.04442445561289787,0.08738178014755249,-0.2077108472585678
1772556526310074000,2.22407421875,-0.09600376337766647,0.1170206293463707,-0.1529727727174759
1772556526320058000,2.23405810546875,-0.14304398000240326,0.1467321813106537,-0.05345310643315315
1772556526330042000,2.2440419921875,-0.17861981689929962,0.18608704209327698,0.07672913372516632
1772556526340026000,2.254026123046875,-0.22164636850357056,0.23272165656089783,0.22018828988075256
1772556526350010000,2.264010009765625,-0.26150405406951904,0.2727319300174713,0.3670363128185272
1772556526359994000,2.273994140625,-0.31063032150268555,0.28958815336227417,0.5056695938110352
1772556526369978000,2.28397802734375,-0.3683735132217407,0.2860879600048065,0.6134604811668396
1772556526379962000,2.293962158203125,-0.4359762370586395,0.2707185745239258,0.6799939870834351
1772556526389946000,2.303946044921875,-0.49715545773506165,0.2491043657064438,0.6994813680648804
1772556526399930000,2.31393017578125,-0.5499147772789001,0.230670765042305,0.6738183498382568
1772556526409913000,2.3239130859375,-0.5860275030136108,0.20164629817008972,0.6116330027580261
1772556526419898000,2.333898193359375,-0.6005819439888,0.16744518280029297,0.5204620957374573
1772556526429881000,2.343881103515625,-0.5908440947532654,0.12059059739112854,0.4183919131755829
1772556526439865000,2.353864990234375,-0.5544325709342957,0.08497321605682373,0.31124070286750793
1772556526449849000,2.36384912109375,-0.49836266040802,0.05945906415581703,0.21444171667099
1772556526459833000,2.3738330078125,-0.42445993423461914,0.06054963171482086,0.1476917266845703
1772556526469817000,2.383817138671875,-0.35967907309532166,0.07436104863882065,0.1293627768754959
1772556526479801000,2.393801025390625,-0.3170916736125946,0.06953300535678864,0.13171622157096863
1772556526489785000,2.40378515625,-0.29659226536750793,0.02539883367717266,0.12603755295276642
1772556526499769000,2.41376904296875,-0.2850911319255829,-0.061286259442567825,0.0892166942358017
1772556526509753300,2.42375341796875,-0.3056935966014862,-0.20191821455955505,-0.019469039514660835
1772556526519737300,2.4337373046875,-0.3700653910636902,-0.40935900807380676,-0.21894167363643646
1772556526529721000,2.44372119140625,-0.4451660215854645,-0.6026020050048828,-0.4599683880805969
1772556526539705000,2.453705078125,-0.4587191045284271,-0.7055153250694275,-0.6743574142456055
1772556526549689000,2.463689208984375,-0.4102780818939209,-0.67342209815979,-0.78475022315979
1772556526559673000,2.473673095703125,-0.32195326685905457,-0.5623557567596436,-0.7240426540374756
1772556526569657000,2.483656982421875,-0.226021409034729,-0.46256205439567566,-0.46938052773475647
1772556526579641000,2.49364111328125,-0.13611309230327606,-0.41611599922180176,-0.053102631121873856
1772556526589625000,2.503625,-0.07787109911441803,-0.4360092580318451,0.41724836826324463
1772556526599609000,2.513609130859375,-0.05577697977423668,-0.49443262815475464,0.8260174989700317
1772556526609593000,2.523593017578125,-0.07718293368816376,-0.5435578227043152,1.1137017011642456
1772556526619577000,2.5335771484375,-0.13505661487579346,-0.5898805856704712,1.2450929880142212
1772556526629561000,2.54356103515625,-0.2090781182050705,-0.5814951062202454,1.2445590496063232
1772556526639545000,2.553545166015625,-0.30262166261672974,-0.503367006778717,1.13876211643219
1772556526649529300,2.563529296875,-0.3849985599517822,-0.3784908354282379,0.955192506313324
1772556526659513300,2.573513427734375,-0.429770827293396,-0.22789227962493896,0.7316380143165588
1772556526669497300,2.583497314453125,-0.43412986397743225,-0.08674341440200806,0.4854481816291809
1772556526679481000,2.593481201171875,-0.39117467403411865,0.034918833523988724,0.21384704113006592
1772556526689465000,2.603465087890625,-0.3052360713481903,0.1116865873336792,-0.08511728793382645
1772556526699449000,2.613448974609375,-0.18479861319065094,0.1518356055021286,-0.4004739224910736
1772556526709433000,2.62343310546875,-0.04887273535132408,0.1495804339647293,-0.6918138861656189
1772556526719417000,2.6334169921875,0.08493965864181519,0.11595962196588516,-0.9169988036155701
1772556526729401000,2.643401123046875,0.17482800781726837,0.0811140239238739,-1.057915210723877
1772556526739385000,2.653385009765625,0.2436017394065857,0.04965916648507118,-1.1165415048599243
1772556526749369000,2.663369140625,0.2850700914859772,0.009066465310752392,-1.0968385934829712
1772556526759353000,2.67335302734375,0.29560527205467224,-0.0336141511797905,-1.0047701597213745
1772556526769337000,2.683337158203125,0.26965439319610596,-0.0859689712524414,-0.8469637632369995
1772556526779321000,2.693321044921875,0.2258664220571518,-0.14654123783111572,-0.6350701451301575
1772556526789305000,2.70330517578125,0.1956816166639328,-0.2231220304965973,-0.416285902261734
1772556526799289300,2.713289306640625,0.1740703284740448,-0.25413641333580017,-0.24809636175632477
1772556526809273300,2.7232734375,0.1614309698343277,-0.2462361454963684,-0.1436663568019867
1772556526819257000,2.733257080078125,0.15255385637283325,-0.21619407832622528,-0.09759046882390976
1772556526829241000,2.743240966796875,0.1493317037820816,-0.17054404318332672,-0.08465602993965149
1772556526839225000,2.75322509765625,0.14639635384082794,-0.111785389482975,-0.08953014761209488
1772556526849209000,2.763208984375,0.14929227530956268,-0.05765903368592262,-0.08846408873796463
1772556526859193000,2.773193115234375,0.16061337292194366,-0.012930979020893574,-0.05860525742173195
1772556526869177000,2.783177001953125,0.18358874320983887,0.013592507690191269,-0.005772135220468044
1772556526879161000,2.7931611328125,0.21367792785167694,0.035462118685245514,0.06593773514032364
1772556526889145000,2.80314501953125,0.23233656585216522,0.05450984835624695,0.1540827751159668
1772556526899129000,2.813129150390625,0.23667912185192108,0.09190701693296432,0.23332619667053223
1772556526909113000,2.823113037109375,0.23905625939369202,0.1372782289981842,0.3014722168445587
1772556526919097000,2.83309716796875,0.23163668811321259,0.1995655745267868,0.35394397377967834
1772556526929081000,2.8430810546875,0.22104662656784058,0.2773258686065674,0.4031575918197632
1772556526939065300,2.8530654296875,0.21514639258384705,0.35529178380966187,0.4431862235069275
1772556526949049300,2.86304931640625,0.21216446161270142,0.4327029585838318,0.4849049150943756
1772556526959033300,2.873033447265625,0.2213025540113449,0.4875488877296448,0.5240560173988342
1772556526969017000,2.88301708984375,0.23121537268161774,0.5049211978912354,0.5398022532463074
1772556526979001000,2.8930009765625,0.25152942538261414,0.4928579032421112,0.5240318179130554
1772556526988985000,2.902985107421875,0.2759796679019928,0.43864765763282776,0.4691573679447174
1772556526998969000,2.912968994140625,0.27884653210639954,0.3257884979248047,0.38284245133399963
1772556527008953000,2.922953125,0.2320723831653595,0.15840855240821838,0.26481595635414124
1772556527018937000,2.93293701171875,0.15372617542743683,-0.03238270804286003,0.1291438639163971
1772556527028921000,2.942921142578125,0.059900086373090744,-0.19597269594669342,-0.009950901381671429
1772556527038905000,2.952905029296875,-0.024462465196847916,-0.3144921660423279,-0.12931671738624573
1772556527048889000,2.96288916015625,-0.08230419456958771,-0.37005287408828735,-0.21381188929080963
1772556527058873000,2.972873046875,-0.1029527485370636,-0.32320550084114075,-0.22629572451114655
1772556527068857000,2.982857177734375,-0.06436647474765778,-0.21723590791225433,-0.14832130074501038
1772556527078841000,2.992841064453125,0.003419232554733753,-0.14856310188770294,-0.03356781229376793
1772556527088825300,3.002825439453125,0.08109405636787415,-0.1959812194108963,0.013155749067664146
1772556527098809300,3.012809326171875,0.13813044130802155,-0.36034485697746277,-0.1220201775431633
1772556527108793000,3.02279296875,0.15285292267799377,-0.550592303276062,-0.44584670662879944
1772556527118777000,3.032777099609375,0.12373179197311401,-0.6675484776496887,-0.8969361186027527
1772556527128761000,3.042760986328125,0.060927797108888626,-0.6809417605400085,-1.3288111686706543
1772556527138745000,3.0527451171875,-0.019526563584804535,-0.5561705827713013,-1.5668433904647827
1772556527148729000,3.06272900390625,-0.08415962010622025,-0.3356320559978485,-1.4988079071044922
1772556527158713000,3.072713134765625,-0.08676791936159134,-0.052433378994464874,-1.0883049964904785
1772556527168697000,3.082697021484375,-0.015340073965489864,0.21781009435653687,-0.4236154556274414
1772556527178681000,3.09268115234375,0.11312442272901535,0.399067223072052,0.318742036819458
1772556527188665000,3.1026650390625,0.2307855486869812,0.45600003004074097,0.9573195576667786
1772556527198649000,3.112649169921875,0.296406626701355,0.4318147897720337,1.3921339511871338
1772556527208633000,3.122633056640625,0.3055974543094635,0.38894960284233093,1.6193777322769165
1772556527218617000,3.1326171875,0.2883591055870056,0.3543010950088501,1.6608636379241943
1772556527228601300,3.142601318359375,0.22752264142036438,0.31710952520370483,1.5543127059936523
1772556527238585300,3.15258544921875,0.14097310602664948,0.2770225405693054,1.361214280128479
1772556527248569300,3.1625693359375,0.059900619089603424,0.22932559251785278,1.1520975828170776
1772556527258552600,3.172552490234375,-0.020730046555399895,0.15466494858264923,0.928818941116333
1772556527268536600,3.18253662109375,-0.10714057087898254,0.044985849410295486,0.6937952637672424
1772556527278520600,3.1925205078125,-0.20605888962745667,-0.1113869771361351,0.45043641328811646
1772556527288504600,3.202504638671875,-0.30207544565200806,-0.25020477175712585,0.1881970763206482
1772556527298488600,3.212488525390625,-0.4075944125652313,-0.3486325442790985,-0.07752861082553864
1772556527308472300,3.222472412109375,-0.509121298789978,-0.38963696360588074,-0.3443067669868469
1772556527318456300,3.232456298828125,-0.5776987671852112,-0.3832496404647827,-0.6051276922225952
1772556527328440300,3.2424404296875,-0.6133925914764404,-0.34234562516212463,-0.8558339476585388
1772556527338424300,3.25242431640625,-0.6196928024291992,-0.28575798869132996,-1.0679054260253906
1772556527348408600,3.26240869140625,-0.578463613986969,-0.21557463705539703,-1.2079848051071167
1772556527358392600,3.272392578125,-0.4906328320503235,-0.14703711867332458,-1.2699203491210938
1772556527368376600,3.28237646484375,-0.3769504725933075,-0.049558766186237335,-1.2602331638336182
1772556527378360600,3.292360595703125,-0.2433391511440277,0.0722435712814331,-1.189056158065796
1772556527388344600,3.302344482421875,-0.09422370046377182,0.1949407309293747,-1.0891599655151367
1772556527398328600,3.31232861328125,0.06193394213914871,0.29869455099105835,-0.967292308807373
1772556527408312600,3.3223125,0.21365661919116974,0.36640968918800354,-0.8411130905151367
1772556527418296600,3.332296630859375,0.3266337811946869,0.38288959860801697,-0.7309620976448059
1772556527428280600,3.342280517578125,0.4023221433162689,0.36342906951904297,-0.6427411437034607
1772556527438264600,3.3522646484375,0.44248154759407043,0.3288426101207733,-0.5972735285758972
1772556527448248600,3.36224853515625,0.4399227797985077,0.2892312705516815,-0.5780209898948669
1772556527458232300,3.372232421875,0.40165263414382935,0.25691860914230347,-0.5882627367973328
1772556527468216300,3.38221630859375,0.32921332120895386,0.24173486232757568,-0.6038874983787537
1772556527478200300,3.392200439453125,0.23868660628795624,0.2426544576883316,-0.5891532897949219
1772556527488184600,3.4021845703125,0.14015869796276093,0.2655206322669983,-0.5327153205871582
1772556527498168600,3.41216845703125,0.04464682936668396,0.28217071294784546,-0.42666688561439514
1772556527508152600,3.422152587890625,-0.051662929356098175,0.29417675733566284,-0.271969199180603
1772556527518136600,3.432136474609375,-0.1429600864648819,0.30153775215148926,-0.08043065667152405
1772556527528120600,3.44212060546875,-0.23352353274822235,0.2925194799900055,0.1351676732301712
1772556527538104600,3.4521044921875,-0.31467777490615845,0.2601242661476135,0.3389780521392822
1772556527548088600,3.462088623046875,-0.38905027508735657,0.20793668925762177,0.5012996196746826
1772556527558072600,3.472072509765625,-0.4597233831882477,0.1458248496055603,0.6018954515457153
1772556527568056600,3.482056640625,-0.5239918828010559,0.09555768221616745,0.6404138207435608
1772556527578040600,3.49204052734375,-0.5941262245178223,0.05890752375125885,0.6237373352050781
1772556527588024600,3.502024658203125,-0.6459158658981323,0.03525599092245102,0.5495688319206238
1772556527598008300,3.51200830078125,-0.6834955215454102,0.022046979516744614,0.4396783113479614
1772556527607992300,3.521992431640625,-0.6909712553024292,0.020982779562473297,0.3252502679824829
1772556527617976300,3.531976318359375,-0.6579134464263916,0.021205686032772064,0.20682162046432495
1772556527627960300,3.541960205078125,-0.5886504650115967,0.033672209829092026,0.10854192078113556
1772556527637944600,3.551944580078125,-0.49567580223083496,0.0470505990087986,0.02653653547167778
1772556527647928600,3.561928466796875,-0.3702494204044342,0.06763710081577301,-0.02514476701617241
1772556527657912600,3.57191259765625,-0.21936936676502228,0.09222180396318436,-0.04581036418676376
1772556527667896600,3.581896484375,-0.08292071521282196,0.1159961074590683,-0.02689473144710064
1772556527677880600,3.591880615234375,0.04640451818704605,0.1382358968257904,0.02203099988400936
1772556527687864600,3.601864501953125,0.15419623255729675,0.18309925496578217,0.1083349958062172
1772556527697848600,3.6118486328125,0.22580942511558533,0.22166767716407776,0.2338085025548935
1772556527707832600,3.62183251953125,0.23011788725852966,0.22863984107971191,0.38322728872299194
1772556527717816600,3.631816650390625,0.157169908285141,0.19047407805919647,0.5167368650436401
1772556527727800600,3.641800537109375,0.02803376503288746,0.1158650815486908,0.6040898561477661
1772556527737784600,3.65178466796875,-0.13703109323978424,-0.0022445120848715305,0.626127302646637
1772556527747768300,3.661768310546875,-0.3436471223831177,-0.1979207992553711,0.5587384104728699
1772556527757752300,3.67175244140625,-0.5943906307220459,-0.46759727597236633,0.37270912528038025
1772556527767736300,3.681736328125,-0.808069109916687,-0.7007290720939636,0.12435071170330048
1772556527777720600,3.691720458984375,-0.9182435274124146,-0.8300841450691223,-0.07970281690359116
1772556527787704600,3.70170458984375,-0.9225032925605774,-0.8447757363319397,-0.16438814997673035
1772556527797688600,3.7116884765625,-0.8459762930870056,-0.7665911912918091,-0.0745815560221672
1772556527807672600,3.721672607421875,-0.7131215929985046,-0.666996419429779,0.17257976531982422
1772556527817656600,3.731656494140625,-0.5712493658065796,-0.5835428237915039,0.5298566818237305
1772556527827640600,3.741640625,-0.46994778513908386,-0.49201688170433044,0.8773400783538818
1772556527837624600,3.75162451171875,-0.41459399461746216,-0.38905268907546997,1.1219886541366577
1772556527847608600,3.761608642578125,-0.39240026473999023,-0.2761080265045166,1.217082142829895
1772556527857592600,3.771592529296875,-0.3977905213832855,-0.15961815416812897,1.1584460735321045
1772556527867576600,3.78157666015625,-0.43387076258659363,-0.02665744349360466,1.0022112131118774
1772556527877560600,3.791560546875,-0.47447648644447327,0.15041667222976685,0.8019060492515564
1772556527887544300,3.80154443359375,-0.48320287466049194,0.3214755058288574,0.5838059186935425
1772556527897528300,3.8115283203125,-0.4367336332798004,0.4434349536895752,0.3569525182247162
1772556527907512300,3.82151220703125,-0.3452173173427582,0.5059441328048706,0.13288454711437225
1772556527917496300,3.831496337890625,-0.2236141860485077,0.49972620606422424,-0.09707994759082794
1772556527927480600,3.84148046875,-0.0864051952958107,0.4515394866466522,-0.3284308910369873
1772556527937464600,3.851464599609375,0.04307529702782631,0.38227492570877075,-0.5532858371734619
1772556527947448600,3.861448486328125,0.14746321737766266,0.31666475534439087,-0.7383699417114258
1772556527957432600,3.8714326171875,0.21405982971191406,0.24644146859645844,-0.8650543689727783
1772556527967416600,3.88141650390625,0.2613743543624878,0.1637476533651352,-0.9319218397140503
1772556527977400600,3.891400634765625,0.28936710953712463,0.06139172241091728,-0.9276655316352844
1772556527987384600,3.901384521484375,0.28951889276504517,-0.035285551100969315,-0.8593951463699341
1772556527997368600,3.91136865234375,0.2487509548664093,-0.10235700011253357,-0.7364122271537781
1772556528007352600,3.9213525390625,0.19436974823474884,-0.15863172709941864,-0.5955927968025208
1772556528017336600,3.931336669921875,0.1299430876970291,-0.21228961646556854,-0.46252503991127014
1772556528027320600,3.941320556640625,0.0850863978266716,-0.24131834506988525,-0.3282170295715332
1772556528037304300,3.95130419921875,0.05710403248667717,-0.24022218585014343,-0.22805286943912506
1772556528047288300,3.961288330078125,0.043585292994976044,-0.20998066663742065,-0.17536143958568573
1772556528057272300,3.971272216796875,0.04060228914022446,-0.16920393705368042,-0.16156412661075592
1772556528067256600,3.981256591796875,0.046480417251586914,-0.11545096337795258,-0.1862817257642746
1772556528077240600,3.991240478515625,0.05867796018719673,-0.06429563462734222,-0.22584804892539978
1772556528087221500,4.001221435546875,0.06666984409093857,-0.01649269089102745,-0.2652684152126312
1772556528097205500,4.01120556640625,0.06488445401191711,0.037578798830509186,-0.2842450439929962
1772556528107189500,4.021189453125,0.05998903512954712,0.09297814220190048,-0.2839451730251312
1772556528117173500,4.031173583984375,0.06536275893449783,0.14941905438899994,-0.254972368478775
1772556528127157500,4.041157470703125,0.08429411053657532,0.18379487097263336,-0.19662198424339294
1772556528137141500,4.0511416015625,0.1131097748875618,0.20550867915153503,-0.11553724855184555
1772556528147125500,4.06112548828125,0.15049949288368225,0.23096343874931335,-0.011201787739992142
1772556528157109500,4.071109619140625,0.17948773503303528,0.3007153570652008,0.08468718826770782
1772556528167093500,4.081093505859375,0.220005601644516,0.3706299960613251,0.19323603808879852
1772556528177077500,4.091077392578125,0.264495849609375,0.4601207375526428,0.30469971895217896
1772556528187061500,4.1010615234375,0.3213042616844177,0.5370178818702698,0.39847519993782043
1772556528197045500,4.11104541015625,0.3758937418460846,0.5791988968849182,0.45857903361320496
1772556528207029500,4.121029541015625,0.4249992370605469,0.5852704048156738,0.4917391240596771
1772556528217013500,4.131013427734375,0.4719044268131256,0.5221803784370422,0.48379597067832947
1772556528226997500,4.14099755859375,0.500755786895752,0.4058585464954376,0.42834576964378357
1772556528236981500,4.1509814453125,0.4960843324661255,0.2606765925884247,0.33678895235061646
1772556528246965500,4.160965576171875,0.43979015946388245,0.11142239719629288,0.2277093231678009
1772556528256949500,4.170949462890625,0.3367215692996979,-0.0468793585896492,0.11854369193315506
1772556528266933800,4.180933837890625,0.2252674698829651,-0.17036853730678558,0.034265827387571335
1772556528276917800,4.190917724609375,0.1263720542192459,-0.20544929802417755,0.012357333675026894
1772556528286901800,4.20090185546875,0.08446481823921204,-0.14199495315551758,0.06227988749742508
1772556528296885800,4.2108857421875,0.10369496792554855,0.01678404025733471,0.19704276323318481
1772556528306869800,4.220869873046875,0.15952999889850616,0.22906140983104706,0.36554867029190063
1772556528316853500,4.230853515625,0.20392011106014252,0.36394280195236206,0.46732085943222046
1772556528326837500,4.24083740234375,0.22797350585460663,0.3303379714488983,0.44137075543403625
1772556528336821500,4.250821533203125,0.22545921802520752,0.13588672876358032,0.2721177935600281
1772556528346805500,4.260805419921875,0.1895720660686493,-0.19142615795135498,-0.045766156166791916
1772556528356789500,4.27078955078125,0.1038302555680275,-0.5580148100852966,-0.4232037365436554
1772556528366773500,4.2807734375,-0.014808240346610546,-0.8109474778175354,-0.7216173410415649
1772556528376757500,4.290757568359375,-0.14236725866794586,-0.9156240820884705,-0.8264313340187073
1772556528386741800,4.30074169921875,-0.22543765604496002,-0.8413754105567932,-0.7000201344490051
1772556528396725800,4.310725830078125,-0.21446463465690613,-0.5984586477279663,-0.35529792308807373
1772556528406709800,4.320709716796875,-0.10575199872255325,-0.25657132267951965,0.12880085408687592
1772556528416693800,4.33069384765625,0.06943020969629288,0.12940113246440887,0.6779593229293823
1772556528426677800,4.340677734375,0.22893011569976807,0.45772069692611694,1.170146107673645
1772556528436661800,4.350661865234375,0.3452855050563812,0.6302676796913147,1.4805753231048584
1772556528446645800,4.360645751953125,0.4092088043689728,0.6847104430198669,1.5917268991470337
1772556528456629500,4.37062939453125,0.3990515172481537,0.6891254186630249,1.546047329902649
1772556528466613500,4.380613525390625,0.31172245740890503,0.6774964332580566,1.3847745656967163
1772556528476597500,4.390597412109375,0.21130691468715668,0.6571666598320007,1.1957979202270508
1772556528486581500,4.40058154296875,0.11763209104537964,0.6106039881706238,0.9838050007820129
1772556528496565500,4.4105654296875,0.026993533596396446,0.5432813763618469,0.7660159468650818
1772556528506550500,4.420550537109375,-0.07267340272665024,0.45311740040779114,0.5606582760810852
1772556528516535600,4.43053564453125,-0.15755900740623474,0.34176400303840637,0.3509886562824249
1772556528526519600,4.44051953125,-0.24852167069911957,0.20299465954303741,0.13585875928401947
1772556528536503600,4.450503662109375,-0.3322961926460266,0.07767748087644577,-0.08765102177858353
1772556528546487600,4.460487548828125,-0.4082876145839691,0.001499359728768468,-0.29030826687812805
1772556528556471600,4.470471435546875,-0.47102344036102295,-0.04117300361394882,-0.47340136766433716
1772556528566455600,4.48045556640625,-0.5097982883453369,-0.0441213883459568,-0.6325404644012451
1772556528576439600,4.490439453125,-0.5165328979492188,-0.013794375583529472,-0.7511493563652039
1772556528586423600,4.500423583984375,-0.48177382349967957,0.03404797986149788,-0.8037905097007751
1772556528596407600,4.510407470703125,-0.4008161127567291,0.08277157694101334,-0.8027821779251099
1772556528606391600,4.5203916015625,-0.29099375009536743,0.11433350294828415,-0.7703851461410522
1772556528616375800,4.530375732421875,-0.1523389369249344,0.14300934970378876,-0.6998307704925537
1772556528626359800,4.54035986328125,-0.016213323920965195,0.1689501404762268,-0.6226984858512878
1772556528636343800,4.55034375,0.1040654182434082,0.18678106367588043,-0.5396195650100708
1772556528646327800,4.560327880859375,0.18706123530864716,0.19275213778018951,-0.47358912229537964
1772556528656311800,4.570311767578125,0.22722142934799194,0.18614962697029114,-0.43639490008354187
1772556528666295600,4.580295654296875,0.23168569803237915,0.18398767709732056,-0.4326094686985016
1772556528676279600,4.590279541015625,0.19740255177021027,0.17857426404953003,-0.46244993805885315
1772556528686263600,4.600263671875,0.14742514491081238,0.16315563023090363,-0.5014457702636719
1772556528696247600,4.61024755859375,0.08939539641141891,0.13293780386447906,-0.5325906872749329
1772556528706231600,4.6202314453125,0.03212225064635277,0.06482932716608047,-0.547151505947113
1772556528716215600,4.630215576171875,-0.024870995432138443,-0.003049053018912673,-0.5396890640258789
1772556528726199600,4.640199462890625,-0.06942807883024216,-0.06190863996744156,-0.5191313028335571
1772556528736183600,4.65018359375,-0.11315025389194489,-0.09974843263626099,-0.48437201976776123
1772556528746167600,4.66016748046875,-0.14537717401981354,-0.10244568437337875,-0.43012315034866333
1772556528756151600,4.670151611328125,-0.177791565656662,-0.09224550426006317,-0.3564465343952179
1772556528766135800,4.6801357421875,-0.1948390007019043,-0.0761118084192276,-0.25580033659935
1772556528776119800,4.690119873046875,-0.21421775221824646,-0.05529841035604477,-0.12667351961135864
1772556528786103800,4.700103759765625,-0.22738894820213318,-0.04951082915067673,0.01558109000325203
1772556528796087800,4.710087890625,-0.24201129376888275,-0.06304048746824265,0.15163107216358185
1772556528806071600,4.720071533203125,-0.2670591175556183,-0.08717884123325348,0.2469799667596817
1772556528816055600,4.7300556640625,-0.30268609523773193,-0.10920292139053345,0.2901327610015869
1772556528826039600,4.74003955078125,-0.34711986780166626,-0.131522074341774,0.281085729598999
1772556528836023600,4.7500234375,-0.3845980167388916,-0.16060325503349304,0.22432124614715576
1772556528846007600,4.760007568359375,-0.40435999631881714,-0.18615736067295074,0.15227556228637695
1772556528855991600,4.769991455078125,-0.3974839746952057,-0.19520890712738037,0.07298499345779419
1772556528865975600,4.7799755859375,-0.3683628439903259,-0.19031774997711182,0.008929313160479069
1772556528875959600,4.78995947265625,-0.3213476538658142,-0.16420438885688782,-0.03611272946000099
1772556528885943600,4.799943603515625,-0.2619248330593109,-0.1293148398399353,-0.05266587436199188
1772556528895927600,4.809927490234375,-0.19064877927303314,-0.09194137156009674,-0.03196112811565399
1772556528905911800,4.819911865234375,-0.12146011739969254,-0.07623458653688431,0.023914653807878494
1772556528915895800,4.829895751953125,-0.062313176691532135,-0.0823364183306694,0.11922839283943176
1772556528925879800,4.8398798828125,-0.015986157581210136,-0.09947066754102707,0.25134915113449097
1772556528935863800,4.84986376953125,0.018202705308794975,-0.13826386630535126,0.4090293049812317
1772556528945847800,4.859847900390625,-0.014769624918699265,-0.24880236387252808,0.5560435056686401
1772556528955831600,4.86983154296875,-0.1181519404053688,-0.4082724452018738,0.6578535437583923
1772556528965815600,4.879815673828125,-0.24999386072158813,-0.5561636090278625,0.6891166567802429
1772556528975799600,4.889799560546875,-0.3670957088470459,-0.6742207407951355,0.6518148183822632
1772556528985783600,4.899783447265625,-0.48853185772895813,-0.8088794946670532,0.5484103560447693
1772556528995767600,4.909767578125,-0.6044089198112488,-0.9548875689506531,0.39393213391304016
1772556529005751600,4.91975146484375,-0.6667042374610901,-1.034481167793274,0.2377752810716629
1772556529015735600,4.929735595703125,-0.6751810908317566,-1.0491453409194946,0.12742505967617035
1772556529025719600,4.939719482421875,-0.6390473246574402,-1.0266361236572266,0.088314950466156
1772556529035703600,4.94970361328125,-0.5683055520057678,-0.927617609500885,0.14497023820877075
1772556529045687600,4.9596875,-0.48887622356414795,-0.7960819602012634,0.27572426199913025
1772556529055671800,4.969671875,-0.40351229906082153,-0.654676079750061,0.44161441922187805
1772556529065655800,4.97965576171875,-0.3351540267467499,-0.5164172649383545,0.6010645627975464
1772556529075640600,4.989640625,-0.28801262378692627,-0.39173686504364014,0.6959737539291382
1772556529085624600,4.99962451171875,-0.25573697686195374,-0.2924249470233917,0.7143769860267639
1772556529095608800,5.00960888671875,-0.2448427677154541,-0.18794433772563934,0.6688734292984009
1772556529105592800,5.0195927734375,-0.25355371832847595,-0.05892137438058853,0.5795291662216187
1772556529115576800,5.029576904296875,-0.2638627886772156,0.0774199590086937,0.4526098072528839
1772556529125560600,5.039560546875,-0.2594299614429474,0.1895156055688858,0.28769171237945557
1772556529135544600,5.049544677734375,-0.2277791053056717,0.2762608826160431,0.0895828828215599
1772556529145528600,5.059528564453125,-0.17991650104522705,0.3270241916179657,-0.1304810494184494
1772556529155512600,5.0695126953125,-0.11181335151195526,0.32556238770484924,-0.3512752056121826
1772556529165496600,5.07949658203125,-0.039317045360803604,0.2555822432041168,-0.5645949244499207
1772556529175480600,5.08948046875,0.04108724743127823,0.12526977062225342,-0.7445141077041626
1772556529185464600,5.099464599609375,0.12862348556518555,-0.03999242186546326,-0.8761792182922363
1772556529195448600,5.109448486328125,0.21826522052288055,-0.23223324120044708,-0.9409618973731995
1772556529205432600,5.1194326171875,0.30437639355659485,-0.4125244617462158,-0.9335154294967651
1772556529215416600,5.12941650390625,0.38567471504211426,-0.5451932549476624,-0.8683002591133118
1772556529225400600,5.139400634765625,0.4586642384529114,-0.656095564365387,-0.7675248980522156
1772556529235384600,5.149384521484375,0.506659984588623,-0.7514141201972961,-0.6529474258422852
1772556529245368800,5.159368896484375,0.5500175952911377,-0.7902256846427917,-0.5268643498420715
1772556529255352800,5.169352783203125,0.5891484618186951,-0.7790966033935547,-0.4181559681892395
1772556529265336600,5.179336669921875,0.6199924349784851,-0.7134320735931396,-0.3403533101081848
1772556529275320600,5.189320556640625,0.6356443762779236,-0.6170592308044434,-0.29674777388572693
1772556529285304600,5.1993046875,0.6489542722702026,-0.5197529196739197,-0.28297844529151917
1772556529295288600,5.20928857421875,0.6598977446556091,-0.43164941668510437,-0.27775996923446655
1772556529305272600,5.2192724609375,0.6633121967315674,-0.33258193731307983,-0.2690402567386627
1772556529315256600,5.229256591796875,0.6533013582229614,-0.22832265496253967,-0.2585098445415497
1772556529325240600,5.239240478515625,0.6217858195304871,-0.11371351778507233,-0.24513065814971924
1772556529335224300,5.249224365234375,0.5728888511657715,0.01937343180179596,-0.21970519423484802
1772556529345208300,5.259208251953125,0.5221806168556213,0.14068494737148285,-0.183916836977005
1772556529355192300,5.2691923828125,0.47996845841407776,0.2315991371870041,-0.13386325538158417
1772556529365176300,5.27917626953125,0.4496995210647583,0.28836387395858765,-0.06491188704967499
1772556529375160600,5.28916064453125,0.4295353889465332,0.32072821259498596,0.014461496844887733
1772556529385144600,5.29914453125,0.40706124901771545,0.33901506662368774,0.10541483759880066
1772556529395128600,5.309128662109375,0.3883139193058014,0.3418950140476227,0.20031818747520447
1772556529405112600,5.319112548828125,0.3743954300880432,0.3224092125892639,0.30410051345825195
1772556529415096600,5.3290966796875,0.3810410797595978,0.29002249240875244,0.41860443353652954
1772556529425080600,5.33908056640625,0.3957454562187195,0.23104466497898102,0.5379537343978882
1772556529435064600,5.349064697265625,0.4161817729473114,0.15310698747634888,0.656756579875946
1772556529445048600,5.359048583984375,0.4437428116798401,0.08139286190271378,0.7565896511077881
1772556529455032600,5.369032470703125,0.45701974630355835,0.010633735917508602,0.8053492307662964
1772556529465016600,5.3790166015625,0.4470504820346832,-0.04592008888721466,0.7978526949882507
1772556529475000600,5.38900048828125,0.39912155270576477,-0.0902385488152504,0.7061821818351746
1772556529484984300,5.398984375,0.3250119090080261,-0.11960016936063766,0.5461927652359009
1772556529494968300,5.40896826171875,0.2382461279630661,-0.13317589461803436,0.3514203429222107
1772556529504953600,5.41895361328125,0.15059509873390198,-0.15229420363903046,0.1434013694524765
1772556529514937300,5.428937255859375,0.06735560297966003,-0.18462656438350677,-0.046059902757406235
1772556529524921300,5.43892138671875,0.015180284157395363,-0.21801649034023285,-0.18352508544921875
1772556529534905300,5.4489052734375,0.02232234925031662,-0.21747133135795593,-0.23604661226272583
1772556529544889300,5.458889404296875,0.08802679181098938,-0.13558952510356903,-0.19441235065460205
1772556529554873300,5.468873291015625,0.18222546577453613,-0.009578591212630272,-0.07283612340688705
1772556529564857600,5.478857666015625,0.28217682242393494,0.0896768867969513,0.06922966986894608
1772556529574841600,5.488841552734375,0.3954266905784607,0.14716415107250214,0.15194159746170044
1772556529584825600,5.49882568359375,0.5302153825759888,0.12688018381595612,0.14126098155975342
1772556529594809600,5.5088095703125,0.6489143371582031,0.015134744346141815,0.015599998645484447
1772556529604793600,5.518793701171875,0.6954150199890137,-0.18204569816589355,-0.21690967679023743
1772556529614777600,5.528777587890625,0.6762463450431824,-0.44190922379493713,-0.5192631483078003
1772556529624761600,5.53876171875,0.6235791444778442,-0.6874644160270691,-0.7953045964241028
1772556529634745600,5.54874560546875,0.5618327260017395,-0.8027777075767517,-0.9579893946647644
1772556529644729600,5.5587294921875,0.5172005295753479,-0.7674098610877991,-0.9732444882392883
1772556529654713300,5.56871337890625,0.5590273141860962,-0.6184150576591492,-0.8552523255348206
1772556529664697300,5.578697265625,0.6693090796470642,-0.3726670444011688,-0.631513774394989
1772556529674681300,5.588681396484375,0.8159355521202087,-0.06390787661075592,-0.3338269591331482
1772556529684665300,5.598665283203125,0.9495609998703003,0.27585074305534363,0.01489106472581625
1772556529694649300,5.6086494140625,1.0425548553466797,0.603500247001648,0.3633164167404175
1772556529704633600,5.618633544921875,1.1115576028823853,0.8576886057853699,0.6422260999679565
1772556529714617600,5.62861767578125,1.1605403423309326,0.9538984894752502,0.8004847168922424
1772556529724601600,5.6386015625,1.2138030529022217,0.8399210572242737,0.7580820918083191
1772556529734585600,5.648585693359375,1.2698434591293335,0.5946588516235352,0.5278763175010681
1772556529744569600,5.658569580078125,1.300915241241455,0.4220993220806122,0.22246502339839935
1772556529754553600,5.6685537109375,1.2823506593704224,0.3231852352619171,-0.06972768157720566
1772556529764537600,5.67853759765625,1.2267265319824219,0.214644655585289,-0.3531031906604767
1772556529774521600,5.688521484375,1.1761683225631714,0.07629610598087311,-0.6083788871765137
1772556529784505600,5.698505615234375,1.1364749670028687,-0.09883097559213638,-0.8077356815338135
1772556529794489600,5.708489501953125,1.0767661333084106,-0.27910035848617554,-0.9493213295936584
1772556529804473300,5.718473388671875,1.0135010480880737,-0.4194886088371277,-1.0090887546539307
1772556529814457300,5.728457275390625,0.9832582473754883,-0.5026918649673462,-0.9811679124832153
1772556529824441300,5.73844140625,0.9892455339431763,-0.4762064814567566,-0.8772239685058594
1772556529834425300,5.74842529296875,1.00979745388031,-0.3538550138473511,-0.7098722457885742
1772556529844409300,5.758409423828125,1.0140541791915894,-0.15140363574028015,-0.4986971616744995
1772556529854393600,5.7683935546875,0.9916560053825378,0.11361391097307205,-0.28123193979263306
1772556529864377600,5.778377685546875,0.9437792897224426,0.37359437346458435,-0.0849849283695221
1772556529874362400,5.7883623046875,0.8702086806297302,0.5437386631965637,0.0363478884100914
1772556529884346400,5.798346435546875,0.7765370011329651,0.5302449464797974,0.08181736618280411
1772556529894330600,5.80833056640625,0.6640688180923462,0.3215239644050598,0.07526040077209473
1772556529904314600,5.818314697265625,0.5348042845726013,0.04604392498731613,0.059125903993844986
1772556529914298600,5.828298583984375,0.3641689121723175,-0.1346970945596695,0.0949089378118515
1772556529924282600,5.83828271484375,0.195462167263031,-0.19345441460609436,0.1771896928548813
1772556529934266600,5.8482666015625,0.04610304534435272,-0.15720613300800323,0.28316593170166016
1772556529944250600,5.858250732421875,-0.05514101684093475,-0.09718886762857437,0.38810405135154724
1772556529954234600,5.868234619140625,-0.10806281864643097,-0.06755054742097855,0.4640454351902008
1772556529964218600,5.878218505859375,-0.11362429708242416,-0.047870054841041565,0.5057752728462219
1772556529974202400,5.888202392578125,-0.09889036417007446,-0.01315255369991064,0.527130663394928
1772556529984186400,5.898186279296875,-0.07570435106754303,-0.0018130800453945994,0.5397308468818665
1772556529994170400,5.90817041015625,-0.04777631163597107,-0.005908489227294922,0.5526498556137085
1772556530004154400,5.918154296875,-0.023269103839993477,-0.025119468569755554,0.5778090357780457
1772556530014138400,5.928138427734375,-0.003318032482638955,-0.06229852885007858,0.6078364253044128
1772556530024122400,5.938122314453125,0.0002897519152611494,-0.06573879718780518,0.6119885444641113
1772556530034106400,5.9481064453125,-0.010553042404353619,-0.02797704003751278,0.5947802662849426
1772556530044090600,5.958090576171875,-0.020673319697380066,-0.0043769050389528275,0.549026370048523
1772556530054074600,5.96807470703125,-0.033544376492500305,-0.030722757801413536,0.47036752104759216
1772556530064058600,5.97805859375,-0.045702505856752396,-0.0957062840461731,0.38134121894836426
1772556530074042600,5.988042724609375,-0.05709737539291382,-0.19964972138404846,0.31573131680488586
1772556530084026600,5.998026611328125,-0.06992049515247345,-0.29227155447006226,0.2886504530906677
1772556530094010600,6.0080107421875,-0.06553826481103897,-0.33863556385040283,0.2961706817150116
1772556530103994600,6.01799462890625,-0.04350726306438446,-0.33647921681404114,0.3169558346271515
1772556530113978600,6.027978515625,-0.0531308613717556,-0.31483542919158936,0.32503506541252136
1772556530123962400,6.03796240234375,-0.10336713492870331,-0.272117018699646,0.2796785235404968
1772556530133946400,6.0479462890625,-0.15787991881370544,-0.19757965207099915,0.1972033530473709
1772556530143930400,6.057930419921875,-0.20511479675769806,-0.0997132807970047,0.06650073081254959
1772556530153914400,6.067914306640625,-0.24025706946849823,0.0051931641064584255,-0.10017320513725281
1772556530163898400,6.0778984375,-0.2662665843963623,0.05172604322433472,-0.29425346851348877
1772556530173882400,6.08788232421875,-0.2744275629520416,0.05709045007824898,-0.4897574484348297
1772556530183866600,6.09786669921875,-0.2248842418193817,0.08337265253067017,-0.6510366201400757
1772556530193850600,6.1078505859375,-0.10763245075941086,0.10556823760271072,-0.757703423500061
1772556530203834600,6.117834716796875,0.054134875535964966,0.1069653332233429,-0.7786529064178467
1772556530213819400,6.1278193359375,0.2184859961271286,0.061526212841272354,-0.7244517207145691
1772556530223803600,6.1378037109375,0.3564095199108124,-0.029271336272358894,-0.5911272168159485
1772556530233787600,6.14778759765625,0.4452594816684723,-0.10899972170591354,-0.3862592875957489
1772556530243771600,6.157771728515625,0.46985751390457153,-0.14860039949417114,-0.15666045248508453
1772556530253755600,6.167755615234375,0.44338303804397583,-0.16352981328964233,0.0634884312748909
1772556530263744300,6.177744140625,0.366860568523407,-0.1619260460138321,0.24500149488449097
1772556530273728300,6.187728271484375,0.27534130215644836,-0.126348614692688,0.35926470160484314
1772556530283712300,6.197712158203125,0.16579988598823547,-0.04830761253833771,0.39668264985084534
1772556530293696300,6.2076962890625,0.062489211559295654,0.0640396997332573,0.36641553044319153
1772556530303680300,6.21768017578125,-0.019162243232131004,0.17009024322032928,0.2889378070831299
1772556530313664300,6.227664306640625,-0.07843435555696487,0.26329606771469116,0.17669354379177094
1772556530323648300,6.237648193359375,-0.10929825901985168,0.34720537066459656,0.053884536027908325
1772556530333632300,6.24763232421875,-0.10794111341238022,0.40881678462028503,-0.06378137320280075
1772556530343616300,6.2576162109375,-0.08149459213018417,0.4520595967769623,-0.18746842443943024
1772556530353600300,6.267600341796875,-0.0400555394589901,0.4817647635936737,-0.3145235776901245
1772556530363584300,6.277584228515625,0.012106464244425297,0.4837387204170227,-0.441165953874588
1772556530373568300,6.287568359375,0.06983154267072678,0.450057715177536,-0.5746763348579407
1772556530383552300,6.29755224609375,0.11976554989814758,0.39472734928131104,-0.676938533782959
1772556530393536300,6.307536376953125,0.1513807326555252,0.32864153385162354,-0.7195187211036682
1772556530403520300,6.317520263671875,0.16992191970348358,0.22877804934978485,-0.6872398853302002
1772556530413504300,6.327504150390625,0.16774478554725647,0.11309299618005753,-0.6026885509490967
1772556530423488300,6.33748828125,0.14866749942302704,0.010220945812761784,-0.4784289002418518
1772556530433472300,6.34747216796875,0.11757642775774002,-0.0590907521545887,-0.3433656096458435
1772556530443456300,6.357456298828125,0.08083945512771606,-0.10676399618387222,-0.22718149423599243
1772556530453440300,6.367440185546875,0.04300845414400101,-0.12695156037807465,-0.14310017228126526
1772556530463424300,6.37742431640625,-0.005940180737525225,-0.14052435755729675,-0.10343078523874283
1772556530473408300,6.387408203125,-0.06369056552648544,-0.15514005720615387,-0.09772896021604538
1772556530483392300,6.397392333984375,-0.12553289532661438,-0.1721842885017395,-0.12648417055606842
1772556530493376300,6.407376220703125,-0.1835184246301651,-0.1923404186964035,-0.17533665895462036
1772556530503360300,6.4173603515625,-0.21613575518131256,-0.19244055449962616,-0.20375126600265503
1772556530513345300,6.42734521484375,-0.21819917857646942,-0.1742764562368393,-0.20602160692214966
1772556530523329300,6.437329345703125,-0.19425788521766663,-0.13687050342559814,-0.17675639688968658
1772556530533313300,6.447313232421875,-0.15590837597846985,-0.0780567154288292,-0.12530572712421417
1772556530543297300,6.45729736328125,-0.1088135689496994,-0.012563995085656643,-0.05307706817984581
1772556530553281300,6.46728125,-0.052796367555856705,0.05072363093495369,0.03397953882813454
1772556530563265300,6.477265380859375,0.010569820180535316,0.11956261843442917,0.1292884796857834
1772556530573249300,6.487249267578125,0.06691884249448776,0.17837773263454437,0.22778336703777313
1772556530583233300,6.4972333984375,0.11599850654602051,0.245335191488266,0.31620723009109497
1772556530593217300,6.50721728515625,0.15531635284423828,0.31148332357406616,0.3864707350730896
1772556530603201000,6.517200927734375,0.1875898689031601,0.3771134614944458,0.4345780909061432
1772556530613185300,6.527185302734375,0.2224128246307373,0.43682578206062317,0.47589197754859924
1772556530623169300,6.537169189453125,0.24341505765914917,0.5041683316230774,0.5089585781097412
1772556530633153300,6.5471533203125,0.2627120614051819,0.558586597442627,0.5340365171432495
1772556530643137300,6.55713720703125,0.27370399236679077,0.5768337845802307,0.5395976901054382
1772556530653121300,6.567121337890625,0.26530784368515015,0.5352583527565002,0.5124691724777222
1772556530663105300,6.577105224609375,0.25611966848373413,0.4419907331466675,0.44733941555023193
1772556530673089300,6.58708935546875,0.2310555875301361,0.33305439352989197,0.3539527356624603
1772556530683073300,6.5970732421875,0.19425123929977417,0.2159661203622818,0.25235769152641296
1772556530693057300,6.607057373046875,0.15926289558410645,0.1149929016828537,0.16270236670970917
1772556530703041300,6.617041259765625,0.14689889550209045,0.060929395258426666,0.11495934426784515
1772556530713025300,6.627025390625,0.15478850901126862,0.056531984359025955,0.11128471046686172
1772556530723009300,6.63700927734375,0.165555939078331,0.04255145415663719,0.15022651851177216
1772556530732993300,6.6469931640625,0.17224127054214478,0.0507100485265255,0.17415128648281097
1772556530742977000,6.65697705078125,0.1817713975906372,0.058889150619506836,0.1431582272052765
1772556530752961300,6.666961181640625,0.1928887665271759,0.011386611498892307,0.056901365518569946
1772556530762945300,6.6769453125,0.18452270328998566,-0.07755151391029358,-0.09465540200471878
1772556530772929300,6.68692919921875,0.15090669691562653,-0.17970505356788635,-0.2992769777774811
1772556530782913300,6.696913330078125,0.11589784175157547,-0.291810005903244,-0.5266190767288208
1772556530792897300,6.706897216796875,0.0982421487569809,-0.37073013186454773,-0.7162635326385498
1772556530802881300,6.71688134765625,0.11207247525453568,-0.392788827419281,-0.8075234293937683
1772556530812865300,6.726865234375,0.14956499636173248,-0.35414236783981323,-0.7496103048324585
1772556530822850300,6.736850341796875,0.20295923948287964,-0.2677267789840698,-0.5524490475654602
1772556530832834300,6.746834228515625,0.28246045112609863,-0.1528545320034027,-0.23828420042991638
1772556530842818300,6.756818359375,0.3631443679332733,0.00390312890522182,0.1511482447385788
1772556530852802300,6.76680224609375,0.39225858449935913,0.1681077778339386,0.5360240340232849
1772556530862786300,6.776786376953125,0.3886263072490692,0.3234715461730957,0.857159435749054
1772556530872770300,6.786770263671875,0.3627251982688904,0.43872490525245667,1.0540192127227783
1772556530882754300,6.79675439453125,0.3216371536254883,0.48178741335868835,1.1068906784057617
1772556530892738300,6.80673828125,0.25991520285606384,0.4822515845298767,1.0342689752578735
1772556530902722300,6.816722412109375,0.17720460891723633,0.46009835600852966,0.890558123588562
1772556530912706300,6.826706298828125,0.08090469986200333,0.4399118721485138,0.6981247663497925
1772556530922690000,6.83668994140625,-0.010943461209535599,0.3914247453212738,0.4978358745574951
1772556530932674000,6.846674072265625,-0.08968620747327805,0.3073146641254425,0.29057776927948
1772556530942658300,6.856658203125,-0.16178330779075623,0.21549926698207855,0.09843762218952179
1772556530952642300,6.866642333984375,-0.2167954295873642,0.12978968024253845,-0.07367954403162003
1772556530962626300,6.876626220703125,-0.24775733053684235,0.060259610414505005,-0.2290068119764328
1772556530972610300,6.8866103515625,-0.265804260969162,-0.008390555158257484,-0.35919758677482605
1772556530982594300,6.89659423828125,-0.27762627601623535,-0.06009689345955849,-0.45687514543533325
1772556530992578300,6.906578369140625,-0.26767486333847046,-0.08034463971853256,-0.5162827968597412
1772556531002562300,6.916562255859375,-0.2301541119813919,-0.06679634004831314,-0.5297954082489014
1772556531012546300,6.92654638671875,-0.17399044334888458,-0.021458687260746956,-0.5054618716239929
1772556531022530300,6.9365302734375,-0.09491186589002609,0.044677190482616425,-0.4487389028072357
1772556531032514300,6.946514404296875,-0.005674929823726416,0.10673816502094269,-0.3803577125072479
1772556531042498300,6.956498291015625,0.09395046532154083,0.13640950620174408,-0.30730587244033813
1772556531052482300,6.966482421875,0.18277327716350555,0.1377703845500946,-0.2423977255821228
1772556531062466000,6.976466064453125,0.24297723174095154,0.13169437646865845,-0.1862793266773224
1772556531072450000,6.986449951171875,0.2713899612426758,0.11242987215518951,-0.15711718797683716
1772556531082434300,6.996434326171875,0.2746051847934723,0.09159409999847412,-0.16265788674354553
1772556531092418300,7.006418212890625,0.25013020634651184,0.067685566842556,-0.1956065148115158
1772556531102402300,7.01640234375,0.21354636549949646,0.058874767273664474,-0.24031832814216614
1772556531112387000,7.026386962890625,0.15224599838256836,0.06607702374458313,-0.286053329706192
1772556531122371000,7.03637109375,0.08298889547586441,0.07217352837324142,-0.32020303606987
1772556531132355300,7.046355224609375,0.014013820327818394,0.07397036254405975,-0.3303605914115906
1772556531142339300,7.05633935546875,-0.046479083597660065,0.06927467882633209,-0.2986634075641632
1772556531152323300,7.0663232421875,-0.09654997289180756,0.053108759224414825,-0.23651240766048431
1772556531162307300,7.076307373046875,-0.13585850596427917,0.025595374405384064,-0.14099866151809692
1772556531172291300,7.086291259765625,-0.16446590423583984,0.00395692465826869,-0.018978483974933624
1772556531182275300,7.096275390625,-0.18113543093204498,-0.005381449591368437,0.10967190563678741
1772556531192259300,7.10625927734375,-0.19947555661201477,-0.006696518510580063,0.23648524284362793
1772556531202243300,7.116243408203125,-0.22739827632904053,-0.001110005541704595,0.3323012590408325
1772556531212227300,7.126227294921875,-0.2654463052749634,-0.011269432492554188,0.3831612467765808
1772556531222211300,7.13621142578125,-0.29684898257255554,-0.010190052911639214,0.3865985870361328
1772556531232195000,7.146195068359375,-0.32905086874961853,-0.015689481049776077,0.3407280147075653
1772556531242179000,7.156178955078125,-0.35333409905433655,-0.01116450410336256,0.276493102312088
1772556531252163000,7.1661630859375,-0.36253559589385986,0.011565576307475567,0.1942555010318756
1772556531262142700,7.176142822265625,-0.3576023578643799,0.03931251913309097,0.10405848920345306
1772556531272126500,7.18612646484375,-0.3430361747741699,0.05372554436326027,0.012527509592473507
1772556531282110500,7.1961103515625,-0.3153363764286041,0.05817542225122452,-0.05913043022155762
1772556531292094500,7.206094482421875,-0.2739657759666443,0.06275925785303116,-0.11503124982118607
1772556531302078500,7.216078369140625,-0.2233729064464569,0.0663934051990509,-0.14992132782936096
1772556531312062500,7.2260625,-0.1778903752565384,0.0683998316526413,-0.16170048713684082
1772556531322046500,7.23604638671875,-0.14422614872455597,0.07015085965394974,-0.15249046683311462
1772556531332030500,7.246030517578125,-0.11002210527658463,0.06786560267210007,-0.12855744361877441
1772556531342014500,7.256014404296875,-0.07653312385082245,0.05371542647480965,-0.09018182754516602
1772556531351998500,7.26599853515625,-0.03770929574966431,0.0253977682441473,-0.04739521071314812
1772556531361982500,7.275982421875,-0.021389711648225784,-0.05987425148487091,-0.00887817982584238
1772556531371966700,7.285966796875,-0.06429722905158997,-0.1711278110742569,-0.004945223685353994
1772556531381950700,7.29595068359375,-0.13603027164936066,-0.2905924320220947,-0.032765135169029236
1772556531391934700,7.305934814453125,-0.22726164758205414,-0.4078897535800934,-0.09487111866474152
1772556531401918700,7.315918701171875,-0.3391477167606354,-0.5471184849739075,-0.1866135597229004
1772556531411902700,7.32590283203125,-0.4413752853870392,-0.6951143145561218,-0.30960577726364136
1772556531421886500,7.335886474609375,-0.5281269550323486,-0.7752137184143066,-0.40379461646080017
1772556531431871700,7.345871826171875,-0.5754137635231018,-0.7642414569854736,-0.44599825143814087
1772556531441855500,7.35585546875,-0.5397346019744873,-0.6852028369903564,-0.40502578020095825
1772556531451839500,7.365839599609375,-0.42652735114097595,-0.556337833404541,-0.2722112834453583
1772556531461823500,7.375823486328125,-0.2723364531993866,-0.40132400393486023,-0.06882034242153168
1772556531471807500,7.385807373046875,-0.13116174936294556,-0.23176158964633942,0.18293200433254242
1772556531481791500,7.39579150390625,-0.06037359684705734,-0.06416726857423782,0.4363349676132202
1772556531491775500,7.405775390625,-0.03208469972014427,0.05760843679308891,0.6205064058303833
1772556531501759500,7.415759521484375,-0.029619144275784492,0.1224374994635582,0.6902146339416504
1772556531511743500,7.425743408203125,-0.047810930758714676,0.1708846539258957,0.6465752720832825
1772556531521727500,7.4357275390625,-0.08753517270088196,0.24106667935848236,0.5239678621292114
1772556531531711500,7.44571142578125,-0.1396726816892624,0.3286156952381134,0.3699895143508911
1772556531541695500,7.455695556640625,-0.19896236062049866,0.39770129323005676,0.19949260354042053
1772556531551679500,7.465679443359375,-0.24319428205490112,0.4431265592575073,0.03263251110911369
1772556531561663700,7.475663818359375,-0.2702197730541229,0.466305136680603,-0.13065548241138458
1772556531571647700,7.485647705078125,-0.27597513794898987,0.47179415822029114,-0.2815629839897156
1772556531581631700,7.4956318359375,-0.2497379332780838,0.4495466351509094,-0.41932404041290283
1772556531591615500,7.505615478515625,-0.19611358642578125,0.41090312600135803,-0.5416510105133057
1772556531601599500,7.515599609375,-0.12408412992954254,0.374218612909317,-0.6300828456878662
1772556531611583500,7.52558349609375,-0.04041479900479317,0.328386127948761,-0.6728774905204773
1772556531621567500,7.5355673828125,0.05798713490366936,0.27318254113197327,-0.6704758405685425
1772556531631551500,7.545551513671875,0.1641998589038849,0.19127967953681946,-0.6183561682701111
1772556531641535500,7.555535400390625,0.2629256248474121,0.10338205099105835,-0.5344761610031128
1772556531651519500,7.56551953125,0.360253244638443,0.020207267254590988,-0.4320635199546814
1772556531661503500,7.57550341796875,0.44496282935142517,-0.05090126395225525,-0.3288673758506775
1772556531671487500,7.585487548828125,0.5194570422172546,-0.09940940886735916,-0.237954780459404
1772556531681471500,7.595471435546875,0.5849524140357971,-0.14023567736148834,-0.18017403781414032
1772556531691455500,7.60545556640625,0.6369913816452026,-0.1667919158935547,-0.14349591732025146
1772556531701439700,7.615439697265625,0.6697514653205872,-0.16831204295158386,-0.11556627601385117
1772556531711423700,7.625423828125,0.6917704939842224,-0.15088512003421783,-0.09641575068235397
1772556531721407700,7.63540771484375,0.7028114199638367,-0.1108093410730362,-0.07053648680448532
1772556531731391700,7.645391845703125,0.7062061429023743,-0.05900979042053223,-0.04505988582968712
1772556531741375500,7.65537548828125,0.7017964720726013,0.010380469262599945,-0.023514380678534508
1772556531751359500,7.665359375,0.6853221654891968,0.0689934492111206,0.001303084660321474
1772556531761344500,7.675344482421875,0.6662113070487976,0.11912132799625397,0.019644008949398994
1772556531771328500,7.68532861328125,0.6403323411941528,0.15440689027309418,0.04318901523947716
1772556531781312500,7.6953125,0.6134191751480103,0.17575877904891968,0.06543626636266708
1772556531791296500,7.705296630859375,0.5883370041847229,0.1955426037311554,0.08391114324331284
1772556531801280500,7.715280517578125,0.5685369372367859,0.22825661301612854,0.10391947627067566
1772556531811264500,7.725264404296875,0.5513901710510254,0.2606819272041321,0.12949088215827942
1772556531821248500,7.73524853515625,0.5374048352241516,0.2938808798789978,0.17604213953018188
1772556531831232500,7.745232421875,0.532505989074707,0.31595396995544434,0.23602691292762756
1772556531841216500,7.755216552734375,0.5272691249847412,0.3359961211681366,0.3073604702949524
1772556531851200500,7.765200439453125,0.5237694978713989,0.35666969418525696,0.3752883970737457
1772556531861184500,7.7751845703125,0.5210181474685669,0.3868699371814728,0.43903088569641113
1772556531871168500,7.78516845703125,0.5178383588790894,0.40642473101615906,0.4826768934726715
1772556531881152500,7.795152587890625,0.5077652335166931,0.4218788146972656,0.486226886510849
1772556531891136800,7.80513671875,0.4843214154243469,0.41683876514434814,0.4512777030467987
1772556531901120800,7.815120849609375,0.4470371603965759,0.3972158133983612,0.364286333322525
1772556531911104500,7.8251044921875,0.39467060565948486,0.3628820478916168,0.24584677815437317
1772556531921088500,7.835088623046875,0.3306572735309601,0.30507948994636536,0.11128444969654083
1772556531931072500,7.845072509765625,0.2577228844165802,0.21366114914417267,-0.02906733751296997
1772556531941056500,7.855056396484375,0.19874292612075806,0.12704236805438995,-0.13968946039676666
1772556531951040500,7.86504052734375,0.15490809082984924,0.06328602880239487,-0.20713187754154205
1772556531961024500,7.8750244140625,0.15354162454605103,0.039981771260499954,-0.22454603016376495
1772556531971008500,7.885008544921875,0.1988838016986847,0.06848584860563278,-0.18444573879241943
1772556531980992500,7.894992431640625,0.258441686630249,0.09092298150062561,-0.11037550866603851
1772556531990976500,7.9049765625,0.3301241099834442,0.06433797627687454,-0.06506022810935974
1772556532000960500,7.91496044921875,0.4021732807159424,-0.013106214813888073,-0.09592519700527191
1772556532010944500,7.924944580078125,0.45489001274108887,-0.14307673275470734,-0.24050314724445343
1772556532020928500,7.934928466796875,0.46691152453422546,-0.30566802620887756,-0.49892139434814453
1772556532030912500,7.94491259765625,0.4420138895511627,-0.4456786811351776,-0.7942166924476624
1772556532040896800,7.954896728515625,0.3936229348182678,-0.5155009031295776,-1.0383158922195435
1772556532050880500,7.964880615234375,0.3675694763660431,-0.47237393260002136,-1.1376709938049316
1772556532060864500,7.974864501953125,0.35809609293937683,-0.32182198762893677,-1.044386625289917
1772556532070848500,7.9848486328125,0.3720172345638275,-0.11438117176294327,-0.7259979248046875
1772556532080832500,7.99483251953125,0.44034889340400696,0.10550112277269363,-0.24849210679531097
1772556532090815500,8.0048154296875,0.4955887198448181,0.35651445388793945,0.3307853639125824
1772556532100799500,8.014799560546875,0.48054423928260803,0.6284497976303101,0.8986567854881287
1772556532110783500,8.024783447265625,0.42399150133132935,0.8103232383728027,1.3528988361358643
1772556532120767500,8.034767578125,0.36650875210762024,0.8512157797813416,1.577507734298706
1772556532130752500,8.04475244140625,0.30556151270866394,0.818452775478363,1.5866764783859253
1772556532140736500,8.054736572265625,0.22523152828216553,0.7858684659004211,1.4690089225769043
1772556532150720500,8.064720458984375,0.1369141787290573,0.7434967756271362,1.2658590078353882
1772556532160704500,8.07470458984375,0.05568163841962814,0.6803966164588928,1.021175503730774
1772556532170688500,8.0846884765625,-0.008595618419349194,0.5874224901199341,0.7430794835090637
1772556532180672800,8.0946728515625,-0.05090126395225525,0.48786261677742004,0.4479575455188751
1772556532190656800,8.10465673828125,-0.07647613435983658,0.404558926820755,0.1521647721529007
1772556532200640500,8.114640625,-0.10573175549507141,0.3203100860118866,-0.11483044177293777
1772556532210624500,8.12462451171875,-0.1400098353624344,0.2449066936969757,-0.32632458209991455
1772556532220608500,8.1346083984375,-0.16671735048294067,0.19099152088165283,-0.454653263092041
1772556532230592500,8.144592529296874,-0.18027204275131226,0.1443406641483307,-0.5007762908935547
1772556532240576500,8.154576416015624,-0.16436338424682617,0.10723670572042465,-0.4698500633239746
1772556532250560500,8.164560546875,-0.11226848512887955,0.09400185942649841,-0.3954485356807709
1772556532260544500,8.17454443359375,-0.04008270427584648,0.10099772363901138,-0.30135637521743774
1772556532270530000,8.184530029296875,0.05714557692408562,0.12727220356464386,-0.21442574262619019
1772556532280514000,8.19451416015625,0.16915041208267212,0.15623407065868378,-0.15294986963272095
1772556532290498000,8.204498046875,0.2817387282848358,0.17043271660804749,-0.1443401277065277
1772556532300482000,8.21448193359375,0.37792038917541504,0.17114537954330444,-0.18387076258659363
1772556532310466000,8.224466064453125,0.45356428623199463,0.1518601030111313,-0.2653200924396515
1772556532320450000,8.234449951171875,0.5031238794326782,0.11805792897939682,-0.3711029589176178
1772556532330434000,8.24443408203125,0.5269650220870972,0.06566955894231796,-0.5002114176750183
1772556532340418000,8.25441796875,0.5308675765991211,0.016640495508909225,-0.6242486834526062
1772556532350402000,8.264402099609375,0.5084669589996338,-0.020853882655501366,-0.7266440391540527
1772556532360385800,8.2743857421875,0.46977975964546204,-0.0557870976626873,-0.8153792023658752
1772556532370369800,8.284369873046876,0.4210641384124756,-0.09578884392976761,-0.8760401606559753
1772556532380354000,8.29435400390625,0.3810836970806122,-0.12773746252059937,-0.9202808737754822
1772556532390338000,8.304338134765626,0.3354496359825134,-0.15445402264595032,-0.9378156661987305
1772556532400322000,8.314322021484376,0.2888728082180023,-0.16733627021312714,-0.9182350039482117
1772556532410306000,8.32430615234375,0.23966585099697113,-0.16525313258171082,-0.8755570650100708
1772556532420290000,8.3342900390625,0.19888460636138916,-0.1375967413187027,-0.7914928197860718
1772556532430274000,8.344274169921874,0.17383676767349243,-0.09633958339691162,-0.672828197479248
1772556532440258000,8.354258056640624,0.16599030792713165,-0.04025048390030861,-0.53102046251297
1772556532450242000,8.364241943359374,0.16366003453731537,0.028309669345617294,-0.3704049587249756
1772556532460226000,8.37422607421875,0.14641180634498596,0.08882813900709152,-0.21535038948059082
1772556532470210000,8.3842099609375,0.10021315515041351,0.13581348955631256,-0.08517401665449142
1772556532480194000,8.394194091796875,0.031557127833366394,0.1810278445482254,0.014092649333178997
1772556532490178000,8.404177978515625,-0.037690918892621994,0.2182399183511734,0.07786257565021515
1772556532500162000,8.414162109375,-0.10256871581077576,0.2558128535747528,0.10390722751617432
1772556532510149000,8.424149169921876,-0.1422085464000702,0.2854445278644562,0.11715085804462433
1772556532520133000,8.434133056640626,-0.16079208254814148,0.31042736768722534,0.14141865074634552
1772556532530117000,8.4441171875,-0.16127490997314453,0.3254531919956207,0.19980579614639282
1772556532540101000,8.45410107421875,-0.14229616522789001,0.31366923451423645,0.29761144518852234
1772556532550086100,8.464086181640624,-0.11017364263534546,0.2697742283344269,0.42415234446525574
1772556532560070100,8.474070068359374,-0.06831647455692291,0.20026731491088867,0.5450044870376587
1772556532570054100,8.48405419921875,-0.029470540583133698,0.12895292043685913,0.642192542552948
1772556532580038100,8.4940380859375,0.014006096869707108,0.08215825259685516,0.6957519054412842
1772556532590022100,8.504022216796875,0.046674296259880066,0.048643700778484344,0.6922932267189026
1772556532600006100,8.514006103515625,0.045639123767614365,0.01804158464074135,0.6115163564682007
1772556532609990100,8.523990234375,0.003431216813623905,-0.00974743627011776,0.4715249240398407
1772556532619974000,8.533973876953125,-0.04706418141722679,-0.030940605327486992,0.3117901086807251
1772556532629958000,8.5439580078125,-0.09785758703947067,-0.06912101060152054,0.1722940057516098
1772556532639942000,8.55394189453125,-0.1391136795282364,-0.1444288194179535,0.045517951250076294
1772556532649926000,8.56392578125,-0.18104462325572968,-0.23396721482276917,-0.06088652089238167
1772556532659910000,8.573909912109375,-0.22192972898483276,-0.31361517310142517,-0.13578499853610992
1772556532669894000,8.583893798828125,-0.2168383002281189,-0.38855811953544617,-0.1761036515235901
1772556532679878000,8.5938779296875,-0.1653575301170349,-0.4488201439380646,-0.18396158516407013
1772556532689862000,8.60386181640625,-0.08061468601226807,-0.47421178221702576,-0.1603183001279831
1772556532699846100,8.61384619140625,0.016645822674036026,-0.4688577651977539,-0.1048494502902031
1772556532709830100,8.623830078125,0.1048947274684906,-0.45906320214271545,-0.0009635316673666239
1772556532719814100,8.633814208984376,0.14783766865730286,-0.4488920569419861,0.1378564089536667
1772556532729798100,8.643798095703126,0.14115633070468903,-0.4383520483970642,0.2949429452419281
1772556532739782100,8.6537822265625,0.09800992161035538,-0.42270225286483765,0.4399203956127167
1772556532749766100,8.66376611328125,0.033424802124500275,-0.40453842282295227,0.5418121218681335
1772556532759750000,8.67375,-0.05173217132687569,-0.36526772379875183,0.5846392512321472
1772556532769734000,8.68373388671875,-0.13849875330924988,-0.29281190037727356,0.5820437073707581
1772556532779718000,8.6937177734375,-0.22190655767917633,-0.21182303130626678,0.5401293039321899
1772556532789702000,8.703701904296874,-0.28760167956352234,-0.13443876802921295,0.47167032957077026
1772556532799686000,8.713685791015624,-0.3284095823764801,-0.06978786736726761,0.40488436818122864
1772556532809670000,8.723669921875,-0.34859713912010193,0.0009182579233311117,0.33093610405921936
1772556532819654000,8.73365380859375,-0.3379569947719574,0.07674058526754379,0.24974192678928375
1772556532829638000,8.743637939453125,-0.28828051686286926,0.15804369747638702,0.15085981786251068
1772556532839622100,8.7536220703125,-0.20605170726776123,0.20636701583862305,0.040469396859407425
1772556532849606100,8.763606201171875,-0.11478011310100555,0.21762047708034515,-0.05660175904631615
1772556532859590100,8.773590087890625,-0.02623453363776207,0.21724922955036163,-0.11988618969917297
1772556532869574100,8.78357421875,0.050164368003606796,0.21663589775562286,-0.1449659764766693
1772556532879558100,8.79355810546875,0.10403478890657425,0.19822867214679718,-0.13828517496585846
1772556532889542100,8.803542236328125,0.1428317129611969,0.15278369188308716,-0.09941127896308899
1772556532899526100,8.813526123046875,0.1661495566368103,0.09483010321855545,-0.05832509323954582
1772556532909510000,8.823510009765625,0.1619524210691452,0.019107647240161896,-0.014318219386041164
1772556532919494000,8.833493896484375,0.14208416640758514,-0.04591076448559761,0.022490927949547768
1772556532929478000,8.843477783203125,0.11132252961397171,-0.0783158466219902,0.0527028925716877
1772556532939462000,8.8534619140625,0.07877923548221588,-0.09400905668735504,0.06786320358514786
1772556532949446000,8.86344580078125,0.046787746250629425,-0.10316872596740723,0.06536169350147247
1772556532959430000,8.873429931640626,0.019589679315686226,-0.10384996235370636,0.045935001224279404
1772556532969414000,8.883413818359376,-0.0015009575290605426,-0.08614473789930344,0.008667523972690105
1772556532979398000,8.89339794921875,-0.013798103667795658,-0.058086737990379333,-0.055386558175086975
1772556532989382100,8.903382080078124,-0.017358217388391495,-0.016284430399537086,-0.13073964416980743
1772556532999366100,8.9133662109375,-0.015841813758015633,0.00281975488178432,-0.2097947746515274
1772556533009350100,8.92335009765625,-0.00526746641844511,0.007017163094133139,-0.26411792635917664
1772556533019334100,8.933334228515625,0.011384746991097927,0.0014178669080138206,-0.2909919023513794
1772556533029318100,8.943318115234375,0.03321121633052826,-0.0006865629111416638,-0.2869425415992737
1772556533039302100,8.95330224609375,0.05877117067575455,0.00481446273624897,-0.25864940881729126
1772556533049286000,8.963285888671875,0.08401660621166229,0.03529860079288483,-0.2192460596561432
1772556533059271200,8.973271240234375,0.10932968556880951,0.06998201459646225,-0.17409296333789825
1772556533069255200,8.983255126953125,0.1320858597755432,0.10628436505794525,-0.11637508124113083
1772556533079239000,8.993239013671875,0.14818175137043,0.15043264627456665,-0.04470861703157425
1772556533089223000,9.003222900390625,0.1553986370563507,0.19745048880577087,0.03900572285056114
1772556533099207000,9.01320703125,0.15628334879875183,0.23986239731311798,0.11582433432340622
1772556533109191000,9.02319091796875,0.156386137008667,0.26324281096458435,0.17927734553813934
1772556533119175000,9.0331748046875,0.1468437761068344,0.27211353182792664,0.2263423204421997
1772556533129159000,9.043158935546876,0.13512027263641357,0.2713888883590698,0.24946682155132294
1772556533139143000,9.053142822265626,0.11104103177785873,0.249799445271492,0.24481827020645142
1772556533149127000,9.063126953125,0.07295490056276321,0.21391388773918152,0.20971034467220306
1772556533159111000,9.07311083984375,0.021802499890327454,0.15071654319763184,0.1386662721633911
1772556533169095000,9.083094970703126,-0.03417474776506424,0.08334309607744217,0.0501723550260067
1772556533179079200,9.0930791015625,-0.0981806293129921,0.010676613077521324,-0.04459809511899948
1772556533189063200,9.103063232421874,-0.15685433149337769,-0.06214326620101929,-0.09982592612504959
1772556533199047200,9.113047119140624,-0.1933090090751648,-0.11574790626764297,-0.10691659897565842
1772556533209031200,9.12303125,-0.21238762140274048,-0.11706696450710297,-0.05616047605872154
1772556533219015200,9.13301513671875,-0.19843293726444244,-0.10639435052871704,0.017582455649971962
1772556533228999000,9.1429990234375,-0.16632772982120514,-0.12062148749828339,0.05197504907846451
1772556533238983000,9.15298291015625,-0.12229155749082565,-0.15762370824813843,0.012860405258834362
1772556533248967000,9.162966796875,-0.06884510815143585,-0.2355869561433792,-0.10572563111782074
1772556533258951000,9.172950927734375,-0.023620108142495155,-0.35811448097229004,-0.31461307406425476
1772556533268937500,9.1829375,-0.00803022924810648,-0.5047513246536255,-0.5773187279701233
1772556533278921500,9.19292138671875,-0.007772968150675297,-0.6360829472541809,-0.8439485430717468
1772556533288905500,9.202905517578126,-0.01973056234419346,-0.7366077303886414,-1.0288169384002686
1772556533298889500,9.212889404296876,-0.031553931534290314,-0.771159291267395,-1.0828399658203125
1772556533308873500,9.22287353515625,-0.04153572395443916,-0.7276639938354492,-0.9701413512229919
1772556533318857500,9.232857421875,-0.04742424190044403,-0.6135949492454529,-0.6932474374771118
1772556533328841500,9.242841552734374,-0.004039482679218054,-0.4087241291999817,-0.2824607193470001
1772556533338825500,9.252825439453124,0.08228927850723267,-0.14349883794784546,0.19879299402236938
1772556533348809500,9.2628095703125,0.15192215144634247,0.11766644567251205,0.6658957004547119
1772556533358793500,9.27279345703125,0.19019071757793427,0.3865245282649994,1.0776031017303467
1772556533368777200,9.282777099609374,0.2011626660823822,0.5615424513816833,1.3417162895202637
1772556533378761200,9.29276123046875,0.20908237993717194,0.5627794861793518,1.3866627216339111
1772556533388745200,9.3027451171875,0.2093217968940735,0.5280073881149292,1.2951173782348633
1772556533398729200,9.312729248046875,0.16558177769184113,0.4824492037296295,1.1265618801116943
1772556533408713200,9.322713134765625,0.09396085143089294,0.4064582884311676,0.9245768189430237
1772556533418697500,9.332697509765625,0.017236776649951935,0.31451159715652466,0.7146371603012085
1772556533428681500,9.342681396484375,-0.04417092353105545,0.20579656958580017,0.4964526295661926
1772556533438665500,9.35266552734375,-0.10171011835336685,0.08673063665628433,0.2833789885044098
1772556533448649500,9.3626494140625,-0.15419809520244598,-0.030414897948503494,0.0787680521607399
1772556533458633500,9.372633544921875,-0.20346976816654205,-0.12954974174499512,-0.10128267854452133
1772556533468617500,9.382617431640625,-0.24474290013313293,-0.2012108713388443,-0.24995523691177368
1772556533478601500,9.3926015625,-0.2656439244747162,-0.25355371832847595,-0.352629691362381
1772556533488585500,9.40258544921875,-0.2610667645931244,-0.26406174898147583,-0.4118639826774597
1772556533498569500,9.412569580078125,-0.23750975728034973,-0.23777075111865997,-0.4288802444934845
1772556533508553200,9.42255322265625,-0.19064106047153473,-0.18269577622413635,-0.41285228729248047
1772556533518537200,9.432537109375,-0.11451326310634613,-0.1056438684463501,-0.36367833614349365
1772556533528521200,9.442521240234376,-0.015371233224868774,-0.01272591482847929,-0.30985480546951294
1772556533538505200,9.452505126953126,0.09842430800199509,0.07011677324771881,-0.26185449957847595
1772556533548489200,9.4624892578125,0.19632211327552795,0.14017868041992188,-0.23009125888347626
1772556533558473500,9.472473388671874,0.2721244692802429,0.1755252182483673,-0.2061941772699356
1772556533568457500,9.48245751953125,0.33215662837028503,0.17618328332901,-0.19752399623394012
1772556533578441500,9.49244140625,0.37646976113319397,0.1569051891565323,-0.20423676073551178
1772556533588425500,9.502425537109374,0.39951092004776,0.1186094731092453,-0.22647787630558014
1772556533598409500,9.512409423828124,0.39599525928497314,0.07423508167266846,-0.2543204426765442
1772556533608393500,9.5223935546875,0.3732399046421051,0.02352849580347538,-0.2878008782863617
1772556533618377500,9.53237744140625,0.3390377163887024,-0.039382293820381165,-0.3209511339664459
1772556533628361500,9.542361572265625,0.29288700222969055,-0.10289708524942398,-0.3360041081905365
1772556533638345500,9.552345458984375,0.24100914597511292,-0.16995175182819366,-0.3242318630218506
1772556533648329500,9.56232958984375,0.1927875578403473,-0.2244006097316742,-0.2815272808074951
1772556533658313200,9.572313232421875,0.1569526046514511,-0.2663821578025818,-0.21436555683612823
1772556533668297200,9.582297119140625,0.1327122449874878,-0.29913103580474854,-0.1373908817768097
1772556533678281200,9.59228125,0.11445893347263336,-0.32233569025993347,-0.05264483392238617
1772556533688265200,9.60226513671875,0.09484901279211044,-0.32212263345718384,0.036265596747398376
1772556533698249200,9.612249267578125,0.07166086882352829,-0.33007749915122986,0.13654665648937225
1772556533708234200,9.622234130859376,0.037396639585494995,-0.3154706060886383,0.23965759575366974
1772556533718218200,9.63221826171875,-0.004793157335370779,-0.3042296767234802,0.3427450954914093
1772556533728202200,9.6422021484375,-0.06673135608434677,-0.29922664165496826,0.42616942524909973
1772556533738186200,9.652186279296876,-0.149155393242836,-0.303243488073349,0.47696414589881897
1772556533748170500,9.66217041015625,-0.2314864844083786,-0.3140774965286255,0.48352593183517456
1772556533758154500,9.672154541015624,-0.31252115964889526,-0.3082315921783447,0.4539547264575958
1772556533768138500,9.682138427734374,-0.3813231289386749,-0.29046645760536194,0.4078783094882965
1772556533778122500,9.69212255859375,-0.4292203485965729,-0.26552942395210266,0.3568015396595001
1772556533788106500,9.7021064453125,-0.4613870680332184,-0.22492526471614838,0.3042568266391754
1772556533798090500,9.712090576171875,-0.47182852029800415,-0.18725937604904175,0.2610073685646057
1772556533808074500,9.722074462890625,-0.443935364484787,-0.16244830191135406,0.22889922559261322
1772556533818058500,9.73205859375,-0.3865221440792084,-0.1558535099029541,0.2025589644908905
1772556533828042200,9.742042236328125,-0.32208988070487976,-0.16379985213279724,0.18843728303909302
1772556533838026200,9.752026123046875,-0.26135489344596863,-0.1606093794107437,0.19860151410102844
1772556533848010200,9.76201025390625,-0.22336943447589874,-0.14891357719898224,0.22439448535442352
1772556533857994200,9.771994140625,-0.23492756485939026,-0.2051483541727066,0.25235527753829956
1772556533867978200,9.781978271484375,-0.2669651210308075,-0.24072791635990143,0.21903593838214874
1772556533877962200,9.791962158203125,-0.31092405319213867,-0.24405580759048462,0.12865065038204193
1772556533887946200,9.8019462890625,-0.37714436650276184,-0.23317067325115204,0.0027534421533346176
1772556533897930500,9.811930419921875,-0.4400024116039276,-0.27542969584465027,-0.1539086103439331
1772556533907914500,9.82191455078125,-0.48528173565864563,-0.3601248860359192,-0.3233807384967804
1772556533917898500,9.8318984375,-0.49895334243774414,-0.4059666693210602,-0.47033101320266724
1772556533927882500,9.841882568359376,-0.46551069617271423,-0.37786686420440674,-0.5285746455192566
1772556533937866500,9.851866455078126,-0.3733709156513214,-0.34104761481285095,-0.47948163747787476
1772556533947850500,9.8618505859375,-0.22855114936828613,-0.3485907316207886,-0.32738929986953735
1772556533957834500,9.87183447265625,-0.06201862916350365,-0.3915049135684967,-0.09905814379453659
1772556533967818500,9.881818603515624,0.05324511229991913,-0.44948431849479675,0.17062659561634064
1772556533977802200,9.89180224609375,0.08925557881593704,-0.47665950655937195,0.4351418912410736
1772556533987786200,9.9017861328125,0.07346569746732712,-0.484469473361969,0.6554194092750549
1772556533997770200,9.911770263671874,0.022004367783665657,-0.4709637761116028,0.8075607419013977
1772556534007754200,9.921754150390624,-0.0651201456785202,-0.42302608489990234,0.8661603927612305
1772556534017738200,9.93173828125,-0.18193970620632172,-0.345495343208313,0.8517817258834839
1772556534027722200,9.94172216796875,-0.2977515161037445,-0.2483901083469391,0.7779519557952881
1772556534037706500,9.95170654296875,-0.39977750182151794,-0.1493127942085266,0.6587603092193604
1772556534047690500,9.9616904296875,-0.46868813037872314,-0.044560808688402176,0.5143991708755493
1772556534057674500,9.971674560546875,-0.5082184672355652,0.06277842819690704,0.3587019741535187
1772556534067658500,9.981658447265625,-0.5111641883850098,0.1790941208600998,0.20040500164031982
1772556534077642500,9.991642578125,-0.47426584362983704,0.27982020378112793,0.049556899815797806
1772556534087626500,10.00162646484375,-0.3963715732097626,0.3611760437488556,-0.08599879592657089
1772556534097610500,10.011610595703125,-0.2927224040031433,0.41630107164382935,-0.20889542996883392
1772556534107594500,10.021594482421875,-0.18614883720874786,0.4419827461242676,-0.316201388835907
1772556534117578200,10.031578125,-0.08348770439624786,0.4287510812282562,-0.38843002915382385
1772556534127562200,10.041562255859375,0.0011954930378124118,0.3605238199234009,-0.4190486669540405
1772556534137546200,10.051546142578125,0.07312081754207611,0.2678753733634949,-0.3932434320449829
1772556534147530200,10.0615302734375,0.13321930170059204,0.15254878997802734,-0.33668428659439087
1772556534157514200,10.07151416015625,0.17413663864135742,0.05047675594687462,-0.24900129437446594
1772556534167498200,10.081498291015626,0.18998219072818756,-0.02834402397274971,-0.1622818559408188
1772556534177482200,10.091482177734376,0.1867067664861679,-0.08732292056083679,-0.08378703892230988
1772556534187466500,10.101466552734376,0.17077253758907318,-0.1257595270872116,-0.030182136222720146
1772556534197450500,10.111450439453124,0.14124633371829987,-0.14158056676387787,-0.013589312322437763
1772556534207434500,10.1214345703125,0.11268899589776993,-0.1286005824804306,-0.03428154066205025
1772556534217418500,10.13141845703125,0.0819992646574974,-0.0954013541340828,-0.08277450501918793
1772556534227402500,10.141402587890624,0.049981143325567245,-0.062312111258506775,-0.1509532928466797
1772556534237386500,10.151386474609374,0.019168900325894356,-0.048597097396850586,-0.21925538778305054
1772556534247370500,10.16137060546875,0.002243713242933154,-0.04464682936668396,-0.2708844840526581
1772556534257354500,10.1713544921875,-0.0035265579354017973,-0.026398051530122757,-0.2971331477165222
1772556534267335000,10.1813349609375,0.0037918086163699627,-0.0015022892039269209,-0.2870456278324127
1772556534277319000,10.19131884765625,0.024501347914338112,0.02388668991625309,-0.25038668513298035
1772556534287303000,10.201302978515624,0.046435676515102386,0.05018593743443489,-0.19424058496952057
1772556534297287000,10.211286865234374,0.0690043643116951,0.06647170335054398,-0.1240449845790863
1772556534307271000,10.22127099609375,0.09017090499401093,0.08209273964166641,-0.05146079510450363
1772556534317255000,10.2312548828125,0.11067218333482742,0.09723946452140808,0.024157533422112465
1772556534327239000,10.241239013671875,0.1363905966281891,0.10814564675092697,0.10150744765996933
1772556534337223200,10.25122314453125,0.14770610630512238,0.11821532249450684,0.16236573457717896
1772556534347207200,10.261207275390625,0.14278751611709595,0.13923431932926178,0.21683724224567413
1772556534357191200,10.271191162109375,0.13662868738174438,0.1606365442276001,0.2657584547996521
1772556534367175200,10.281175048828125,0.14066922664642334,0.17239387333393097,0.3071162700653076
1772556534377159200,10.2911591796875,0.15470542013645172,0.18735471367835999,0.34675660729408264
1772556534387143000,10.301142822265625,0.16868674755096436,0.18800611793994904,0.3759278357028961
1772556534397127000,10.311126953125,0.1826947182416916,0.16029833257198334,0.3716238737106323
1772556534407111000,10.32111083984375,0.18003128468990326,0.09499974548816681,0.31279119849205017
1772556534417095000,10.331094970703125,0.15379223227500916,0.014883075840771198,0.22356490790843964
1772556534427079000,10.341078857421875,0.10398871451616287,-0.06630925089120865,0.12173549085855484
1772556534437063000,10.35106298828125,0.06051873788237572,-0.12959687411785126,0.04819336161017418
1772556534447047000,10.361046875,0.03539181128144264,-0.15462659299373627,0.03537796437740326
1772556534457031000,10.371031005859376,0.03534121438860893,-0.12236692756414413,0.10417567193508148
1772556534467015000,10.381014892578126,0.03918894752860069,-0.06547035276889801,0.24575038254261017
1772556534476999200,10.390999267578126,0.05558096989989281,0.0007131945458240807,0.40660184621810913
1772556534486983200,10.400983154296876,0.08936716616153717,0.06316139549016953,0.5057015419006348
1772556534496967200,10.41096728515625,0.1430136114358902,0.05240648239850998,0.48223403096199036
1772556534506951200,10.420951171875,0.17434251308441162,-0.027835359796881676,0.3326173722743988
1772556534516935200,10.43093505859375,0.1994878053665161,-0.12836596369743347,0.08814051002264023
1772556534526919200,10.440919189453124,0.20893430709838867,-0.23910951614379883,-0.21301347017288208
1772556534536903000,10.45090283203125,0.2159711718559265,-0.33414122462272644,-0.47591379284858704
1772556534546887000,10.460886962890624,0.2176004946231842,-0.3962956666946411,-0.6163479089736938
1772556534556871000,10.470870849609375,0.21873927116394043,-0.4348007142543793,-0.6120415329933167
1772556534566855000,10.48085498046875,0.23232485353946686,-0.4059930443763733,-0.4417603611946106
1772556534576839000,10.4908388671875,0.2549787759780884,-0.3039689362049103,-0.14740090072155
1772556534586823000,10.500822998046875,0.2518082559108734,-0.1525282859802246,0.20116427540779114
1772556534596807000,10.510806884765625,0.22142958641052246,0.05306455120444298,0.558430016040802
1772556534606791000,10.520791015625,0.18193064630031586,0.2757306396961212,0.8560715317726135
1772556534616775000,10.53077490234375,0.14222079515457153,0.4483999013900757,1.0316388607025146
1772556534626760000,10.540760009765625,0.10676959156990051,0.5348069667816162,1.050966501235962
1772556534636743200,10.5507431640625,0.07040359079837799,0.5365965962409973,0.9456437826156616
1772556534646728000,10.56072802734375,0.03190307319164276,0.4921844005584717,0.760772705078125
1772556534656712000,10.5707119140625,-0.003937483765184879,0.42718061804771423,0.5417734980583191
1772556534666696200,10.5806962890625,-0.027292873710393906,0.3416513502597809,0.32048720121383667
1772556534676680200,10.59068017578125,-0.028008731082081795,0.25678545236587524,0.10252424329519272
1772556534686664200,10.600664306640626,-0.014725416898727417,0.17566582560539246,-0.10886283218860626
1772556534696648200,10.610648193359374,0.00236328924074769,0.12258823215961456,-0.3139858841896057
1772556534706632000,10.6206318359375,0.004860801622271538,0.10465557128190994,-0.48542848229408264
1772556534716616000,10.630615966796874,0.0098038949072361,0.10722152888774872,-0.6058254837989807
1772556534726600000,10.640599853515624,0.013069462962448597,0.12618988752365112,-0.6701120734214783
1772556534736584000,10.650583984375,0.012779178097844124,0.1427377164363861,-0.6517847180366516
1772556534746568000,10.66056787109375,0.027224697172641754,0.17902594804763794,-0.5510634183883667
1772556534756552000,10.670552001953125,0.05949688330292702,0.22664539515972137,-0.40375784039497375
1772556534766536000,10.680535888671875,0.11095874011516571,0.26501595973968506,-0.23456163704395294
1772556534776520000,10.69052001953125,0.16336096823215485,0.28520724177360535,-0.07723646610975266
1772556534786504000,10.70050390625,0.2008393555879593,0.28024762868881226,0.033614419400691986
1772556534796488000,10.710488037109375,0.22101041674613953,0.26380395889282227,0.08440756052732468
1772556534806472000,10.720471923828125,0.23628124594688416,0.24419109523296356,0.08132654428482056
1772556534816456200,10.730456298828125,0.23936837911605835,0.22761905193328857,0.04221802577376366
1772556534826440200,10.740440185546875,0.22381152212619781,0.202877476811409,-0.019392605870962143
1772556534836424200,10.750424072265625,0.2019091546535492,0.16210155189037323,-0.08083119988441467
1772556534846408000,10.760407958984375,0.1767103224992752,0.11925075948238373,-0.12878701090812683
1772556534856392000,10.770391845703125,0.15099243819713593,0.09024734050035477,-0.1630062311887741
1772556534866376000,10.7803759765625,0.11455507576465607,0.087212935090065,-0.18825006484985352
1772556534876360000,10.79035986328125,0.08571330457925797,0.09123856574296951,-0.20789647102355957
1772556534886344000,10.800343994140626,0.06529032438993454,0.0745791643857956,-0.2089524120092392
1772556534896328000,10.810327880859376,0.04338262602686882,0.05632106214761734,-0.1926003396511078
1772556534906312000,10.82031201171875,0.0315784327685833,0.022654712200164795,-0.17403145134449005
1772556534916296000,10.8302958984375,0.023313578218221664,-0.006734601687639952,-0.14764352142810822
1772556534926280000,10.840280029296874,0.016219982877373695,-0.0034413367975503206,-0.10283742845058441
1772556534936264000,10.850263916015624,0.018438395112752914,0.034626152366399765,-0.03863820433616638
1772556534946248000,10.860248046875,0.014808240346610546,0.09095866978168488,0.025799106806516647
1772556534956232200,10.870232177734374,0.010698184370994568,0.14574815332889557,0.09828396141529083
1772556534966216200,10.88021630859375,0.006489058490842581,0.21712352335453033,0.17603334784507751
1772556534976200200,10.8902001953125,-0.010524812154471874,0.2718016803264618,0.24355725944042206
1772556534986184200,10.90018408203125,-0.09383568167686462,0.322475790977478,0.36616814136505127
1772556534996168000,10.91016796875,-0.18557386100292206,0.16059580445289612,0.30982550978660583
1772556535006152000,10.92015185546875,-0.285906046628952,-0.022834476083517075,0.17492307722568512
1772556535016136000,10.930135986328125,-0.3873583674430847,-0.16585874557495117,0.008194812573492527
1772556535026120000,10.940119873046875,-0.47564271092414856,-0.21355755627155304,-0.12775157392024994
1772556535036104000,10.95010400390625,-0.5388264656066895,-0.2063707411289215,-0.18470220267772675
1772556535046088000,10.960087890625,-0.5482527017593384,-0.16287440061569214,-0.1452765017747879
1772556535056072000,10.970072021484375,-0.5349912643432617,-0.10379244387149811,-0.07952757924795151
1772556535066056000,10.980055908203125,-0.4916118085384369,-0.02941834181547165,-0.01407533884048462
