time,seconds_elapsed,z,y,x
1772556524166017000,0.08001708984375,-0.46200045943260193,-0.1083044707775116,0.46018490195274353
1772556524176001000,0.0900009765625,-0.5048747062683105,-0.02736475132405758,0.31194794178009033
1772556524185985000,0.099985107421875,-0.5221594572067261,0.030186692252755165,0.17872674763202667
1772556524195969000,0.109968994140625,-0.4948468506336212,0.05325758829712868,0.06132771819829941
1772556524205953000,0.119953125,-0.4378533363342285,0.06812255084514618,-0.04312092438340187
1772556524215937000,0.12993701171875,-0.35932937264442444,0.09333040565252304,-0.14944039285182953
1772556524225921300,0.13992138671875,-0.27286797761917114,0.11427723616361618,-0.264300137758255
1772556524235905000,0.149905029296875,-0.15095415711402893,0.09686292707920074,-0.3463277518749237
1772556524245888000,0.159887939453125,-0.027640482410788536,0.07490942627191544,-0.3708626627922058
1772556524255870700,0.16987060546875,0.07497847080230713,0.07038888335227966,-0.33631497621536255
1772556524265854700,0.179854736328125,0.1604134738445282,0.07286854833364487,-0.2736760973930359
1772556524275839000,0.1898388671875,0.21945670247077942,0.05875648930668831,-0.21094805002212524
1772556524285823000,0.199822998046875,0.24530214071273804,0.01447211392223835,-0.1650753617286682
1772556524295807000,0.209806884765625,0.23152413964271545,-0.0342477411031723,-0.11062952131032944
1772556524305791000,0.219791015625,0.19822929799556732,-0.06781209260225296,-0.05816631764173508
1772556524315775000,0.22977490234375,0.1661795973777771,-0.07457810640335083,-0.01744401454925537
1772556524325759000,0.239759033203125,0.14122897386550903,-0.059558942914009094,-0.015231193974614143
1772556524335743000,0.249742919921875,0.11843778938055038,-0.028834600001573563,-0.03382289409637451
1772556524345727000,0.25972705078125,0.10050619393587112,0.006763075012713671,-0.06821069121360779
1772556524355711000,0.2697109375,0.07991760224103928,0.02827538549900055,-0.08761878311634064
1772556524365695000,0.279695068359375,0.06294847279787064,0.03843614459037781,-0.09013040363788605
1772556524375678700,0.2896787109375,0.0544915534555912,0.04588735103607178,-0.06717564910650253
1772556524385662700,0.299662841796875,0.04589380696415901,0.051352426409721375,-0.021142376586794853
1772556524395646700,0.309646728515625,0.043818529695272446,0.05912749469280243,0.03238319605588913
1772556524405630700,0.319630615234375,0.049591995775699615,0.09117810428142548,0.08536811918020248
1772556524415614700,0.32961474609375,0.060857996344566345,0.13629841804504395,0.12159235030412674
1772556524425599000,0.339598876953125,0.07935364544391632,0.19255156815052032,0.14923331141471863
1772556524435583000,0.3495830078125,0.10152136534452438,0.2440178394317627,0.1649273782968521
1772556524445567000,0.35956689453125,0.11600975692272186,0.2908894419670105,0.17596910893917084
1772556524455550000,0.369550048828125,0.1283332109451294,0.3305034041404724,0.1807911992073059
1772556524465534000,0.379533935546875,0.14234064519405365,0.3658347725868225,0.1889713555574417
1772556524475518000,0.38951806640625,0.15919427573680878,0.39592307806015015,0.19672909379005432
1772556524485501700,0.399501708984375,0.18132594227790833,0.4058907628059387,0.21213042736053467
1772556524495485700,0.409485595703125,0.21373207867145538,0.3981843888759613,0.2490190714597702
1772556524505469700,0.4194697265625,0.24864265322685242,0.3745318055152893,0.2802281081676483
1772556524515453700,0.42945361328125,0.2837037742137909,0.34412598609924316,0.3048407733440399
1772556524525438000,0.43943798828125,0.302639365196228,0.3124122619628906,0.30527326464653015
1772556524535422000,0.449421875,0.2956153452396393,0.24859307706356049,0.2870555520057678
1772556524545406000,0.459406005859375,0.2742064595222473,0.14449676871299744,0.25152286887168884
1772556524555390000,0.469389892578125,0.23541948199272156,0.011413746513426304,0.19844314455986023
1772556524565374000,0.4793740234375,0.1913665384054184,-0.11880683898925781,0.15082421898841858
1772556524575358000,0.48935791015625,0.14946486055850983,-0.2297995388507843,0.12805062532424927
1772556524585342000,0.499342041015625,0.10957549512386322,-0.29606324434280396,0.14060503244400024
1772556524595326000,0.509325927734375,0.09197172522544861,-0.313744455575943,0.19830602407455444
1772556524605310000,0.51931005859375,0.10002805292606354,-0.2793619930744171,0.2969606816768646
1772556524615294000,0.5292939453125,0.1371574103832245,-0.23018640279769897,0.42698293924331665
1772556524625278000,0.53927783203125,0.19722980260849,-0.19551123678684235,0.5360550880432129
1772556524635261700,0.54926171875,0.2604866325855255,-0.18297453224658966,0.5787546634674072
1772556524645245700,0.55924560546875,0.3159336447715759,-0.20388753712177277,0.5225414633750916
1772556524655229000,0.56922900390625,0.35927918553352356,-0.262910395860672,0.37387028336524963
1772556524665213000,0.579212890625,0.36103686690330505,-0.33287906646728516,0.15366947650909424
1772556524675197000,0.589197021484375,0.3053632378578186,-0.4067215323448181,-0.08521046489477158
1772556524685181000,0.599180908203125,0.21374142169952393,-0.47743722796440125,-0.3069777488708496
1772556524695165000,0.6091650390625,0.10304301232099533,-0.5353404879570007,-0.4564535617828369
1772556524705149000,0.61914892578125,-0.0051327296532690525,-0.5494922399520874,-0.5043296813964844
1772556524715133000,0.6291328125,-0.06500237435102463,-0.4987359344959259,-0.4279801845550537
1772556524725117000,0.639116943359375,-0.07641135156154633,-0.35151877999305725,-0.23440030217170715
1772556524735101000,0.649100830078125,-0.06545578688383102,-0.13344256579875946,0.05306565389037132
1772556524745085000,0.6590849609375,-0.03883003443479538,0.0958380252122879,0.36978980898857117
1772556524755068700,0.669068603515625,-0.010227970778942108,0.2967057228088379,0.6447033882141113
1772556524765052700,0.679052734375,0.027835525572299957,0.42836281657218933,0.8410782217979431
1772556524775037000,0.689036865234375,0.05207815766334534,0.5093516111373901,0.9389647245407104
1772556524785021000,0.69902099609375,0.06399260461330414,0.5540146827697754,0.9450780153274536
1772556524795005000,0.7090048828125,0.06897731870412827,0.564506471157074,0.8681800961494446
1772556524804989000,0.718989013671875,0.055263638496398926,0.5497525930404663,0.7414152026176453
1772556524814973000,0.728972900390625,0.042166125029325485,0.4842579960823059,0.5876577496528625
1772556524824957000,0.73895703125,0.04492516070604324,0.38738709688186646,0.41288942098617554
1772556524834941000,0.74894091796875,0.05081241577863693,0.2702721655368805,0.2276674211025238
1772556524844925000,0.758925048828125,0.0509122833609581,0.13774235546588898,0.0286113154143095
1772556524854909000,0.768908935546875,0.03190262243151665,0.022044869139790535,-0.14624063670635223
1772556524864893000,0.778892822265625,0.0070715732872486115,-0.07248988747596741,-0.2784580588340759
1772556524874876000,0.7888759765625,-0.0016593742184340954,-0.1470680832862854,-0.3604796528816223
1772556524884860000,0.79885986328125,0.0010032542049884796,-0.18768209218978882,-0.3980717658996582
1772556524894844000,0.808843994140625,0.012558843940496445,-0.18356747925281525,-0.4013272821903229
1772556524904828000,0.818827880859375,0.0317719541490078,-0.14209461212158203,-0.3676726520061493
1772556524914812000,0.82881201171875,0.0491551011800766,-0.08936922997236252,-0.32113027572631836
1772556524924796000,0.8387958984375,0.08807294070720673,-0.05994183197617531,-0.25804638862609863
1772556524934780000,0.84877978515625,0.1288222223520279,-0.04486221447587013,-0.18059875071048737
1772556524944764000,0.858763916015625,0.15956762433052063,-0.0350564569234848,-0.10844837874174118
1772556524954748000,0.868747802734375,0.16741999983787537,-0.01481730118393898,-0.05683709308505058
1772556524964732000,0.87873193359375,0.16382072865962982,0.00007829070091247559,-0.03884477540850639
1772556524974716000,0.8887158203125,0.14163129031658173,0.004916309379041195,-0.05152108520269394
1772556524984700000,0.898699951171875,0.10212302953004837,0.006321127060800791,-0.0882687196135521
1772556524994684000,0.908683837890625,0.06890717148780823,-0.011905337683856487,-0.12941433489322662
1772556525004668000,0.91866796875,0.028032178059220314,-0.04753603786230087,-0.1556406170129776
1772556525014651600,0.928651611328125,-0.01976100541651249,-0.07814475148916245,-0.18026447296142578
1772556525024636000,0.938635986328125,-0.06528294831514359,-0.09921594709157944,-0.2048473060131073
1772556525034620000,0.948619873046875,-0.11840231716632843,-0.08601663261651993,-0.22117871046066284
1772556525044604000,0.95860400390625,-0.16102807223796844,-0.05366934463381767,-0.22438062727451324
1772556525054588000,0.968587890625,-0.2020350843667984,-0.013886533677577972,-0.20979972183704376
1772556525064572000,0.978572021484375,-0.2126573771238327,0.010390309616923332,-0.17397087812423706
1772556525074556000,0.988555908203125,-0.22224050760269165,0.030945146456360817,-0.10173970460891724
1772556525084540000,0.998539794921875,-0.2334899604320526,0.04164892062544823,-0.01207773108035326
1772556525094523000,1.00852294921875,-0.25404247641563416,0.03203823044896126,0.06957924365997314
1772556525104507000,1.0185068359375,-0.28185999393463135,0.010748389177024364,0.13967949151992798
1772556525114491000,1.028490966796875,-0.32544058561325073,-0.020544668659567833,0.19352518022060394
1772556525124475000,1.038474853515625,-0.38308656215667725,-0.05109591782093048,0.23618023097515106
1772556525134459000,1.048458984375,-0.4419578015804291,-0.07686792314052582,0.26205575466156006
1772556525144443000,1.05844287109375,-0.5032850503921509,-0.08682495355606079,0.2582953870296478
1772556525154427000,1.068427001953125,-0.5414515733718872,-0.08245351910591125,0.23177194595336914
1772556525164411000,1.078410888671875,-0.5684853196144104,-0.05673324316740036,0.17034907639026642
1772556525174395000,1.088394775390625,-0.5681730508804321,-0.010690733790397644,0.09775727987289429
1772556525184379000,1.09837890625,-0.5487048029899597,0.04049202799797058,0.032023269683122635
1772556525194363000,1.10836279296875,-0.5048794746398926,0.08298206329345703,-0.024034203961491585
1772556525204347000,1.118346923828125,-0.4471599757671356,0.1272278130054474,-0.05517880991101265
1772556525214331000,1.128330810546875,-0.3739599287509918,0.17004074156284332,-0.06732901185750961
1772556525224315000,1.13831494140625,-0.2838076651096344,0.19218653440475464,-0.05884044989943504
1772556525234299000,1.148298828125,-0.222519651055336,0.1594170480966568,-0.05501437932252884
1772556525244283000,1.158282958984375,-0.22452448308467865,0.07519511878490448,-0.08255066722631454
1772556525254267000,1.168266845703125,-0.24654248356819153,-0.04639390483498573,-0.13969886302947998
1772556525264252000,1.178251953125,-0.2631528973579407,-0.1748403012752533,-0.25037717819213867
1772556525274236000,1.18823583984375,-0.2722043991088867,-0.2572442889213562,-0.38627099990844727
1772556525284220000,1.198219970703125,-0.28651145100593567,-0.2964356541633606,-0.5127218961715698
1772556525294204000,1.208203857421875,-0.298222154378891,-0.2991640567779541,-0.5853899717330933
1772556525304188000,1.21818798828125,-0.2763488292694092,-0.30337122082710266,-0.5736600756645203
1772556525314172000,1.228171875,-0.21991084516048431,-0.2953879237174988,-0.45766007900238037
1772556525324156200,1.23815625,-0.14228954911231995,-0.26500099897384644,-0.25467449426651
1772556525334140200,1.24814013671875,-0.07390935719013214,-0.23919925093650818,0.021805401891469955
1772556525344123100,1.258123046875,-0.04399619996547699,-0.21771739423274994,0.34639865159988403
1772556525354107100,1.268107177734375,-0.06348558515310287,-0.21764560043811798,0.6683733463287354
1772556525364091100,1.278091064453125,-0.11688089370727539,-0.24202044308185577,0.9428235292434692
1772556525374075000,1.288074951171875,-0.17893095314502716,-0.2760494649410248,1.1226646900177002
1772556525384059000,1.298058837890625,-0.25997281074523926,-0.26254910230636597,1.1887351274490356
1772556525394043000,1.30804296875,-0.3657579720020294,-0.20880116522312164,1.1458704471588135
1772556525404027000,1.31802685546875,-0.47929757833480835,-0.12016955763101578,0.9995281100273132
1772556525414011000,1.328010986328125,-0.5848501324653625,-0.0028785374015569687,0.7755986452102661
1772556525423995100,1.3379951171875,-0.6618556976318359,0.10952923446893692,0.5111709833145142
1772556525433979100,1.347979248046875,-0.7049270868301392,0.1997816413640976,0.2322596311569214
1772556525443963100,1.357963134765625,-0.7081987857818604,0.2819630801677704,-0.032762181013822556
1772556525453947100,1.367947021484375,-0.6596810817718506,0.352957546710968,-0.28438040614128113
1772556525463931100,1.37793115234375,-0.5669223666191101,0.4072200059890747,-0.5202211141586304
1772556525473915100,1.3879150390625,-0.4364876449108124,0.44937533140182495,-0.7410828471183777
1772556525483899100,1.397899169921875,-0.29246416687965393,0.4737568497657776,-0.9164261817932129
1772556525493883100,1.407883056640625,-0.1589382141828537,0.4811173677444458,-1.0233758687973022
1772556525503867100,1.4178671875,-0.03200637176632881,0.42916417121887207,-1.0429569482803345
1772556525513851100,1.42785107421875,0.09694522619247437,0.32183343172073364,-0.9577242732048035
1772556525523835000,1.4378349609375,0.2006540447473526,0.15370459854602814,-0.7981873750686646
1772556525533819000,1.44781884765625,0.272672176361084,-0.03354790806770325,-0.5887556076049805
1772556525543803000,1.457802978515625,0.29863640666007996,-0.20126233994960785,-0.37584519386291504
1772556525553787000,1.467786865234375,0.29186683893203735,-0.3184488117694855,-0.20492936670780182
1772556525563771100,1.477771240234375,0.26870906352996826,-0.37401914596557617,-0.08171474933624268
1772556525573755100,1.487755126953125,0.23216010630130768,-0.37186524271965027,-0.017725517973303795
1772556525583739100,1.4977392578125,0.19499462842941284,-0.32850444316864014,-0.005512794014066458
1772556525593723100,1.50772314453125,0.15628556907176971,-0.2533864378929138,-0.030333176255226135
1772556525603707100,1.51770703125,0.12080240994691849,-0.1472882181406021,-0.07273043692111969
1772556525613690000,1.527690185546875,0.09743423759937286,-0.04147842898964882,-0.12767010927200317
1772556525623674000,1.537674072265625,0.08532591164112091,0.062407221645116806,-0.17228925228118896
1772556525633657900,1.547657958984375,0.08802475035190582,0.1506899893283844,-0.19870500266551971
1772556525643641900,1.557641845703125,0.0969010666012764,0.2184024602174759,-0.19680777192115784
1772556525653625900,1.5676259765625,0.11360111087560654,0.2719065845012665,-0.18017813563346863
1772556525663609900,1.57760986328125,0.13443900644779205,0.31913962960243225,-0.15266822278499603
1772556525673594000,1.587593994140625,0.15385203063488007,0.3652729094028473,-0.11645118147134781
1772556525683578000,1.597578125,0.17716480791568756,0.4047635793685913,-0.09086991846561432
1772556525693562000,1.60756201171875,0.20628264546394348,0.4372321367263794,-0.0693841502070427
1772556525703546000,1.617546142578125,0.22572211921215057,0.4758809804916382,-0.04415549337863922
1772556525713530000,1.627530029296875,0.24045011401176453,0.5207458138465881,-0.008898518048226833
1772556525723514000,1.63751416015625,0.2535802721977234,0.5758301019668579,0.03205104544758797
1772556525733498000,1.647498046875,0.2678905427455902,0.6174349784851074,0.07408902794122696
1772556525743482000,1.657482177734375,0.28060367703437805,0.6291489005088806,0.1273767501115799
1772556525753466000,1.667466064453125,0.2984248399734497,0.617333710193634,0.18321149051189423
1772556525763450000,1.6774501953125,0.31654179096221924,0.5590344071388245,0.20572665333747864
1772556525773434000,1.68743408203125,0.3197712004184723,0.45176124572753906,0.19128908216953278
1772556525783417900,1.69741796875,0.2842680513858795,0.2916799783706665,0.10775343328714371
1772556525793401900,1.70740185546875,0.22287780046463013,0.10306376218795776,-0.02787969447672367
1772556525803385900,1.7173857421875,0.1523759365081787,-0.07567243278026581,-0.18130546808242798
1772556525813370000,1.7273701171875,0.08922377973794937,-0.2293628305196762,-0.3134799599647522
1772556525823354000,1.73735400390625,0.03855500742793083,-0.33540910482406616,-0.388257771730423
1772556525833338000,1.747338134765625,0.02177608013153076,-0.3871252238750458,-0.38172653317451477
1772556525843322000,1.757322021484375,0.04991983622312546,-0.3683462142944336,-0.2859715223312378
1772556525853306000,1.76730615234375,0.11861763894557953,-0.28144901990890503,-0.10956971347332001
1772556525863290000,1.7772900390625,0.21376945078372955,-0.1618371307849884,0.1245674192905426
1772556525873274000,1.787274169921875,0.3258921504020691,-0.03356689214706421,0.35696688294410706
1772556525883258000,1.797258056640625,0.43315389752388,0.06261609494686127,0.5156318545341492
1772556525893242000,1.8072421875,0.5172624588012695,0.06795480847358704,0.5468469262123108
1772556525903226000,1.81722607421875,0.5615001916885376,-0.012284102849662304,0.4407564401626587
1772556525913210000,1.827210205078125,0.5610280632972717,-0.15933039784431458,0.22691191732883453
1772556525923193900,1.83719384765625,0.5022318363189697,-0.38204923272132874,-0.053005218505859375
1772556525933177900,1.847177734375,0.40950652956962585,-0.6178041100502014,-0.3356456160545349
1772556525943161900,1.857161865234375,0.28190356492996216,-0.7731761336326599,-0.585728108882904
1772556525953145000,1.86714501953125,0.14297276735305786,-0.7615579962730408,-0.7429410219192505
1772556525963129000,1.877129150390625,0.032139454036951065,-0.5659485459327698,-0.7514386773109436
1772556525973113000,1.887113037109375,-0.03748580440878868,-0.2351987212896347,-0.5746204257011414
1772556525983097000,1.89709716796875,-0.06781841069459915,0.14634810388088226,-0.2273455560207367
1772556525993081000,1.9070810546875,-0.06223026663064957,0.4633142352104187,0.21581335365772247
1772556526003065000,1.917065185546875,-0.05380935221910477,0.6954779624938965,0.6404250860214233
1772556526013049000,1.927049072265625,-0.0436185859143734,0.8242093920707703,0.9679560661315918
1772556526023033000,1.937033203125,-0.04238314554095268,0.9039435982704163,1.1663538217544556
1772556526033017000,1.94701708984375,-0.06701593846082687,0.9725751876831055,1.2335748672485352
1772556526043000800,1.957000732421875,-0.10361762344837189,1.0031675100326538,1.1899442672729492
1772556526052984800,1.96698486328125,-0.14898064732551575,1.012824296951294,1.0623633861541748
1772556526062969000,1.976968994140625,-0.16899509727954865,0.9990789890289307,0.8911740779876709
1772556526072953000,1.986953125,-0.16457664966583252,0.9746612906455994,0.6702430248260498
1772556526082937000,1.99693701171875,-0.16760173439979553,0.9181327223777771,0.4169396758079529
1772556526092921000,2.006921142578125,-0.17415077984333038,0.8644590973854065,0.14630421996116638
1772556526102905000,2.016905029296875,-0.1856258064508438,0.8149858117103577,-0.1058683767914772
1772556526112889000,2.02688916015625,-0.2346029430627823,0.7618693709373474,-0.3017154633998871
1772556526122873000,2.036873046875,-0.28393852710723877,0.6795454621315002,-0.4433751404285431
1772556526132857000,2.046857177734375,-0.3214900493621826,0.5765450596809387,-0.5277087688446045
1772556526142841000,2.056841064453125,-0.33195096254348755,0.4660974144935608,-0.5634068250656128
1772556526152825000,2.0668251953125,-0.3089766502380371,0.36702221632003784,-0.5372109413146973
1772556526162809000,2.07680908203125,-0.26271942257881165,0.30469760298728943,-0.4655870497226715
1772556526172793000,2.08679296875,-0.20499403774738312,0.29004693031311035,-0.3552975654602051
1772556526182777000,2.096777099609375,-0.13830502331256866,0.316407710313797,-0.2360404133796692
1772556526192760800,2.1067607421875,-0.05859179422259331,0.3452698886394501,-0.12356101721525192
1772556526202745000,2.1167451171875,0.02786613442003727,0.3843214213848114,-0.03069765493273735
1772556526212729000,2.12672900390625,0.10911455750465393,0.42164865136146545,0.041585773229599
1772556526222713000,2.136713134765625,0.17949336767196655,0.43532878160476685,0.07885751128196716
1772556526232697000,2.146697021484375,0.2194538712501526,0.41931694746017456,0.0788499042391777
1772556526242681000,2.15668115234375,0.22923539578914642,0.38024625182151794,0.04827095940709114
1772556526252665000,2.1666650390625,0.20985542237758636,0.30635929107666016,-0.004303249530494213
1772556526262648000,2.17664794921875,0.1780785769224167,0.21789655089378357,-0.07232730835676193
1772556526272632000,2.186632080078125,0.12869831919670105,0.14215172827243805,-0.13706371188163757
1772556526282616000,2.196615966796875,0.0651334598660469,0.09292984753847122,-0.18535001575946808
1772556526292600000,2.20660009765625,0.000824245042167604,0.08283700048923492,-0.21571084856987
1772556526302584000,2.216583984375,-0.057192184031009674,0.0928153321146965,-0.1964101344347
1772556526312568000,2.226568115234375,-0.10655497759580612,0.123825304210186,-0.12712891399860382
1772556526322552300,2.23655224609375,-0.15152885019779205,0.15599817037582397,-0.016836227849125862
1772556526332536300,2.246536376953125,-0.18578360974788666,0.19732293486595154,0.11678609251976013
1772556526342520300,2.256520263671875,-0.22746926546096802,0.2424885481595993,0.26234596967697144
1772556526352504000,2.266504150390625,-0.2720679044723511,0.2826206088066101,0.4110880196094513
1772556526362488000,2.276488037109375,-0.3228229582309723,0.2923368811607361,0.5428526997566223
1772556526372472000,2.28647216796875,-0.38228148221969604,0.2821194529533386,0.6415309309959412
1772556526382456000,2.2964560546875,-0.44705647230148315,0.2671477198600769,0.6924681067466736
1772556526392440000,2.306440185546875,-0.5098974704742432,0.24567170441150665,0.7026137113571167
1772556526402424000,2.316424072265625,-0.5606266856193542,0.2254021316766739,0.6640743017196655
1772556526412407000,2.326406982421875,-0.5895965099334717,0.19244830310344696,0.5958490371704102
1772556526422392000,2.33639208984375,-0.5987924337387085,0.15614889562129974,0.49927186965942383
1772556526432375300,2.346375244140625,-0.5806306004524231,0.11371934413909912,0.39539414644241333
1772556526442359300,2.356359375,-0.5407811403274536,0.07844231277704239,0.2905055284500122
1772556526452343300,2.36634326171875,-0.4777604341506958,0.06004433333873749,0.19784370064735413
1772556526462327300,2.376327392578125,-0.40352508425712585,0.06522258371114731,0.14462202787399292
1772556526472311000,2.38631103515625,-0.3462367653846741,0.0771639347076416,0.13199758529663086
1772556526482295000,2.396294921875,-0.3085714280605316,0.06513842940330505,0.13540935516357422
1772556526492279000,2.406279052734375,-0.28836730122566223,0.01154724508523941,0.1306765079498291
1772556526502263000,2.416262939453125,-0.28538778424263,-0.08977511525154114,0.07128242403268814
1772556526512247000,2.4262470703125,-0.3152565062046051,-0.24426940083503723,-0.05720056593418121
1772556526522231000,2.43623095703125,-0.38831502199172974,-0.4626011848449707,-0.27390676736831665
1772556526532215000,2.446215087890625,-0.4537428617477417,-0.6409981846809387,-0.5122718811035156
1772556526542199000,2.456198974609375,-0.4477750062942505,-0.706647515296936,-0.7072403430938721
1772556526552183000,2.46618310546875,-0.38845813274383545,-0.6487991213798523,-0.7824825048446655
1772556526562167000,2.4761669921875,-0.2964049279689789,-0.5292599201202393,-0.6736708283424377
1772556526572151300,2.4861513671875,-0.19852358102798462,-0.44938525557518005,-0.3737964630126953
1772556526582135300,2.49613525390625,-0.11489206552505493,-0.4114157557487488,0.0668799951672554
1772556526592119300,2.506119384765625,-0.06537795811891556,-0.44925135374069214,0.5295464396476746
1772556526602103300,2.516103271484375,-0.055182576179504395,-0.50508052110672,0.9137505292892456
1772556526612087300,2.52608740234375,-0.08548489212989807,-0.5555681586265564,1.1631897687911987
1772556526622071000,2.536071044921875,-0.1499195396900177,-0.5933073163032532,1.2619693279266357
1772556526632055000,2.546054931640625,-0.22982780635356903,-0.5654113292694092,1.2308502197265625
1772556526642039000,2.5560390625,-0.32454952597618103,-0.47312554717063904,1.1015583276748657
1772556526652023000,2.56602294921875,-0.39866629242897034,-0.3389189541339874,0.9069231748580933
1772556526662007000,2.576007080078125,-0.4330517053604126,-0.18855822086334229,0.6767845153808594
1772556526671991000,2.585990966796875,-0.427962064743042,-0.052811913192272186,0.4234185218811035
1772556526681975000,2.59597509765625,-0.36934053897857666,0.0583132728934288,0.14892837405204773
1772556526691959000,2.605958984375,-0.2752263844013214,0.13004951179027557,-0.15847308933734894
1772556526701943000,2.615943115234375,-0.14767082035541534,0.15671281516551971,-0.4721734821796417
1772556526711927300,2.62592724609375,-0.005975870415568352,0.14471662044525146,-0.75079345703125
1772556526721911300,2.635911376953125,0.11161946505308151,0.10613033920526505,-0.9538142085075378
1772556526731895300,2.645895263671875,0.1956712305545807,0.07721240073442459,-1.0750980377197266
1772556526741879300,2.65587939453125,0.25809094309806824,0.04181686043739319,-1.1126917600631714
1772556526751863300,2.66586328125,0.29241275787353516,-0.0016709516057744622,-1.0770975351333618
1772556526761847000,2.675846923828125,0.29353395104408264,-0.04437633603811264,-0.9689393639564514
1772556526771831000,2.6858310546875,0.26335474848747253,-0.09891608357429504,-0.790891170501709
1772556526781815000,2.69581494140625,0.2183465212583542,-0.164818674325943,-0.571965217590332
1772556526791799000,2.705799072265625,0.19484995305538177,-0.23343969881534576,-0.3648320436477661
1772556526801783000,2.715782958984375,0.17291323840618134,-0.2519095242023468,-0.2108805626630783
1772556526811767000,2.72576708984375,0.15811894834041595,-0.23881863057613373,-0.12553857266902924
1772556526821751000,2.7357509765625,0.15505124628543854,-0.2018323838710785,-0.08536320179700851
1772556526831735000,2.745735107421875,0.15230245888233185,-0.15745313465595245,-0.08259773254394531
1772556526841719000,2.755718994140625,0.14733672142028809,-0.09508083015680313,-0.08742976933717728
1772556526851703000,2.765703125,0.1550351232290268,-0.04027803614735603,-0.07856011390686035
1772556526861687300,2.775687255859375,0.171141117811203,-0.004604193847626448,-0.04445540904998779
1772556526871671300,2.78567138671875,0.1953137218952179,0.02111814171075821,0.015069130808115005
1772556526881655300,2.7956552734375,0.22258847951889038,0.041675079613924026,0.09277111291885376
1772556526891639300,2.805639404296875,0.2365257292985916,0.06401723623275757,0.18258193135261536
1772556526901623300,2.815623291015625,0.2418062388896942,0.10268500447273254,0.25884687900543213
1772556526911607000,2.82560693359375,0.241575226187706,0.15124285221099854,0.3215092122554779
1772556526921591000,2.835591064453125,0.2340499311685562,0.21909034252166748,0.37028688192367554
1772556526931575000,2.845574951171875,0.22168143093585968,0.2975771129131317,0.4171104431152344
1772556526941559000,2.85555908203125,0.21505148708820343,0.378134548664093,0.4584386944770813
1772556526951543000,2.86554296875,0.21416166424751282,0.45143961906433105,0.5008351802825928
1772556526961527000,2.875527099609375,0.2255520075559616,0.4963186979293823,0.5368272662162781
1772556526971511000,2.885510986328125,0.23865041136741638,0.505659282207489,0.5464822053909302
1772556526981495000,2.8954951171875,0.26156187057495117,0.48764774203300476,0.517577052116394
1772556526991479000,2.90547900390625,0.2851755619049072,0.41610151529312134,0.4551495313644409
1772556527001463300,2.91546337890625,0.27713891863822937,0.29089751839637756,0.35937508940696716
1772556527011447300,2.925447265625,0.21907630562782288,0.1147087812423706,0.23777629435062408
1772556527021431300,2.935431396484375,0.13430815935134888,-0.0756387859582901,0.10255083441734314
1772556527031415300,2.945415283203125,0.040624089539051056,-0.22421744465827942,-0.03611275181174278
1772556527041399300,2.9553994140625,-0.041348010301589966,-0.33501988649368286,-0.15198743343353271
1772556527051383000,2.965383056640625,-0.0912133976817131,-0.3672143220901489,-0.21926666796207428
1772556527061367000,2.975366943359375,-0.09588511288166046,-0.2994973361492157,-0.20906010270118713
1772556527071351000,2.98535107421875,-0.04751719906926155,-0.19541111588478088,-0.11650363355875015
1772556527081335000,2.9953349609375,0.024489348754286766,-0.14404380321502686,-0.007039192598313093
1772556527091319000,3.005319091796875,0.10134804248809814,-0.2272539883852005,0.00428719911724329
1772556527101303000,3.015302978515625,0.14720875024795532,-0.4086216688156128,-0.17980487644672394
1772556527111287000,3.025287109375,0.15225163102149963,-0.5846009254455566,-0.5473004579544067
1772556527121271000,3.03527099609375,0.11557111144065857,-0.6768693327903748,-1.006485939025879
1772556527131255000,3.045255126953125,0.047568973153829575,-0.6620579957962036,-1.4108428955078125
1772556527141239000,3.055239013671875,-0.036072660237550735,-0.5061501264572144,-1.5760425329208374
1772556527151223300,3.065223388671875,-0.08838365972042084,-0.2646197974681854,-1.418257713317871
1772556527161207300,3.075207275390625,-0.07257140427827835,0.02203540690243244,-0.9358705878257751
1772556527171191300,3.08519140625,0.017659006640315056,0.2756834328174591,-0.23418129980564117
1772556527181175300,3.09517529296875,0.14947722852230072,0.42664605379104614,0.49506571888923645
1772556527191159300,3.1051591796875,0.2561754584312439,0.45753243565559387,1.089539885520935
1772556527201143000,3.11514306640625,0.3065028190612793,0.4197661578655243,1.4729880094528198
1772556527211127000,3.125126953125,0.3048486113548279,0.37871670722961426,1.6508128643035889
1772556527221111000,3.135111083984375,0.2829931080341339,0.34782376885414124,1.6533859968185425
1772556527231095000,3.145094970703125,0.20664632320404053,0.30445003509521484,1.515045166015625
1772556527241079000,3.1550791015625,0.12386009842157364,0.26583337783813477,1.3148090839385986
1772556527251063000,3.16506298828125,0.04268691688776016,0.2162315845489502,1.1024296283721924
1772556527261046500,3.175046630859375,-0.040639664977788925,0.13199153542518616,0.8779197931289673
1772556527271030500,3.185030517578125,-0.1292441338300705,0.010724946856498718,0.6385203003883362
1772556527281014500,3.1950146484375,-0.22557173669338226,-0.15014223754405975,0.388466477394104
1772556527290998500,3.20499853515625,-0.32604077458381653,-0.2788708508014679,0.125649094581604
1772556527300982500,3.214982421875,-0.4297453463077545,-0.3638605773448944,-0.138662189245224
1772556527310966500,3.224966552734375,-0.5254173278808594,-0.3917045593261719,-0.4054071307182312
1772556527320950500,3.234950439453125,-0.5855520367622375,-0.3735567033290863,-0.6655683517456055
1772556527330934500,3.2449345703125,-0.622085690498352,-0.33019155263900757,-0.9151046276092529
1772556527340918500,3.25491845703125,-0.6112825274467468,-0.26753297448158264,-1.104722261428833
1772556527350902500,3.264902587890625,-0.5573757290840149,-0.20161637663841248,-1.2231684923171997
1772556527360886500,3.274886474609375,-0.4634726345539093,-0.12598180770874023,-1.2671362161636353
1772556527370870500,3.28487060546875,-0.3423151969909668,-0.01981534995138645,-1.2394920587539673
1772556527380854500,3.2948544921875,-0.20304948091506958,0.10645630210638046,-1.16421377658844
1772556527390838500,3.304838623046875,-0.05068722739815712,0.22562557458877563,-1.0557373762130737
1772556527400822500,3.314822509765625,0.10420488566160202,0.3214634358882904,-0.9290380477905273
1772556527410806500,3.324806640625,0.2481410652399063,0.3765527904033661,-0.8059218525886536
1772556527420790500,3.33479052734375,0.3516394793987274,0.37962475419044495,-0.6995030045509338
1772556527430774500,3.3447744140625,0.4200438857078552,0.3560379445552826,-0.6214442849159241
1772556527440758500,3.354758544921875,0.44524404406547546,0.31780532002449036,-0.584247887134552
1772556527450742500,3.364742431640625,0.4347611367702484,0.27877330780029297,-0.5765633583068848
1772556527460726500,3.3747265625,0.3892762064933777,0.2525941729545593,-0.58543461561203
1772556527470710500,3.38471044921875,0.3131478428840637,0.23988676071166992,-0.595710277557373
1772556527480694500,3.394694580078125,0.21850256621837616,0.2505868077278137,-0.5755879878997803
1772556527490678500,3.404678466796875,0.11881738156080246,0.2716042697429657,-0.5068895220756531
1772556527500662500,3.41466259765625,0.02211480587720871,0.28748708963394165,-0.3897506296634674
1772556527510646500,3.424646484375,-0.07202181220054626,0.2992694675922394,-0.22263112664222717
1772556527520630500,3.434630615234375,-0.1650518923997879,0.30465251207351685,-0.02197551727294922
1772556527530614500,3.444614501953125,-0.2520456910133362,0.2872299253940582,0.1923474371433258
1772556527540598300,3.454598388671875,-0.3327503800392151,0.24798423051834106,0.3911966383457184
1772556527550582500,3.46458251953125,-0.4042363166809082,0.193912073969841,0.5367190837860107
1772556527560566500,3.47456640625,-0.47382310032844543,0.1334809511899948,0.6217581033706665
1772556527570550500,3.484550537109375,-0.5391378402709961,0.08753851056098938,0.648565948009491
1772556527580534500,3.494534423828125,-0.604735255241394,0.05211180821061134,0.6121962070465088
1772556527590518500,3.5045185546875,-0.6548630595207214,0.03296472132205963,0.5264355540275574
1772556527600502500,3.51450244140625,-0.6877102255821228,0.02069101296365261,0.41602063179016113
1772556527610486500,3.524486572265625,-0.6840019822120667,0.02234634757041931,0.30088576674461365
1772556527620470500,3.534470458984375,-0.6420398950576782,0.025843610987067223,0.1867363005876541
1772556527630454500,3.54445458984375,-0.564815878868103,0.03700164332985878,0.08897776901721954
1772556527640438500,3.5544384765625,-0.46287405490875244,0.051832787692546844,0.013471298851072788
1772556527650422500,3.564422607421875,-0.32995593547821045,0.07337359338998795,-0.028095057234168053
1772556527660406500,3.574406494140625,-0.18415477871894836,0.10234319418668747,-0.03988620638847351
1772556527670390500,3.584390625,-0.04724552109837532,0.12073864787817001,-0.013698396272957325
1772556527680374500,3.59437451171875,0.0782221183180809,0.148802250623703,0.04237233102321625
1772556527690358500,3.604358642578125,0.1770452857017517,0.1960124671459198,0.1380743384361267
1772556527700342500,3.614342529296875,0.23627932369709015,0.22931529581546783,0.27478981018066406
1772556527710326500,3.624326416015625,0.22062565386295319,0.22620153427124023,0.42614981532096863
1772556527720310500,3.634310546875,0.13350486755371094,0.1796846240758896,0.5485535264015198
1772556527730294500,3.64429443359375,-0.009493513032793999,0.09181732684373856,0.622522234916687
1772556527740278500,3.654278564453125,-0.1807432919740677,-0.039603013545274734,0.6257082223892212
1772556527750262500,3.664262451171875,-0.40300750732421875,-0.26213470101356506,0.5308999419212341
1772556527760246500,3.67424658203125,-0.6539459228515625,-0.5333521366119385,0.3156139850616455
1772556527770230500,3.68423046875,-0.8408610820770264,-0.7420809864997864,0.07097773998975754
1772556527780214500,3.694214599609375,-0.9248989820480347,-0.8436851501464844,-0.10991081595420837
1772556527790198500,3.704198486328125,-0.9089047908782959,-0.8335064053535461,-0.15511417388916016
1772556527800182500,3.7141826171875,-0.8159849643707275,-0.7392278909683228,-0.022547084838151932
1772556527810166500,3.72416650390625,-0.6774999499320984,-0.6439391374588013,0.2609859108924866
1772556527820150500,3.734150634765625,-0.539523184299469,-0.5600218772888184,0.62520831823349
1772556527830134300,3.74413427734375,-0.4482609033584595,-0.4673409163951874,0.9594968557357788
1772556527840118500,3.754118408203125,-0.4040311276912689,-0.35737234354019165,1.1734490394592285
1772556527850102500,3.7641025390625,-0.3898319602012634,-0.2447318285703659,1.2190719842910767
1772556527860086500,3.77408642578125,-0.402448445558548,-0.13145597279071808,1.1322330236434937
1772556527870070500,3.784070556640625,-0.44369280338287354,0.017655981704592705,0.9575393199920654
1772556527880054500,3.794054443359375,-0.47944122552871704,0.20041674375534058,0.7554959058761597
1772556527890038500,3.80403857421875,-0.4744420647621155,0.3560590445995331,0.5327231287956238
1772556527900022500,3.8140224609375,-0.4145771265029907,0.46476954221725464,0.306904137134552
1772556527910006500,3.824006591796875,-0.3162718117237091,0.5089457035064697,0.08197527378797531
1772556527919990500,3.833990478515625,-0.18897029757499695,0.4908471405506134,-0.15168088674545288
1772556527929974500,3.843974609375,-0.04964323714375496,0.4347464442253113,-0.382684588432312
1772556527939958500,3.85395849609375,0.07577034085988998,0.36682066321372986,-0.599216639995575
1772556527949942500,3.863942626953125,0.17097868025302887,0.2991606295108795,-0.7746148109436035
1772556527959926500,3.873926513671875,0.22745899856090546,0.22782361507415771,-0.8843346238136292
1772556527969910500,3.88391064453125,0.2731786370277405,0.14126898348331451,-0.931603729724884
1772556527979894300,3.893894287109375,0.2946746051311493,0.03556517884135246,-0.9140468835830688
1772556527989878500,3.90387841796875,0.2842051088809967,-0.05432610213756561,-0.8285130262374878
1772556527999862500,3.913862548828125,0.24181504547595978,-0.1147654801607132,-0.6998010873794556
1772556528009846500,3.923846435546875,0.18004357814788818,-0.17516732215881348,-0.5554750561714172
1772556528019830500,3.93383056640625,0.11865798383951187,-0.22466589510440826,-0.4250408411026001
1772556528029814500,3.943814453125,0.08353056758642197,-0.2422468662261963,-0.2952851951122284
1772556528039798500,3.953798583984375,0.05207650363445282,-0.23453915119171143,-0.20574785768985748
1772556528049782500,3.963782470703125,0.04438426345586777,-0.1993168443441391,-0.1634998768568039
1772556528059766500,3.9737666015625,0.0434444323182106,-0.153876394033432,-0.1587059199810028
1772556528069750500,3.98375048828125,0.05114364996552467,-0.10249565541744232,-0.188113734126091
1772556528079734500,3.993734619140625,0.06338459998369217,-0.052514251321554184,-0.23108038306236267
1772556528089717500,4.003717529296875,0.0704030767083168,-0.0034093926660716534,-0.267001211643219
1772556528099701500,4.013701416015625,0.06937962770462036,0.05021974816918373,-0.2795710861682892
1772556528109685500,4.023685546875,0.06222393363714218,0.10642194002866745,-0.2727685570716858
1772556528119669500,4.03366943359375,0.07299908250570297,0.1602683961391449,-0.2397666871547699
1772556528129653500,4.043653564453125,0.0939304456114769,0.1884886622428894,-0.17751449346542358
1772556528139637500,4.053637451171875,0.12408515065908432,0.22148309648036957,-0.08704531192779541
1772556528149621500,4.06362158203125,0.16322600841522217,0.2509414851665497,0.015099693089723587
1772556528159605500,4.07360546875,0.1849219799041748,0.31395986676216125,0.11391974985599518
1772556528169589500,4.083589599609375,0.23359711468219757,0.3967302739620209,0.22715497016906738
1772556528179573500,4.093573486328125,0.28012415766716003,0.48285770416259766,0.3322318494319916
1772556528189557500,4.1035576171875,0.337668776512146,0.5496357679367065,0.4188275635242462
1772556528199541500,4.11354150390625,0.3893468976020813,0.5860451459884644,0.4778093993663788
1772556528209525500,4.123525390625,0.441966712474823,0.5764338970184326,0.4995396137237549
1772556528219509500,4.133509521484375,0.48270484805107117,0.49740859866142273,0.47904741764068604
1772556528229493500,4.143493408203125,0.5067867636680603,0.3709423243999481,0.41485878825187683
1772556528239477500,4.1534775390625,0.4882647395133972,0.2207123190164566,0.3155183494091034
1772556528249461500,4.16346142578125,0.4171938896179199,0.07036621868610382,0.20371034741401672
1772556528259445500,4.173445556640625,0.31160488724708557,-0.08247712254524231,0.09732212126255035
1772556528269429800,4.1834296875,0.1996297389268875,-0.184156134724617,0.02677672728896141
1772556528279413800,4.193413818359375,0.11147245764732361,-0.1976381242275238,0.02038807049393654
1772556528289397800,4.203397705078125,0.08772508054971695,-0.10729478299617767,0.09553594887256622
1772556528299381800,4.2133818359375,0.1174669936299324,0.06700458377599716,0.24239729344844818
1772556528309365800,4.22336572265625,0.17537307739257812,0.27434346079826355,0.40224504470825195
1772556528319349500,4.233349609375,0.21333163976669312,0.3736615478992462,0.47749239206314087
1772556528329333500,4.24333349609375,0.23114657402038574,0.2949220836162567,0.41986319422721863
1772556528339317500,4.2533173828125,0.22070565819740295,0.07000000774860382,0.20996053516864777
1772556528349301500,4.263301513671875,0.1731346845626831,-0.287838339805603,-0.1383429914712906
1772556528359285500,4.273285400390625,0.07932300865650177,-0.6341288089752197,-0.5010295510292053
1772556528369269500,4.28326953125,-0.04461890459060669,-0.8549642562866211,-0.7610473036766052
1772556528379253500,4.29325341796875,-0.16438961029052734,-0.9115282893180847,-0.8112356066703796
1772556528389237800,4.30323779296875,-0.23191246390342712,-0.7955734133720398,-0.6276010870933533
1772556528399221800,4.3132216796875,-0.19477222859859467,-0.5173376202583313,-0.24072808027267456
1772556528409205800,4.323205810546875,-0.06202935799956322,-0.16346582770347595,0.27136024832725525
1772556528419189800,4.333189697265625,0.11627271771430969,0.22090083360671997,0.8189650177955627
1772556528429173800,4.343173828125,0.2641007900238037,0.517440915107727,1.2723439931869507
1772556528439157800,4.35315771484375,0.37206828594207764,0.6553300023078918,1.5284291505813599
1772556528449141800,4.363141845703125,0.41809141635894775,0.6883122324943542,1.6000099182128906
1772556528459125500,4.37312548828125,0.3815297782421112,0.690000057220459,1.5191335678100586
1772556528469109500,4.383109619140625,0.2896136939525604,0.6749100685119629,1.348302960395813
1772556528479093500,4.393093505859375,0.19200287759304047,0.6511682271957397,1.1479514837265015
1772556528489077500,4.403077392578125,0.09635837376117706,0.5966573357582092,0.9328253865242004
1772556528499061500,4.4130615234375,0.0032710768282413483,0.5241847634315491,0.7176422476768494
1772556528509049600,4.423049560546875,-0.09102267026901245,0.4313674867153168,0.5152885913848877
1772556528519033600,4.43303369140625,-0.1782483160495758,0.3110104501247406,0.30450448393821716
1772556528529017600,4.443017578125,-0.2660956084728241,0.16880378127098083,0.08326743543148041
1772556528539001600,4.453001708984375,-0.34837406873703003,0.05838795751333237,-0.1350712925195694
1772556528548985600,4.462985595703125,-0.4215835928916931,-0.012392474338412285,-0.3318410813808441
1772556528558969900,4.472969970703125,-0.4783644676208496,-0.04317367821931839,-0.5121933817863464
1772556528568953600,4.48295361328125,-0.5147554874420166,-0.03708568960428238,-0.6609261631965637
1772556528578937600,4.4929375,-0.5110552310943604,-0.0036200489848852158,-0.7634991407394409
1772556528588921600,4.502921630859375,-0.4636232852935791,0.04697681590914726,-0.8068114519119263
1772556528598905600,4.512905517578125,-0.3727726936340332,0.0923575907945633,-0.7913967967033386
1772556528608889600,4.5228896484375,-0.2533504366874695,0.1228230893611908,-0.748250424861908
1772556528618873600,4.53287353515625,-0.1139635443687439,0.15037281811237335,-0.6747789978981018
1772556528628857600,4.542857666015625,0.02002195082604885,0.17601506412029266,-0.5978663563728333
1772556528638841600,4.552841552734375,0.13034941256046295,0.18932156264781952,-0.5195579528808594
1772556528648825600,4.56282568359375,0.2044001966714859,0.1942042112350464,-0.45672762393951416
1772556528658809600,4.5728095703125,0.23238228261470795,0.18929284811019897,-0.4247591495513916
1772556528668793600,4.582793701171875,0.22845491766929626,0.18461021780967712,-0.43409407138824463
1772556528678777600,4.592777587890625,0.186315655708313,0.17530401051044464,-0.4708271920681
1772556528688761600,4.60276171875,0.13681042194366455,0.1617831438779831,-0.5059162378311157
1772556528698745600,4.61274560546875,0.07884388417005539,0.11740974336862564,-0.5305607914924622
1772556528708729900,4.622729736328125,0.020578451454639435,0.04838033765554428,-0.5411356687545776
1772556528718713600,4.632713623046875,-0.03466036170721054,-0.018894093111157417,-0.5297849178314209
1772556528728697600,4.642697509765625,-0.07768319547176361,-0.07325480133295059,-0.5067967772483826
1772556528738681600,4.652681640625,-0.1185939684510231,-0.10111245512962341,-0.46528610587120056
1772556528748665600,4.66266552734375,-0.15225286781787872,-0.10362115502357483,-0.4057663083076477
1772556528758649600,4.672649658203125,-0.17800118029117584,-0.08666588366031647,-0.32579344511032104
1772556528768633600,4.682633544921875,-0.19579508900642395,-0.06847116351127625,-0.2181551307439804
1772556528778617600,4.69261767578125,-0.21636776626110077,-0.049010973423719406,-0.08496750891208649
1772556528788601600,4.7026015625,-0.23012566566467285,-0.05139051005244255,0.05827513337135315
1772556528798585600,4.712585693359375,-0.24708154797554016,-0.07110510021448135,0.18814897537231445
1772556528808569600,4.722569580078125,-0.2727363109588623,-0.08923829346895218,0.27162444591522217
1772556528818553600,4.7325537109375,-0.30976223945617676,-0.11259908229112625,0.29791900515556335
1772556528828537600,4.74253759765625,-0.3542247712612152,-0.13836118578910828,0.27664968371391296
1772556528838521600,4.752521484375,-0.3877372741699219,-0.1675233542919159,0.2135833501815796
1772556528848505900,4.762505859375,-0.40308961272239685,-0.18737615644931793,0.13905905187129974
1772556528858489600,4.772489501953125,-0.3904353678226471,-0.19422735273838043,0.0612417608499527
1772556528868473600,4.7824736328125,-0.35428082942962646,-0.18088491261005402,0.002009598072618246
1772556528878457600,4.79245751953125,-0.3057236671447754,-0.15546007454395294,-0.040158361196517944
1772556528888441600,4.802441650390625,-0.24341607093811035,-0.11827355623245239,-0.04573049396276474
1772556528898425600,4.812425537109375,-0.17265638709068298,-0.08243202418088913,-0.018206987529993057
1772556528908409600,4.82240966796875,-0.10437747836112976,-0.07397408783435822,0.04736190289258957
1772556528918393600,4.8323935546875,-0.04835524037480354,-0.08478483557701111,0.1543261557817459
1772556528928377600,4.842377685546875,-0.0034125351812690496,-0.10162454098463058,0.29597651958465576
1772556528938361600,4.852361572265625,0.020968608558177948,-0.1573852002620697,0.4510912597179413
1772556528948345600,4.862345703125,-0.0321555957198143,-0.2856387495994568,0.5911802053451538
1772556528958329600,4.87232958984375,-0.1458895057439804,-0.44883739948272705,0.6803703904151917
1772556528968313600,4.882313720703125,-0.2793671488761902,-0.5850948095321655,0.6946675777435303
1772556528978297600,4.892297607421875,-0.3941650986671448,-0.7027072906494141,0.6382893323898315
1772556528988281600,4.902281494140625,-0.5184636116027832,-0.8447142243385315,0.5158337354660034
1772556528998265900,4.912265869140625,-0.6240489482879639,-0.9826241135597229,0.35663479566574097
1772556529008249600,4.92224951171875,-0.673284113407135,-1.0398306846618652,0.21164964139461517
1772556529018233600,4.932233642578125,-0.668059766292572,-1.0493690967559814,0.11114327609539032
1772556529028217600,4.942217529296875,-0.6208711862564087,-1.003909707069397,0.09849566221237183
1772556529038201600,4.95220166015625,-0.5494199991226196,-0.8946351408958435,0.17487351596355438
1772556529048185600,4.962185546875,-0.46450749039649963,-0.7615056037902832,0.31936436891555786
1772556529058169600,4.972169677734375,-0.3800307810306549,-0.6204533576965332,0.4901309013366699
1772556529068153600,4.982153564453125,-0.3182497024536133,-0.4811389148235321,0.6368311643600464
1772556529078138600,4.992138671875,-0.27602311968803406,-0.3677874207496643,0.714301347732544
1772556529088122600,5.00212255859375,-0.245671346783638,-0.2669827938079834,0.7144579291343689
1772556529098106600,5.012106689453125,-0.24151593446731567,-0.16213436424732208,0.6596863865852356
1772556529108090600,5.022090576171875,-0.25481632351875305,-0.02117750234901905,0.556986391544342
1772556529118074600,5.03207470703125,-0.26251357793807983,0.10711207985877991,0.42166733741760254
1772556529128058600,5.04205859375,-0.25151634216308594,0.21357274055480957,0.2466696798801422
1772556529138042600,5.052042724609375,-0.21415917575359344,0.2946614921092987,0.04141199588775635
1772556529148026600,5.062026611328125,-0.16113723814487457,0.33296042680740356,-0.1769845187664032
1772556529158010600,5.0720107421875,-0.09129097312688828,0.31618204712867737,-0.39778414368629456
1772556529167994600,5.08199462890625,-0.018486276268959045,0.22879523038864136,-0.607003390789032
1772556529177978600,5.091978515625,0.06499872356653214,0.0900467112660408,-0.7802708148956299
1772556529187962600,5.101962646484375,0.15250593423843384,-0.08543136715888977,-0.8938556909561157
1772556529197946600,5.111946533203125,0.2418418526649475,-0.27709051966667175,-0.9388941526412964
1772556529207930600,5.1219306640625,0.3276047110557556,-0.4501075744628906,-0.9203055500984192
1772556529217914600,5.13191455078125,0.40796688199043274,-0.5742107033729553,-0.8408859968185425
1772556529227898600,5.141898681640625,0.4733501672744751,-0.6816325187683105,-0.7370789051055908
1772556529237882600,5.151882568359375,0.5217137336730957,-0.7682202458381653,-0.6123126745223999
1772556529247866600,5.16186669921875,0.5636729001998901,-0.7919487357139587,-0.491597980260849
1772556529257850400,5.171850341796875,0.601448118686676,-0.7637684345245361,-0.39071890711784363
1772556529267834400,5.18183447265625,0.6273817420005798,-0.6899001002311707,-0.32226449251174927
1772556529277818400,5.191818359375,0.6425905823707581,-0.5884829163551331,-0.28737014532089233
1772556529287802400,5.20180224609375,0.6552366018295288,-0.4989229142665863,-0.276149719953537
1772556529297786400,5.211786376953125,0.664178729057312,-0.4064772129058838,-0.27413901686668396
1772556529307770400,5.221770263671875,0.6673905253410339,-0.30696794390678406,-0.26368770003318787
1772556529317754600,5.231754638671875,0.6503361463546753,-0.19951379299163818,-0.2511800527572632
1772556529327738600,5.241738525390625,0.6124944686889648,-0.07979485392570496,-0.2362959086894989
1772556529337722600,5.25172265625,0.5607264041900635,0.052926596254110336,-0.20589059591293335
1772556529347706600,5.26170654296875,0.5130619406700134,0.1676398664712906,-0.16676104068756104
1772556529357690600,5.271690673828125,0.474898099899292,0.24998657405376434,-0.11433059722185135
1772556529367674600,5.281674560546875,0.44500571489334106,0.30158135294914246,-0.04195546358823776
1772556529377658600,5.29165869140625,0.42553335428237915,0.33014729619026184,0.042487241327762604
1772556529387642600,5.301642578125,0.40318119525909424,0.3433147668838501,0.1362379640340805
1772556529397626400,5.31162646484375,0.3851607143878937,0.3420860767364502,0.23118633031845093
1772556529407610400,5.3216103515625,0.3787326216697693,0.31573861837387085,0.3366512060165405
1772556529417594400,5.331594482421875,0.3841053545475006,0.277705579996109,0.4542865455150604
1772556529427578400,5.341578369140625,0.40562954545021057,0.21674340963363647,0.5733910799026489
1772556529437562400,5.351562255859375,0.4266359508037567,0.1330876499414444,0.6883578896522522
1772556529447546400,5.36154638671875,0.4511133134365082,0.06451151520013809,0.7803922295570374
1772556529457530600,5.371530517578125,0.4590094983577728,-0.007070933934301138,0.8187287449836731
1772556529467514600,5.3815146484375,0.4378962218761444,-0.056650470942258835,0.7867002487182617
1772556529477498600,5.39149853515625,0.3860732316970825,-0.09712941199541092,0.6755056977272034
1772556529487482600,5.401482666015625,0.30617597699165344,-0.12370403110980988,0.5028676390647888
1772556529497467400,5.41146728515625,0.22044578194618225,-0.13423416018486023,0.30493029952049255
1772556529507451600,5.42145166015625,0.1381157636642456,-0.15748967230319977,0.09968821704387665
1772556529517435600,5.431435546875,0.0477714017033577,-0.19234029948711395,-0.08040925860404968
1772556529527419600,5.441419677734375,0.015000136569142342,-0.22347664833068848,-0.2005833238363266
1772556529537403600,5.451403564453125,0.03955767676234245,-0.19830699265003204,-0.23118729889392853
1772556529547387600,5.4613876953125,0.11433763802051544,-0.10307634621858597,-0.16313421726226807
1772556529557371600,5.47137158203125,0.2099894881248474,0.017596129328012466,-0.03314333036541939
1772556529567355400,5.48135546875,0.3114013075828552,0.10662773251533508,0.0979933887720108
1772556529577339400,5.49133935546875,0.43148273229599,0.1509011834859848,0.1649167537689209
1772556529587323400,5.501323486328125,0.5663406848907471,0.10948610305786133,0.12650226056575775
1772556529597307400,5.511307373046875,0.6728372573852539,-0.023773061111569405,-0.02586917020380497
1772556529607291400,5.52129150390625,0.6980369091033936,-0.23968805372714996,-0.28205060958862305
1772556529617275400,5.531275390625,0.6663837432861328,-0.5073232650756836,-0.5903481245040894
1772556529627259400,5.54125927734375,0.6134180426597595,-0.7319662570953369,-0.846065104007721
1772556529637243400,5.551243408203125,0.5467312335968018,-0.8037103414535522,-0.9707138538360596
1772556529647227600,5.5612275390625,0.5220168232917786,-0.7378154397010803,-0.9511260390281677
1772556529657211600,5.571211669921875,0.58286452293396,-0.5616490840911865,-0.803904116153717
1772556529667195600,5.581195556640625,0.7088136672973633,-0.3017197847366333,-0.5585249662399292
1772556529677179600,5.5911796875,0.8555081486701965,0.0182824544608593,-0.24479447305202484
1772556529687163600,5.60116357421875,0.9811409115791321,0.3606683015823364,0.10705384612083435
1772556529697147600,5.611147705078125,1.066643238067627,0.6813772916793823,0.44383934140205383
1772556529707131600,5.621131591796875,1.1268572807312012,0.8977639079093933,0.7022994160652161
1772556529717115400,5.631115478515625,1.1751607656478882,0.9453974962234497,0.8140084743499756
1772556529727099400,5.641099365234375,1.2308597564697266,0.7827542424201965,0.7218122482299805
1772556529737083400,5.65108349609375,1.2847785949707031,0.5422089099884033,0.459634006023407
1772556529747067400,5.6610673828125,1.3022150993347168,0.3973579704761505,0.15673112869262695
1772556529757051400,5.671051513671875,1.271863579750061,0.2999081611633301,-0.14181122183799744
1772556529767035400,5.681035400390625,1.214911699295044,0.18291974067687988,-0.4128832221031189
1772556529777019400,5.691019287109375,1.170006513595581,0.037195801734924316,-0.6566674113273621
1772556529787003400,5.70100341796875,1.1224733591079712,-0.14322003722190857,-0.8457971215248108
1772556529796987600,5.710987548828125,1.0651129484176636,-0.31600669026374817,-0.9690272808074951
1772556529806971600,5.7209716796875,1.0062211751937866,-0.448302686214447,-1.0067150592803955
1772556529816955600,5.73095556640625,0.9859240055084229,-0.5044345855712891,-0.9580984711647034
1772556529826939600,5.740939697265625,0.9968421459197998,-0.4522414803504944,-0.8332971334457397
1772556529836923600,5.750923583984375,1.0136619806289673,-0.3056867718696594,-0.6542502641677856
1772556529846907600,5.76090771484375,1.0133365392684937,-0.0890977531671524,-0.4388732612133026
1772556529856891400,5.770891357421875,0.9852361083030701,0.1840401142835617,-0.2240603268146515
1772556529866875400,5.78087548828125,0.9297017455101013,0.43039023876190186,-0.04253740608692169
1772556529876860700,5.790860595703125,0.8527254462242126,0.561065673828125,0.05944354087114334
1772556529886844400,5.800844482421875,0.7517538070678711,0.49588853120803833,0.0888403058052063
1772556529896828400,5.810828369140625,0.6358628273010254,0.2561085820198059,0.07550496608018875
1772556529906812400,5.8208125,0.5005031228065491,-0.008544906973838806,0.06771361827850342
1772556529916796400,5.83079638671875,0.324357271194458,-0.16214552521705627,0.11594916880130768
1772556529926780400,5.840780517578125,0.15765829384326935,-0.18493446707725525,0.21178436279296875
1772556529936764400,5.850764404296875,0.020381005480885506,-0.14072273671627045,0.3177674114704132
1772556529946748400,5.86074853515625,-0.07138433307409286,-0.08279019594192505,0.4107775092124939
1772556529956732400,5.870732421875,-0.1089916080236435,-0.061315085738897324,0.4790804088115692
1772556529966716400,5.88071630859375,-0.11102573573589325,-0.03765902295708656,0.5169785022735596
1772556529976700700,5.89070068359375,-0.09118565917015076,-0.007692935410887003,0.5361576080322266
1772556529986684700,5.9006845703125,-0.06668777018785477,-0.0019319852581247687,0.5442025065422058
1772556529996668700,5.910668701171875,-0.03943144902586937,-0.008674614131450653,0.5621775388717651
1772556530006652700,5.920652587890625,-0.0144635159522295,-0.0332084521651268,0.5887854695320129
1772556530016636700,5.93063671875,0.002326550427824259,-0.06543327867984772,0.6153289079666138
1772556530026620700,5.94062060546875,-0.0001941316295415163,-0.056983329355716705,0.6171132326126099
1772556530036604400,5.9506044921875,-0.010052720084786415,-0.01571970246732235,0.590518593788147
1772556530046588400,5.96058837890625,-0.022451333701610565,-0.005565601866692305,0.5393701791763306
1772556530056572400,5.970572509765625,-0.035146184265613556,-0.04123338684439659,0.4523639380931854
1772556530066556400,5.980556396484375,-0.04503370076417923,-0.11959024518728256,0.3687311112880707
1772556530076540400,5.99054052734375,-0.05635102093219757,-0.22683271765708923,0.3105996549129486
1772556530086524400,6.0005244140625,-0.06937973946332932,-0.306275874376297,0.2963176667690277
1772556530096508400,6.01050830078125,-0.05928312614560127,-0.34064385294914246,0.30872276425361633
1772556530106492400,6.020492431640625,-0.0384896956384182,-0.33057522773742676,0.3284589350223541
1772556530116476400,6.030476318359375,-0.060378193855285645,-0.3079529404640198,0.32643088698387146
1772556530126460700,6.040460693359375,-0.11900981515645981,-0.25533419847488403,0.2675934135913849
1772556530136444700,6.050444580078125,-0.16601762175559998,-0.1766367256641388,0.17387649416923523
1772556530146428700,6.0604287109375,-0.21384640038013458,-0.07033906131982803,0.034911688417196274
1772556530156412700,6.07041259765625,-0.24301855266094208,0.025794055312871933,-0.14191792905330658
1772556530166396700,6.080396728515625,-0.2701151371002197,0.05669524520635605,-0.34127363562583923
1772556530176380400,6.09038037109375,-0.26647502183914185,0.062426961958408356,-0.528175950050354
1772556530186364400,6.100364501953125,-0.20067469775676727,0.08948227763175964,-0.6770991683006287
1772556530196348400,6.110348388671875,-0.06654828786849976,0.11205967515707016,-0.7652793526649475
1772556530206332400,6.12033251953125,0.09727739542722702,0.10428271442651749,-0.7708765268325806
1772556530216317400,6.1303173828125,0.25781914591789246,0.04123028740286827,-0.6941009163856506
1772556530226301400,6.140301513671875,0.38790735602378845,-0.05048338696360588,-0.5415380001068115
1772556530236285400,6.150285400390625,0.461861252784729,-0.12154938280582428,-0.32648709416389465
1772556530246269400,6.16026953125,0.4725295901298523,-0.15095919370651245,-0.0939931571483612
1772556530256253400,6.17025341796875,0.42762696743011475,-0.1711697280406952,0.1165316104888916
1772556530266242300,6.1802421875,0.35029861330986023,-0.15513776242733002,0.28841763734817505
1772556530276226300,6.190226318359375,0.251305490732193,-0.11213162541389465,0.3798234462738037
1772556530286210300,6.200210205078125,0.14249274134635925,-0.018851744011044502,0.3992048501968384
1772556530296194300,6.2101943359375,0.04135685786604881,0.09403198212385178,0.3548268973827362
1772556530306178300,6.22017822265625,-0.03359541296958923,0.19529227912425995,0.26648929715156555
1772556530316162300,6.230162353515625,-0.08366341888904572,0.2852157950401306,0.1500907987356186
1772556530326146300,6.240146240234375,-0.1073295995593071,0.3646664321422577,0.0286855511367321
1772556530336130000,6.250130126953125,-0.09941834211349487,0.4221917688846588,-0.08848228305578232
1772556530346114000,6.260114013671875,-0.07040772587060928,0.46272003650665283,-0.21381862461566925
1772556530356098000,6.27009814453125,-0.023778297007083893,0.48467129468917847,-0.33995720744132996
1772556530366082300,6.280082275390625,0.02943805232644081,0.47980889678001404,-0.4697926938533783
1772556530376066300,6.29006640625,0.08889388293027878,0.4379533529281616,-0.5960503816604614
1772556530386050300,6.30005029296875,0.1319579929113388,0.3828778564929962,-0.6895033717155457
1772556530396034300,6.310034423828125,0.1635308712720871,0.30556246638298035,-0.7126010060310364
1772556530406018300,6.320018310546875,0.17280691862106323,0.19817422330379486,-0.6688321828842163
1772556530416002300,6.330002197265625,0.16711008548736572,0.08709798008203506,-0.5692455768585205
1772556530425986300,6.339986328125,0.14510810375213623,-0.008670358918607235,-0.43855705857276917
1772556530435970300,6.34997021484375,0.11083298921585083,-0.07543003559112549,-0.3076933026313782
1772556530445954300,6.359954345703125,0.07621882110834122,-0.11035633087158203,-0.19702565670013428
1772556530455938300,6.369938232421875,0.03588991239666939,-0.12722580134868622,-0.12428391724824905
1772556530465922300,6.37992236328125,-0.01595970429480076,-0.14042308926582336,-0.08943352103233337
1772556530475906300,6.38990625,-0.07677002996206284,-0.15687820315361023,-0.09824769198894501
1772556530485890000,6.39989013671875,-0.14067818224430084,-0.17910973727703094,-0.13672718405723572
1772556530495874000,6.4098740234375,-0.1905081421136856,-0.19216009974479675,-0.17728309333324432
1772556530505859300,6.419859375,-0.21707317233085632,-0.19167539477348328,-0.20344278216362
1772556530515843000,6.429843017578125,-0.21158088743686676,-0.16264234483242035,-0.19414594769477844
1772556530525827000,6.4398271484375,-0.18266801536083221,-0.11808791011571884,-0.1593749225139618
1772556530535811000,6.44981103515625,-0.1419040709733963,-0.06436072289943695,-0.10367877036333084
1772556530545795300,6.45979541015625,-0.09102145582437515,0.00394935579970479,-0.02725483849644661
1772556530555779300,6.469779296875,-0.03530707582831383,0.06980564445257187,0.060705509036779404
1772556530565763300,6.479763427734375,0.026740582659840584,0.13567200303077698,0.15700247883796692
1772556530575747300,6.489747314453125,0.08184303343296051,0.19934028387069702,0.2544153332710266
1772556530585731300,6.4997314453125,0.12924356758594513,0.265095055103302,0.34276410937309265
1772556530595715300,6.50971533203125,0.16628573834896088,0.33008766174316406,0.4025997519493103
1772556530605699300,6.51969921875,0.20020616054534912,0.3936847448348999,0.4515917897224426
1772556530615683300,6.529683349609375,0.22768299281597137,0.45215412974357605,0.48972010612487793
1772556530625667300,6.539667236328125,0.25281575322151184,0.5186913013458252,0.5194790363311768
1772556530635651300,6.5496513671875,0.26951539516448975,0.5691825151443481,0.5407800078392029
1772556530645635300,6.55963525390625,0.27423396706581116,0.5738851428031921,0.5417948961257935
1772556530655619000,6.569619140625,0.2658170163631439,0.5159843564033508,0.5032806396484375
1772556530665603000,6.57960302734375,0.25336727499961853,0.4199755787849426,0.43150633573532104
1772556530675587000,6.589587158203125,0.22675836086273193,0.304643839597702,0.33261483907699585
1772556530685571000,6.599571044921875,0.18786582350730896,0.1886352002620697,0.22879445552825928
1772556530695555300,6.609555419921875,0.15537004172801971,0.09783996641635895,0.1508224457502365
1772556530705539300,6.619539306640625,0.14854195713996887,0.05809308961033821,0.11073096096515656
1772556530715523300,6.6295234375,0.16254091262817383,0.05651329085230827,0.12331937253475189
1772556530725507300,6.63950732421875,0.16999909281730652,0.04542069137096405,0.16447985172271729
1772556530735491300,6.6494912109375,0.1791183203458786,0.05695592612028122,0.1776258647441864
1772556530745475300,6.659475341796875,0.188858300447464,0.05268634483218193,0.1298801749944687
1772556530755459300,6.669459228515625,0.19592149555683136,-0.0069922576658427715,0.027102647349238396
1772556530765443300,6.679443359375,0.18061363697052002,-0.10447327792644501,-0.13493712246418
1772556530775427300,6.68942724609375,0.14336366951465607,-0.20896442234516144,-0.35173410177230835
1772556530785411300,6.699411376953125,0.1101902648806572,-0.3132205009460449,-0.5770047903060913
1772556530795395300,6.709395263671875,0.09994745999574661,-0.3827754557132721,-0.7417808771133423
1772556530805380400,6.71938037109375,0.12044873833656311,-0.38818007707595825,-0.7998273968696594
1772556530815364400,6.7293642578125,0.1650562584400177,-0.3342038094997406,-0.7094786763191223
1772556530825348000,6.73934814453125,0.2216617465019226,-0.23777848482131958,-0.479824960231781
1772556530835332000,6.74933203125,0.30757641792297363,-0.11495134234428406,-0.138076052069664
1772556530845316000,6.759316162109375,0.3777211606502533,0.04551209881901741,0.25011271238327026
1772556530855300000,6.769300048828125,0.3958435654640198,0.20550021529197693,0.6277046203613281
1772556530865284000,6.7792841796875,0.38533657789230347,0.3564806878566742,0.9259211421012878
1772556530875268000,6.78926806640625,0.35914719104766846,0.4557740092277527,1.088783621788025
1772556530885252400,6.79925244140625,0.3079273998737335,0.48699796199798584,1.1023322343826294
1772556530895236400,6.809236328125,0.24333901703357697,0.4759868383407593,1.0050207376480103
1772556530905220400,6.819220458984375,0.1556246131658554,0.45774656534194946,0.8483575582504272
1772556530915204400,6.829204345703125,0.059213247150182724,0.43216046690940857,0.6548736691474915
1772556530925188400,6.839188232421875,-0.02661004662513733,0.36997273564338684,0.45047739148139954
1772556530935172400,6.84917236328125,-0.10599157959222794,0.2840600907802582,0.24509163200855255
1772556530945156400,6.85915625,-0.17676801979541779,0.19251206517219543,0.05959659814834595
1772556530955140400,6.869140380859375,-0.22577403485774994,0.110956110060215,-0.10815563052892685
1772556530965124400,6.879124267578125,-0.24923355877399445,0.04279888793826103,-0.2598450481891632
1772556530975108000,6.889108154296875,-0.2672119438648224,-0.024926500394940376,-0.38382041454315186
1772556530985092000,6.899092041015625,-0.27509036660194397,-0.06471918523311615,-0.4689427614212036
1772556530995076000,6.909076171875,-0.25862616300582886,-0.07886531949043274,-0.5176659822463989
1772556531005060000,6.91906005859375,-0.21681028604507446,-0.05716322362422943,-0.5229174494743347
1772556531015044000,6.929044189453125,-0.15469658374786377,-0.001783321495167911,-0.48905429244041443
1772556531025028400,6.9390283203125,-0.07025200873613358,0.06211523339152336,-0.4277919828891754
1772556531035012400,6.949012451171875,0.02343764528632164,0.11851036548614502,-0.3571869730949402
1772556531044996400,6.958996337890625,0.11925924569368362,0.14047320187091827,-0.2856304943561554
1772556531054980400,6.96898046875,0.20308555662631989,0.13766658306121826,-0.22286774218082428
1772556531064964400,6.97896435546875,0.25444862246513367,0.1280195415019989,-0.16960078477859497
1772556531074948400,6.9889482421875,0.2770872116088867,0.10844548046588898,-0.14730721712112427
1772556531084932400,6.998932373046875,0.2734656035900116,0.086662158370018,-0.1630726009607315
1772556531094916400,7.008916259765625,0.24530211091041565,0.06588762253522873,-0.20142541825771332
1772556531104900400,7.018900390625,0.20351390540599823,0.06225506588816643,-0.25044888257980347
1772556531114885400,7.028885498046875,0.13933482766151428,0.06969442218542099,-0.2942826747894287
1772556531124869400,7.038869384765625,0.06831391155719757,0.07628494501113892,-0.3211608827114105
1772556531134853400,7.048853271484375,-0.0004122941754758358,0.07321824878454208,-0.3200145661830902
1772556531144837000,7.058837158203125,-0.05760820582509041,0.06912737339735031,-0.28478333353996277
1772556531154821000,7.068821044921875,-0.10460174083709717,0.046960290521383286,-0.20994742214679718
1772556531164805000,7.07880517578125,-0.1405181884765625,0.020197387784719467,-0.10746472328901291
1772556531174789000,7.0887890625,-0.16526417434215546,0.0008832666208036244,0.01278366893529892
1772556531184773000,7.098773193359375,-0.18174542486667633,-0.004776483401656151,0.14871034026145935
1772556531194757000,7.108757080078125,-0.20127427577972412,-0.003171902149915695,0.268852561712265
1772556531204741000,7.1187412109375,-0.2310420274734497,-0.004772727843374014,0.3553568422794342
1772556531214725400,7.128725341796875,-0.2696422040462494,-0.010704257525503635,0.3925575911998749
1772556531224709400,7.13870947265625,-0.301729291677475,-0.015352804213762283,0.3850613236427307
1772556531234693400,7.148693359375,-0.33351632952690125,-0.016297083348035812,0.3290579617023468
1772556531244677400,7.158677490234375,-0.35523441433906555,-0.0055288588628172874,0.2618863880634308
1772556531254661400,7.168661376953125,-0.3603396713733673,0.018969474360346794,0.1742343008518219
1772556531264640500,7.178640625,-0.35022231936454773,0.045330774039030075,0.0841456800699234
1772556531274624500,7.18862451171875,-0.33093002438545227,0.05667123198509216,-0.0014269868843257427
1772556531284608500,7.1986083984375,-0.3037838935852051,0.0636681541800499,-0.07088036835193634
1772556531294592500,7.208592529296875,-0.2595488727092743,0.06398432701826096,-0.1212870329618454
1772556531304576500,7.218576416015625,-0.2074076533317566,0.06980306655168533,-0.15006062388420105
1772556531314560800,7.228560791015625,-0.16465692222118378,0.06898802518844604,-0.1543147712945938
1772556531324544800,7.238544677734375,-0.13217541575431824,0.06905993074178696,-0.1403946876525879
1772556531334528500,7.248528564453125,-0.10052701830863953,0.06533820182085037,-0.11508068442344666
1772556531344512500,7.258512451171875,-0.06566916406154633,0.05075685679912567,-0.0774582177400589
1772556531354496500,7.26849658203125,-0.02600262127816677,0.009544615633785725,-0.030839812010526657
1772556531364480500,7.27848046875,-0.023542925715446472,-0.08449453115463257,0.0028566336259245872
1772556531374464500,7.288464599609375,-0.07935654371976852,-0.19731691479682922,-0.00036729732528328896
1772556531384448500,7.298448486328125,-0.15596982836723328,-0.31911230087280273,-0.040432158857584
1772556531394432500,7.3084326171875,-0.2521396577358246,-0.4433208405971527,-0.10989941656589508
1772556531404416500,7.31841650390625,-0.35998862981796265,-0.5882458090782166,-0.2121749073266983
1772556531414400500,7.328400390625,-0.46429330110549927,-0.722974419593811,-0.33029115200042725
1772556531424385500,7.338385498046875,-0.5432432293891907,-0.7780262231826782,-0.41621458530426025
1772556531434369500,7.34836962890625,-0.5745951533317566,-0.7504820823669434,-0.44012922048568726
1772556531444353500,7.358353515625,-0.5150423645973206,-0.6556258797645569,-0.3750396966934204
1772556531454337500,7.368337646484375,-0.38764965534210205,-0.5177698135375977,-0.2243664264678955
1772556531464321500,7.378321533203125,-0.22804749011993408,-0.35679003596305847,-0.004413546063005924
1772556531474305500,7.388305419921875,-0.10459520667791367,-0.18832315504550934,0.2528476119041443
1772556531484289500,7.39828955078125,-0.04716387018561363,-0.027554791420698166,0.5001442432403564
1772556531494273500,7.4082734375,-0.026313239708542824,0.0787259116768837,0.6561547517776489
1772556531504257500,7.418257568359375,-0.028346562758088112,0.13568426668643951,0.6929388642311096
1772556531514241500,7.428241455078125,-0.052905574440956116,0.18635964393615723,0.6231727004051208
1772556531524225500,7.4382255859375,-0.09574997425079346,0.26492077112197876,0.49286797642707825
1772556531534209500,7.44820947265625,-0.15044286847114563,0.35027721524238586,0.3330696225166321
1772556531544193500,7.458193603515625,-0.2087482511997223,0.41223621368408203,0.1638806015253067
1772556531554177500,7.468177490234375,-0.24896664917469025,0.45416802167892456,-0.004122625570744276
1772556531564161500,7.47816162109375,-0.2711683511734009,0.4686092734336853,-0.16639915108680725
1772556531574145500,7.4881455078125,-0.27244842052459717,0.4696008861064911,-0.3147173821926117
1772556531584129500,7.498129638671875,-0.23752079904079437,0.4399218261241913,-0.44850820302963257
1772556531594113500,7.508113525390625,-0.17831343412399292,0.4021194577217102,-0.5610868334770203
1772556531604097500,7.51809765625,-0.10294091701507568,0.36598384380340576,-0.6381813287734985
1772556531614081500,7.52808154296875,-0.0162038691341877,0.31905245780944824,-0.6728319525718689
1772556531624065500,7.5380654296875,0.08598215132951736,0.25648361444473267,-0.6550726890563965
1772556531634049500,7.548049560546875,0.1931712031364441,0.1713220626115799,-0.5949487090110779
1772556531644033500,7.558033447265625,0.2921941876411438,0.08208008110523224,-0.5011053085327148
1772556531654017500,7.568017578125,0.3852056562900543,0.003172880271449685,-0.4000217318534851
1772556531664001500,7.57800146484375,0.46615031361579895,-0.06351533532142639,-0.29675713181495667
1772556531673985500,7.587985595703125,0.5382745862007141,-0.11109350621700287,-0.2156905084848404
1772556531683969500,7.597969482421875,0.6024370789527893,-0.15056714415550232,-0.1653389185667038
1772556531693953500,7.60795361328125,0.6488319039344788,-0.16617870330810547,-0.12953513860702515
1772556531703937500,7.6179375,0.67735755443573,-0.1628633290529251,-0.10516160726547241
1772556531713921500,7.627921630859375,0.6960297226905823,-0.14295229315757751,-0.08510056138038635
1772556531723905500,7.637905517578125,0.7063164710998535,-0.09913183748722076,-0.06136832758784294
1772556531733889500,7.6478896484375,0.7111113667488098,-0.04210817813873291,-0.039665546268224716
1772556531743873500,7.65787353515625,0.7037456035614014,0.027368102222681046,-0.013263767585158348
1772556531753857500,7.667857421875,0.6844063997268677,0.08490506559610367,0.00973580963909626
1772556531763842600,7.677842529296875,0.6646068692207336,0.12972339987754822,0.030761465430259705
1772556531773826600,7.68782666015625,0.6383714079856873,0.15680694580078125,0.05113648623228073
1772556531783810600,7.697810546875,0.6094334721565247,0.17794685065746307,0.07292860001325607
1772556531793794600,7.707794677734375,0.5856565833091736,0.2060549259185791,0.09516148269176483
1772556531803778600,7.717778564453125,0.568815290927887,0.2390056848526001,0.11326351761817932
1772556531813762600,7.727762451171875,0.5511550307273865,0.2681634724140167,0.14242635667324066
1772556531823746600,7.73774658203125,0.5376775860786438,0.3008926510810852,0.1965513825416565
1772556531833730600,7.74773046875,0.5315991640090942,0.3229159712791443,0.25671905279159546
1772556531843714600,7.757714599609375,0.5274555087089539,0.34146276116371155,0.3296270966529846
1772556531853698600,7.767698486328125,0.5254941582679749,0.36683720350265503,0.3980307877063751
1772556531863682600,7.7776826171875,0.5240118503570557,0.39724546670913696,0.4584480822086334
1772556531873666600,7.78766650390625,0.5188441276550293,0.41240984201431274,0.4925633370876312
1772556531883650600,7.797650634765625,0.5064279437065125,0.42114847898483276,0.49020376801490784
1772556531893634600,7.807634521484375,0.48018375039100647,0.4146590530872345,0.4406420588493347
1772556531903618600,7.81761865234375,0.4381617307662964,0.3930847942829132,0.3438044488430023
1772556531913602600,7.8276025390625,0.3842586576938629,0.35422801971435547,0.21820873022079468
1772556531923586600,7.837586669921875,0.3157464563846588,0.28277888894081116,0.07845083624124527
1772556531933570600,7.847570556640625,0.24650093913078308,0.19336846470832825,-0.056170105934143066
1772556531943554600,7.857554443359375,0.18739847838878632,0.11142166703939438,-0.15484394133090973
1772556531953538600,7.86753857421875,0.15379855036735535,0.05555983632802963,-0.21426253020763397
1772556531963522600,7.8775224609375,0.16496065258979797,0.04886411502957344,-0.21659812331199646
1772556531973506600,7.887506591796875,0.21341708302497864,0.07816394418478012,-0.16142116487026215
1772556531983490600,7.897490478515625,0.27518564462661743,0.0899185985326767,-0.08839327841997147
1772556531993474600,7.907474609375,0.3509378135204315,0.05244644731283188,-0.05883447453379631
1772556532003458600,7.91745849609375,0.42337125539779663,-0.037956420332193375,-0.11545168608427048
1772556532013442600,7.927442626953125,0.46503347158432007,-0.17945444583892822,-0.2924143373966217
1772556532023426600,7.937426513671875,0.4650909900665283,-0.3413940668106079,-0.5653854012489319
1772556532033410600,7.94741064453125,0.43452829122543335,-0.4733239412307739,-0.8614827394485474
1772556532043394600,7.95739453125,0.3877197504043579,-0.5121983289718628,-1.0745086669921875
1772556532053378600,7.967378662109375,0.36655837297439575,-0.44595634937286377,-1.1335008144378662
1772556532063362600,7.977362548828125,0.361424058675766,-0.2725915014743805,-0.9784525632858276
1772556532073346600,7.9873466796875,0.3903430700302124,-0.06247209757566452,-0.6162275075912476
1772556532083327500,7.997327392578125,0.46111178398132324,0.1653757095336914,-0.1042763814330101
1772556532093311500,8.0073115234375,0.5003772974014282,0.4279603064060211,0.4829438328742981
1772556532103295500,8.01729541015625,0.4700058102607727,0.6882252097129822,1.0326786041259766
1772556532113279500,8.027279541015625,0.4112234115600586,0.837363064289093,1.4363737106323242
1772556532123263500,8.037263427734375,0.3545161783695221,0.8438872694969177,1.5980020761489868
1772556532133247500,8.04724755859375,0.29319140315055847,0.8086913228034973,1.5729827880859375
1772556532143232500,8.057232421875,0.20946799218654633,0.780174732208252,1.4279967546463013
1772556532153216500,8.067216552734376,0.12082474678754807,0.7285842299461365,1.2127277851104736
1772556532163200500,8.077200439453126,0.040119774639606476,0.6595178246498108,0.9593839645385742
1772556532173184500,8.0871845703125,-0.01881702058017254,0.5647245049476624,0.676242470741272
1772556532183168800,8.097168701171874,-0.05257205665111542,0.4657323956489563,0.37848347425460815
1772556532193152800,8.10715283203125,-0.0799979642033577,0.38446345925331116,0.08659118413925171
1772556532203136500,8.117136474609374,-0.11292395740747452,0.2998060882091522,-0.16992609202861786
1772556532213120500,8.12712060546875,-0.1439708173274994,0.2310703992843628,-0.3636797070503235
1772556532223104500,8.1371044921875,-0.17094118893146515,0.1837119460105896,-0.4653807580471039
1772556532233088500,8.147088623046875,-0.17278026044368744,0.1384718269109726,-0.4950537383556366
1772556532243072500,8.157072509765625,-0.15195514261722565,0.10412663966417313,-0.45388978719711304
1772556532253056500,8.167056396484375,-0.09456896036863327,0.09265624731779099,-0.3696068525314331
1772556532263040500,8.17704052734375,-0.013899940997362137,0.10871005058288574,-0.27191781997680664
1772556532273026000,8.187026123046875,0.0856674462556839,0.13847468793392181,-0.19017982482910156
1772556532283010000,8.197010009765625,0.2009095996618271,0.16491135954856873,-0.14002372324466705
1772556532292994000,8.206994140625,0.31112250685691833,0.17458286881446838,-0.14512315392494202
1772556532302978000,8.21697802734375,0.4036513864994049,0.16880780458450317,-0.19587475061416626
1772556532312962000,8.226962158203126,0.46873465180397034,0.1465853452682495,-0.28153103590011597
1772556532322946000,8.236946044921876,0.5138904452323914,0.11003798991441727,-0.39739906787872314
1772556532332930000,8.246929931640626,0.5353578925132751,0.05236150696873665,-0.5234058499336243
1772556532342914000,8.2569140625,0.5294499397277832,0.009866778738796711,-0.6463221907615662
1772556532352898000,8.26689794921875,0.5042443871498108,-0.030211491510272026,-0.7484605312347412
1772556532362881800,8.2768818359375,0.4634260833263397,-0.06427492201328278,-0.8273814916610718
1772556532372865800,8.28686572265625,0.41563212871551514,-0.10456644743680954,-0.8831833600997925
1772556532382850000,8.29685009765625,0.3705695569515228,-0.1385800689458847,-0.9251009821891785
1772556532392834000,8.306833984375,0.32548192143440247,-0.15984147787094116,-0.932121217250824
1772556532402818000,8.316818115234375,0.2788774073123932,-0.16857530176639557,-0.9062004089355469
1772556532412802000,8.326802001953125,0.23099124431610107,-0.15834768116474152,-0.8495506644248962
1772556532422786000,8.3367861328125,0.19174157083034515,-0.12990325689315796,-0.7580676078796387
1772556532432770000,8.34677001953125,0.17219577729701996,-0.08508923649787903,-0.6373881697654724
1772556532442754000,8.356754150390625,0.16875018179416656,-0.025567319244146347,-0.4831978380680084
1772556532452738000,8.366738037109375,0.16212475299835205,0.0447889119386673,-0.3244631886482239
1772556532462722000,8.37672216796875,0.13865138590335846,0.10438086837530136,-0.17649130523204803
1772556532472706000,8.3867060546875,0.08677930384874344,0.14986146986484528,-0.048860102891922
1772556532482690000,8.39668994140625,0.014849447645246983,0.18983018398284912,0.036415379494428635
1772556532492674000,8.406674072265625,-0.05291643738746643,0.22765269875526428,0.08960682898759842
1772556532502657800,8.41665771484375,-0.1146000400185585,0.2635374665260315,0.112698033452034
1772556532512643000,8.42664306640625,-0.14360585808753967,0.29144367575645447,0.12569265067577362
1772556532522627000,8.436626953125,-0.158570796251297,0.3154260516166687,0.15765030682086945
1772556532532610800,8.44661083984375,-0.1529691070318222,0.3248240649700165,0.22494946420192719
1772556532542594800,8.4565947265625,-0.1293206512928009,0.3084593415260315,0.3328459560871124
1772556532552580000,8.466580078125,-0.09603859484195709,0.25318464636802673,0.4607834219932556
1772556532562563800,8.476563720703124,-0.055687639862298965,0.18487684428691864,0.5786061882972717
1772556532572547800,8.4865478515625,-0.01647685281932354,0.11449642479419708,0.6668923497200012
1772556532582531800,8.49653173828125,0.026076998561620712,0.0718659907579422,0.7046229839324951
1772556532592515800,8.506515869140625,0.05342632904648781,0.0407610684633255,0.6818186044692993
1772556532602499800,8.516499755859375,0.040226735174655914,0.008873247541487217,0.5847240090370178
1772556532612484000,8.526484130859375,-0.008209239691495895,-0.015517046675086021,0.4314420521259308
1772556532622468000,8.536468017578125,-0.06085435301065445,-0.03567872941493988,0.2814127206802368
1772556532632452000,8.5464521484375,-0.10577016323804855,-0.08158763498067856,0.14634838700294495
1772556532642436000,8.55643603515625,-0.14709404110908508,-0.1667751669883728,0.020770370960235596
1772556532652420000,8.566420166015625,-0.19203567504882812,-0.2523824870586395,-0.07846939563751221
1772556532662404000,8.576404052734375,-0.22248472273349762,-0.3330667018890381,-0.14270590245723724
1772556532672388000,8.58638818359375,-0.20537205040454865,-0.4035871922969818,-0.17789451777935028
1772556532682372000,8.5963720703125,-0.14048755168914795,-0.45872145891189575,-0.17771290242671967
1772556532692356000,8.606356201171875,-0.05160375311970711,-0.4741877615451813,-0.1449943631887436
1772556532702340000,8.616340087890626,0.04352227598428726,-0.466497540473938,-0.07811706513166428
1772556532712323800,8.62632373046875,0.1206655278801918,-0.45561638474464417,0.03518659621477127
1772556532722307800,8.636307861328126,0.15620969235897064,-0.44402486085891724,0.182956725358963
1772556532732291800,8.646291748046876,0.13656407594680786,-0.43437808752059937,0.33664563298225403
1772556532742275800,8.65627587890625,0.08682796359062195,-0.4159083366394043,0.4761391878128052
1772556532752260000,8.666260009765624,0.01565605029463768,-0.3973471522331238,0.5611459612846375
1772556532762244000,8.676244140625,-0.06803324818611145,-0.3467918336391449,0.5926322340965271
1772556532772228000,8.68622802734375,-0.15874211490154266,-0.2703287601470947,0.5772109627723694
1772556532782212000,8.696212158203124,-0.23903274536132812,-0.19071964919567108,0.5256585478782654
1772556532792196000,8.706196044921874,-0.2968515455722809,-0.11785237491130829,0.46015653014183044
1772556532802180000,8.71618017578125,-0.33477190136909485,-0.04987339302897453,0.38980355858802795
1772556532812164000,8.7261640625,-0.34577155113220215,0.019981322810053825,0.31690216064453125
1772556532822148000,8.736148193359375,-0.32388585805892944,0.10108458995819092,0.23107220232486725
1772556532832132000,8.746132080078125,-0.2677547037601471,0.17222800850868225,0.13056211173534393
1772556532842116000,8.7561162109375,-0.18125443160533905,0.21457311511039734,0.0205214973539114
1772556532852099800,8.766099853515625,-0.08956366777420044,0.21899555623531342,-0.07149098068475723
1772556532862083800,8.776083740234375,-0.003381304210051894,0.220295712351799,-0.12484128773212433
1772556532872067800,8.78606787109375,0.06585715711116791,0.21346843242645264,-0.13967189192771912
1772556532882051800,8.7960517578125,0.11588714271783829,0.1892765760421753,-0.12334846705198288
1772556532892035800,8.806035888671875,0.15298762917518616,0.139946848154068,-0.08691056072711945
1772556532902020000,8.81602001953125,0.17087393999099731,0.07965052127838135,-0.04275761544704437
1772556532912004000,8.826004150390625,0.1588311344385147,0.000598316197283566,0.0006431243382394314
1772556532921988000,8.835988037109376,0.13962805271148682,-0.054394014179706573,0.037351593375205994
1772556532931972000,8.84597216796875,0.10517340153455734,-0.0809159055352211,0.06296347826719284
1772556532941956000,8.8559560546875,0.0699218288064003,-0.09420324862003326,0.0722186490893364
1772556532951940000,8.865940185546876,0.04296797513961792,-0.10213254392147064,0.06958584487438202
1772556532961924000,8.875924072265626,0.01643117517232895,-0.0991351529955864,0.044107381254434586
1772556532971908000,8.885908203125,-0.0032023279927670956,-0.07937625795602798,-0.000004148110747337341
1772556532981892000,8.89589208984375,-0.011890033259987831,-0.04508721083402634,-0.06658757477998734
1772556532991876000,8.9058759765625,-0.015365991741418839,-0.012523140758275986,-0.14779667556285858
1772556533001859800,8.91585986328125,-0.010782638564705849,0.007750415708869696,-0.22177448868751526
1772556533011843800,8.92584375,0.0007342009339481592,0.006844141986221075,-0.27169331908226013
1772556533021827800,8.935827880859375,0.020396005362272263,0.0031347968615591526,-0.28697213530540466
1772556533031811800,8.945811767578125,0.043323155492544174,-0.00041466415859758854,-0.27872541546821594
1772556533041796000,8.955796142578125,0.06742134690284729,0.011675648391246796,-0.2478037029504776
1772556533051780000,8.965780029296875,0.0935397669672966,0.046926047652959824,-0.20329295098781586
1772556533061764900,8.975764892578125,0.11743935197591782,0.07926628738641739,-0.1563202440738678
1772556533071748900,8.985748779296875,0.13853637874126434,0.11654414981603622,-0.09319108724594116
1772556533081732900,8.99573291015625,0.15020634233951569,0.16192780435085297,-0.020247794687747955
1772556533091717000,9.005717041015625,0.1586323231458664,0.20969346165657043,0.06327585875988007
1772556533101701000,9.015701171875,0.1592300534248352,0.24924801290035248,0.13823267817497253
1772556533111685000,9.02568505859375,0.15621642768383026,0.26570820808410645,0.2009700983762741
1772556533121669000,9.035669189453126,0.14830633997917175,0.2768908143043518,0.2407263070344925
1772556533131653000,9.045653076171876,0.13194628059864044,0.26976287364959717,0.2530980110168457
1772556533141637000,9.05563720703125,0.10361175239086151,0.24055004119873047,0.24316975474357605
1772556533151621000,9.06562109375,0.06355807185173035,0.2045305222272873,0.1981458216905594
1772556533161605000,9.075605224609374,0.014426200650632381,0.13629744946956635,0.12103359401226044
1772556533171588900,9.0855888671875,-0.04412472993135452,0.06812717765569687,0.029983045533299446
1772556533181572900,9.09557275390625,-0.11155150085687637,-0.006735661067068577,-0.056765563786029816
1772556533191556900,9.105556884765624,-0.16353346407413483,-0.07870679348707199,-0.10011570155620575
1772556533201540900,9.115540771484374,-0.19917042553424835,-0.11894965916872025,-0.09308230131864548
1772556533211524900,9.12552490234375,-0.20741717517375946,-0.11233622580766678,-0.03140882030129433
1772556533221508900,9.1355087890625,-0.1924051195383072,-0.10858272016048431,0.035205233842134476
1772556533231493000,9.1454931640625,-0.15377090871334076,-0.12976603209972382,0.05165611207485199
1772556533241477000,9.15547705078125,-0.1084391251206398,-0.1695810854434967,-0.006112644914537668
1772556533251461000,9.165461181640625,-0.0534839928150177,-0.2628103792667389,-0.1463475227355957
1772556533261445000,9.175445068359375,-0.015392414294183254,-0.39412835240364075,-0.3703523874282837
1772556533271431400,9.185431396484375,-0.004335769452154636,-0.5357994437217712,-0.6416752338409424
1772556533281415400,9.19541552734375,-0.008267844095826149,-0.6660805344581604,-0.8962189555168152
1772556533291399400,9.2053994140625,-0.021409744396805763,-0.754949152469635,-1.0513023138046265
1772556533301383400,9.215383544921876,-0.03141570836305618,-0.7670580744743347,-1.0697767734527588
1772556533311367200,9.2253671875,-0.039617180824279785,-0.7083031535148621,-0.9111014008522034
1772556533321351200,9.23535107421875,-0.04445073381066322,-0.5723288059234619,-0.5953632593154907
1772556533331335400,9.24533544921875,0.019668063148856163,-0.3414093255996704,-0.16114895045757294
1772556533341319400,9.2553193359375,0.1040242612361908,-0.0755453035235405,0.3215104937553406
1772556533351303400,9.265303466796874,0.16764505207538605,0.1898309737443924,0.782112717628479
1772556533361287400,9.275287353515624,0.19881035387516022,0.447318971157074,1.167577862739563
1772556533371271400,9.285271484375,0.20688612759113312,0.5750292539596558,1.377989411354065
1772556533381255400,9.29525537109375,0.21524442732334137,0.5537289381027222,1.375797152519226
1772556533391239400,9.305239501953125,0.20223115384578705,0.5165432095527649,1.2647165060043335
1772556533401223400,9.315223388671875,0.1505132019519806,0.4674500823020935,1.0790112018585205
1772556533411207400,9.32520751953125,0.07725229859352112,0.3886372745037079,0.8763303160667419
1772556533421191400,9.33519140625,0.005521304905414581,0.2901850640773773,0.6658379435539246
1772556533431175400,9.345175537109375,-0.059266746044158936,0.1805027574300766,0.44739532470703125
1772556533441159400,9.355159423828125,-0.11178964376449585,0.05923398584127426,0.23762226104736328
1772556533451143200,9.36514306640625,-0.1668664664030075,-0.05581004545092583,0.036457452923059464
1772556533461127200,9.375127197265625,-0.21386325359344482,-0.15012705326080322,-0.13910292088985443
1772556533471111400,9.385111328125,-0.2470763474702835,-0.21759770810604095,-0.2770908772945404
1772556533481095400,9.395095458984375,-0.26311302185058594,-0.2586977779865265,-0.3673090636730194
1772556533491079400,9.405079345703125,-0.25388994812965393,-0.25898033380508423,-0.41393592953681946
1772556533501063400,9.4150634765625,-0.22657504677772522,-0.22751295566558838,-0.4243465065956116
1772556533511047400,9.42504736328125,-0.17219915986061096,-0.1655033826828003,-0.3956429362297058
1772556533521031400,9.435031494140626,-0.09067443013191223,-0.08018328994512558,-0.34332528710365295
1772556533531015400,9.445015380859376,0.01662432588636875,0.007890642620623112,-0.28920480608940125
1772556533540999400,9.45499951171875,0.12591560184955597,0.09301146119832993,-0.2496732473373413
1772556533550983400,9.4649833984375,0.22097553312778473,0.1518678516149521,-0.21684685349464417
1772556533560967400,9.474967529296874,0.29247352480888367,0.17925986647605896,-0.19742520153522491
1772556533570951400,9.484951416015624,0.34551969170570374,0.17502491176128387,-0.18942560255527496
1772556533580935400,9.494935302734374,0.38847988843917847,0.14928092062473297,-0.2038089632987976
1772556533590919400,9.50491943359375,0.4049776494503021,0.109393410384655,-0.22995507717132568
1772556533600903200,9.514903076171874,0.39256757497787476,0.06534876674413681,-0.2570997476577759
1772556533610887200,9.52488720703125,0.36737194657325745,0.0085139824077487,-0.2915882170200348
1772556533620871400,9.534871337890625,0.3317990303039551,-0.05651796981692314,-0.31971290707588196
1772556533630855400,9.54485546875,0.28394123911857605,-0.1193683072924614,-0.33007314801216125
1772556533640839400,9.55483935546875,0.23135687410831451,-0.18509235978126526,-0.310892790555954
1772556533650823400,9.564823486328125,0.1834106594324112,-0.23693238198757172,-0.26116862893104553
1772556533660807400,9.574807373046875,0.15317782759666443,-0.27642831206321716,-0.19132111966609955
1772556533670791400,9.58479150390625,0.131056010723114,-0.30777692794799805,-0.11182442307472229
1772556533680775400,9.594775390625,0.11501552164554596,-0.3234756886959076,-0.028075069189071655
1772556533690759400,9.604759521484375,0.09191100299358368,-0.32051610946655273,0.06306709349155426
1772556533700743400,9.614743408203125,0.06272394955158234,-0.32607734203338623,0.16869258880615234
1772556533710728400,9.624728515625,0.0312041025608778,-0.3106107711791992,0.2713489234447479
1772556533720712400,9.63471240234375,-0.015152210369706154,-0.2996326982975006,0.3727192282676697
1772556533730696400,9.644696533203126,-0.08244096487760544,-0.30003032088279724,0.44820547103881836
1772556533740680400,9.654680419921876,-0.16902177035808563,-0.3031466007232666,0.4871103763580322
1772556533750664400,9.66466455078125,-0.25213423371315,-0.31625282764434814,0.48192307353019714
1772556533760648400,9.6746484375,-0.3264632225036621,-0.3019248843193054,0.44629809260368347
1772556533770632200,9.684632080078124,-0.38835349678993225,-0.28378742933273315,0.3990613520145416
1772556533780616200,9.6946162109375,-0.4356482923030853,-0.25214990973472595,0.3438778519630432
1772556533790600200,9.70460009765625,-0.46813860535621643,-0.21317000687122345,0.295626163482666
1772556533800584200,9.714584228515625,-0.46437862515449524,-0.1791227161884308,0.2567861080169678
1772556533810568400,9.724568359375,-0.4282453954219818,-0.159006267786026,0.22751235961914062
1772556533820552400,9.734552490234375,-0.3704751133918762,-0.15497903525829315,0.2066551297903061
1772556533830536400,9.744536376953125,-0.30234241485595703,-0.16250327229499817,0.19488582015037537
1772556533840520400,9.7545205078125,-0.24301359057426453,-0.15467101335525513,0.2092667818069458
1772556533850504400,9.76450439453125,-0.21911756694316864,-0.15760661661624908,0.2360033243894577
1772556533860488400,9.774488525390625,-0.23999175429344177,-0.21767346560955048,0.2584152817726135
1772556533870472400,9.784472412109375,-0.274714857339859,-0.24489256739616394,0.20567670464515686
1772556533880456400,9.79445654296875,-0.3254031836986542,-0.23875126242637634,0.10727596282958984
1772556533890440400,9.8044404296875,-0.3911385238170624,-0.23755815625190735,-0.02782272920012474
1772556533900424400,9.814424560546875,-0.45036181807518005,-0.29359129071235657,-0.19247093796730042
1772556533910408400,9.824408447265625,-0.4880455434322357,-0.3790798485279083,-0.3621017634868622
1772556533920392200,9.83439208984375,-0.49129194021224976,-0.40159857273101807,-0.489767462015152
1772556533930376200,9.844376220703126,-0.44420671463012695,-0.3662312626838684,-0.5188116431236267
1772556533940360200,9.854360107421876,-0.3398219048976898,-0.33725252747535706,-0.44352275133132935
1772556533950344400,9.864344482421876,-0.1827489137649536,-0.35712718963623047,-0.26917997002601624
1772556533960328400,9.874328369140626,-0.023563165217638016,-0.4063326120376587,-0.029236070811748505
1772556533970312400,9.8843125,0.06920085847377777,-0.4570980668067932,0.24205374717712402
1772556533980296400,9.89429638671875,0.09353090822696686,-0.47854164242744446,0.5027888417243958
1772556533990280400,9.904280517578124,0.06772514432668686,-0.4818223714828491,0.7070074677467346
1772556534000264400,9.914264404296874,0.004564053378999233,-0.46227702498435974,0.8341077566146851
1772556534010248400,9.92424853515625,-0.09137871861457825,-0.4035455286502838,0.874605119228363
1772556534020232400,9.934232421875,-0.20921136438846588,-0.32057252526283264,0.8465756177902222
1772556534030216400,9.944216552734375,-0.3218143582344055,-0.2215743213891983,0.7565490007400513
1772556534040200400,9.954200439453125,-0.41615983843803406,-0.12143216282129288,0.6324520707130432
1772556534050184400,9.964184326171875,-0.4792085886001587,-0.01951565220952034,0.48024341464042664
1772556534060168200,9.974168212890625,-0.5098382234573364,0.09201645851135254,0.3231299817562103
1772556534070152200,9.984152099609375,-0.5029821991920471,0.207328662276268,0.16408678889274597
1772556534080136200,9.99413623046875,-0.4542926251888275,0.30147233605384827,0.01857605203986168
1772556534090120200,10.0041201171875,-0.37114447355270386,0.374860554933548,-0.11491569131612778
1772556534100104400,10.0141044921875,-0.2633695602416992,0.4245437681674957,-0.23237840831279755
1772556534110088400,10.02408837890625,-0.16101256012916565,0.44598832726478577,-0.33482515811920166
1772556534120072400,10.034072509765625,-0.058275409042835236,0.41546615958213806,-0.39463692903518677
1772556534130056400,10.044056396484375,0.02243940904736519,0.341991662979126,-0.4149169325828552
1772556534140040400,10.05404052734375,0.09329421818256378,0.24167515337467194,-0.3754364848136902
1772556534150024400,10.0640244140625,0.14880329370498657,0.12731342017650604,-0.3146975040435791
1772556534160008400,10.074008544921876,0.18318551778793335,0.02917477861046791,-0.22640228271484375
1772556534169992400,10.083992431640626,0.19428317248821259,-0.045235805213451385,-0.13224728405475616
1772556534179976400,10.0939765625,0.18410468101501465,-0.09877953678369522,-0.06037842109799385
1772556534189960400,10.10396044921875,0.16625137627124786,-0.1303851306438446,-0.019503958523273468
1772556534199944400,10.1139443359375,0.1350172758102417,-0.13952380418777466,-0.013357104733586311
1772556534209928200,10.12392822265625,0.10833532363176346,-0.1232881098985672,-0.038960203528404236
1772556534219912200,10.133912109375,0.07755593955516815,-0.08271732181310654,-0.09529511630535126
1772556534229896200,10.143896240234374,0.04704676568508148,-0.05622046813368797,-0.16326218843460083
1772556534239880400,10.15388037109375,0.020258605480194092,-0.04885780066251755,-0.22863879799842834
1772556534249864400,10.163864501953125,0.004514796659350395,-0.04133090749382973,-0.27840501070022583
1772556534259848400,10.173848388671875,-0.0022821230813860893,-0.01979232393205166,-0.2916678190231323
1772556534269829000,10.1838291015625,0.009955368936061859,0.004540977068245411,-0.2754925787448883
1772556534279813000,10.193813232421874,0.03342445194721222,0.031594518572092056,-0.2320537567138672
1772556534289797000,10.203797119140624,0.055301252752542496,0.05587748438119888,-0.17420963943004608
1772556534299781000,10.213781005859374,0.07483084499835968,0.07096021622419357,-0.10458715260028839
1772556534309765000,10.22376513671875,0.0968858152627945,0.08925427496433258,-0.02858666144311428
1772556534319749000,10.2337490234375,0.11878953874111176,0.10357746481895447,0.04907563701272011
1772556534329732900,10.24373291015625,0.14445734024047852,0.1124923974275589,0.12251417338848114
1772556534339716900,10.253716796875,0.15091632306575775,0.1241130605340004,0.18078851699829102
1772556534349700900,10.263700927734375,0.14444510638713837,0.14646071195602417,0.23448343575000763
1772556534359684900,10.273684814453125,0.13872382044792175,0.16627094149589539,0.2812654674053192
1772556534369668900,10.2836689453125,0.14751864969730377,0.18052124977111816,0.3207990229129791
1772556534379652900,10.29365283203125,0.15999074280261993,0.19237947463989258,0.36250627040863037
1772556534389637000,10.30363720703125,0.1767881065607071,0.18478867411613464,0.38705262541770935
1772556534399621000,10.31362109375,0.18834707140922546,0.14794613420963287,0.3658183217048645
1772556534409605000,10.323605224609375,0.17970912158489227,0.07551667094230652,0.3011074960231781
1772556534419589000,10.333589111328125,0.144272580742836,-0.0068184975534677505,0.20261365175247192
1772556534429573000,10.343572998046875,0.09514551609754562,-0.08143441379070282,0.10740324854850769
1772556534439557000,10.35355712890625,0.05791960656642914,-0.141078382730484,0.04306634142994881
1772556534449541000,10.363541015625,0.038523003458976746,-0.14984257519245148,0.04871996492147446
1772556534459525000,10.373525146484376,0.03922084718942642,-0.10534024983644485,0.1351758986711502
1772556534469509000,10.383509033203126,0.042723171412944794,-0.052020568400621414,0.28541892766952515
1772556534479492900,10.393492919921876,0.06454851478338242,0.017904477193951607,0.44533002376556396
1772556534489476900,10.403476806640626,0.10299097746610641,0.07491210103034973,0.5171863436698914
1772556534499460900,10.4134609375,0.15349234640598297,0.037221744656562805,0.4603709280490875
1772556534509444900,10.42344482421875,0.18383879959583282,-0.05152357369661331,0.28354182839393616
1772556534519428900,10.433428955078124,0.20324596762657166,-0.1541113257408142,0.017982684075832367
1772556534529412900,10.443412841796874,0.21213799715042114,-0.26665571331977844,-0.2814948260784149
1772556534539397000,10.453397216796875,0.21756203472614288,-0.3493519127368927,-0.5199170708656311
1772556534549381000,10.463381103515625,0.21958576142787933,-0.4093816876411438,-0.6213752627372742
1772556534559365000,10.473365234375,0.2234000712633133,-0.4353336691856384,-0.576475203037262
1772556534569349000,10.48334912109375,0.24432826042175293,-0.3831554353237152,-0.3746531307697296
1772556534579333000,10.4933330078125,0.2615090608596802,-0.2703479528427124,-0.05717063322663307
1772556534589317000,10.503317138671875,0.2511421740055084,-0.10332299023866653,0.29328882694244385
1772556534599301000,10.513301025390625,0.21190115809440613,0.11445333808660507,0.6461652517318726
1772556534609285000,10.52328515625,0.1730237901210785,0.32568594813346863,0.9176457524299622
1772556534619268900,10.533268798828125,0.13548986613750458,0.48204198479652405,1.0576447248458862
1772556534629254100,10.543254150390625,0.09962880611419678,0.5428318381309509,1.0380995273590088
1772556534639236900,10.55323681640625,0.0649658590555191,0.5286427140235901,0.908541202545166
1772556534649222000,10.563221923828126,0.024042656645178795,0.48021283745765686,0.7124316096305847
1772556534659206000,10.573205810546876,-0.00628751702606678,0.40534910559654236,0.49343737959861755
1772556534669190000,10.58318994140625,-0.02572885900735855,0.3222387731075287,0.27099019289016724
1772556534679174000,10.593173828125,-0.023936139419674873,0.2387392669916153,0.054859235882759094
1772556534689158000,10.603157958984376,-0.006464202888309956,0.15970969200134277,-0.15739336609840393
1772556534699142000,10.613141845703124,0.006987380795180798,0.11756168305873871,-0.35468047857284546
1772556534709126000,10.6231259765625,0.009637758135795593,0.10505574196577072,-0.5167170763015747
1772556534719110000,10.63310986328125,0.014027353376150131,0.11389592289924622,-0.6277703642845154
1772556534729094100,10.64309423828125,0.014515511691570282,0.12859471142292023,-0.6674983501434326
1772556534739078100,10.653078125,0.01656930521130562,0.1506521999835968,-0.6289086937904358
1772556534749062100,10.663062255859375,0.034781333059072495,0.19016392529010773,-0.5109224319458008
1772556534759046100,10.673046142578125,0.07375460863113403,0.23788386583328247,-0.3550774157047272
1772556534769030100,10.683030029296875,0.12871053814888,0.27366024255752563,-0.18563780188560486
1772556534779014100,10.69301416015625,0.17721886932849884,0.289314329624176,-0.040914297103881836
1772556534788998000,10.702997802734375,0.20724786818027496,0.2780480980873108,0.05528707057237625
1772556534798982000,10.71298193359375,0.22801651060581207,0.26160186529159546,0.09358319640159607
1772556534808966000,10.7229658203125,0.23988807201385498,0.2410750389099121,0.07855711132287979
1772556534818950000,10.732949951171875,0.23846985399723053,0.22387942671775818,0.028879959136247635
1772556534828934000,10.742933837890625,0.22191192209720612,0.19809043407440186,-0.031669940799474716
1772556534838918000,10.75291796875,0.1972365826368332,0.1487434357404709,-0.08895466476678848
1772556534848902000,10.76290185546875,0.1704411804676056,0.1127161830663681,-0.1326446235179901
1772556534858886000,10.772885986328125,0.14580979943275452,0.09132258594036102,-0.1654241532087326
1772556534868870100,10.7828701171875,0.11028987914323807,0.09280143678188324,-0.1913207322359085
1772556534878854100,10.792854248046876,0.08352690935134888,0.08784075826406479,-0.2018391489982605
1772556534888838100,10.802838134765626,0.06450634449720383,0.07193689793348312,-0.19787663221359253
1772556534898822100,10.812822265625,0.04281265288591385,0.04883626848459244,-0.18561169505119324
1772556534908806100,10.82280615234375,0.028743436560034752,0.014538750052452087,-0.16346324980258942
1772556534918790100,10.8327900390625,0.022610673680901527,-0.007211882155388594,-0.13408620655536652
1772556534928774100,10.842774169921874,0.02196911908686161,0.005916436668485403,-0.08305178582668304
1772556534938758000,10.8527578125,0.018843311816453934,0.04671494662761688,-0.018017785623669624
1772556534948742000,10.862741943359374,0.01586616225540638,0.10447598248720169,0.04742620140314102
1772556534958726000,10.872725830078124,0.01127974595874548,0.1644289642572403,0.1237659901380539
1772556534968710000,10.8827099609375,0.0036796173080801964,0.23618170619010925,0.20241260528564453
1772556534978694000,10.89269384765625,-0.021793320775032043,0.2923339903354645,0.27869391441345215
1772556534988678000,10.902677978515625,-0.11222495138645172,0.29832741618156433,0.37711581587791443
1772556534998662000,10.912661865234375,-0.20771658420562744,0.11439914256334305,0.28598350286483765
1772556535008646000,10.92264599609375,-0.3090410828590393,-0.061620891094207764,0.13663583993911743
1772556535018630100,10.932630126953125,-0.4117836058139801,-0.18765108287334442,-0.02370990812778473
1772556535028614100,10.9426142578125,-0.49335357546806335,-0.2116032838821411,-0.1475823074579239
1772556535038598100,10.95259814453125,-0.5439473986625671,-0.1982593834400177,-0.17554828524589539
1772556535048582100,10.96258203125,-0.5462220311164856,-0.14981435239315033,-0.12502838671207428
1772556535058566100,10.972566162109375,-0.5230437517166138,-0.08704210072755814,-0.0567791573703289
1772556535068550100,10.982550048828125,-0.47530999779701233,-0.008234371431171894,0.0015738988295197487
